timestamp,ax,ay,az,gx,gy,gz,Label1,Label2,Label3
1.27E+00,-8111,1056,-216,462,-529,204,1,7,11
1.52E+00,-8096,1144,-231,509,-240,151,1,7,11
1.77E+00,-8102,965,-237,500,-204,319,1,7,11
2.02E+00,-8124,1289,-236,451,-183,-48,1,7,11
2.27E+00,-8137,1326,-233,618,-176,90,1,7,11
2.52E+00,-8152,1346,-218,512,-175,-279,1,7,11
2.77E+00,-8166,1344,-195,136,-193,-372,1,7,11
3.02E+00,-8186,1327,-168,263,-216,-186,1,7,11
3.27E+00,-8453,1300,-384,-123,-514,-227,1,7,11
3.52E+00,-8183,969,-350,7,-565,-514,1,7,11
3.77E+00,-8168,910,-326,-330,-607,-556,1,7,11
4.02E+00,-8150,1121,-304,-371,-390,-603,1,7,11
4.27E+00,-8130,1080,-289,-144,-406,-391,1,7,11
4.52E+00,-8128,1053,-276,-166,-399,-424,1,7,11
4.77E+00,-8118,1043,-265,-194,-391,-437,1,7,11
5.02E+00,-8099,760,7,-253,-622,-437,1,7,11
5.27E+00,-8095,709,34,-585,-605,-433,1,7,11
5.52E+00,-8083,643,49,-411,-602,-431,1,7,11
5.77E+00,-8104,846,88,-486,-594,-421,1,7,11
6.02E+00,-8121,776,125,-805,-589,-639,1,7,11
6.27E+00,-8136,461,-113,-827,-572,-578,1,7,11
6.52E+00,-8174,412,-100,-828,-253,-252,1,7,11
6.77E+00,-8475,388,-98,-797,-168,-142,1,7,11
7.02E+00,-8480,637,-106,-496,-343,15,1,7,11
7.27E+00,-8457,622,-121,-443,9,-73,1,7,11
7.52E+00,-8481,613,120,-639,125,335,1,7,11
7.77E+00,-8526,620,114,-548,-46,195,1,7,11
8.02E+00,-8545,417,70,-159,-19,515,1,7,11
8.27E+00,-8560,508,19,-330,-8,533,1,7,11
8.52E+00,-8337,857,-301,-295,-30,528,1,7,11
8.77E+00,-8329,661,-352,-293,-95,253,1,7,11
9.02E+00,-8555,684,-384,-295,103,193,1,7,11
9.27E+00,-8544,707,-146,19,57,331,1,7,11
9.52E+00,-8539,751,-175,121,9,-59,1,7,11
9.77E+00,-8532,1058,-170,-71,-298,97,1,7,11
1.00E+01,-8538,1064,-131,-100,-367,68,1,7,11
1.03E+01,-8532,765,-318,95,-213,91,1,7,11
1.05E+01,-8527,705,32,53,-585,112,1,7,11
1.08E+01,-8497,858,113,74,-460,111,1,7,11
1.10E+01,-8149,809,-80,-105,-890,84,1,7,11
1.13E+01,-8069,795,-30,305,-679,99,1,7,11
1.15E+01,-8266,810,278,128,-649,-114,1,7,11
1.18E+01,-8232,818,334,184,-824,-35,1,7,11
1.20E+01,-8226,813,142,254,-457,298,1,7,11
1.23E+01,-8274,834,210,622,-583,363,1,7,11
1.25E+01,-8065,888,242,506,-220,181,1,7,11
1.28E+01,-8073,721,239,647,-381,249,1,7,11
1.30E+01,-8315,1090,231,767,-271,543,1,7,11
1.33E+01,-8065,937,207,1107,109,545,1,7,11
1.35E+01,-8083,1021,180,914,-32,255,1,7,11
1.38E+01,-8084,1354,366,943,322,196,1,7,11
1.40E+01,-8090,1395,354,934,172,362,1,7,11
1.43E+01,-8094,1183,315,914,515,-8,1,7,11
1.45E+01,-8107,1205,283,1105,590,-125,1,7,11
1.48E+01,-8136,1223,-16,740,389,35,1,7,11
1.50E+01,-8162,1215,-49,856,420,-281,1,7,11
1.53E+01,-8179,1209,-79,471,430,-326,1,7,11
1.55E+01,-8457,1175,-97,570,423,-360,1,7,11
1.58E+01,-8475,1405,-102,182,386,-377,1,7,11
1.60E+01,-8468,1377,126,326,575,-364,1,7,11
1.63E+01,-8461,1336,97,-48,523,-341,1,7,11
1.65E+01,-8472,1295,71,112,213,-308,1,7,11
1.68E+01,-8468,992,68,31,151,-265,1,7,11
1.70E+01,-8459,947,53,-277,340,24,1,7,11
1.73E+01,-8187,930,17,-305,272,47,1,7,11
1.75E+01,-8455,927,1,-323,-32,58,1,7,11
1.78E+01,-8484,930,-257,-331,-83,73,1,7,11
1.80E+01,-8490,916,5,-326,102,95,1,7,11
1.83E+01,-8509,910,24,-327,23,113,1,7,11
1.85E+01,-8519,1143,66,-329,-317,-120,1,7,11
1.88E+01,-8556,1134,123,-298,-129,-90,1,7,11
1.90E+01,-8327,1149,-85,24,-202,-33,1,7,11
1.93E+01,-8565,915,-49,111,-520,303,1,7,11
1.95E+01,-8531,945,-32,-49,-556,383,1,7,11
1.98E+01,-8460,968,-35,300,-568,191,1,7,11
2.00E+01,-8161,987,-34,375,-532,206,1,7,11
2.03E+01,-8134,1018,-31,193,-236,177,1,7,11
2.05E+01,-8108,1304,-38,229,-192,375,1,7,11
2.08E+01,-8109,1344,-48,241,-148,311,1,7,11
2.10E+01,-8113,1355,-55,226,-365,-2,1,7,11
2.13E+01,-8127,1339,-45,193,-323,-63,1,7,11
2.15E+01,-8140,1317,-38,174,-305,-127,1,7,11
2.18E+01,-8165,1282,-17,165,-293,56,1,7,11
2.20E+01,-8171,1013,-9,182,-296,-277,1,7,11
2.23E+01,-8155,994,-4,178,-298,-320,1,7,11
2.25E+01,-8158,988,263,161,-280,-344,1,7,11
2.28E+01,-8167,974,269,380,3,-336,1,7,11
2.30E+01,-8172,953,270,336,21,-310,1,7,11
2.33E+01,-8165,955,268,286,45,-267,1,7,11
2.35E+01,-8160,952,260,-56,88,46,1,7,11
2.38E+01,-8167,952,262,97,-116,115,1,7,11
2.40E+01,-8182,955,267,4,-74,-75,1,7,11
2.43E+01,-8191,963,268,-341,-55,-6,1,7,11
2.45E+01,-8183,976,260,-165,-40,318,1,7,11
2.48E+01,-8157,993,-1,-519,-24,143,1,7,11
2.50E+01,-8154,979,261,-627,269,231,1,7,11
2.53E+01,-8158,995,-7,-635,283,514,1,7,11
2.55E+01,-8136,1015,-24,-630,272,225,1,7,11
2.58E+01,-8131,999,-23,-633,288,189,1,7,11
2.60E+01,-8129,1003,-31,-608,297,145,1,7,11
2.63E+01,-8121,1001,-32,-579,303,352,1,7,11
2.65E+01,-8137,979,-30,-559,321,312,1,7,11
2.68E+01,-8142,992,-35,-243,329,289,1,7,11
2.70E+01,-8158,1006,-45,-167,335,260,1,7,11
2.73E+01,-8171,1283,-59,-372,330,265,1,7,11
2.75E+01,-8163,1286,-76,-325,318,263,1,7,11
2.78E+01,-8160,1306,-86,-268,314,-21,1,7,11
2.80E+01,-8179,1317,-102,33,313,-44,1,7,11
2.83E+01,-8168,1329,-112,81,298,-65,1,7,11
2.85E+01,-8132,1344,-122,91,285,-79,1,7,11
2.88E+01,-8111,1345,126,82,298,-84,1,7,11
2.90E+01,-8144,1377,-119,67,319,-95,1,7,11
2.93E+01,-8186,1396,-127,0,318,-46,1,7,11
2.95E+01,-8172,1405,114,-291,318,282,1,7,11
2.98E+01,-8161,1211,90,-317,342,336,1,7,11
3.00E+01,-8136,1231,82,-141,375,175,1,7,11
3.03E+01,-8103,1207,74,-211,176,521,1,7,11
3.05E+01,-8102,1179,82,-245,238,551,1,7,11
3.08E+01,-8072,1385,93,-225,240,236,1,7,11
3.10E+01,-8071,1393,86,-166,251,146,1,7,11
3.13E+01,-8087,1166,69,-383,514,339,1,7,11
3.15E+01,-8104,1181,49,-347,248,306,1,7,11
3.18E+01,-8126,1210,42,-324,221,279,1,7,11
3.20E+01,-8145,1231,32,-300,190,292,1,7,11
3.23E+01,-8151,1276,12,-266,135,311,1,7,11
3.25E+01,-8127,1278,-278,-259,341,332,1,7,11
3.28E+01,-8134,1557,-288,3,306,324,1,7,11
3.30E+01,-8143,1571,-293,-259,262,322,1,7,11
3.33E+01,-8136,1597,-315,15,-53,310,1,7,11
3.35E+01,-8126,1600,-322,16,-98,283,1,7,11
3.38E+01,-8119,1613,-340,25,122,-11,1,7,11
3.40E+01,-8115,1630,-352,28,101,-42,1,7,11
3.43E+01,-8104,1627,-356,48,98,-72,1,7,11
3.45E+01,-8107,1610,-344,89,106,-116,1,7,11
3.48E+01,-8108,1590,-342,-108,98,88,1,7,11
3.50E+01,-8096,1571,-333,-39,88,23,1,7,11
3.53E+01,-8095,1557,-324,291,87,-300,1,7,11
3.55E+01,-8098,1556,-324,343,64,-351,1,7,11
3.58E+01,-8077,1561,-320,376,39,-134,1,7,11
3.60E+01,-8078,1273,-291,351,41,-148,1,7,11
3.63E+01,-8076,1265,-283,344,45,-139,1,7,11
3.65E+01,-8077,1254,-281,323,44,-129,1,7,11
3.68E+01,-8071,1268,-280,309,46,-364,1,7,11
3.70E+01,-8072,1273,-283,268,57,-331,1,7,11
3.73E+01,-8108,1274,-273,-44,79,-286,1,7,11
3.75E+01,-8119,1267,-268,-88,77,18,1,7,11
3.78E+01,-8139,1252,-265,-115,52,59,1,7,11
3.80E+01,-8144,1268,-263,-118,23,107,1,7,11
3.83E+01,-8166,1558,2,119,-264,-85,1,7,11
3.85E+01,-8114,1612,-271,57,-300,263,1,7,11
3.88E+01,-8089,1623,-278,-362,-269,382,1,7,11
3.90E+01,-8106,1613,-262,-542,41,540,1,7,11
3.93E+01,-8142,1601,1,-415,82,420,1,7,11
3.95E+01,-8178,1588,6,-466,65,470,1,7,11
3.98E+01,-8127,1618,-272,-432,9,452,1,7,11
4.00E+01,-8087,1598,-264,-639,4,620,1,7,11
4.03E+01,-8076,1536,15,-558,12,202,1,7,11
4.05E+01,-8298,1652,11,-129,-272,271,1,7,11
4.08E+01,-8287,1443,33,-148,2,-79,1,7,11
4.10E+01,-8290,1442,43,-207,43,-90,1,7,11
4.13E+01,-8278,1662,46,-218,91,-110,1,7,11
4.15E+01,-8304,1425,64,-186,-109,92,1,7,11
4.18E+01,-8071,1433,65,-186,-91,78,1,7,11
4.20E+01,-8093,1414,79,-187,-95,84,1,7,11
4.23E+01,-8106,1449,82,-167,-118,76,1,7,11
4.25E+01,-8093,1472,64,-183,117,123,1,7,11
4.28E+01,-8076,1475,52,-213,123,-81,1,7,11
4.30E+01,-8077,1465,55,-233,-124,-49,1,7,11
4.33E+01,-8085,1458,69,-227,-115,-27,1,7,11
4.35E+01,-8088,1463,79,-228,-115,-18,1,7,11
4.38E+01,-8095,1459,70,-245,125,-2,1,7,11
4.40E+01,-8066,1467,64,-230,109,-9,1,7,11
4.43E+01,-8065,1475,66,-226,-126,-28,1,7,11
4.45E+01,-8073,1443,75,-228,-104,-54,1,7,11
4.48E+01,-8319,1444,67,-192,-104,-75,1,7,11
4.50E+01,-8075,1450,81,-153,-92,-124,1,7,11
4.53E+01,-8080,1446,78,-380,-104,107,1,7,11
4.55E+01,-8065,1449,74,-341,-107,74,1,7,11
4.58E+01,-8067,1446,78,-318,-101,40,1,7,11
4.60E+01,-8072,1501,70,-295,-106,33,1,7,11
4.63E+01,-8087,1485,71,-344,-113,80,1,7,11
4.65E+01,-8086,1477,68,-379,127,-122,1,7,11
4.68E+01,-8070,1460,71,-375,120,-106,1,7,11
4.70E+01,-8070,1460,82,-361,118,-111,1,7,11
4.73E+01,-8083,1425,83,-342,109,124,1,7,11
4.75E+01,-8305,1478,65,-293,74,100,1,7,11
4.78E+01,-8310,1497,61,21,74,94,1,7,11
4.80E+01,-8075,1506,62,44,98,114,1,7,11
4.83E+01,-8073,1522,63,72,91,-117,1,7,11
4.85E+01,-8312,1506,61,83,81,-112,1,7,11
4.88E+01,-8312,1505,59,97,68,-127,1,7,11
4.90E+01,-8072,1508,74,98,59,109,1,7,11
4.93E+01,-8080,1527,73,104,39,90,1,7,11
4.95E+01,-8078,1807,61,116,34,90,1,7,11
4.98E+01,-8069,1800,58,93,52,100,1,7,11
5.00E+01,-8320,1808,58,90,72,112,1,7,11
5.03E+01,-8066,1848,77,50,93,-120,1,7,11
5.05E+01,-8105,1803,74,-340,98,-64,1,7,11
5.08E+01,-8309,1619,91,3,53,-79,1,7,11
5.10E+01,-8307,1453,59,313,34,-276,1,7,11
5.13E+01,-8308,1533,40,541,23,-181,1,7,11
5.15E+01,-8263,1526,40,619,64,-255,1,7,11
5.18E+01,-8301,1479,61,569,-85,-227,1,7,11
5.20E+01,-8095,1511,73,589,-49,-211,1,7,11
5.23E+01,-8101,1520,67,549,-77,-192,1,7,11
5.25E+01,-8089,1506,61,181,-113,-347,1,7,11
5.28E+01,-8081,1505,53,309,121,-282,1,7,11
5.30E+01,-8074,1505,52,-60,109,36,1,7,11
5.33E+01,-8077,1493,51,92,117,99,1,7,11
5.35E+01,-8078,1480,58,17,127,-101,1,7,11
5.38E+01,-8077,1455,51,-287,-112,-74,1,7,11
5.40E+01,-8083,1463,48,-287,-111,-67,1,7,11
5.43E+01,-8079,1455,51,-285,-118,-58,1,7,11
5.45E+01,-8072,1478,49,-265,-122,-67,1,7,11
5.48E+01,-8076,1481,50,-266,-118,-59,1,7,11
5.50E+01,-8318,1476,44,4,-121,-75,1,7,11
5.53E+01,-8320,1481,39,22,-120,-116,1,7,11
5.55E+01,-8073,1492,38,35,122,104,1,7,11
5.58E+01,-8070,1477,46,30,98,64,1,7,11
5.60E+01,-8070,1491,36,38,84,26,1,7,11
5.63E+01,-8315,1474,45,44,68,-268,1,7,11
5.65E+01,-8069,1618,56,25,87,-330,1,7,11
5.68E+01,-8300,1531,55,-122,59,-166,1,7,11
5.70E+01,-8081,1819,60,-304,106,-339,1,7,11
5.73E+01,-8072,1495,64,-148,-118,35,1,7,11
5.75E+01,-8084,1484,53,-164,-92,49,1,7,11
5.78E+01,-8117,1471,63,-180,-96,48,1,7,11
5.80E+01,-8111,1433,59,-176,127,41,1,7,11
5.83E+01,-8100,1455,54,-146,105,25,1,7,11
5.85E+01,-8117,1471,59,-166,79,37,1,7,11
5.88E+01,-8152,1460,87,-197,47,87,1,7,11
5.90E+01,-8145,1435,92,-184,9,-124,1,7,11
5.93E+01,-8129,1432,101,-149,-257,-100,1,7,11
5.95E+01,-8118,1439,118,-381,-259,-63,1,7,11
5.98E+01,-8085,1435,117,-358,-265,-33,1,7,11
6.00E+01,-8312,1441,-127,-342,2,-23,1,7,11
6.03E+01,-8312,1462,-113,-350,14,-30,1,7,11
6.05E+01,-8306,1496,-115,-361,-257,-38,1,7,11
6.08E+01,-8292,1457,-80,-137,0,-27,1,7,11
6.10E+01,-8309,1514,-96,-180,-263,-26,1,7,11
6.13E+01,-8282,1484,-116,-211,-297,281,1,7,11
6.15E+01,-8277,1500,-116,-171,-289,264,1,7,11
6.18E+01,-8294,1523,-113,-146,-287,-15,1,7,11
6.20E+01,-8285,1500,-96,-135,-290,-36,1,7,11
6.23E+01,-8305,1515,-88,-356,-292,-67,1,7,11
6.25E+01,-8072,1535,-78,-322,-312,-65,1,7,11
6.28E+01,-8080,1535,-61,-300,-350,-50,1,7,11
6.30E+01,-8086,1797,-58,5,-367,-31,1,7,11
6.33E+01,-8087,1821,-62,47,-377,-9,1,7,11
6.35E+01,-8074,1826,-72,75,-378,-1,1,7,11
6.38E+01,-8316,1849,-80,110,-359,-14,1,7,11
6.40E+01,-8067,1861,-71,122,-319,-28,1,7,11
6.43E+01,-8318,1871,-73,-121,-289,-38,1,7,11
6.45E+01,-8071,1883,-61,-103,1,-54,1,7,11
6.48E+01,-8075,1908,-58,-77,23,-58,1,7,11
6.50E+01,-8077,1913,-54,-62,32,-51,1,7,11
6.53E+01,-8070,1671,-58,-42,38,-49,1,7,11
6.55E+01,-8313,1685,-54,-32,39,-42,1,7,11
6.58E+01,-8291,1690,-63,-22,35,-52,1,7,11
6.60E+01,-8289,1699,-64,-28,36,-60,1,7,11
6.63E+01,-8285,1711,-79,-56,49,-53,1,7,11
6.65E+01,-8277,1722,-98,-87,84,-34,1,7,11
6.68E+01,-8277,1726,-113,-113,-127,-24,1,7,11
6.70E+01,-8287,1730,-105,110,-95,-30,1,7,11
6.73E+01,-8287,1718,-115,75,-77,-35,1,7,11
6.75E+01,-8305,1696,-107,54,-48,-50,1,7,11
6.78E+01,-8307,1690,-89,41,-38,-65,1,7,11
6.80E+01,-8294,1688,-76,31,-47,-80,1,7,11
6.83E+01,-8288,1919,-63,28,-57,-102,1,7,11
6.85E+01,-8311,1915,-50,48,-58,-128,1,7,11
6.88E+01,-8071,1913,-48,86,-58,120,1,7,11
6.90E+01,-8079,1675,-58,-122,-52,-120,1,7,11
6.93E+01,-8069,1675,-62,-85,-40,-84,1,7,11
6.95E+01,-8311,1676,-72,-57,-43,-69,1,7,11
6.98E+01,-8284,1916,-81,-32,-53,-73,1,7,11
7.00E+01,-8261,1673,-83,-13,-52,-96,1,7,11
7.03E+01,-8249,1677,-95,-12,-63,-127,1,7,11
7.05E+01,-8233,1677,-99,256,-90,81,1,7,11
7.08E+01,-8235,1684,-106,262,-104,37,1,7,11
7.10E+01,-8231,1677,-123,-22,-108,8,1,7,11
7.13E+01,-8241,1668,-119,-56,-91,-269,1,7,11
7.15E+01,-8271,1666,-111,-80,-82,-290,1,7,11
7.18E+01,-8284,1667,-120,-103,-93,-298,1,7,11
7.20E+01,-8289,1902,-117,-122,-101,-293,1,7,11
7.23E+01,-8297,1895,-102,-107,-111,-294,1,7,11
7.25E+01,-8317,1895,-97,-79,-124,-288,1,7,11
7.28E+01,-8078,1898,-93,-34,124,-262,1,7,11
7.30E+01,-8090,1915,-101,284,125,24,1,7,11
7.33E+01,-8102,1684,-101,331,-126,55,1,7,11
7.35E+01,-8122,1680,-96,360,-128,83,1,7,11
7.38E+01,-8096,1692,-109,131,92,88,1,7,11
7.40E+01,-8084,1718,-120,143,81,60,1,7,11
7.43E+01,-8083,1735,-119,130,62,40,1,7,11
7.45E+01,-8313,1766,118,366,27,4,1,7,11
7.48E+01,-8299,1784,96,309,12,-280,1,7,11
7.50E+01,-8281,2055,78,-17,6,-297,1,7,11
7.53E+01,-8286,2078,76,-104,17,-302,1,7,11
7.55E+01,-8294,2069,89,46,25,-288,1,7,11
7.58E+01,-8304,1757,105,-323,20,-273,1,7,11
7.60E+01,-8315,1685,-128,-169,14,-273,1,7,11
7.63E+01,-8320,1878,-117,-234,8,-285,1,7,11
7.65E+01,-8077,1828,-96,-215,12,-298,1,7,11
7.68E+01,-8091,1529,-60,-161,16,-295,1,7,11
7.70E+01,-8101,1520,-44,-328,8,-287,1,7,11
7.73E+01,-8108,1493,-34,22,0,-265,1,7,11
7.75E+01,-8090,1490,-20,-100,-268,-260,1,7,11
7.78E+01,-8074,1503,259,268,-277,-266,1,7,11
7.80E+01,-8077,1503,281,350,-290,-258,1,7,11
7.83E+01,-8099,1523,299,151,-312,14,1,7,11
7.85E+01,-8128,1825,318,188,-345,61,1,7,11
7.88E+01,-8126,1870,303,196,-134,-126,1,7,11
7.90E+01,-8104,1668,287,183,-158,-54,1,7,11
7.93E+01,-8301,1725,261,146,-165,266,1,7,11
7.95E+01,-8267,1758,-18,355,-133,285,1,7,11
7.98E+01,-8270,1764,-11,355,-339,-21,1,7,11
8.00E+01,-8270,2061,-8,129,-324,117,1,7,11
8.03E+01,-8277,2091,266,327,-306,37,1,7,11
8.05E+01,-8280,2058,297,-49,-294,17,1,7,11
8.08E+01,-8267,1745,319,123,-292,-257,1,7,11
8.10E+01,-8273,1677,343,75,-276,-297,1,7,11
8.13E+01,-8269,1871,369,73,-263,-340,1,7,11
8.15E+01,-8248,1844,376,98,-270,-383,1,7,11
8.18E+01,-8234,1811,376,100,4,-137,1,7,11
8.20E+01,-8247,1511,137,91,40,-371,1,7,11
8.23E+01,-8277,1464,143,87,70,-336,1,7,11
8.25E+01,-8289,1435,134,105,76,-306,1,7,11
8.28E+01,-8267,1433,367,125,73,-278,1,7,11
8.30E+01,-8265,1461,336,-122,80,8,1,7,11
8.33E+01,-8257,1492,285,120,99,50,1,7,11
8.35E+01,-8249,1505,-28,99,-109,75,1,7,11
8.38E+01,-8266,1519,-70,86,-43,66,1,7,11
8.40E+01,-8265,1518,-98,92,-1,37,1,7,11
8.43E+01,-8267,1475,-112,97,290,-282,1,7,11
8.45E+01,-8286,1487,120,-90,298,-374,1,7,11
8.48E+01,-8311,1511,107,-40,287,-185,1,7,11
8.50E+01,-8093,1499,107,-20,278,-215,1,7,11
8.53E+01,-8143,1464,-127,274,-30,-516,1,7,11
8.55E+01,-8115,1496,121,348,-110,-535,1,7,11
8.58E+01,-8101,1464,-114,377,101,-530,1,7,11
8.60E+01,-8320,1487,-109,182,39,-552,1,7,11
8.63E+01,-8273,1502,-116,189,4,-551,1,7,11
8.65E+01,-8241,1519,-110,184,5,-532,1,7,11
8.68E+01,-8239,1809,-94,170,36,-237,1,7,11
8.70E+01,-8239,1829,-89,146,96,-162,1,7,11
8.73E+01,-8256,1837,-77,363,-88,-342,1,7,11
8.75E+01,-8280,1816,-58,321,-27,-291,1,7,11
8.78E+01,-8065,1819,-58,304,285,0,1,7,11
8.80E+01,-8117,1821,-96,291,347,23,1,7,11
8.83E+01,-8140,1829,-122,293,128,14,1,7,11
8.85E+01,-8128,1842,106,290,159,-259,1,7,11
8.88E+01,-8130,1850,85,267,187,-290,1,7,11
8.90E+01,-8141,1846,64,-32,196,-316,1,7,11
8.93E+01,-8166,1830,57,-90,184,-334,1,7,11
8.95E+01,-8191,1807,50,96,140,-333,1,7,11
8.98E+01,-8471,1511,45,21,336,-332,1,7,11
9.00E+01,-8460,1467,53,-295,257,-346,1,7,11
9.03E+01,-8169,1421,55,-341,-76,-379,1,7,11
9.05E+01,-8134,1639,72,-366,115,-166,1,7,11
9.08E+01,-8124,1608,103,-384,59,-194,1,7,11
9.10E+01,-8111,1586,122,-149,11,-192,1,7,11
9.13E+01,-8118,1555,-104,-181,-269,-181,1,7,11
9.15E+01,-8150,1260,-65,-223,-278,-165,1,7,11
9.18E+01,-8467,1210,-25,-251,-286,-151,1,7,11
9.20E+01,-8503,1172,287,-519,-321,-151,1,7,11
9.23E+01,-8505,1367,323,-517,-374,-181,1,7,11
9.25E+01,-8549,1345,368,-237,-169,-239,1,7,11
9.28E+01,-8529,1346,376,-211,-246,-533,1,7,11
9.30E+01,-8476,1351,361,-208,-559,-565,1,7,11
9.33E+01,-8450,1345,374,-251,-576,-574,1,7,11
9.35E+01,-8163,1321,140,-568,-580,-547,1,7,11
9.38E+01,-8130,1293,158,-624,-578,-254,1,7,11
9.40E+01,-8081,1004,163,-396,-579,-221,1,7,11
9.43E+01,-8287,976,165,-390,-564,-193,1,7,11
9.45E+01,-8263,988,161,-611,-533,-171,1,7,11
9.48E+01,-8246,1022,144,-580,-244,-131,1,7,11
9.50E+01,-8238,1331,378,-561,-183,-328,1,7,11
9.53E+01,-8252,1374,368,-565,-366,-259,1,7,11
9.55E+01,-8257,1386,353,-579,-293,64,1,7,11
9.58E+01,-8271,1397,353,-578,49,111,1,7,11
9.60E+01,-8278,1393,341,-558,-125,-103,1,7,11
9.63E+01,-8308,1158,321,-247,-29,-76,1,7,11
9.65E+01,-8075,1190,306,-177,316,-43,1,7,11
9.68E+01,-8089,1234,267,-345,137,-15,1,7,11
9.70E+01,-8085,1548,-39,1,197,259,1,7,11
9.73E+01,-8090,1593,-87,66,251,262,1,7,11
9.75E+01,-8119,1644,-127,113,557,-9,1,7,11
9.78E+01,-8146,1442,75,-105,575,-23,1,7,11
9.80E+01,-8148,1478,35,-98,571,-32,1,7,11
9.83E+01,-8136,1501,9,-111,564,-48,1,7,11
9.85E+01,-8126,1500,2,119,548,-73,1,7,11
9.88E+01,-8140,1482,8,115,523,-109,1,7,11
9.90E+01,-8167,1462,31,-115,215,112,1,7,11
9.93E+01,-8180,1440,44,-65,135,82,1,7,11
9.95E+01,-8172,1419,70,-8,319,59,1,7,11
9.98E+01,-8166,1655,92,310,262,40,1,7,11
1.00E+02,-8161,1656,103,133,-45,20,1,7,11
1.00E+02,-8166,1659,117,197,-75,5,1,7,11
1.01E+02,-8143,1409,-127,241,-104,-262,1,7,11
1.01E+02,-8130,1409,-122,518,-112,-289,1,7,11
1.01E+02,-8111,1412,-107,527,-111,-320,1,7,11
1.01E+02,-8108,1649,-93,516,-108,-360,1,7,11
1.02E+02,-8127,1640,-76,248,-99,-140,1,7,11
1.02E+02,-8135,1629,-73,213,-94,-148,1,7,11
1.02E+02,-8129,1615,-96,176,-93,-145,1,7,11
1.02E+02,-8115,1582,-113,377,-72,-141,1,7,11
1.03E+02,-8102,1548,-125,321,-38,-138,1,7,11
1.03E+02,-8106,1263,126,278,258,-147,1,7,11
1.03E+02,-8111,1227,123,-8,289,-162,1,7,11
1.03E+02,-8112,1214,112,-22,311,-175,1,7,11
1.04E+02,-8130,1207,97,-50,321,-176,1,7,11
1.04E+02,-8154,1192,92,-87,319,-156,1,7,11
1.04E+02,-8172,1168,78,125,291,-379,1,7,11
1.04E+02,-8169,1397,70,69,-3,-340,1,7,11
1.05E+02,-8169,1388,81,24,-38,-309,1,7,11
1.05E+02,-8188,1385,100,-265,-73,-289,1,7,11
1.05E+02,-8454,1389,91,-281,121,9,1,7,11
1.05E+02,-8176,1386,104,-291,57,46,1,7,11
1.06E+02,-8150,1389,108,-301,14,104,1,7,11
1.06E+02,-8151,1384,125,-299,-268,-115,1,7,11
1.06E+02,-8146,1395,-116,-263,-319,-103,1,7,11
1.06E+02,-8101,1155,-122,22,-362,-88,1,7,11
1.07E+02,-8080,1389,-117,44,-347,-58,1,7,11
1.07E+02,-8085,1162,-114,76,-322,-61,1,7,11
1.07E+02,-8105,1191,-113,51,-300,-30,1,7,11
1.07E+02,-8122,1180,-107,13,-286,-6,1,7,11
1.08E+02,-8125,1206,-112,17,-287,273,1,7,11
1.08E+02,-8113,1247,-125,11,-287,292,1,7,11
1.08E+02,-8109,1270,-112,-285,-264,318,1,7,11
1.08E+02,-8101,1569,-119,-327,-266,347,1,7,11
1.09E+02,-8069,1601,-126,-135,-275,370,1,7,11
1.09E+02,-8311,1626,123,-192,-269,363,1,7,11
1.09E+02,-8308,1650,117,-246,-267,326,1,7,11
1.09E+02,-8308,1648,-128,-576,-257,286,1,7,11
1.10E+02,-8070,1643,-109,-632,16,-20,1,7,11
1.10E+02,-8094,1618,-93,-406,22,-76,1,7,11
1.10E+02,-8066,1597,-81,-624,17,126,1,7,11
1.10E+02,-8316,1573,-53,-573,47,76,1,7,11
1.11E+02,-8085,1543,-43,-247,75,36,1,7,11
1.11E+02,-8103,1277,-38,-158,78,-262,1,7,11
1.11E+02,-8106,1542,-43,-335,83,-295,1,7,11
1.11E+02,-8108,1572,-57,-274,95,-308,1,7,11
1.12E+02,-8085,1591,-82,4,116,-306,1,7,11
1.12E+02,-8084,1598,-110,-279,-94,-302,1,7,11
1.12E+02,-8086,1589,-128,-330,-46,-296,1,7,11
1.12E+02,-8093,1565,118,-382,257,-314,1,7,11
1.13E+02,-8108,1539,124,-166,303,-342,1,7,11
1.13E+02,-8126,1537,117,-188,326,-372,1,7,11
1.13E+02,-8137,1256,111,-227,337,-129,1,7,11
1.13E+02,-8146,1230,118,-253,336,-129,1,7,11
1.14E+02,-8148,1216,122,-527,317,-384,1,7,11
1.14E+02,-8151,1186,-127,-534,296,-373,1,7,11
1.14E+02,-8156,1170,-120,-256,269,-367,1,7,11
1.14E+02,-8156,1399,-99,-240,-18,-346,1,7,11
1.15E+02,-8156,1362,-73,-207,-44,-318,1,7,11
1.15E+02,-8156,1323,-54,-145,-72,-295,1,7,11
1.15E+02,-8152,1295,-36,-303,-88,-278,1,7,11
1.15E+02,-8145,1300,-24,102,-99,-292,1,7,11
1.16E+02,-8163,1328,-28,-10,-97,-312,1,7,11
1.16E+02,-8158,1392,-56,364,-110,-322,1,7,11
1.16E+02,-8149,1183,-82,136,-117,-316,1,7,11
1.16E+02,-8162,1196,-97,357,-113,-298,1,7,11
1.17E+02,-8186,1205,-101,309,-127,-294,1,7,11
1.17E+02,-8179,1184,-120,-3,107,-283,1,7,11
1.17E+02,-8191,1184,-123,-39,107,-289,1,7,11
1.17E+02,-8192,1182,-121,-79,101,-280,1,7,11
1.18E+02,-8173,1176,-118,-117,85,-259,1,7,11
1.18E+02,-8149,1159,-96,106,69,28,1,7,11
1.18E+02,-8139,1160,-80,100,50,48,1,7,11
1.18E+02,-8127,1167,-70,87,33,82,1,7,11
1.19E+02,-8122,1168,-59,75,24,124,1,7,11
1.19E+02,-8117,1177,-53,63,24,-100,1,7,11
1.19E+02,-8105,1199,-61,68,34,-87,1,7,11
1.19E+02,-8088,1202,-78,75,51,-103,1,7,11
1.20E+02,-8083,1217,-80,92,85,116,1,7,11
1.20E+02,-8068,1222,-106,90,117,98,1,7,11
1.20E+02,-8081,1222,-102,81,-91,79,1,7,11
1.20E+02,-8117,1226,-102,73,-62,65,1,7,11
1.21E+02,-8127,1233,-107,53,-60,70,1,7,11
1.21E+02,-8138,1246,122,20,-55,87,1,7,11
1.21E+02,-8147,1244,101,-282,-57,109,1,7,11
1.21E+02,-8137,1246,80,-315,-54,119,1,7,11
1.22E+02,-8144,1245,78,-341,-39,118,1,7,11
1.22E+02,-8151,1221,77,-360,-35,119,1,7,11
1.22E+02,-8167,1218,81,-359,-43,114,1,7,11
1.22E+02,-8170,1204,83,-360,-64,123,1,7,11
1.23E+02,-8171,1189,80,-348,-81,125,1,7,11
1.23E+02,-8168,1193,78,-312,-109,120,1,7,11
1.23E+02,-8149,1196,83,-276,115,102,1,7,11
1.23E+02,-8145,1198,95,4,100,82,1,7,11
1.24E+02,-8148,1205,110,16,82,76,1,7,11
1.24E+02,-8137,1225,125,10,61,94,1,7,11
1.24E+02,-8122,1236,-126,-277,59,-113,1,7,11
1.24E+02,-8112,1235,-106,-312,86,-35,1,7,11
1.25E+02,-8105,1231,-100,-329,111,274,1,7,11
1.25E+02,-8142,1215,-73,-354,-120,292,1,7,11
1.25E+02,-8173,1186,-63,-360,121,303,1,7,11
1.25E+02,-8161,1220,-73,-325,79,273,1,7,11
1.26E+02,-8154,1550,-100,-325,47,272,1,7,11
1.26E+02,-8121,1573,-93,-375,41,318,1,7,11
1.26E+02,-8096,1577,-87,-159,62,359,1,7,11
1.26E+02,-8087,1546,-63,-183,87,372,1,7,11
1.27E+02,-8091,1541,-60,-160,95,306,1,7,11
1.27E+02,-8099,1565,-73,-358,86,265,1,7,11
1.27E+02,-8097,1593,-89,-293,69,-65,1,7,11
1.27E+02,-8091,1637,-96,-262,78,-101,1,7,11
1.28E+02,-8099,1412,-107,-272,99,-125,1,7,11
1.28E+02,-8108,1656,-93,-333,-125,-100,1,7,11
1.28E+02,-8114,1655,-87,-133,-105,-86,1,7,11
1.28E+02,-8117,1638,-75,-183,-99,-79,1,7,11
1.29E+02,-8118,1641,-78,-219,-92,-75,1,7,11
1.29E+02,-8109,1632,-79,-516,-86,-55,1,7,11
1.29E+02,-8089,1635,-80,-552,-67,-52,1,7,11
1.29E+02,-8076,1652,-90,-584,-35,-64,1,7,11
1.30E+02,-8073,1411,-101,-627,-12,-67,1,7,11
1.30E+02,-8075,1417,-95,-426,288,-62,1,7,11
1.30E+02,-8071,1419,-91,-484,331,-49,1,7,11
1.30E+02,-8318,1409,-87,-804,358,-43,1,7,11
1.31E+02,-8307,1410,-84,-861,128,-44,1,7,11
1.31E+02,-8295,1422,-78,-653,133,-55,1,7,11
1.31E+02,-8299,1418,-80,-702,137,-66,1,7,11
1.31E+02,-8300,1409,-103,-757,142,-80,1,7,11
1.32E+02,-8298,1663,-118,-769,154,-108,1,7,11
1.32E+02,-8310,1415,125,-1032,169,110,1,7,11
1.32E+02,-8071,1424,110,-1046,194,82,1,7,11
1.32E+02,-8094,1437,98,-1054,208,68,1,7,11
1.33E+02,-8098,1442,80,-1071,210,62,1,7,11
1.33E+02,-8101,1449,72,-1080,205,57,1,7,11
1.33E+02,-8119,1440,63,-1085,189,61,1,7,11
1.33E+02,-8109,1446,51,-1064,164,69,1,7,11
1.34E+02,-8104,1446,45,-1050,148,86,1,7,11
1.34E+02,-8103,1433,52,-765,134,100,1,7,11
1.34E+02,-8105,1441,55,-731,368,100,1,7,11
1.34E+02,-8099,1409,64,-687,349,112,1,7,11
1.35E+02,-8081,1650,48,-852,339,94,1,7,11
1.35E+02,-8067,1656,39,-478,343,57,1,7,11
1.35E+02,-8316,1411,19,-633,358,25,1,7,11
1.35E+02,-8306,1430,12,-556,377,1,1,7,11
1.36E+02,-8315,1446,0,-253,146,-271,1,7,11
1.36E+02,-8313,1455,-273,-232,159,-281,1,7,11
1.36E+02,-8065,1466,-287,-233,174,-296,1,7,11
1.36E+02,-8090,1480,-289,-519,185,-303,1,7,11
1.37E+02,-8082,1484,-301,-559,163,-310,1,7,11
1.37E+02,-8315,1475,-314,-611,141,-331,1,7,11
1.37E+02,-8313,1465,-307,-412,131,-362,1,7,11
1.37E+02,-8091,1464,-293,-467,138,-132,1,7,11
1.38E+02,-8118,1452,-291,-501,136,-130,1,7,11
1.38E+02,-8119,1449,-295,-776,135,-377,1,7,11
1.38E+02,-8104,1440,-296,-789,140,-361,1,7,11
1.38E+02,-8085,1416,-283,-797,146,-346,1,7,11
1.39E+02,-8075,1641,-264,-792,154,-349,1,7,11
1.39E+02,-8087,1625,6,-507,153,-361,1,7,11
1.39E+02,-8085,1624,6,-468,134,-370,1,7,11
1.39E+02,-8317,1620,-259,-430,374,-382,1,7,11
1.40E+02,-8303,1631,-278,-394,378,-142,1,7,11
1.40E+02,-8302,1648,-284,-626,149,-155,1,7,11
1.40E+02,-8306,1429,-290,-605,193,-169,1,7,11
1.40E+02,-8309,1453,-301,-616,222,-182,1,7,11
1.41E+02,-8288,1463,-315,-639,244,-201,1,7,11
1.41E+02,-8257,1452,-314,-425,528,-251,1,7,11
1.41E+02,-8277,1445,-302,-471,571,-584,1,7,11
1.41E+02,-8293,1451,-292,-511,597,-407,1,7,11
1.42E+02,-8296,1467,-291,-800,611,-480,1,7,11
1.42E+02,-8298,1467,-292,-848,387,-787,1,7,11
1.42E+02,-8312,1450,-301,-893,433,-826,1,7,11
1.42E+02,-8071,1411,-285,-672,482,-849,1,7,11
1.43E+02,-8088,1615,6,-693,776,-873,1,7,11
1.43E+02,-8100,1571,37,-678,787,-645,1,7,11
1.43E+02,-8090,1545,41,-896,775,-662,1,7,11
1.43E+02,-8315,1544,14,-862,509,-672,1,7,11
1.44E+02,-8279,1553,-277,-856,785,-675,1,7,11
1.44E+02,-8249,1550,-297,-881,832,-662,1,7,11
1.44E+02,-8201,1263,-329,-669,890,-652,1,7,11
1.44E+02,-7912,1208,-332,-733,724,-671,1,7,11
1.45E+02,-7891,1167,-343,-1027,1075,-718,1,7,11
1.45E+02,-7884,1160,-380,-1052,924,-1033,1,7,11
1.45E+02,-7885,1154,-167,-1085,1294,-1087,1,7,11
1.45E+02,-7888,1383,-225,-1120,1404,-1133,1,7,11
1.46E+02,-7884,1340,-528,-902,1266,-925,1,7,11
1.46E+02,-7881,987,-574,-954,1628,-996,1,7,11
1.46E+02,-7868,1025,-462,-972,1443,-1363,1,7,11
1.46E+02,-7814,696,-786,-946,1475,-1247,1,7,11
1.47E+02,-8047,850,-675,-1149,1803,-1419,1,7,11
1.47E+02,-7879,782,-1031,-1094,1916,-1821,1,7,11
1.47E+02,-8320,472,-1102,-748,1725,-1874,1,7,11
1.47E+02,-8458,441,-949,-857,1694,-1804,1,7,11
1.48E+02,-8327,633,-1158,-428,1882,-1591,1,7,11
1.48E+02,-8369,579,-1253,-252,1792,-1178,1,7,11
1.48E+02,-8390,534,-1592,-325,1657,-1298,1,7,11
1.48E+02,-8426,249,-1422,108,1231,-922,1,7,11
1.49E+02,-8438,238,-1511,269,1280,-1118,1,7,11
1.49E+02,-8393,246,-1851,166,1028,-747,1,7,11
1.49E+02,-8384,517,-1900,550,791,-873,1,7,11
1.49E+02,-8360,524,-1694,627,557,-769,1,7,11
1.50E+02,-8505,536,-1790,446,280,-412,1,7,11
1.50E+02,-8101,540,-2140,793,47,-620,1,7,11
1.50E+02,-8235,529,-1924,855,-129,-637,1,7,11
1.50E+02,-8205,248,-2131,878,-166,-433,1,7,11
1.51E+02,-8232,209,-1777,875,-219,-485,1,7,11
1.51E+02,-8260,168,-1682,859,-583,-775,1,7,11
1.51E+02,-8274,381,-1840,856,-459,-796,1,7,11
1.51E+02,-8279,352,-1517,882,-831,-797,1,7,11
1.52E+02,-8285,310,-1452,652,-896,-778,1,7,11
1.52E+02,-8306,270,-1649,701,-662,-500,1,7,11
1.52E+02,-8071,-22,-1592,1031,-663,-482,1,7,11
1.52E+02,-8101,-34,-1260,1106,-658,-465,1,7,11
1.53E+02,-8073,-53,-1223,900,-690,-424,1,7,11
1.53E+02,-8270,-79,-1216,930,-692,-393,1,7,11
1.53E+02,-8287,-106,-1166,955,-863,-394,1,7,11
1.53E+02,-8107,-94,-1335,981,-774,-629,1,7,11
1.54E+02,-8136,-79,-1018,974,-493,-562,1,7,11
1.54E+02,-8117,-71,-985,932,-497,-229,1,7,11
1.54E+02,-8314,-93,-956,1095,-774,-151,1,7,11
1.54E+02,-8270,125,-939,736,-788,-346,1,7,11
1.55E+02,-8264,110,-911,667,-798,-312,1,7,11
1.55E+02,-8265,-127,-1146,868,-839,-273,1,7,11
1.55E+02,-8257,-122,-1138,784,-649,46,1,7,11
1.55E+02,-8257,119,-1120,443,-704,107,1,7,11
1.56E+02,-8302,95,-1085,622,-745,-85,1,7,11
1.56E+02,-8108,58,-1029,553,-1061,-3,1,7,11
1.56E+02,-8113,15,-745,513,-898,340,1,7,11
1.56E+02,-8108,2,-730,255,-974,146,1,7,11
1.57E+02,-8126,14,-708,513,-1011,193,1,7,11
1.57E+02,-8177,24,-665,516,-1282,239,1,7,11
1.57E+02,-8488,29,-869,517,-1291,537,1,7,11
1.57E+02,-8529,36,-819,516,-1303,584,1,7,11
1.58E+02,-8535,41,-494,255,-1327,635,1,7,11
1.58E+02,-8511,60,-442,522,-1348,416,1,7,11
1.58E+02,-8496,116,-396,539,-1342,433,1,7,11
1.58E+02,-8479,-77,-583,544,-1323,457,1,7,11
1.59E+02,-8462,-24,-519,525,-1299,473,1,7,11
1.59E+02,-8186,264,-203,225,-1014,477,1,7,11
1.59E+02,-8134,274,-159,152,-984,458,1,7,11
1.59E+02,-8079,272,-135,335,-936,408,1,7,11
1.60E+02,-8300,280,-367,284,-1121,589,1,7,11
1.60E+02,-8284,301,-340,-13,-1025,248,1,7,11
1.60E+02,-8280,327,-309,-45,-666,183,1,7,11
1.60E+02,-8272,318,-288,-77,-826,134,1,7,11
1.61E+02,-8248,300,-260,-90,-487,329,1,7,11
1.61E+02,-8251,300,0,-79,-393,258,1,7,11
1.61E+02,-8288,320,10,-47,-545,-63,1,7,11
1.61E+02,-8092,364,22,-17,-188,-90,1,7,11
1.62E+02,-8167,154,19,267,-356,-77,1,7,11
1.62E+02,-8505,183,8,287,-293,-19,1,7,11
1.62E+02,-8567,201,-272,311,-265,331,1,7,11
1.62E+02,-8362,211,-287,323,0,214,1,7,11
1.63E+02,-8365,218,-296,345,-266,512,1,7,11
1.63E+02,-8359,242,-308,362,-284,571,1,7,11
1.63E+02,-8338,525,-313,367,-307,597,1,7,11
1.63E+02,-8567,558,-316,370,-328,594,1,7,11
1.64E+02,-8545,584,-298,368,-350,574,1,7,11
1.64E+02,-8538,615,-271,375,-376,538,1,7,11
1.64E+02,-8530,413,1,381,-150,251,1,7,11
1.64E+02,-8501,449,22,351,-189,238,1,7,11
1.65E+02,-8462,479,36,313,-215,216,1,7,11
1.65E+02,-8167,770,54,265,-220,197,1,7,11
1.65E+02,-8137,796,67,-65,-213,190,1,7,11
1.65E+02,-8110,800,89,89,-198,191,1,7,11
1.66E+02,-8097,781,-126,-277,-159,182,1,7,11
1.66E+02,-8098,772,-101,-129,-371,159,1,7,11
1.66E+02,-8094,494,-83,-233,-329,140,1,7,11
1.66E+02,-8108,453,-71,-571,-278,376,1,7,11
1.67E+02,-8140,416,-45,-605,38,352,1,7,11
1.67E+02,-8475,398,-29,-562,93,322,1,7,11
1.67E+02,-8512,399,-36,-208,109,289,1,7,11
1.67E+02,-8527,434,-49,-357,105,259,1,7,11
1.68E+02,-8532,459,-68,-283,98,-14,1,7,11
1.68E+02,-8524,482,-68,23,95,-31,1,7,11
1.68E+02,-8520,504,-73,58,94,-67,1,7,11
1.68E+02,-8513,486,-57,76,95,-101,1,7,11
1.69E+02,-8506,468,-43,95,87,107,1,7,11
1.69E+02,-8494,449,-38,-107,75,54,1,7,11
1.69E+02,-8479,423,-45,-37,68,-264,1,7,11
1.69E+02,-8466,427,-69,324,74,-340,1,7,11
1.70E+02,-8463,437,-82,227,81,-163,1,7,11
1.70E+02,-8465,482,-90,563,74,-227,1,7,11
1.70E+02,-8460,492,-97,589,64,-521,1,7,11
1.70E+02,-8467,480,-86,590,55,-533,1,7,11
1.71E+02,-8485,473,-75,577,37,-531,1,7,11
1.71E+02,-8507,466,-68,542,7,-519,1,7,11
1.71E+02,-8508,457,-58,515,-291,-250,1,7,11
1.71E+02,-8499,488,-60,234,-321,-224,1,7,11
1.72E+02,-8487,484,-73,140,-325,-165,1,7,11
1.72E+02,-8473,449,-64,262,-309,-382,1,7,11
1.72E+02,-8512,615,-16,56,-283,-378,1,7,11
1.72E+02,-8485,523,259,-284,-316,-161,1,7,11
1.73E+02,-8451,225,257,20,-306,-547,1,7,11
1.73E+02,-8451,532,268,75,-269,-424,1,7,11
1.73E+02,-8463,568,280,-98,19,-486,1,7,11
1.73E+02,-8465,538,288,-92,49,-497,1,7,11
1.74E+02,-8463,253,294,-55,81,-778,1,7,11
1.74E+02,-8505,239,335,-35,111,-813,1,7,11
1.74E+02,-8523,556,309,-33,78,-504,1,7,11
1.74E+02,-8538,240,301,-101,61,-638,1,7,11
1.75E+02,-8518,185,291,-93,64,-526,1,7,11
1.75E+02,-8514,168,280,-57,82,-182,1,7,11
1.75E+02,-8504,131,273,-19,96,-355,1,7,11
1.75E+02,-8485,377,-6,299,113,-302,1,7,11
1.76E+02,-8458,360,-20,346,-114,-277,1,7,11
1.76E+02,-8454,335,-5,128,-77,-294,1,7,11
1.76E+02,-8456,357,-12,190,-67,-333,1,7,11
1.76E+02,-8454,128,-15,212,-78,-354,1,7,11
1.77E+02,-8189,372,-27,208,-96,-358,1,7,11
1.77E+02,-8460,355,-27,209,-105,-365,1,7,11
1.77E+02,-8481,353,-33,241,-119,-361,1,7,11
1.77E+02,-8496,352,-44,524,127,-346,1,7,11
1.78E+02,-8516,345,-39,541,112,-326,1,7,11
1.78E+02,-8514,349,-55,557,82,-315,1,7,11
1.78E+02,-8521,365,-57,559,59,-311,1,7,11
1.78E+02,-8544,373,-62,543,37,-303,1,7,11
1.79E+02,-8559,348,-53,252,8,-297,1,7,11
1.79E+02,-8553,362,-49,240,-273,-300,1,7,11
1.79E+02,-8552,348,-40,211,-291,-299,1,7,11
1.79E+02,-8534,348,-36,198,-306,-298,1,7,11
1.80E+02,-8528,333,-20,175,-303,-278,1,7,11
1.80E+02,-8518,318,-9,148,-300,-259,1,7,11
1.80E+02,-8529,323,260,139,-296,-262,1,7,11
1.80E+02,-8514,329,259,146,-318,-267,1,7,11
1.81E+02,-8504,335,271,151,-332,-285,1,7,11
1.81E+02,-8498,360,276,150,-339,-295,1,7,11
1.81E+02,-8485,159,272,136,-347,-275,1,7,11
1.81E+02,-8462,207,257,329,-325,65,1,7,11
1.82E+02,-8175,239,-8,262,-274,-78,1,7,11
1.82E+02,-8172,253,17,-82,62,305,1,7,11
1.82E+02,-8463,180,322,47,-111,162,1,7,11
1.82E+02,-8453,357,340,6,-90,220,1,7,11
1.83E+02,-8449,349,349,23,-81,209,1,7,11
1.83E+02,-8450,379,338,59,-76,166,1,7,11
1.83E+02,-8461,148,319,96,-79,383,1,7,11
1.83E+02,-8471,157,309,116,-69,364,1,7,11
1.84E+02,-8481,157,309,-113,-58,359,1,7,11
1.84E+02,-8498,146,315,-71,-35,361,1,7,11
1.84E+02,-8510,159,320,-33,-35,364,1,7,11
1.84E+02,-8507,175,318,-5,-47,379,1,7,11
1.85E+02,-8509,187,301,258,-54,131,1,7,11
1.85E+02,-8499,203,290,-5,-57,136,1,7,11
1.85E+02,-8497,217,280,-15,-46,139,1,7,11
1.85E+02,-8498,238,272,-24,-33,144,1,7,11
1.86E+02,-8493,250,265,-35,-21,156,1,7,11
1.86E+02,-8481,228,265,-54,-13,157,1,7,11
1.86E+02,-8499,223,259,-50,-5,137,1,7,11
1.86E+02,-8497,235,-3,-54,-17,370,1,7,11
1.87E+02,-8465,515,-22,-69,-39,346,1,7,11
1.87E+02,-8190,525,-38,-97,-44,316,1,7,11
1.87E+02,-8462,538,-45,-126,-39,288,1,7,11
1.87E+02,-8486,552,-45,104,-42,283,1,7,11
1.88E+02,-8492,557,-52,83,-49,302,1,7,11
1.88E+02,-8497,556,-55,63,-42,323,1,7,11
1.88E+02,-8492,554,-60,49,-39,341,1,7,11
1.88E+02,-8484,562,-59,37,-33,346,1,7,11
1.89E+02,-8481,574,-77,25,-26,340,1,7,11
1.89E+02,-8483,603,-86,20,-18,325,1,7,11
1.89E+02,-8486,630,-89,5,-17,309,1,7,11
1.89E+02,-8481,392,-105,-271,-15,291,1,7,11
1.90E+02,-8486,396,-112,-300,-10,272,1,7,11
1.90E+02,-8493,387,-116,-327,-8,-4,1,7,11
1.90E+02,-8504,637,-117,-340,-16,-30,1,7,11
1.90E+02,-8500,388,-114,-332,-36,-51,1,7,11
1.91E+02,-8490,402,-122,-319,-59,-71,1,7,11
1.91E+02,-8476,409,126,-313,-71,-81,1,7,11
1.91E+02,-8477,418,122,-317,-74,-87,1,7,11
1.91E+02,-8472,420,127,-324,-79,-89,1,7,11
1.92E+02,-8472,421,-124,-327,-76,-89,1,7,11
1.92E+02,-8471,435,126,-324,-71,-87,1,7,11
1.92E+02,-8471,458,124,-333,-65,-83,1,7,11
1.92E+02,-8469,458,-128,-363,-52,-79,1,7,11
1.93E+02,-8475,459,127,-384,-47,-82,1,7,11
1.93E+02,-8484,459,-125,-150,-45,-86,1,7,11
1.93E+02,-8482,447,-109,-162,-50,-81,1,7,11
1.93E+02,-8486,423,-99,-163,-57,-77,1,7,11
1.94E+02,-8482,417,-99,-141,-72,-77,1,7,11
1.94E+02,-8464,411,-99,-360,-82,-82,1,7,11
1.94E+02,-8469,407,-103,-315,-79,-86,1,7,11
1.94E+02,-8484,403,-92,-262,-75,-82,1,7,11
1.95E+02,-8492,412,-100,61,-86,-75,1,7,11
1.95E+02,-8494,426,-111,124,-100,-64,1,7,11
1.95E+02,-8492,453,-125,-83,-111,-50,1,7,11
1.95E+02,-8490,496,122,-45,-125,-35,1,7,11
1.96E+02,-8482,790,104,-37,-128,-24,1,7,11
1.96E+02,-8476,808,86,-57,-124,-25,1,7,11
1.96E+02,-8469,825,80,-93,-116,-40,1,7,11
1.96E+02,-8456,820,76,115,-105,-63,1,7,11
1.97E+02,-8465,807,89,64,-88,-109,1,7,11
1.97E+02,-8481,793,103,30,-76,126,1,7,11
1.97E+02,-8479,783,118,9,-95,117,1,7,11
1.97E+02,-8460,510,118,-263,-120,120,1,7,11
1.98E+02,-8449,479,-127,-271,127,121,1,7,11
1.98E+02,-8489,477,-110,2,-126,122,1,7,11
1.98E+02,-8503,484,-121,25,112,-107,1,7,11
1.98E+02,-8491,497,126,42,106,-82,1,7,11
1.99E+02,-8491,768,-125,47,119,-53,1,7,11
1.99E+02,-8471,784,-127,40,123,-28,1,7,11
1.99E+02,-8457,791,126,17,-127,-9,1,7,11
1.99E+02,-8454,788,122,-263,-123,260,1,7,11
2.00E+02,-8451,787,125,-273,-121,263,1,7,11
2.00E+02,-8185,782,126,-280,-117,268,1,7,11
2.00E+02,-8179,786,116,-284,-106,272,1,7,11
2.00E+02,-8178,787,117,-281,-99,271,1,7,11
2.01E+02,-8176,796,113,-264,-93,263,1,7,11
2.01E+02,-8191,812,111,21,-79,258,1,7,11
2.01E+02,-8184,839,107,39,-78,261,1,7,11
2.01E+02,-8179,853,106,37,-69,267,1,7,11
2.02E+02,-8189,851,116,20,-56,271,1,7,11
2.02E+02,-8174,854,106,12,-59,262,1,7,11
2.02E+02,-8169,874,95,11,-46,-7,1,7,11
2.02E+02,-8167,889,85,-10,-27,-17,1,7,11
2.03E+02,-8169,641,74,-285,-1,-26,1,7,11
2.03E+02,-8189,658,71,-303,283,-39,1,7,11
2.03E+02,-8453,671,61,-323,291,-40,1,7,11
2.03E+02,-8460,676,43,-355,290,-43,1,7,11
2.04E+02,-8463,673,42,-134,292,-46,1,7,11
2.04E+02,-8476,675,39,-154,283,-51,1,7,11
2.04E+02,-8466,656,28,-168,268,-54,1,7,11
2.04E+02,-8468,893,32,-163,266,-60,1,7,11
2.05E+02,-8479,879,38,-138,260,-59,1,7,11
2.05E+02,-8478,883,38,-352,-17,-53,1,7,11
2.05E+02,-8476,882,47,-307,-39,-53,1,7,11
2.05E+02,-8462,647,40,2,-64,-50,1,7,11
2.06E+02,-8185,667,28,36,-81,-52,1,7,11
2.06E+02,-8189,685,28,58,-80,-56,1,7,11
2.06E+02,-8449,707,20,75,-83,-57,1,7,11
2.06E+02,-8192,730,5,82,-92,-58,1,7,11
2.07E+02,-8189,746,8,77,-98,-61,1,7,11
2.07E+02,-8181,754,-258,64,-103,-68,1,7,11
2.07E+02,-8192,752,0,40,-107,-76,1,7,11
2.07E+02,-8189,745,4,25,-122,-92,1,7,11
2.08E+02,-8175,751,-262,20,112,-111,1,7,11
2.08E+02,-8180,737,3,12,102,126,1,7,11
2.08E+02,-8471,733,17,26,93,110,1,7,11
2.08E+02,-8482,750,22,49,65,115,1,7,11
2.09E+02,-8489,753,20,63,47,-122,1,7,11
2.09E+02,-8476,1027,25,81,36,-97,1,7,11
2.09E+02,-8454,1026,23,96,24,-85,1,7,11
2.09E+02,-8169,1025,25,112,26,-90,1,7,11
2.10E+02,-8158,1027,26,-128,38,-114,1,7,11
2.10E+02,-8159,1031,27,-119,49,108,1,7,11
2.10E+02,-8161,1048,40,-122,58,80,1,7,11
2.10E+02,-8160,1059,51,98,61,76,1,7,11
2.11E+02,-8159,1043,57,58,70,74,1,7,11
2.11E+02,-8155,1034,61,38,84,61,1,7,11
2.11E+02,-8160,1034,66,28,102,48,1,7,11
2.11E+02,-8164,1041,64,22,110,46,1,7,11
2.12E+02,-8162,1035,62,14,121,33,1,7,11
2.12E+02,-8183,1028,75,9,-120,8,1,7,11
2.12E+02,-8449,1025,81,12,-125,-271,1,7,11
2.12E+02,-8457,1033,83,16,124,-296,1,7,11
2.13E+02,-8455,1046,73,12,119,-322,1,7,11
2.13E+02,-8189,1074,58,-261,117,-347,1,7,11
2.13E+02,-8173,1072,48,-306,-124,-370,1,7,11
2.13E+02,-8154,1063,47,-343,-97,-160,1,7,11
2.14E+02,-8155,1065,46,-367,-68,-237,1,7,11
2.14E+02,-8153,1060,44,-146,-49,-581,1,7,11
2.14E+02,-8153,1060,40,-181,-23,-410,1,7,11
2.14E+02,-8170,1037,56,-225,262,-481,1,7,11
2.15E+02,-8188,756,64,-244,284,-790,1,7,11
2.15E+02,-8450,725,73,-242,292,-835,1,7,11
2.15E+02,-8454,683,83,-238,291,-889,1,7,11
2.15E+02,-8465,883,95,-213,283,-702,1,7,11
2.16E+02,-8181,863,88,-163,257,-1036,1,7,11
2.16E+02,-8149,836,76,-157,264,-1085,1,7,11
2.16E+02,-8154,779,76,-171,303,-1107,1,7,11
2.16E+02,-8167,771,75,-156,317,-1130,1,7,11
2.17E+02,-8170,497,73,-178,326,-1125,1,7,11
2.17E+02,-8168,440,65,-238,331,-1096,1,7,11
2.17E+02,-8165,416,50,-534,338,-1069,1,7,11
2.17E+02,-8188,393,46,-595,355,-761,1,7,11
2.18E+02,-8182,596,35,-393,356,-687,1,7,11
2.18E+02,-8153,250,22,-402,354,-647,1,7,11
2.18E+02,-8152,186,19,-630,351,-682,1,7,11
2.18E+02,-8163,158,2,-584,333,-735,1,7,11
2.19E+02,-8187,170,-281,-538,319,-760,1,7,11
2.19E+02,-8184,208,-314,-528,327,-719,1,7,11
2.19E+02,-8453,241,-332,-586,381,-855,1,7,11
2.19E+02,-8452,531,-351,-441,180,-400,1,7,11
2.20E+02,-8450,524,-350,-868,512,-149,1,7,11
2.20E+02,-8178,516,-358,-1042,586,100,1,7,11
2.20E+02,-8161,248,-368,-947,407,319,1,7,11
2.20E+02,-8148,221,-373,-1324,481,240,1,7,11
2.21E+02,-8127,197,-147,-1344,804,596,1,7,11
2.21E+02,-8084,177,-184,-1289,891,596,1,7,11
2.21E+02,-8295,169,-221,-914,742,246,1,7,11
2.21E+02,-8256,185,-533,-746,1132,363,1,7,11
2.22E+02,-8208,218,-588,-857,1296,-34,1,7,11
2.22E+02,-7936,198,-634,-494,1249,93,1,7,11
2.22E+02,-8227,189,-386,-387,1436,-325,1,7,11
2.22E+02,-8071,231,-413,-557,1816,-222,1,7,11
2.23E+02,-8162,555,-487,-224,1859,-547,1,7,11
2.23E+02,-8155,608,-848,-228,1871,-526,1,7,11
2.23E+02,-8113,626,-709,-540,1905,-383,1,7,11
2.23E+02,-8094,391,-1059,-602,1744,10,1,7,11
2.24E+02,-8097,408,-1110,-396,2122,-98,1,7,11
2.24E+02,-8111,603,-1146,-473,1975,311,1,7,11
2.24E+02,-8156,539,-926,-788,2047,147,1,7,11
2.24E+02,-8468,542,-975,-504,1997,198,1,7,11
2.25E+02,-8462,574,-1288,-439,2133,551,1,7,11
2.25E+02,-8153,590,-1358,-409,1751,411,1,7,11
2.25E+02,-8123,581,-1154,-425,1882,775,1,7,11
2.25E+02,-8120,556,-1211,-481,1482,855,1,7,11
2.26E+02,-8095,530,-1557,-773,1552,892,1,7,11
2.26E+02,-8300,533,-1419,-509,1369,833,1,7,11
2.26E+02,-8065,572,-1473,-775,988,446,1,7,11
2.26E+02,-8122,616,-1500,-795,1113,621,1,7,11
2.27E+02,-8150,398,-1795,-823,691,593,1,7,11
2.27E+02,-8104,457,-1877,-799,784,597,1,7,11
2.27E+02,-8223,492,-1707,-784,412,593,1,7,11
2.27E+02,-7862,477,-1766,-781,635,535,1,7,11
2.28E+02,-7841,459,-1792,-509,398,193,1,7,11
2.28E+02,-7851,459,-2058,-449,639,361,1,7,11
2.28E+02,-7849,459,-2056,-624,584,266,1,7,11
2.28E+02,-7878,465,-1790,-543,525,-69,1,7,11
2.29E+02,-7893,482,-1790,-209,172,-93,1,7,11
2.29E+02,-7855,491,-2081,-155,304,-97,1,7,11
2.29E+02,-8055,486,-2111,-132,-26,-91,1,7,11
2.29E+02,-8021,500,-2134,-372,-59,-80,1,7,11
2.30E+02,-7995,770,-2159,-377,-71,-42,1,7,11
2.30E+02,-7967,498,-2167,-158,-67,279,1,7,11
2.30E+02,-7980,474,-2173,-207,-46,345,1,7,11
2.30E+02,-8040,463,-1921,-245,-36,155,1,7,11
2.31E+02,-7870,436,-1922,-251,-62,227,1,7,11
2.31E+02,-8198,412,-2166,-203,100,548,1,7,11
2.31E+02,-8271,416,-2137,-141,-286,574,1,7,11
2.31E+02,-8093,465,-2118,-359,-194,638,1,7,11
2.32E+02,-8175,784,-2072,-365,-633,504,1,7,11
2.32E+02,-8479,828,-1746,-359,-832,656,1,7,11
2.32E+02,-8493,874,-1909,-275,-759,1031,1,7,11
2.32E+02,-8483,688,-1816,124,-919,1122,1,7,11
2.33E+02,-8171,747,-1486,281,-1327,935,1,7,11
2.33E+02,-8317,1080,-1431,172,-1197,954,1,7,11
2.33E+02,-8210,896,-1613,524,-1276,933,1,7,11
2.33E+02,-7879,967,-1541,575,-1565,904,1,7,11
2.34E+02,-7816,1310,-1202,604,-1564,1140,1,7,11
2.34E+02,-7979,1399,-1395,386,-1269,1118,1,7,11
2.34E+02,-7605,1248,-1368,436,-1179,1073,1,7,11
2.34E+02,-7787,1555,-1345,437,-1000,729,1,7,11
2.35E+02,-7764,1607,-1307,435,-765,845,1,7,11
2.35E+02,-7563,1653,-1011,638,-505,433,1,7,11
2.35E+02,-7657,1469,-970,550,-544,541,1,7,11
2.35E+02,-8016,1513,-948,139,-135,174,1,7,11
2.36E+02,-7826,1513,-950,272,-293,350,1,7,11
2.36E+02,-7893,1509,-952,-62,44,267,1,7,11
2.36E+02,-7927,1506,-985,-104,91,-40,1,7,11
2.36E+02,-8232,1493,-1004,-115,124,-97,1,7,11
2.37E+02,-8274,1803,-1296,-102,107,115,1,7,11
2.37E+02,-8303,1816,-1332,107,72,-104,1,7,11
2.37E+02,-8312,1802,-1346,61,39,-38,1,7,11
2.37E+02,-8304,1510,-1368,32,-260,271,1,7,11
2.38E+02,-8284,1444,-1356,1,-312,280,1,7,11
2.38E+02,-8281,1660,-1327,-268,-365,-10,1,7,11
2.38E+02,-8289,1422,-1323,-272,-186,-39,1,7,11
2.38E+02,-8264,1413,-1317,-315,-526,-43,1,7,11
2.39E+02,-8243,1650,-1288,-140,-588,-51,1,7,11
2.39E+02,-8241,1639,-998,-188,-395,-55,1,7,11
2.39E+02,-8223,1636,-977,-241,-439,-42,1,7,11
2.39E+02,-8199,1632,-957,-536,-471,-9,1,7,11
2.40E+02,-7907,1642,-928,-582,-472,304,1,7,11
2.40E+02,-7903,1655,-1148,-408,-456,199,1,7,11
2.40E+02,-7930,1636,-1112,-506,-426,570,1,7,11
2.40E+02,-7911,1598,-1084,-456,-447,594,1,7,11
2.41E+02,-7911,1606,-1082,-534,-445,512,1,7,11
2.41E+02,-7907,1624,-1073,-360,-421,187,1,7,11
2.41E+02,-7898,1622,-1066,61,-394,374,1,7,11
2.41E+02,-7898,1643,-1049,-23,-604,291,1,7,11
2.42E+02,-7925,1415,-1038,372,-566,-37,1,7,11
2.42E+02,-7930,1433,-1025,205,-535,-79,1,7,11
2.42E+02,-7926,1467,-768,231,-240,-72,1,7,11
2.42E+02,-8196,1462,-743,158,-185,-27,1,7,11
2.43E+02,-8215,1466,-727,317,-142,285,1,7,11
2.43E+02,-8244,1474,-719,-23,-378,342,1,7,11
2.43E+02,-8234,1481,-712,-81,-134,376,1,7,11
2.43E+02,-8221,1495,-713,-107,-141,379,1,7,11
2.44E+02,-8231,1503,-720,-116,-137,368,1,7,11
2.44E+02,-8203,1799,-734,-104,-142,340,1,7,11
2.44E+02,-8196,1821,-730,124,-356,321,1,7,11
2.44E+02,-7929,1810,-718,96,-333,305,1,7,11
2.45E+02,-8201,1812,-703,89,-310,273,1,7,11
2.45E+02,-7928,1810,-702,84,-310,-40,1,7,11
2.45E+02,-8195,1798,-691,88,-287,-67,1,7,11
2.45E+02,-8208,1792,-691,107,-274,-81,1,7,11
2.46E+02,-8228,1526,-680,-124,-272,-86,1,7,11
2.46E+02,-8254,1526,-670,-88,-284,-83,1,7,11
2.46E+02,-8265,1528,-662,-59,-320,-64,1,7,11
2.46E+02,-8266,1800,-648,-29,-364,-45,1,7,11
2.47E+02,-8254,1824,-649,-7,-154,-27,1,7,11
2.47E+02,-8230,1841,-656,-4,-184,-14,1,7,11
2.47E+02,-8219,1846,-647,-37,-194,-14,1,7,11
2.47E+02,-8214,1857,-890,-78,-189,-18,1,7,11
2.48E+02,-8204,1858,-874,117,-173,-10,1,7,11
2.48E+02,-7928,1848,-860,52,-160,-8,1,7,11
2.48E+02,-7910,1840,-849,-280,-149,277,1,7,11
2.48E+02,-8197,1818,-817,-330,-373,300,1,7,11
2.49E+02,-8254,1847,-798,-309,-144,334,1,7,11
2.49E+02,-8247,1885,-804,-308,-135,136,1,7,11
2.49E+02,-8249,1898,-797,-336,-366,192,1,7,11
2.49E+02,-8216,1695,-778,-365,-302,197,1,7,11
2.50E+02,-8201,1721,-770,-132,-306,176,1,7,11
2.50E+02,-7909,1733,-777,-161,-303,142,1,7,11
2.50E+02,-7902,1742,-774,-201,-267,366,1,7,11
2.50E+02,-7899,1731,-504,-225,22,332,1,7,11
2.51E+02,-7885,1749,-502,-217,44,284,1,7,11
2.51E+02,-7879,1750,-501,-226,81,-5,1,7,11
2.51E+02,-7909,1682,-474,-227,127,-41,1,7,11
2.51E+02,-7915,1732,-489,-143,-127,-86,1,7,11
2.52E+02,-7933,1741,-483,-366,-107,-90,1,7,11
2.52E+02,-7929,1738,-485,-342,-85,-79,1,7,11
2.52E+02,-7935,1750,-494,-315,-62,-54,1,7,11
2.52E+02,-7932,1741,-495,-295,-32,-29,1,7,11
2.53E+02,-8219,1738,-493,-260,-20,-25,1,7,11
2.53E+02,-8242,1751,-479,49,-55,-19,1,7,11
2.53E+02,-8264,1772,-475,110,112,262,1,7,11
2.53E+02,-8265,1790,-483,-104,-263,303,1,7,11
2.54E+02,-8228,2069,-492,-90,-333,326,1,7,11
2.54E+02,-8234,2073,-480,-100,-338,316,1,7,11
2.54E+02,-8222,2084,-475,-97,-351,307,1,7,11
2.54E+02,-8224,2091,-468,-103,-350,296,1,7,11
2.55E+02,-8225,2099,-453,-109,-360,296,1,7,11
2.55E+02,-8229,2110,-446,-111,-377,311,1,7,11
2.55E+02,-8226,2106,-439,-121,-135,321,1,7,11
2.55E+02,-8216,2107,-424,-125,-153,344,1,7,11
2.56E+02,-8214,2098,-400,-127,-162,367,1,7,11
2.56E+02,-8215,2085,-635,-115,-185,139,1,7,11
2.56E+02,-7923,2082,-616,-86,-222,160,1,7,11
2.56E+02,-7891,2081,-605,-40,-251,175,1,7,11
2.57E+02,-7876,2083,-581,295,-253,200,1,7,11
2.57E+02,-7888,2092,-563,364,-236,213,1,7,11
2.57E+02,-7892,2117,-558,186,-234,227,1,7,11
2.57E+02,-7876,2157,-552,516,-231,232,1,7,11
2.58E+02,-7842,1950,-557,581,-209,233,1,7,11
2.58E+02,-8061,1988,-574,620,-177,220,1,7,11
2.58E+02,-8043,2028,-571,635,-384,184,1,7,11
2.58E+02,-8051,2331,-581,631,-336,136,1,7,11
2.59E+02,-8064,2356,-588,594,-296,354,1,7,11
2.59E+02,-7821,2367,-592,549,-263,315,1,7,11
2.59E+02,-7838,2385,-597,247,21,284,1,7,11
2.59E+02,-7847,2399,-599,203,40,261,1,7,11
2.60E+02,-7853,2410,-612,167,55,-18,1,7,11
2.60E+02,-7857,2417,-613,132,75,-35,1,7,11
2.60E+02,-7851,2430,-626,351,95,-49,1,7,11
2.60E+02,-7851,2427,-632,310,117,-69,1,7,11
2.61E+02,-7856,2412,-629,265,-121,-103,1,7,11
2.61E+02,-7851,2394,-630,-24,-112,112,1,7,11
2.61E+02,-7853,2383,-630,-49,-99,67,1,7,11
2.61E+02,-7857,2387,-386,-63,-89,33,1,7,11
2.62E+02,-7854,2391,-390,-87,-67,14,1,7,11
2.62E+02,-7841,2398,-405,-113,-35,6,1,7,11
2.62E+02,-7840,2390,-418,95,263,-257,1,7,11
2.62E+02,-7846,2382,-422,47,305,-274,1,7,11
2.63E+02,-7861,2372,-431,-258,339,-290,1,7,11
2.63E+02,-7879,2365,-438,-304,359,-299,1,7,11
2.63E+02,-7890,2362,-439,-340,365,-292,1,7,11
2.63E+02,-7896,2348,-440,-381,366,-272,1,7,11
2.64E+02,-7886,2323,-441,-145,358,7,1,7,11
2.64E+02,-7870,2037,-445,-153,343,21,1,7,11
2.64E+02,-7872,2000,-436,-149,337,21,1,7,11
2.64E+02,-7886,1967,-432,-381,328,13,1,7,11
2.65E+02,-7888,1930,-447,-334,312,0,1,7,11
2.65E+02,-7885,2174,-450,-276,307,-275,1,7,11
2.65E+02,-7912,1920,-456,75,295,-288,1,7,11
2.65E+02,-7908,1920,-471,122,265,-277,1,7,11
2.66E+02,-7880,1942,-488,-89,-15,-265,1,7,11
2.66E+02,-7893,1944,-500,-97,-19,8,1,7,11
2.66E+02,-7908,1961,-779,-108,-41,38,1,7,11
2.66E+02,-7917,1988,-801,125,-50,70,1,7,11
2.67E+02,-7890,1990,-824,100,-54,98,1,7,11
2.67E+02,-7870,1995,-851,100,-18,107,1,7,11
2.67E+02,-7875,2016,-863,98,300,109,1,7,11
2.67E+02,-7887,2035,-871,85,352,116,1,7,11
2.68E+02,-7885,2312,-868,67,379,123,1,7,11
2.68E+02,-7874,2341,-888,48,143,-127,1,7,11
2.68E+02,-7868,2364,-642,13,162,-115,1,7,11
2.68E+02,-7842,2370,-655,-287,176,-90,1,7,11
2.69E+02,-7835,2360,-644,-329,196,-72,1,7,11
2.69E+02,-7848,2337,-886,-376,215,-55,1,7,11
2.69E+02,-7863,2329,-874,-140,208,-35,1,7,11
2.69E+02,-7846,2334,-875,-152,162,-12,1,7,11
2.70E+02,-7839,2316,-869,-170,383,256,1,7,11
2.70E+02,-7834,2033,-852,-148,345,-10,1,7,11
2.70E+02,-7836,2003,-841,-350,298,-38,1,7,11
2.70E+02,-7843,1978,-845,-259,-5,-90,1,7,11
2.71E+02,-7857,1975,-861,109,-51,99,1,7,11
2.71E+02,-7875,1976,-883,-26,-99,26,1,7,11
2.71E+02,-7889,2000,-642,340,115,-302,1,7,11
2.71E+02,-7926,2033,-896,156,69,-341,1,7,11
2.72E+02,-7936,2041,-645,186,9,-346,1,7,11
2.72E+02,-8193,2033,-893,193,-313,-340,1,7,11
2.72E+02,-8197,2038,-874,181,-379,-320,1,7,11
2.72E+02,-8199,2043,-854,137,-185,-271,1,7,11
2.73E+02,-8212,2309,-831,341,-242,51,1,7,11
2.73E+02,-8213,2325,-811,289,-559,126,1,7,11
2.73E+02,-8203,2032,-807,-7,-605,-68,1,7,11
2.73E+02,-7905,2024,-769,283,-388,-60,1,7,11
2.74E+02,-7901,2031,-484,311,-388,-76,1,7,11
2.74E+02,-7858,2024,-462,342,-408,-92,1,7,11
2.74E+02,-7824,2020,-450,370,-403,107,1,7,11
2.74E+02,-7817,2045,-452,138,-633,54,1,7,11
2.75E+02,-7811,2327,-454,141,-597,15,1,7,11
2.75E+02,-8051,2350,-464,382,-551,-271,1,7,11
2.75E+02,-8058,2354,-473,347,-238,-305,1,7,11
2.75E+02,-7816,2333,-471,311,-184,-340,1,7,11
2.76E+02,-7860,2307,-458,288,-135,-377,1,7,11
2.76E+02,-7895,2032,-449,283,-364,-144,1,7,11
2.76E+02,-7902,2018,-445,289,-355,-157,1,7,11
2.76E+02,-7919,1992,-440,291,-340,-167,1,7,11
2.77E+02,-7935,1975,-439,300,-332,-167,1,7,11
2.77E+02,-8204,1954,-436,312,-339,-157,1,7,11
2.77E+02,-8205,1946,-441,339,-358,-145,1,7,11
2.77E+02,-8197,1942,-448,366,-381,-133,1,7,11
2.78E+02,-7921,1941,-447,382,-147,-367,1,7,11
2.78E+02,-7906,1945,-456,135,-160,-349,1,7,11
2.78E+02,-7892,1958,-458,135,-167,-329,1,7,11
2.78E+02,-7888,1960,-463,380,-161,-311,1,7,11
2.79E+02,-7896,1970,-466,364,-156,-288,1,7,11
2.79E+02,-7896,1960,-453,320,-155,0,1,7,11
2.79E+02,-7908,1939,-427,266,-154,13,1,7,11
2.79E+02,-7912,1926,-410,-37,-168,15,1,7,11
2.80E+02,-7922,1928,-400,-77,-185,19,1,7,11
2.80E+02,-8193,1920,-622,94,-229,70,1,7,11
2.80E+02,-8196,2172,-615,46,-241,108,1,7,11
2.80E+02,-8198,2169,-597,-257,-256,-118,1,7,11
2.81E+02,-8213,2167,-569,-292,-522,-91,1,7,11
2.81E+02,-8217,2162,-534,-332,-533,-70,1,7,11
2.81E+02,-8237,1921,-250,-343,-541,-58,1,7,11
2.81E+02,-8252,1937,-218,-348,-558,-42,1,7,11
2.82E+02,-8251,1945,-192,-351,-585,-27,1,7,11
2.82E+02,-8234,1948,-177,-347,-600,-19,1,7,11
2.82E+02,-8217,1955,-172,-340,-602,-24,1,7,11
2.82E+02,-8196,1951,-147,-340,-594,-37,1,7,11
2.83E+02,-7919,1952,-134,-328,-580,-61,1,7,11
2.83E+02,-7904,1952,-376,-312,-557,-96,1,7,11
2.83E+02,-7900,1947,-353,-283,-526,122,1,7,11
2.83E+02,-7893,1953,-335,9,-238,91,1,7,11
2.84E+02,-7887,1953,-311,41,-208,76,1,7,11
2.84E+02,-7862,1954,-297,68,-182,66,1,7,11
2.84E+02,-7857,1953,-278,89,-150,49,1,7,11
2.84E+02,-7875,1951,-267,112,-372,34,1,7,11
2.85E+02,-7891,1952,-269,-124,-346,25,1,7,11
2.85E+02,-7902,1957,-281,-115,-304,19,1,7,11
2.85E+02,-7908,1950,-300,-127,1,22,1,7,11
2.85E+02,-7920,1950,-313,119,59,14,1,7,11
2.86E+02,-7931,1960,-317,97,106,7,1,7,11
2.86E+02,-8195,1957,-324,70,-113,5,1,7,11
2.86E+02,-8206,1951,-327,49,-89,8,1,7,11
2.86E+02,-8208,1942,-326,28,-79,17,1,7,11
2.87E+02,-8199,1921,-330,14,-69,21,1,7,11
2.87E+02,-7926,2169,-339,9,-63,19,1,7,11
2.87E+02,-7924,1920,-356,5,-40,20,1,7,11
2.87E+02,-8195,1928,-358,-257,-26,35,1,7,11
2.88E+02,-8198,1920,-364,-265,-22,55,1,7,11
2.88E+02,-8213,2165,-367,-267,-22,69,1,7,11
2.88E+02,-8223,2159,-358,-265,-33,80,1,7,11
2.88E+02,-8232,2156,-360,4,-58,91,1,7,11
2.89E+02,-8239,2159,-365,21,-83,102,1,7,11
2.89E+02,-8240,2171,-365,42,-110,117,1,7,11
2.89E+02,-8238,1926,-378,58,125,-127,1,7,11
2.89E+02,-8236,1929,-373,67,114,-119,1,7,11
2.90E+02,-8238,1943,-373,80,101,-118,1,7,11
2.90E+02,-8226,1942,-372,85,86,-121,1,7,11
2.90E+02,-8217,1943,-371,93,71,124,1,7,11
2.90E+02,-8214,1945,-370,97,60,114,1,7,11
2.91E+02,-8207,1951,-369,97,54,104,1,7,11
2.91E+02,-8206,1955,-360,97,47,99,1,7,11
2.91E+02,-8205,1952,-359,94,45,103,1,7,11
2.91E+02,-8205,1952,-355,99,46,106,1,7,11
2.92E+02,-8202,1950,-356,98,49,107,1,7,11
2.92E+02,-8196,1947,-348,103,59,107,1,7,11
2.92E+02,-7934,1952,-348,107,67,106,1,7,11
2.92E+02,-7924,1954,-345,106,78,105,1,7,11
2.93E+02,-8197,1973,-341,112,92,101,1,7,11
2.93E+02,-8197,1997,-358,111,98,113,1,7,11
2.93E+02,-7922,2012,-363,90,101,125,1,7,11
2.93E+02,-7912,2017,-364,60,114,122,1,7,11
2.94E+02,-7913,2027,-356,32,127,113,1,7,11
2.94E+02,-7925,2029,-351,11,-125,105,1,7,11
2.94E+02,-7922,2030,-359,4,-122,105,1,7,11
2.94E+02,-7919,2038,-357,-262,-106,108,1,7,11
2.95E+02,-7920,2037,-351,-274,-82,108,1,7,11
2.95E+02,-7917,2023,-351,-280,-65,97,1,7,11
2.95E+02,-7926,2004,-350,-277,-47,74,1,7,11
2.95E+02,-7933,2001,-347,-263,-40,49,1,7,11
2.96E+02,-8196,1993,-347,6,-45,29,1,7,11
2.96E+02,-8195,1984,-349,19,-55,14,1,7,11
2.96E+02,-7935,1980,-351,30,-66,0,1,7,11
2.96E+02,-8196,1974,-364,34,-71,-265,1,7,11
2.97E+02,-8208,1965,-371,37,-78,-269,1,7,11
2.97E+02,-8217,1965,-379,40,-97,-261,1,7,11
2.97E+02,-8213,1944,-377,32,-111,4,1,7,11
2.97E+02,-8217,1933,-363,34,-126,9,1,7,11
2.98E+02,-8214,1928,-363,38,112,20,1,7,11
2.98E+02,-8209,2175,-355,44,97,37,1,7,11
2.98E+02,-8195,1924,-357,52,96,57,1,7,11
2.98E+02,-7932,1927,-365,55,104,81,1,7,11
2.99E+02,-7934,1924,-372,56,121,99,1,7,11
2.99E+02,-8197,1925,-374,61,-122,119,1,7,11
2.99E+02,-8193,1942,-368,70,-114,-124,1,7,11
2.99E+02,-8199,1967,-367,79,-117,-110,1,7,11
3.00E+02,-8203,1979,-375,82,127,-88,1,7,11
3.00E+02,-8204,1985,-383,84,112,-70,1,7,11
3.00E+02,-8201,1991,-381,91,100,-62,1,7,11
3.00E+02,-7935,2000,-132,97,90,-65,1,7,11
3.01E+02,-7927,2003,-129,106,90,-80,1,7,11
3.01E+02,-7933,2016,-379,114,88,-93,1,7,11
3.01E+02,-7929,2019,-381,121,81,-105,1,7,11
3.01E+02,-7927,2024,-129,127,86,-123,1,7,11
3.02E+02,-7924,2035,-137,126,93,115,1,7,11
3.02E+02,-7920,2041,-142,117,103,99,1,7,11
3.02E+02,-7926,2044,-145,100,117,80,1,7,11
3.02E+02,-7928,2043,-145,81,-128,67,1,7,11
3.03E+02,-8196,2029,-144,61,-123,55,1,7,11
3.03E+02,-8215,2023,-144,48,-122,50,1,7,11
3.03E+02,-8211,2017,-140,30,125,54,1,7,11
3.03E+02,-8198,1993,-143,12,110,61,1,7,11
3.04E+02,-7933,1985,-134,0,101,60,1,7,11
3.04E+02,-8213,1976,-364,7,98,51,1,7,11
3.04E+02,-8236,1973,-374,24,74,69,1,7,11
3.04E+02,-8222,1975,-375,47,52,94,1,7,11
3.05E+02,-8213,1978,-374,65,54,116,1,7,11
3.05E+02,-8206,1987,-375,82,51,127,1,7,11
3.05E+02,-7933,1989,-381,97,48,121,1,7,11
3.05E+02,-7930,1991,-377,108,49,104,1,7,11
3.06E+02,-8203,1999,-363,119,46,89,1,7,11
3.06E+02,-8184,2005,-368,-127,31,88,1,7,11
3.06E+02,-7931,2009,-379,-128,28,88,1,7,11
3.06E+02,-7931,2008,-373,122,33,89,1,7,11
3.07E+02,-7934,2006,-361,117,36,92,1,7,11
3.07E+02,-8201,2009,-350,114,38,95,1,7,11
3.07E+02,-7926,2002,-343,109,24,109,1,7,11
3.07E+02,-7912,2002,-338,96,29,106,1,7,11
3.08E+02,-7908,2005,-333,88,42,100,1,7,11
3.08E+02,-7909,2004,-331,82,46,99,1,7,11
3.08E+02,-7913,2008,-325,82,62,101,1,7,11
3.08E+02,-7915,2007,-329,83,78,105,1,7,11
3.09E+02,-7918,2012,-339,84,99,102,1,7,11
3.09E+02,-8194,2013,-324,84,119,98,1,7,11
3.09E+02,-8210,2022,-326,85,122,99,1,7,11
3.09E+02,-8205,2022,-323,92,110,105,1,7,11
3.10E+02,-8209,2027,-322,93,97,104,1,7,11
3.10E+02,-8198,2028,-329,95,82,104,1,7,11
3.10E+02,-8195,2032,-331,95,74,98,1,7,11
3.10E+02,-7936,2030,-341,94,73,83,1,7,11
3.11E+02,-7925,2017,-331,91,70,69,1,7,11
3.11E+02,-7921,2022,-317,91,74,54,1,7,11
3.11E+02,-7913,2028,-314,92,71,48,1,7,11
3.11E+02,-7910,2036,-316,90,80,46,1,7,11
3.12E+02,-7916,2044,-319,81,94,49,1,7,11
3.12E+02,-7916,2039,-319,68,106,60,1,7,11
3.12E+02,-7915,2029,-322,55,116,64,1,7,11
3.12E+02,-7917,2017,-314,41,123,64,1,7,11
3.13E+02,-7929,2009,-307,34,-122,55,1,7,11
3.13E+02,-7926,2013,-311,32,-123,50,1,7,11
3.13E+02,-7917,2018,-321,29,-123,45,1,7,11
3.13E+02,-7910,2012,-312,18,-122,46,1,7,11
3.14E+02,-7918,2008,-309,12,-117,39,1,7,11
3.14E+02,-8205,2015,-311,14,-117,41,1,7,11
3.14E+02,-8200,2015,-321,19,123,57,1,7,11
3.14E+02,-8197,2024,-324,27,124,69,1,7,11
3.15E+02,-7931,2027,-327,26,-127,83,1,7,11
3.15E+02,-7919,2025,-327,23,-120,81,1,7,11
3.15E+02,-7914,2026,-329,19,-113,66,1,7,11
3.15E+02,-7915,2025,-330,11,-107,48,1,7,11
3.16E+02,-7919,2030,-332,6,-103,35,1,7,11
3.16E+02,-7919,2026,-343,-258,-105,29,1,7,11
3.16E+02,-7924,2026,-338,-270,-98,26,1,7,11
3.16E+02,-7931,2019,-344,-274,-93,30,1,7,11
3.17E+02,-7932,2014,-341,-276,-91,35,1,7,11
3.17E+02,-8200,2011,-341,-272,-91,45,1,7,11
3.17E+02,-7920,2010,-356,-271,-102,53,1,7,11
3.17E+02,-7920,1999,-356,-274,-97,43,1,7,11
3.18E+02,-8194,1991,-349,-278,-93,32,1,7,11
3.18E+02,-8203,1985,-348,-275,-108,25,1,7,11
3.18E+02,-8203,1987,-355,-265,-118,27,1,7,11
3.18E+02,-8204,1990,-361,-257,-122,40,1,7,11
3.19E+02,-8199,1991,-353,3,-120,54,1,7,11
3.19E+02,-8199,1994,-357,8,-115,65,1,7,11
3.19E+02,-8210,1998,-352,17,-117,68,1,7,11
3.19E+02,-8216,1996,-359,27,124,71,1,7,11
3.20E+02,-8216,2001,-358,32,107,69,1,7,11
3.20E+02,-8212,2011,-351,34,88,64,1,7,11
3.20E+02,-8205,2016,-359,38,74,61,1,7,11
3.20E+02,-8198,2014,-351,39,64,55,1,7,11
3.21E+02,-8193,2018,-339,44,58,49,1,7,11
3.21E+02,-7933,2016,-337,49,52,49,1,7,11
3.21E+02,-7920,2021,-344,52,50,47,1,7,11
3.21E+02,-7910,2028,-343,45,61,47,1,7,11
3.22E+02,-7911,2031,-337,33,74,47,1,7,11
3.22E+02,-7912,2032,-337,17,89,45,1,7,11
3.22E+02,-7925,2037,-316,3,104,40,1,7,11
3.22E+02,-7922,2028,-308,-269,112,34,1,7,11
3.23E+02,-7921,2018,-311,-277,121,15,1,7,11
3.23E+02,-7924,2031,-308,-282,-124,-262,1,7,11
3.23E+02,-7915,2305,-314,-292,-116,-280,1,7,11
3.23E+02,-7893,2325,-319,-316,-101,-295,1,7,11
3.24E+02,-7897,2335,-308,-363,-71,-318,1,7,11
3.24E+02,-7935,2347,-288,-156,-49,-345,1,7,11
3.24E+02,-8209,2352,-285,-196,-55,-363,1,7,11
3.24E+02,-8205,2354,-288,-232,-55,-382,1,7,11
3.25E+02,-7935,2367,-297,-529,-45,-148,1,7,11
3.25E+02,-7909,2363,-305,-584,-19,-180,1,7,11
3.25E+02,-7888,2347,-311,-385,281,-226,1,7,11
3.25E+02,-7890,2335,-303,-426,324,-545,1,7,11
3.26E+02,-7901,2317,-296,-462,354,-599,1,7,11
3.26E+02,-7898,2033,-299,-484,370,-393,1,7,11
3.26E+02,-7884,2005,-305,-503,134,-438,1,7,11
3.26E+02,-7877,1981,-316,-773,164,-484,1,7,11
3.27E+02,-7892,1968,-315,-786,201,-781,1,7,11
3.27E+02,-7911,1963,-336,-804,225,-810,1,7,11
3.27E+02,-7909,1952,-366,-856,237,-829,1,7,11
3.27E+02,-7928,1920,-129,-675,513,-848,1,7,11
3.28E+02,-8210,2131,-369,-740,523,-860,1,7,11
3.28E+02,-8254,2067,-348,-1033,518,-855,1,7,11
3.28E+02,-8290,1758,-322,-758,230,-834,1,7,11
3.28E+02,-8310,1721,-325,-687,185,-805,1,7,11
3.29E+02,-8087,1708,-322,-854,154,-777,1,7,11
3.29E+02,-8157,1705,-300,-486,148,-489,1,7,11
3.29E+02,-8521,1733,14,-598,134,-438,1,7,11
3.29E+02,-8337,1770,53,-180,342,-623,1,7,11
3.30E+02,-8566,2066,34,8,270,-546,1,7,11
3.30E+02,-8138,2095,-332,-71,-36,-513,1,7,11
3.30E+02,-8202,2131,-211,294,274,-594,1,7,11
3.30E+02,-7828,2122,-564,280,149,-787,1,7,11
3.31E+02,-7987,2074,-396,-54,536,-1054,1,7,11
3.31E+02,-7983,1750,-439,73,401,-1376,1,7,11
3.31E+02,-8056,1905,-446,-338,459,-1657,1,7,11
3.31E+02,-7854,1511,-459,-228,430,-1869,1,7,11
3.32E+02,-7897,1626,-484,-606,613,-1754,1,7,11
3.32E+02,-7930,1193,-504,-484,224,-2095,1,7,11
3.32E+02,-8250,1339,-487,-803,158,-2067,1,7,11
3.32E+02,-8065,976,-466,-838,323,-1716,1,7,11
3.33E+02,-8104,1144,-445,-839,-31,-1845,1,7,11
3.33E+02,-8148,1060,-429,-824,-108,-1446,1,7,11
3.33E+02,-8182,724,-409,-783,83,-1552,1,7,11
3.33E+02,-8458,681,-403,-451,46,-1159,1,7,11
3.34E+02,-8485,668,-399,-622,35,-1284,1,7,11
3.34E+02,-8496,663,-640,-540,26,-1146,1,7,11
3.34E+02,-8491,656,-628,-218,9,-766,1,7,11
3.34E+02,-8491,893,-605,-170,-264,-669,1,7,11
3.35E+02,-8503,894,-588,-365,-302,-859,1,7,11
3.35E+02,-8496,663,-602,-308,-358,-810,1,7,11
3.35E+02,-8472,687,-621,-277,-144,-771,1,7,11
3.35E+02,-8456,699,-600,-282,-162,-486,1,7,11
3.36E+02,-8367,725,-243,37,-381,-459,1,7,11
3.36E+02,-8188,1048,-555,-114,-249,-546,1,7,11
3.36E+02,-8280,718,-568,-128,-231,-250,1,7,11
3.36E+02,-8095,679,-524,114,-129,-561,1,7,11
3.37E+02,-8133,649,-253,127,-165,-603,1,7,11
3.37E+02,-8178,670,-241,-106,-219,-436,1,7,11
3.37E+02,-8464,640,-226,125,-536,-501,1,7,11
3.37E+02,-8474,874,-211,107,-613,-791,1,7,11
3.38E+02,-8451,840,-204,116,-421,-822,1,7,11
3.38E+02,-8152,808,-215,-125,-477,-893,1,7,11
3.38E+02,-8139,777,-208,-117,-503,-731,1,7,11
3.38E+02,-8152,472,-186,125,-509,-1085,1,7,11
3.39E+02,-8169,408,-139,92,-780,-925,1,7,11
3.39E+02,-8191,609,-350,68,-803,-1014,1,7,11
3.39E+02,-8457,566,-308,64,-875,-1326,1,7,11
3.39E+02,-8451,529,-286,66,-665,-1347,1,7,11
3.40E+02,-8156,234,-281,54,-694,-1339,1,7,11
3.40E+02,-8124,159,-257,3,-683,-1327,1,7,11
3.40E+02,-8139,321,41,-292,-896,-1338,1,7,11
3.40E+02,-8155,268,74,-287,-863,-1350,1,7,11
3.41E+02,-8187,268,95,10,-817,-1340,1,7,11
3.41E+02,-8474,291,117,21,-511,-1020,1,7,11
3.41E+02,-8502,273,-95,7,-445,-912,1,7,11
3.41E+02,-8553,277,-64,37,-620,-1033,1,7,11
3.42E+02,-8565,314,-54,97,-543,-860,1,7,11
3.42E+02,-8572,360,-49,-108,-190,-426,1,7,11
3.42E+02,-8322,372,-24,-86,-354,-246,1,7,11
3.42E+02,-8556,356,265,-60,-296,-371,1,7,11
3.43E+02,-8540,376,299,-7,-261,-315,1,7,11
3.43E+02,-8540,146,321,298,-258,-303,1,7,11
3.43E+02,-8531,195,326,341,-282,-316,1,7,11
3.43E+02,-8503,231,338,339,-312,-326,1,7,11
3.44E+02,-8449,229,338,292,-329,-341,1,7,11
3.44E+02,-8134,192,331,-20,-316,-378,1,7,11
3.44E+02,-8099,160,342,-64,-264,-179,1,7,11
3.44E+02,-8119,129,370,-98,63,-234,1,7,11
3.45E+02,-8134,338,141,-127,116,-255,1,7,11
3.45E+02,-8123,282,146,122,-108,-255,1,7,11
3.45E+02,-8099,-51,138,115,-69,-236,1,7,11
3.45E+02,-8128,114,149,-119,-10,-219,1,7,11
3.46E+02,-8190,51,154,-43,297,-193,1,7,11
3.46E+02,-8519,52,150,334,321,-139,1,7,11
3.46E+02,-8572,76,134,186,327,-294,1,7,11
3.46E+02,-8332,116,368,526,309,88,1,7,11
3.47E+02,-8572,-100,321,570,281,-45,1,7,11
3.47E+02,-8561,-85,307,585,-2,307,1,7,11
3.47E+02,-8559,-86,310,570,-32,374,1,7,11
3.47E+02,-8553,-63,290,551,-92,164,1,7,11
3.48E+02,-8533,-18,274,516,79,194,1,7,11
3.48E+02,-8537,260,283,206,38,227,1,7,11
3.48E+02,-8376,280,347,169,13,250,1,7,11
3.48E+02,-8388,333,330,161,-362,596,1,7,11
3.49E+02,-8562,334,298,351,-211,425,1,7,11
3.49E+02,-8460,310,273,282,-240,465,1,7,11
3.49E+02,-8140,314,272,-15,-205,455,1,7,11
3.49E+02,-8129,317,284,-48,-382,430,1,7,11
3.50E+02,-8161,322,301,-60,-303,407,1,7,11
3.50E+02,-8190,344,321,-37,16,402,1,7,11
3.50E+02,-8460,368,321,-11,67,420,1,7,11
3.50E+02,-8463,131,323,271,123,435,1,7,11
3.51E+02,-8466,166,320,304,-88,439,1,7,11
3.51E+02,-8468,201,306,327,-52,431,1,7,11
3.51E+02,-8468,224,294,328,-21,410,1,7,11
3.51E+02,-8477,248,291,321,256,631,1,7,11
3.52E+02,-8481,540,265,317,256,574,1,7,11
3.52E+02,-8494,567,261,297,-7,512,1,7,11
3.52E+02,-8504,598,-8,283,-30,192,1,7,11
3.52E+02,-8502,616,-15,-1,-60,132,1,7,11
3.53E+02,-8501,629,-25,-33,-88,345,1,7,11
3.53E+02,-8499,626,-12,-74,-111,323,1,7,11
3.53E+02,-8491,605,-6,-108,125,309,1,7,11
3.53E+02,-8489,576,268,-126,110,285,1,7,11
3.54E+02,-8474,564,273,-118,97,258,1,7,11
3.54E+02,-8475,571,278,-90,99,-32,1,7,11
3.54E+02,-8475,599,265,-66,104,-53,1,7,11
3.54E+02,-8458,630,-6,-62,111,-64,1,7,11
3.55E+02,-8465,388,-7,-85,-119,-63,1,7,11
3.55E+02,-8491,400,257,-112,-101,-59,1,7,11
3.55E+02,-8502,440,261,124,-108,-56,1,7,11
3.55E+02,-8489,423,265,77,-123,-35,1,7,11
3.56E+02,-8474,410,278,27,127,262,1,7,11
3.56E+02,-8468,420,277,12,-126,267,1,7,11
3.56E+02,-8493,418,280,-268,-106,277,1,7,11
3.56E+02,-8490,416,272,-267,-86,316,1,7,11
3.57E+02,-8501,427,278,8,-54,344,1,7,11
3.57E+02,-8485,434,264,34,-38,362,1,7,11
3.57E+02,-8469,437,260,65,-28,364,1,7,11
3.57E+02,-8470,462,259,126,-3,360,1,7,11
3.58E+02,-8472,489,-10,-94,256,350,1,7,11
3.58E+02,-8473,770,-23,-75,260,346,1,7,11
3.58E+02,-8467,796,-31,-58,262,342,1,7,11
3.58E+02,-8470,809,-38,-55,268,336,1,7,11
3.59E+02,-8477,820,-39,-52,269,338,1,7,11
3.59E+02,-8477,829,-41,-46,266,344,1,7,11
3.59E+02,-8459,816,-39,-47,267,367,1,7,11
3.59E+02,-8172,819,-45,-22,284,134,1,7,11
3.60E+02,-8171,812,-39,-5,314,148,1,7,11
3.60E+02,-8160,798,-31,279,331,145,1,7,11
3.60E+02,-8159,805,-40,316,342,379,1,7,11
3.60E+02,-8159,809,-55,340,358,346,1,7,11
3.61E+02,-8166,827,-73,359,382,307,1,7,11
3.61E+02,-8453,828,-81,361,145,267,1,7,11
3.61E+02,-8469,838,-96,367,143,-22,1,7,11
3.61E+02,-8490,850,-118,370,135,-57,1,7,11
3.62E+02,-8512,860,-124,365,370,-83,1,7,11
3.62E+02,-8527,876,123,360,332,-102,1,7,11
3.62E+02,-8532,890,105,345,285,-102,1,7,11
3.62E+02,-8524,650,104,324,-15,-88,1,7,11
3.63E+02,-8514,653,91,290,-51,-69,1,7,11
3.63E+02,-8492,646,95,-4,-78,-47,1,7,11
3.63E+02,-8465,651,89,-42,-99,-39,1,7,11
3.63E+02,-8182,657,92,-78,-112,-40,1,7,11
3.64E+02,-8165,662,93,-118,-106,-40,1,7,11
3.64E+02,-8151,666,93,100,-85,-35,1,7,11
3.64E+02,-8149,650,104,62,-50,-23,1,7,11
3.64E+02,-8148,892,113,45,256,-5,1,7,11
3.65E+02,-8151,888,111,49,300,270,1,7,11
3.65E+02,-8167,895,100,59,333,277,1,7,11
3.65E+02,-8190,669,81,73,352,280,1,7,11
3.65E+02,-8184,684,64,61,345,293,1,7,11
3.66E+02,-8176,694,48,43,335,302,1,7,11
3.66E+02,-8182,697,47,19,326,307,1,7,11
3.66E+02,-8464,719,39,-261,308,311,1,7,11
3.66E+02,-8489,737,22,-280,274,334,1,7,11
3.67E+02,-8490,761,22,-302,-8,374,1,7,11
3.67E+02,-8487,1027,16,-327,-16,173,1,7,11
3.67E+02,-8455,1032,19,-347,-24,221,1,7,11
3.67E+02,-8170,760,15,-362,-14,239,1,7,11
3.68E+02,-8161,757,16,-359,-2,231,1,7,11
3.68E+02,-8151,1034,11,-326,267,209,1,7,11
3.68E+02,-8143,1078,6,-303,275,177,1,7,11
3.68E+02,-8152,1103,0,-321,283,154,1,7,11
3.69E+02,-8151,1118,-265,-342,282,141,1,7,11
3.69E+02,-8158,1133,-282,-352,284,383,1,7,11
3.69E+02,-8170,1143,-292,-346,283,370,1,7,11
3.69E+02,-8169,1143,-310,-346,273,360,1,7,11
3.70E+02,-8166,1143,-308,-353,266,351,1,7,11
3.70E+02,-8164,901,-315,-348,-2,330,1,7,11
3.70E+02,-8177,915,-316,-339,-18,307,1,7,11
3.70E+02,-8185,918,-318,-335,-37,292,1,7,11
3.71E+02,-8185,931,-329,-322,-59,282,1,7,11
3.71E+02,-8185,939,-337,-304,-82,279,1,7,11
3.71E+02,-8174,936,-342,-282,-99,281,1,7,11
3.71E+02,-8158,947,-351,2,-107,283,1,7,11
3.72E+02,-8144,947,-345,26,-103,290,1,7,11
3.72E+02,-8140,951,-341,45,-100,293,1,7,11
3.72E+02,-8137,961,-346,44,-103,292,1,7,11
3.72E+02,-8140,973,-340,39,-107,291,1,7,11
3.73E+02,-8140,978,-342,23,-114,287,1,7,11
3.73E+02,-8142,988,-332,13,-125,289,1,7,11
3.73E+02,-8140,995,-330,5,121,295,1,7,11
3.73E+02,-8131,994,-328,9,116,310,1,7,11
3.74E+02,-8119,987,-330,23,119,328,1,7,11
3.74E+02,-8113,992,-328,47,-120,343,1,7,11
3.74E+02,-8114,994,-324,71,-104,360,1,7,11
3.74E+02,-8113,1005,-328,104,-92,361,1,7,11
3.75E+02,-8116,1288,-341,-124,-80,356,1,7,11
3.75E+02,-8123,1313,-355,-113,-72,348,1,7,11
3.75E+02,-8135,1339,-354,-109,-64,338,1,7,11
3.75E+02,-8140,1364,-366,-115,-70,329,1,7,11
3.76E+02,-8147,1378,-370,-127,-79,313,1,7,11
3.76E+02,-8149,1399,-375,118,-95,292,1,7,11
3.76E+02,-8128,1155,-376,95,-118,276,1,7,11
3.76E+02,-8107,1401,-377,64,-128,-8,1,7,11
3.77E+02,-8109,1382,-363,43,-127,-46,1,7,11
3.77E+02,-8132,1380,-344,44,121,-76,1,7,11
3.77E+02,-8146,1385,-339,52,96,-83,1,7,11
3.77E+02,-8135,1404,-347,69,83,-73,1,7,11
3.78E+02,-8123,1160,-351,77,84,-60,1,7,11
3.78E+02,-8104,1163,-361,78,94,-60,1,7,11
3.78E+02,-8099,1166,-367,80,105,-74,1,7,11
3.78E+02,-8100,1170,-370,75,108,-106,1,7,11
3.79E+02,-8115,1191,-130,62,101,113,1,7,11
3.79E+02,-8115,1197,-134,36,83,87,1,7,11
3.79E+02,-8114,1194,-137,-259,70,69,1,7,11
3.79E+02,-8118,1185,-383,-293,64,62,1,7,11
3.80E+02,-8136,1155,-370,-318,62,64,1,7,11
3.80E+02,-8143,1377,-350,-314,54,71,1,7,11
3.80E+02,-8143,1362,-346,-289,39,84,1,7,11
3.80E+02,-8127,1352,-336,9,33,91,1,7,11
3.81E+02,-8121,1355,-325,63,38,89,1,7,11
3.81E+02,-8133,1362,-312,112,41,86,1,7,11
3.81E+02,-8134,1382,-296,-98,35,90,1,7,11
3.81E+02,-8144,1159,-300,-69,34,97,1,7,11
3.82E+02,-8129,1189,-308,-58,25,104,1,7,11
3.82E+02,-8121,1209,-327,-70,21,118,1,7,11
3.82E+02,-8121,1222,-327,-102,27,118,1,7,11
3.82E+02,-8120,1224,-317,108,37,115,1,7,11
3.83E+02,-8115,1221,-312,65,38,104,1,7,11
3.83E+02,-8119,1203,-306,3,37,91,1,7,11
3.83E+02,-8120,1193,-287,-273,32,67,1,7,11
3.83E+02,-8116,1213,-292,-293,26,49,1,7,11
3.84E+02,-8126,1237,-278,-347,27,61,1,7,11
3.84E+02,-8149,1247,-272,-169,9,92,1,7,11
3.84E+02,-8131,1244,-284,-204,-292,93,1,7,11
3.84E+02,-8100,1247,-292,-228,-308,53,1,7,11
3.85E+02,-8103,1235,-288,-249,-308,-268,1,7,11
3.85E+02,-8105,1226,-281,-246,-308,-331,1,7,11
3.85E+02,-8092,1193,-267,-233,-300,-148,1,7,11
3.85E+02,-8095,1206,-258,-201,-282,-212,1,7,11
3.86E+02,-8096,1173,28,-195,2,-246,1,7,11
3.86E+02,-8118,1398,53,-178,31,-543,1,7,11
3.86E+02,-8132,1390,69,-137,32,-592,1,7,11
3.86E+02,-8104,1362,74,-360,36,-637,1,7,11
3.87E+02,-8118,1355,80,-327,57,-447,1,7,11
3.87E+02,-8148,1373,95,-321,65,-495,1,7,11
3.87E+02,-8149,1387,92,-342,50,-779,1,7,11
3.87E+02,-8143,1367,97,-144,26,-813,1,7,11
3.88E+02,-8145,1358,93,-195,2,-856,1,7,11
3.88E+02,-8159,1340,98,-252,-272,-892,1,7,11
3.88E+02,-8170,1312,104,-567,-283,-651,1,7,11
3.88E+02,-8169,1010,115,-611,-276,-650,1,7,11
3.89E+02,-8159,971,120,-390,6,-892,1,7,11
3.89E+02,-8148,935,-122,-444,41,-855,1,7,11
3.89E+02,-8150,1148,-115,-502,74,-808,1,7,11
3.89E+02,-8150,1075,-104,-789,97,-783,1,7,11
3.90E+02,-8142,1025,-106,-493,118,-788,1,7,11
3.90E+02,-8128,740,-104,-416,-116,-803,1,7,11
3.90E+02,-8129,721,-100,-601,-92,-832,1,7,11
3.90E+02,-8126,731,-116,-543,-78,-854,1,7,11
3.91E+02,-8123,742,110,-250,-29,-837,1,7,11
3.91E+02,-8149,737,97,-251,281,-806,1,7,11
3.91E+02,-8168,718,84,-253,312,-508,1,7,11
3.91E+02,-8171,716,71,-255,324,-461,1,7,11
3.92E+02,-8173,681,62,-541,335,-404,1,7,11
3.92E+02,-8176,871,65,-551,350,-601,1,7,11
3.92E+02,-8183,817,61,-249,378,-565,1,7,11
3.92E+02,-8190,800,60,-161,150,-542,1,7,11
3.93E+02,-8184,770,36,-308,176,-540,1,7,11
3.93E+02,-8184,497,15,85,222,-586,1,7,11
3.93E+02,-8451,497,6,-55,516,-395,1,7,11
3.93E+02,-8462,784,-264,-13,530,-427,1,7,11
3.94E+02,-8493,793,-280,-69,524,-393,1,7,11
3.94E+02,-8522,790,-283,108,228,-574,1,7,11
3.94E+02,-8533,804,-299,54,156,-244,1,7,11
3.94E+02,-8515,790,-326,-268,353,-174,1,7,11
3.95E+02,-8518,508,-320,-322,324,-373,1,7,11
3.95E+02,-8511,500,-308,-353,269,-343,1,7,11
3.95E+02,-8487,496,-305,-140,-46,-322,1,7,11
3.95E+02,-8473,498,-297,-201,-91,-302,1,7,11
3.96E+02,-8460,494,-291,-238,124,-292,1,7,11
3.96E+02,-8165,496,-298,-231,105,-316,1,7,11
3.96E+02,-8149,769,-302,-213,120,-358,1,7,11
3.96E+02,-8139,789,-294,-230,-116,-131,1,7,11
3.97E+02,-8156,801,-284,-548,-82,-132,1,7,11
3.97E+02,-8176,800,-280,-387,-49,-364,1,7,11
3.97E+02,-8450,790,-282,-472,-23,-330,1,7,11
3.97E+02,-8506,507,-262,-798,268,-319,1,7,11
3.98E+02,-8517,769,-268,-818,257,-304,1,7,11
3.98E+02,-8493,498,-264,-854,-7,-297,1,7,11
3.98E+02,-8469,480,-266,-883,256,-304,1,7,11
3.98E+02,-8463,461,-270,-650,271,-326,1,7,11
3.99E+02,-8567,485,6,-648,298,-330,1,7,11
3.99E+02,-8356,771,19,-893,-18,-260,1,7,11
3.99E+02,-8542,503,24,-883,-122,63,1,7,11
3.99E+02,-8170,425,34,-869,42,57,1,7,11
4.00E+02,-8067,632,41,-833,-281,-284,1,7,11
4.00E+02,-8258,579,46,-828,-315,-139,1,7,11
4.00E+02,-8244,557,37,-817,-322,-253,1,7,11
4.00E+02,-8270,539,-260,-816,-278,-575,1,7,11
4.01E+02,-8259,246,-365,-803,49,-605,1,7,11
4.01E+02,-8305,212,-139,-510,21,-400,1,7,11
4.01E+02,-8089,207,-166,-481,176,-604,1,7,11
4.01E+02,-8139,190,-187,-493,570,-243,1,7,11
4.02E+02,-8185,174,-228,-490,418,-379,1,7,11
4.02E+02,-8480,164,-252,-456,485,-264,1,7,11
4.02E+02,-8536,167,-256,-406,778,104,1,7,11
4.02E+02,-8333,185,-255,-576,499,-31,1,7,11
4.03E+02,-8378,232,-523,-192,411,365,1,7,11
4.03E+02,-8354,549,-571,-318,519,529,1,7,11
4.03E+02,-8540,580,-622,45,129,424,1,7,11
4.03E+02,-8482,623,-409,-106,291,771,1,7,11
4.04E+02,-8459,414,-426,-24,-32,805,1,7,11
4.04E+02,-8469,470,-420,320,-100,804,1,7,11
4.04E+02,-8477,789,-416,156,80,786,1,7,11
4.04E+02,-8487,852,-412,240,23,770,1,7,11
4.05E+02,-8453,679,-453,547,-294,496,1,7,11
4.05E+02,-8116,697,-499,252,-301,453,1,7,11
4.05E+02,-8132,684,-496,201,13,623,1,7,11
4.05E+02,-8182,692,-469,165,32,518,1,7,11
4.06E+02,-8464,704,-446,140,-257,175,1,7,11
4.06E+02,-8479,698,-405,359,-296,375,1,7,11
4.06E+02,-8473,682,-640,326,-347,346,1,7,11
4.06E+02,-8192,889,-600,296,-136,323,1,7,11
4.07E+02,-8174,864,-570,332,-172,272,1,7,11
4.07E+02,-8142,860,-560,128,-198,-40,1,7,11
4.07E+02,-8127,874,-542,160,-186,-72,1,7,11
4.07E+02,-8135,874,-515,175,-158,-65,1,7,11
4.08E+02,-8136,889,-249,188,-141,-30,1,7,11
4.08E+02,-8158,881,-226,198,-377,280,1,7,11
4.08E+02,-8183,895,-207,229,-379,335,1,7,11
4.08E+02,-8192,895,-180,241,-163,132,1,7,11
4.09E+02,-8186,643,-157,247,-223,160,1,7,11
4.09E+02,-8189,668,-160,237,-555,173,1,7,11
4.09E+02,-8478,678,-140,178,-628,179,1,7,11
4.09E+02,-8542,698,-138,129,-452,189,1,7,11
4.10E+02,-8337,1031,-130,378,-812,226,1,7,11
4.10E+02,-8374,1091,-371,335,-659,567,1,7,11
4.10E+02,-8373,1132,-348,285,-761,439,1,7,11
4.10E+02,-8526,897,3,-38,-942,663,1,7,11
4.11E+02,-8496,925,68,-29,-1019,655,1,7,11
4.11E+02,-8189,962,124,1,-1303,890,1,7,11
4.11E+02,-8121,1012,-78,264,-1282,858,1,7,11
4.11E+02,-8069,1300,-28,259,-952,810,1,7,11
4.12E+02,-8298,1342,276,294,-1107,478,1,7,11
4.12E+02,-8277,1399,321,340,-741,392,1,7,11
4.12E+02,-8255,1188,370,364,-876,569,1,7,11
4.12E+02,-8263,1196,160,362,-507,237,1,7,11
4.13E+02,-8273,1192,199,367,-405,163,1,7,11
4.13E+02,-8293,1181,233,376,-569,348,1,7,11
4.13E+02,-8316,1173,249,137,-238,280,1,7,11
4.13E+02,-8089,1185,518,164,-173,-41,1,7,11
4.14E+02,-8123,1206,518,169,-384,-82,1,7,11
4.14E+02,-8149,1215,524,149,-360,-89,1,7,11
4.14E+02,-8168,1203,545,361,-353,-78,1,7,11
4.14E+02,-8163,1155,563,314,-374,-71,1,7,11
4.15E+02,-8146,1354,587,297,-155,-93,1,7,11
4.15E+02,-8133,1304,610,285,-180,-123,1,7,11
4.15E+02,-8116,1003,619,290,-196,109,1,7,11
4.15E+02,-8109,986,601,307,-189,100,1,7,11
4.16E+02,-8116,974,593,312,-155,107,1,7,11
4.16E+02,-8150,969,576,315,-374,121,1,7,11
4.16E+02,-8173,989,560,310,-360,-108,1,7,11
4.16E+02,-8453,987,557,291,-357,-70,1,7,11
4.17E+02,-8465,989,554,284,-366,-47,1,7,11
4.17E+02,-8467,988,552,295,-376,-41,1,7,11
4.17E+02,-8467,1004,551,323,-133,-70,1,7,11
4.17E+02,-8458,1310,562,345,-153,-100,1,7,11
4.18E+02,-8459,1379,559,376,-156,-95,1,7,11
4.18E+02,-8456,1161,556,372,-144,-70,1,7,11
4.18E+02,-8172,1183,552,347,-131,-45,1,7,11
4.18E+02,-8139,1186,537,313,-350,-36,1,7,11
4.19E+02,-8105,1180,533,262,-319,-37,1,7,11
4.19E+02,-8110,1181,544,-9,-279,-64,1,7,11
4.19E+02,-8153,1192,557,-10,14,-86,1,7,11
4.19E+02,-8178,1221,551,261,18,-72,1,7,11
4.20E+02,-8186,1250,549,272,30,-33,1,7,11
4.20E+02,-8152,1275,536,308,17,300,1,7,11
4.20E+02,-8142,1548,527,322,12,314,1,7,11
4.20E+02,-8130,1552,533,328,10,311,1,7,11
4.21E+02,-8128,1582,530,337,6,296,1,7,11
4.21E+02,-8129,1625,527,330,4,280,1,7,11
4.21E+02,-8129,1641,527,280,8,283,1,7,11
4.21E+02,-8125,1641,540,-35,27,277,1,7,11
4.22E+02,-8101,1644,535,-103,39,265,1,7,11
4.22E+02,-8122,1606,553,84,71,-13,1,7,11
4.22E+02,-8099,1588,561,51,62,-61,1,7,11
4.22E+02,-8108,1567,556,45,79,-118,1,7,11
4.23E+02,-8120,1543,558,29,94,88,1,7,11
4.23E+02,-8151,1263,582,35,104,63,1,7,11
4.23E+02,-8164,1231,591,49,93,54,1,7,11
4.23E+02,-8174,1214,588,75,81,46,1,7,11
4.24E+02,-8184,1208,592,81,67,52,1,7,11
4.24E+02,-8182,1209,587,86,44,62,1,7,11
4.24E+02,-8172,1199,598,78,28,74,1,7,11
4.24E+02,-8160,1180,597,85,14,69,1,7,11
4.25E+02,-8139,1174,595,109,4,44,1,7,11
4.25E+02,-8133,1174,602,116,7,16,1,7,11
4.25E+02,-8142,1190,605,108,7,9,1,7,11
4.25E+02,-8129,1212,614,84,-257,36,1,7,11
4.26E+02,-8128,1219,624,34,7,77,1,7,11
4.26E+02,-8124,1207,634,6,14,126,1,7,11
4.26E+02,-8115,1215,636,26,8,-116,1,7,11
4.26E+02,-8106,1194,390,32,25,-112,1,7,11
4.27E+02,-8115,1221,404,58,49,-115,1,7,11
4.27E+02,-8112,1234,409,63,68,-111,1,7,11
4.27E+02,-8098,1247,402,81,90,-112,1,7,11
4.27E+02,-8086,1244,399,105,118,118,1,7,11
4.28E+02,-8093,1253,396,-123,-99,78,1,7,11
4.28E+02,-8119,1275,393,-117,-61,53,1,7,11
4.28E+02,-8119,1545,633,-112,-52,36,1,7,11
4.28E+02,-8118,1559,624,-117,-46,11,1,7,11
4.29E+02,-8122,1563,618,117,-46,3,1,7,11
4.29E+02,-8154,1547,635,90,-49,-262,1,7,11
4.29E+02,-8174,1545,623,86,-69,-262,1,7,11
4.29E+02,-8156,1278,603,91,-90,2,1,7,11
4.30E+02,-8139,1271,591,88,-83,12,1,7,11
4.30E+02,-8143,1260,590,81,-63,28,1,7,11
4.30E+02,-8135,1247,592,82,-57,46,1,7,11
4.30E+02,-8138,1233,600,92,-46,55,1,7,11
4.31E+02,-8174,1260,603,105,-40,57,1,7,11
4.31E+02,-8164,1255,582,51,-58,103,1,7,11
4.31E+02,-8158,1240,582,29,-63,115,1,7,11
4.31E+02,-8143,1235,581,29,-76,92,1,7,11
4.32E+02,-8162,1269,585,16,-78,76,1,7,11
4.32E+02,-8180,1550,575,-292,-90,107,1,7,11
4.32E+02,-8172,1267,554,-368,-100,-92,1,7,11
4.32E+02,-8178,1211,565,-135,-80,-89,1,7,11
4.33E+02,-8171,1164,595,-349,-84,110,1,7,11
4.33E+02,-8154,1167,597,-259,-103,5,1,7,11
4.33E+02,-8155,1204,593,80,-120,-313,1,7,11
4.33E+02,-8148,1223,585,113,-121,-317,1,7,11
4.34E+02,-8134,1228,569,115,-104,-290,1,7,11
4.34E+02,-8129,1235,565,117,-82,-267,1,7,11
4.34E+02,-8127,1271,555,125,-68,14,1,7,11
4.34E+02,-8142,1277,549,96,-60,54,1,7,11
4.35E+02,-8140,1538,536,62,-60,107,1,7,11
4.35E+02,-8141,1267,533,28,-68,-111,1,7,11
4.35E+02,-8142,1261,542,8,-75,-98,1,7,11
4.35E+02,-8154,1261,538,4,-90,-98,1,7,11
4.36E+02,-8152,1248,540,14,-111,-119,1,7,11
4.36E+02,-8149,1238,545,46,-126,102,1,7,11
4.36E+02,-8133,1223,536,96,113,52,1,7,11
4.36E+02,-8130,1224,538,-99,107,-260,1,7,11
4.37E+02,-8133,1232,537,-49,108,-295,1,7,11
4.37E+02,-8140,1240,557,-17,110,-319,1,7,11
4.37E+02,-8149,1254,551,-9,113,-319,1,7,11
4.37E+02,-8142,1256,551,-23,108,-302,1,7,11
4.38E+02,-8137,1260,541,-58,113,-286,1,7,11
4.38E+02,-8157,1270,532,-101,118,-264,1,7,11
4.38E+02,-8153,1274,524,112,111,29,1,7,11
4.38E+02,-8149,1271,524,65,109,61,1,7,11
4.39E+02,-8143,1240,532,18,99,80,1,7,11
4.39E+02,-8159,1223,537,8,85,66,1,7,11
4.39E+02,-8188,1219,533,10,65,47,1,7,11
4.39E+02,-8450,1205,545,29,35,28,1,7,11
4.40E+02,-8157,1217,534,59,17,13,1,7,11
4.40E+02,-8166,1212,546,80,18,16,1,7,11
4.40E+02,-8143,1199,545,117,14,9,1,7,11
4.40E+02,-8128,1196,552,-106,19,-261,1,7,11
4.41E+02,-8129,1198,553,-89,37,-270,1,7,11
4.41E+02,-8138,1200,563,-89,42,-261,1,7,11
4.41E+02,-8131,1200,552,-87,38,-261,1,7,11
4.41E+02,-8129,1206,542,-79,47,-271,1,7,11
4.42E+02,-8132,1197,538,-75,68,-279,1,7,11
4.42E+02,-8152,1187,551,-72,76,-290,1,7,11
4.42E+02,-8169,1170,563,-53,70,-295,1,7,11
4.42E+02,-8170,1407,576,-16,36,-306,1,7,11
4.43E+02,-8152,1407,589,301,-262,-317,1,7,11
4.43E+02,-8160,1169,601,320,-268,-298,1,7,11
4.43E+02,-8180,1192,616,311,-275,23,1,7,11
4.43E+02,-8147,1203,605,283,-279,104,1,7,11
4.44E+02,-8114,1218,590,-16,9,-108,1,7,11
4.44E+02,-8093,1235,581,-71,77,-82,1,7,11
4.44E+02,-8083,1243,572,117,-90,-55,1,7,11
4.44E+02,-8106,1259,577,86,263,-45,1,7,11
4.45E+02,-8136,1259,583,-3,317,-30,1,7,11
4.45E+02,-8144,1258,580,-290,331,-31,1,7,11
4.45E+02,-8165,1237,566,-301,319,-58,1,7,11
4.45E+02,-8178,1248,563,-284,290,-106,1,7,11
4.46E+02,-8168,1271,541,-285,256,119,1,7,11
4.46E+02,-8179,1234,551,-317,-16,98,1,7,11
4.46E+02,-8167,1258,549,-293,-41,64,1,7,11
4.46E+02,-8159,1245,554,-317,-41,62,1,7,11
4.47E+02,-8136,1234,545,-328,-37,61,1,7,11
4.47E+02,-8139,1224,548,-365,-18,67,1,7,11
4.47E+02,-8161,1218,553,-139,-10,93,1,7,11
4.47E+02,-8166,1236,551,-163,-42,110,1,7,11
4.48E+02,-8164,1228,539,-196,-71,126,1,7,11
4.48E+02,-8161,1255,518,-203,-96,-127,1,7,11
4.48E+02,-8134,1252,243,-252,-102,-100,1,7,11
4.48E+02,-8141,1204,514,-546,-82,-77,1,7,11
4.49E+02,-8146,1206,520,-524,-89,-85,1,7,11
4.49E+02,-8170,1225,530,-527,-99,-77,1,7,11
4.49E+02,-8184,1214,534,-526,-125,-49,1,7,11
4.49E+02,-8172,1221,539,-241,105,-37,1,7,11
4.50E+02,-8178,1252,560,-520,92,-27,1,7,11
4.50E+02,-8178,1275,551,-559,53,305,1,7,11
4.50E+02,-8141,1260,547,-579,11,367,1,7,11
4.50E+02,-8141,1548,571,-570,24,357,1,7,11
4.51E+02,-8179,1621,585,-631,-262,361,1,7,11
4.51E+02,-8109,1236,566,-403,-323,345,1,7,11
4.51E+02,-8305,1204,550,-229,-319,-86,1,7,11
4.51E+02,-8090,1543,562,-343,-263,53,1,7,11
4.52E+02,-8126,1552,596,-307,-260,56,1,7,11
4.52E+02,-8138,1548,603,-269,-295,64,1,7,11
4.52E+02,-8135,1564,603,6,-318,64,1,7,11
4.52E+02,-8097,1541,591,-265,-317,41,1,7,11
4.53E+02,-8112,1548,598,-275,-270,-260,1,7,11
4.53E+02,-8127,1583,604,-300,21,-272,1,7,11
4.53E+02,-8118,1607,596,-343,55,-257,1,7,11
4.53E+02,-8142,1637,601,-188,109,49,1,7,11
4.54E+02,-8170,1575,587,-589,-125,-111,1,7,11
4.54E+02,-8113,1403,584,-212,106,-115,1,7,11
4.54E+02,-8132,1405,582,-124,113,-284,1,7,11
4.54E+02,-8157,1201,598,234,100,-193,1,7,11
4.55E+02,-8094,1240,600,466,111,-584,1,7,11
4.55E+02,-8123,1202,607,814,-65,-622,1,7,11
4.55E+02,-8164,1198,620,650,-44,-634,1,7,11
4.55E+02,-8452,1232,610,670,-84,-590,1,7,11
4.56E+02,-8455,1254,591,872,119,-234,1,7,11
4.56E+02,-8451,1270,574,798,70,-368,1,7,11
4.56E+02,-8452,1539,582,445,33,0,1,7,11
4.56E+02,-8160,1565,568,565,-261,106,1,7,11
4.57E+02,-8104,1564,548,151,6,-60,1,7,11
4.57E+02,-8114,1554,573,-5,61,-23,1,7,11
4.57E+02,-8115,1588,581,114,103,267,1,7,11
4.57E+02,-8119,1583,572,-293,-93,329,1,7,11
4.58E+02,-8107,1560,575,-139,-43,327,1,7,11
4.58E+02,-8093,1569,555,-204,-4,299,1,7,11
4.58E+02,-8116,1582,558,-529,306,289,1,7,11
4.58E+02,-8136,1563,557,-574,318,268,1,7,11
4.59E+02,-8169,1588,564,-572,302,-40,1,7,11
4.59E+02,-8189,1541,565,-597,272,-56,1,7,11
4.59E+02,-8190,1570,561,-553,-38,-79,1,7,11
4.59E+02,-8457,1617,564,-572,-93,-44,1,7,11
4.60E+02,-8458,1612,600,-429,111,291,1,7,11
4.60E+02,-8166,1648,577,-793,42,144,1,7,11
4.60E+02,-8179,1422,607,-681,-261,233,1,7,11
4.60E+02,-8108,1192,598,-681,-312,249,1,7,11
4.61E+02,-8298,1540,596,-388,-332,222,1,7,11
4.61E+02,-8308,1540,614,-235,-290,-81,1,7,11
4.61E+02,-8095,1566,637,-155,-285,-98,1,7,11
4.61E+02,-8104,1588,385,-361,-304,-86,1,7,11
4.62E+02,-8120,1576,391,-318,-309,-78,1,7,11
4.62E+02,-8113,1580,639,-269,-295,-82,1,7,11
4.62E+02,-8127,1603,639,24,-269,-99,1,7,11
4.62E+02,-8124,1622,637,39,-257,-112,1,7,11
4.63E+02,-8107,1618,633,38,21,126,1,7,11
4.63E+02,-8114,1627,391,48,65,112,1,7,11
4.63E+02,-8124,1638,392,54,89,105,1,7,11
4.63E+02,-8125,1644,388,54,116,96,1,7,11
4.64E+02,-8122,1654,384,49,-116,99,1,7,11
4.64E+02,-8122,1657,384,39,-98,118,1,7,11
4.64E+02,-8117,1648,389,19,-87,-124,1,7,11
4.64E+02,-8114,1651,388,19,-79,127,1,7,11
4.65E+02,-8112,1662,386,18,-79,107,1,7,11
4.65E+02,-8103,1416,633,-269,-89,71,1,7,11
4.65E+02,-8112,1422,635,-294,-86,45,1,7,11
4.65E+02,-8100,1658,631,-307,-78,31,1,7,11
4.66E+02,-8096,1657,628,-287,-54,11,1,7,11
4.66E+02,-8100,1421,627,-266,-9,6,1,7,11
4.66E+02,-8110,1438,615,-260,283,-257,1,7,11
4.66E+02,-8111,1432,617,-258,313,-271,1,7,11
4.67E+02,-8111,1417,602,-261,357,-293,1,7,11
4.67E+02,-8101,1659,595,-282,139,-323,1,7,11
4.67E+02,-8108,1650,580,-309,174,-367,1,7,11
4.67E+02,-8124,1649,562,-326,204,-149,1,7,11
4.68E+02,-8138,1634,545,-357,225,-184,1,7,11
4.68E+02,-8128,1622,531,-137,210,-209,1,7,11
4.68E+02,-8124,1606,520,-195,178,-235,1,7,11
4.68E+02,-8168,1566,554,-552,146,-538,1,7,11
4.69E+02,-8502,1259,569,-395,309,-604,1,7,11
4.69E+02,-8480,1272,546,-428,-114,-416,1,7,11
4.69E+02,-8185,1578,514,-463,24,-496,1,7,11
4.69E+02,-8180,1589,247,-790,-291,-784,1,7,11
4.70E+02,-8165,1583,248,-805,-335,-509,1,7,11
4.70E+02,-8153,1562,533,-792,-352,-495,1,7,11
4.70E+02,-8124,1251,549,-493,-363,-487,1,7,11
4.70E+02,-8115,1223,573,-419,-348,-769,1,7,11
4.71E+02,-8103,1208,576,-615,-321,-801,1,7,11
4.71E+02,-8114,1169,576,-567,-278,-834,1,7,11
4.71E+02,-8135,1394,590,-244,20,-879,1,7,11
4.71E+02,-8166,1401,609,-183,46,-650,1,7,11
4.72E+02,-8190,1399,610,-193,57,-857,1,7,11
4.72E+02,-8191,1361,614,-208,53,-501,1,7,11
4.72E+02,-8157,1311,618,-194,56,-405,1,7,11
4.72E+02,-8181,956,402,-376,102,-605,1,7,11
4.73E+02,-8184,914,408,21,96,-603,1,7,11
4.73E+02,-8190,899,410,-116,67,-621,1,7,11
4.73E+02,-8163,901,407,-10,29,-389,1,7,11
4.73E+02,-8120,921,385,267,52,-387,1,7,11
4.74E+02,-8147,923,638,-19,107,-598,1,7,11
4.74E+02,-8163,913,633,-71,-115,-544,1,7,11
4.74E+02,-8453,953,625,-128,-98,-224,1,7,11
4.74E+02,-8485,985,633,1,-92,-356,1,7,11
4.75E+02,-8519,1020,618,-382,-112,23,1,7,11
4.75E+02,-8522,1304,613,-517,103,-120,1,7,11
4.75E+02,-8508,1298,600,-423,61,-3,1,7,11
4.75E+02,-8473,1280,587,-796,26,330,1,7,11
4.76E+02,-8452,988,594,-835,7,309,1,7,11
4.76E+02,-8165,960,594,-501,22,-16,1,7,11
4.76E+02,-8156,939,612,-393,63,-108,1,7,11
4.76E+02,-8158,939,627,-517,103,55,1,7,11
4.77E+02,-8149,939,634,-383,124,-294,1,7,11
4.77E+02,-8137,955,635,-290,-98,-360,1,7,11
4.77E+02,-8148,946,392,-261,-40,-368,1,7,11
4.77E+02,-8176,967,431,-289,-1,-307,1,7,11
4.78E+02,-8189,997,455,-129,261,82,1,7,11
4.78E+02,-8188,978,446,-253,259,-55,1,7,11
4.78E+02,-8481,990,446,-582,-3,-8,1,7,11
4.78E+02,-8475,1284,421,-407,-36,318,1,7,11
4.79E+02,-8476,1325,407,-781,-40,137,1,7,11
4.79E+02,-8497,1338,402,-680,-39,192,1,7,11
4.79E+02,-8502,953,410,-730,-66,150,1,7,11
4.79E+02,-8178,924,401,-798,-120,-37,1,7,11
4.80E+02,-8167,946,406,-403,-106,34,1,7,11
4.80E+02,-8155,1135,417,-521,-88,-343,1,7,11
4.80E+02,-8109,1137,409,-296,-60,-246,1,7,11
4.80E+02,-8133,985,639,109,-1,-588,1,7,11
4.81E+02,-8162,998,616,41,338,-209,1,7,11
4.81E+02,-8464,1053,418,59,160,-354,1,7,11
4.81E+02,-8530,1118,404,263,128,-132,1,7,11
4.81E+02,-8528,907,631,335,278,-133,1,7,11
4.82E+02,-8485,941,586,347,-61,-134,1,7,11
4.82E+02,-8490,1012,552,295,-115,-133,1,7,11
4.82E+02,-8489,1016,547,-87,102,-340,1,7,11
4.82E+02,-8464,1000,538,58,76,-303,1,7,11
4.83E+02,-8452,950,558,-297,85,-280,1,7,11
4.83E+02,-8192,898,578,-348,109,-274,1,7,11
4.83E+02,-8452,1113,598,-358,-125,-275,1,7,11
4.83E+02,-8457,1091,618,-344,-111,-276,1,7,11
4.84E+02,-8460,1089,630,-317,-106,3,1,7,11
4.84E+02,-8457,1074,632,-271,-105,27,1,7,11
4.84E+02,-8460,1070,622,38,-102,41,1,7,11
4.84E+02,-8454,1071,615,85,-112,46,1,7,11
4.85E+02,-8451,1088,601,-121,-122,28,1,7,11
4.85E+02,-8467,1120,599,-83,118,16,1,7,11
4.85E+02,-8463,1131,578,-71,94,26,1,7,11
4.85E+02,-8471,903,578,-65,78,36,1,7,11
4.86E+02,-8480,904,583,-94,56,64,1,7,11
4.86E+02,-8472,1150,587,-119,30,89,1,7,11
4.86E+02,-8463,1128,587,121,15,112,1,7,11
4.86E+02,-8473,1133,604,115,5,-114,1,7,11
4.87E+02,-8486,1151,611,114,-287,-66,1,7,11
4.87E+02,-8188,912,610,115,-327,-36,1,7,11
4.87E+02,-8181,916,618,102,-336,-8,1,7,11
4.87E+02,-8175,1143,628,91,-348,270,1,7,11
4.88E+02,-8469,1132,399,110,-360,268,1,7,11
4.88E+02,-8516,906,402,-102,-135,269,1,7,11
4.88E+02,-8500,914,396,-58,-191,282,1,7,11
4.88E+02,-8485,941,398,-11,-202,289,1,7,11
4.89E+02,-8466,936,403,277,-208,294,1,7,11
4.89E+02,-8456,944,422,305,-207,281,1,7,11
4.89E+02,-8457,953,434,349,-217,264,1,7,11
4.89E+02,-8453,947,447,369,-231,256,1,7,11
4.90E+02,-8453,967,455,145,-246,-12,1,7,11
4.90E+02,-8460,984,461,160,-255,-12,1,7,11
4.90E+02,-8465,972,470,165,-515,-10,1,7,11
4.90E+02,-8460,980,489,182,-518,-12,1,7,11
4.91E+02,-8187,998,493,203,-525,-6,1,7,11
4.91E+02,-8143,1022,503,211,-530,259,1,7,11
4.91E+02,-8088,1296,509,197,-530,266,1,7,11
4.91E+02,-8310,1291,787,182,-522,-2,1,7,11
4.92E+02,-8303,1314,799,171,-251,-23,1,7,11
4.92E+02,-8313,1329,823,148,-231,-39,1,7,11
4.92E+02,-8072,1349,827,373,-212,-52,1,7,11
4.92E+02,-8090,1371,838,329,-177,-68,1,7,11
4.93E+02,-8118,1381,861,276,-375,-92,1,7,11
4.93E+02,-8121,1387,880,-25,-320,-114,1,7,11
4.93E+02,-8122,1390,653,-62,-259,115,1,7,11
4.93E+02,-8114,1400,681,-93,56,90,1,7,11
4.94E+02,-8137,1373,685,88,110,85,1,7,11
4.94E+02,-8131,1341,693,-128,-113,54,1,7,11
4.94E+02,-8143,1333,685,-38,-68,-296,1,7,11
4.94E+02,-8170,1340,671,306,-25,-138,1,7,11
4.95E+02,-8146,1381,643,354,-10,-204,1,7,11
4.95E+02,-8120,1373,846,300,282,-217,1,7,11
4.95E+02,-8132,1358,802,-3,328,-215,1,7,11
4.95E+02,-8150,1359,511,-53,340,-229,1,7,11
4.96E+02,-8163,1343,478,-123,322,-243,1,7,11
4.96E+02,-8184,1332,442,64,291,-514,1,7,11
4.96E+02,-8490,1300,439,-285,267,-252,1,7,11
4.96E+02,-8525,1005,437,-344,-42,-230,1,7,11
4.97E+02,-8544,960,459,-383,-101,-213,1,7,11
4.97E+02,-8542,918,486,-136,85,-188,1,7,11
4.97E+02,-8539,1145,783,-364,5,-161,1,7,11
4.97E+02,-8493,1149,802,-301,-334,-363,1,7,11
4.98E+02,-8188,906,808,-257,-129,-285,1,7,11
4.98E+02,-8152,923,827,31,-158,68,1,7,11
4.98E+02,-8115,923,822,69,-182,-103,1,7,11
4.98E+02,-8084,958,827,110,-184,-54,1,7,11
4.99E+02,-8070,990,838,120,-158,257,1,7,11
4.99E+02,-8065,1014,827,-126,-384,286,1,7,11
4.99E+02,-8070,1311,827,126,-335,287,1,7,11
4.99E+02,-8110,1337,825,65,-261,298,1,7,11
5.00E+02,-8158,1335,835,-270,54,305,1,7,11
5.00E+02,-8470,1353,844,-331,91,304,1,7,11
5.00E+02,-8502,1363,847,-381,116,323,1,7,11
5.00E+02,-8526,1385,843,-164,-128,339,1,7,11
5.01E+02,-8508,1326,837,-203,-128,341,1,7,11
5.01E+02,-8495,1317,842,-160,-125,284,1,7,11
5.01E+02,-8505,1331,836,-139,-119,-14,1,7,11
5.01E+02,-8494,1310,834,-383,-116,-27,1,7,11
5.02E+02,-8508,1322,834,-358,-95,-48,1,7,11
5.02E+02,-8505,1332,832,-335,-96,-55,1,7,11
5.02E+02,-8499,1327,841,-326,-105,-61,1,7,11
5.02E+02,-8476,1330,842,-312,-128,-71,1,7,11
5.03E+02,-8192,1328,848,-312,96,-79,1,7,11
5.03E+02,-8452,1319,865,-325,76,-84,1,7,11
5.03E+02,-8455,1288,880,-349,43,-91,1,7,11
5.03E+02,-8184,1313,880,-352,-267,-118,1,7,11
5.04E+02,-8183,1312,881,-351,-308,123,1,7,11
5.04E+02,-8154,1313,883,-357,-337,94,1,7,11
5.04E+02,-8138,1293,643,-367,-346,64,1,7,11
5.04E+02,-8140,1298,660,-370,-342,32,1,7,11
5.05E+02,-8180,1292,674,-139,-333,25,1,7,11
5.05E+02,-8187,1012,681,-384,-334,34,1,7,11
5.05E+02,-8478,1004,714,-360,-312,25,1,7,11
5.05E+02,-8487,999,731,-309,-315,24,1,7,11
5.06E+02,-8479,1006,766,10,-301,15,1,7,11
5.06E+02,-8506,1299,1066,73,-276,8,1,7,11
5.06E+02,-8461,1337,1076,-114,-292,21,1,7,11
5.06E+02,-8183,1357,1071,-88,-303,23,1,7,11
5.07E+02,-8129,1385,1069,-116,-287,-258,1,7,11
5.07E+02,-8075,1386,1072,78,15,-314,1,7,11
5.07E+02,-8066,1371,1058,7,94,-143,1,7,11
5.07E+02,-8314,1366,1041,-319,-73,-231,1,7,11
5.08E+02,-8310,1360,1035,-144,288,-568,1,7,11
5.08E+02,-8312,1350,1024,-226,146,-620,1,7,11
5.08E+02,-8318,1319,1025,-564,245,-400,1,7,11
5.08E+02,-8071,1280,1030,-632,582,-410,1,7,11
5.09E+02,-8083,965,1038,-422,388,-396,1,7,11
5.09E+02,-8115,932,1042,-452,433,-626,1,7,11
5.09E+02,-8133,1151,767,-469,446,-573,1,7,11
5.09E+02,-8129,1132,1027,-475,460,-249,1,7,11
5.10E+02,-8110,1124,764,-459,487,-165,1,7,11
5.10E+02,-8093,1144,751,-425,792,-265,1,7,11
5.10E+02,-8296,922,706,-393,859,124,1,7,11
5.10E+02,-8250,937,677,-425,747,-15,1,7,11
5.11E+02,-8193,943,888,-467,1119,334,1,7,11
5.11E+02,-7919,980,810,-503,1010,137,1,7,11
5.11E+02,-8205,1282,473,-803,1176,196,1,7,11
5.11E+02,-8258,1312,396,-856,1580,249,1,7,11
5.12E+02,-8305,1326,582,-653,1438,538,1,7,11
5.12E+02,-8106,1323,251,-690,1506,534,1,7,11
5.12E+02,-8161,1306,174,-705,1523,237,1,7,11
5.12E+02,-8458,1325,307,-683,1496,172,1,7,11
5.13E+02,-8501,1330,-53,-686,1463,353,1,7,11
5.13E+02,-8555,1330,-123,-688,1411,277,1,7,11
5.13E+02,-8380,1320,72,-680,1578,-35,1,7,11
5.13E+02,-8433,1314,33,-651,1174,-66,1,7,11
5.14E+02,-8715,1288,-262,-867,977,-88,1,7,11
5.14E+02,-8433,967,-306,-769,746,-127,1,7,11
5.14E+02,-8389,984,-354,-566,779,48,1,7,11
5.14E+02,-8375,1000,-382,-130,604,-271,1,7,11
5.15E+02,-8373,1296,-130,20,193,-318,1,7,11
5.15E+02,-8361,1318,-132,80,302,-317,1,7,11
5.15E+02,-8328,1313,-372,91,-88,-295,1,7,11
5.15E+02,-8553,1319,-346,49,51,0,1,7,11
5.16E+02,-8554,1295,-306,6,-318,54,1,7,11
5.16E+02,-8513,1298,-278,21,-190,88,1,7,11
5.16E+02,-8484,1303,8,13,-547,-125,1,7,11
5.16E+02,-8472,1282,43,-259,-611,-67,1,7,11
5.17E+02,-8491,1016,96,8,-404,-14,1,7,11
5.17E+02,-8493,1003,-114,62,-459,320,1,7,11
5.17E+02,-8474,1022,-100,121,-471,357,1,7,11
5.17E+02,-8189,1313,-84,-83,-465,135,1,7,11
5.18E+02,-8176,1342,-75,-49,-449,157,1,7,11
5.18E+02,-8164,1364,-59,-30,-430,166,1,7,11
5.18E+02,-8145,1391,-47,-24,-415,153,1,7,11
5.18E+02,-8125,1154,-41,-42,-408,379,1,7,11
5.19E+02,-8102,1174,-25,-80,-403,344,1,7,11
5.19E+02,-8090,1182,-17,-128,-385,307,1,7,11
5.19E+02,-8097,1221,265,72,-620,282,1,7,11
5.19E+02,-8099,1225,286,-267,-600,284,1,7,11
5.20E+02,-8111,1223,305,-342,-573,286,1,7,11
5.20E+02,-8091,1204,338,-156,-554,291,1,7,11
5.20E+02,-8091,1172,381,-210,-516,274,1,7,11
5.20E+02,-8105,1395,172,-216,-231,-10,1,7,11
5.21E+02,-8097,1373,188,-177,-216,-39,1,7,11
5.21E+02,-8092,1393,199,-354,-175,-70,1,7,11
5.21E+02,-8105,1159,198,-288,-367,-86,1,7,11
5.21E+02,-8137,1174,207,34,-296,-95,1,7,11
5.22E+02,-8161,1179,220,112,21,-109,1,7,11
5.22E+02,-8449,1189,227,-64,63,122,1,7,11
5.22E+02,-8484,1204,239,272,74,86,1,7,11
5.22E+02,-8514,1237,245,356,51,43,1,7,11
5.23E+02,-8522,1277,232,171,-260,8,1,7,11
5.23E+02,-8506,1556,217,205,-321,-274,1,7,11
5.23E+02,-8484,1532,218,217,-369,-311,1,7,11
5.23E+02,-8479,1258,229,230,-154,-365,1,7,11
5.24E+02,-8468,1224,244,249,-196,-166,1,7,11
5.24E+02,-8458,1201,521,558,-253,-248,1,7,11
5.24E+02,-8182,1205,540,606,-554,-530,1,7,11
5.24E+02,-8150,1209,551,634,-595,-528,1,7,11
5.25E+02,-8103,1200,545,636,-625,-254,1,7,11
5.25E+02,-8066,1207,555,623,-640,-239,1,7,11
5.25E+02,-8291,1238,565,593,-389,-210,1,7,11
5.25E+02,-8251,1237,576,529,-387,-174,1,7,11
5.26E+02,-8205,1244,572,197,-621,-147,1,7,11
5.26E+02,-8226,1205,598,343,-559,-133,1,7,11
5.26E+02,-8316,1177,628,265,-239,-140,1,7,11
5.26E+02,-8131,1168,393,-37,-207,-133,1,7,11
5.27E+02,-8180,1172,403,-66,-174,-357,1,7,11
5.27E+02,-8479,1171,415,-108,-380,-307,1,7,11
5.27E+02,-8517,1402,433,115,-336,2,1,7,11
5.27E+02,-8534,1383,444,110,-315,36,1,7,11
5.28E+02,-8540,1375,457,-125,-307,42,1,7,11
5.28E+02,-8534,1385,463,-88,-306,33,1,7,11
5.28E+02,-8512,1401,460,-65,-315,24,1,7,11
5.28E+02,-8466,1162,451,-56,-317,13,1,7,11
5.29E+02,-8167,1173,450,-66,-307,-272,1,7,11
5.29E+02,-8131,1171,449,-96,-289,-315,1,7,11
5.29E+02,-8107,1167,449,125,-266,-366,1,7,11
5.29E+02,-8065,1157,443,73,13,-151,1,7,11
5.30E+02,-8297,1398,459,7,61,-203,1,7,11
5.30E+02,-8308,1358,483,-316,114,-514,1,7,11
5.30E+02,-8299,1324,481,-364,-102,-564,1,7,11
5.30E+02,-8293,1293,468,-151,-38,-608,1,7,11
5.31E+02,-8313,1009,461,-208,298,-618,1,7,11
5.31E+02,-8071,978,443,-525,373,-602,1,7,11
5.31E+02,-8108,941,421,-593,193,-566,1,7,11
5.31E+02,-8142,905,416,-633,231,-523,1,7,11
5.32E+02,-8173,1111,391,-414,516,-198,1,7,11
5.32E+02,-8473,1090,391,-395,513,-164,1,7,11
5.32E+02,-8495,1102,624,-621,218,-379,1,7,11
5.32E+02,-8516,1111,601,-608,167,-323,1,7,11
5.33E+02,-8521,1120,583,-586,365,-270,1,7,11
5.33E+02,-8516,1132,577,-567,305,20,1,7,11
5.33E+02,-8516,899,575,-563,-8,56,1,7,11
5.33E+02,-8521,916,596,-577,-83,88,1,7,11
5.34E+02,-8509,933,594,-578,101,110,1,7,11
5.34E+02,-8459,928,602,-576,45,97,1,7,11
5.34E+02,-8121,1290,462,-476,20,-621,1,7,11
5.34E+02,-8152,1285,481,-771,55,-450,1,7,11
5.35E+02,-8158,1291,488,-784,84,-512,1,7,11
5.35E+02,-8151,1312,485,-803,-124,-813,1,7,11
5.35E+02,-8111,1343,463,-834,-65,-848,1,7,11
5.35E+02,-8092,1361,451,-652,274,-879,1,7,11
5.36E+02,-8084,1347,458,-747,363,-654,1,7,11
5.36E+02,-8098,1296,466,-1080,180,-691,1,7,11
5.36E+02,-8113,979,468,-1134,230,-740,1,7,11
5.36E+02,-8115,911,426,-907,526,-1049,1,7,11
5.37E+02,-8082,1076,638,-919,561,-1115,1,7,11
5.37E+02,-8085,679,618,-916,385,-948,1,7,11
5.37E+02,-8138,814,614,-911,471,-1290,1,7,11
5.37E+02,-8454,474,592,-1117,779,-1365,1,7,11
5.38E+02,-8517,417,550,-1026,781,-1166,1,7,11
5.38E+02,-8525,611,252,-673,493,-1168,1,7,11
5.38E+02,-8532,533,205,-840,455,-1394,1,7,11
5.38E+02,-8550,205,168,-492,422,-1350,1,7,11
5.39E+02,-8554,133,134,-396,599,-1299,1,7,11
5.39E+02,-8538,334,357,-556,554,-1007,1,7,11
5.39E+02,-8525,299,313,-211,524,-981,1,7,11
5.39E+02,-8495,273,285,-376,251,-947,1,7,11
5.40E+02,-8479,-3,270,-341,255,-919,1,7,11
5.40E+02,-8483,-23,267,-323,523,-1150,1,7,11
5.40E+02,-8491,-62,268,-318,520,-1125,1,7,11
5.40E+02,-8497,-82,266,-303,516,-1105,1,7,11
5.41E+02,-8527,-90,259,-286,250,-1082,1,7,11
5.41E+02,-8561,-90,268,-276,218,-1032,1,7,11
5.41E+02,-8564,-92,256,-261,179,-712,1,7,11
5.41E+02,-8570,-87,-3,13,144,-893,1,7,11
5.42E+02,-8575,-76,-2,22,353,-807,1,7,11
5.42E+02,-8576,-73,-13,20,292,-464,1,7,11
5.42E+02,-8569,-80,-8,4,-30,-392,1,7,11
5.42E+02,-8558,-87,262,-271,-98,-600,1,7,11
5.43E+02,-8549,-110,280,-297,91,-585,1,7,11
5.43E+02,-8555,113,328,-323,41,-615,1,7,11
5.43E+02,-8545,103,372,-325,-260,-414,1,7,11
5.43E+02,-8521,122,148,-322,-301,-490,1,7,11
5.44E+02,-8530,-122,183,-336,-305,-828,1,7,11
5.44E+02,-8356,-115,249,-345,-274,-881,1,7,11
5.44E+02,-8440,-101,575,-314,9,-880,1,7,11
5.44E+02,-8779,-88,630,2,54,-838,1,7,11
5.45E+02,-8654,-73,427,87,-109,-512,1,7,11
5.45E+02,-8894,-49,779,-43,263,-394,1,7,11
5.45E+02,-9335,-16,815,156,307,-178,1,7,11
5.45E+02,-9298,-5,502,403,-1,96,1,7,11
5.46E+02,-8686,-16,524,862,-79,335,1,7,11
5.46E+02,-8489,-106,-2,666,-7,163,1,7,11
5.46E+02,-7851,12,7,876,224,342,1,7,11
5.46E+02,-7589,-131,-182,790,796,122,1,7,11
5.47E+02,-7778,-217,-565,453,1116,-185,1,7,11
5.47E+02,-7626,-553,-599,386,1327,-481,1,7,11
5.47E+02,-8036,-618,-600,635,1353,-706,1,7,11
5.47E+02,-8193,-419,-569,399,971,-1113,1,7,11
5.48E+02,-8099,-474,-529,446,742,-933,1,7,11
5.48E+02,-8472,-773,-233,782,432,-919,1,7,11
5.48E+02,-8551,-815,-208,867,363,-1094,1,7,11
5.48E+02,-8534,-834,-199,686,63,-701,1,7,11
5.49E+02,-8492,-843,-199,753,-173,-794,1,7,11
5.49E+02,-8476,-856,-179,1042,-571,-569,1,7,11
5.49E+02,-8498,-861,-151,1055,-637,-197,1,7,11
5.49E+02,-8333,-839,-355,1056,-386,-363,1,7,11
5.50E+02,-8394,-803,-301,1047,-390,-275,1,7,11
5.50E+02,-8402,-499,-268,1037,-401,55,1,7,11
5.50E+02,-8385,-471,30,714,-408,111,1,7,11
5.50E+02,-8364,-450,79,655,-409,-107,1,7,11
5.51E+02,-8347,-440,122,861,-416,-84,1,7,11
5.51E+02,-8570,-416,-111,828,-422,-63,1,7,11
5.51E+02,-8524,-387,-101,794,-412,-36,1,7,11
5.51E+02,-8487,-612,-70,494,-633,-6,1,7,11
5.52E+02,-8479,-594,-21,441,-599,294,1,7,11
5.52E+02,-8179,-590,268,394,-597,345,1,7,11
5.52E+02,-8122,-609,284,596,-595,374,1,7,11
5.52E+02,-8309,-635,291,539,-588,371,1,7,11
5.53E+02,-8263,-397,284,224,-568,342,1,7,11
5.53E+02,-8290,-421,297,144,-524,308,1,7,11
5.53E+02,-8149,-453,342,316,-249,307,1,7,11
5.53E+02,-8514,-508,165,-8,-536,355,1,7,11
5.54E+02,-8335,-798,229,283,-585,187,1,7,11
5.54E+02,-8321,-769,240,141,-631,587,1,7,11
5.54E+02,-8517,-472,245,522,-609,493,1,7,11
5.54E+02,-8188,-433,512,397,-521,888,1,7,11
5.55E+02,-8126,-632,535,788,-137,722,1,7,11
5.55E+02,-8079,-546,577,650,6,751,1,7,11
5.55E+02,-8084,-212,589,761,-109,719,1,7,11
5.55E+02,-8114,-359,570,1121,272,662,1,7,11
5.56E+02,-8186,52,251,962,150,863,1,7,11
5.56E+02,-8511,-43,174,1022,560,851,1,7,11
5.56E+02,-8570,280,340,928,787,861,1,7,11
5.56E+02,-8437,267,283,1029,678,834,1,7,11
5.57E+02,-8766,-58,-33,870,712,800,1,7,11
5.57E+02,-8783,74,-63,481,668,485,1,7,11
5.57E+02,-8793,22,-74,448,837,417,1,7,11
5.57E+02,-8826,18,-58,465,461,396,1,7,11
5.58E+02,-8824,46,-38,781,568,457,1,7,11
5.58E+02,-8436,94,-58,867,141,818,1,7,11
5.58E+02,-8510,-128,-85,666,298,865,1,7,11
5.58E+02,-8130,-71,-93,717,284,816,1,7,11
5.59E+02,-8315,-2,-108,762,301,445,1,7,11
5.59E+02,-8275,313,-114,1036,346,533,1,7,11
5.59E+02,-8318,148,-110,1042,143,341,1,7,11
5.59E+02,-8091,214,127,748,141,-60,1,7,11
5.60E+02,-8309,202,111,669,374,74,1,7,11
5.60E+02,-8271,142,91,836,374,-326,1,7,11
5.60E+02,-8244,317,69,499,142,-247,1,7,11
5.60E+02,-8227,-4,48,430,185,-466,1,7,11
5.61E+02,-8247,-58,60,623,241,-707,1,7,11
5.61E+02,-8073,-105,125,584,539,-927,1,7,11
5.61E+02,-8157,84,-80,568,518,-1350,1,7,11
5.61E+02,-8466,36,-54,612,184,-1206,1,7,11
5.62E+02,-8466,8,-64,428,351,-1247,1,7,11
5.62E+02,-8476,-278,-81,503,294,-1222,1,7,11
5.62E+02,-8536,-271,-81,852,265,-1370,1,7,11
5.62E+02,-8327,0,-97,695,-44,-1149,1,7,11
5.63E+02,-8559,-301,-108,759,-119,-884,1,7,11
5.63E+02,-8548,-382,-99,1075,72,-415,1,7,11
5.63E+02,-8563,-179,-93,910,7,-519,1,7,11
5.63E+02,-8561,-174,-101,1019,-318,-161,1,7,11
5.64E+02,-8567,-329,122,1364,-352,-352,1,7,11
5.64E+02,-8548,25,98,1153,-345,38,1,7,11
5.64E+02,-8505,97,83,1389,-309,-109,1,7,11
5.64E+02,-8465,-110,83,1267,7,261,1,7,11
5.65E+02,-8449,-84,93,896,70,366,1,7,11
5.65E+02,-8157,-64,88,767,103,205,1,7,11
5.65E+02,-8122,-73,89,876,124,526,1,7,11
5.65E+02,-8070,-82,47,476,-127,566,1,7,11
5.66E+02,-8311,-112,26,581,-97,580,1,7,11
5.66E+02,-8104,-120,33,210,-61,590,1,7,11
5.66E+02,-8187,-109,72,381,-49,629,1,7,11
5.66E+02,-8505,81,112,282,-83,435,1,7,11
5.67E+02,-8537,-297,-74,-20,104,444,1,7,11
5.67E+02,-8566,-368,-17,258,8,387,1,7,11
5.67E+02,-8549,-150,-13,312,-360,556,1,7,11
5.67E+02,-8521,-143,-50,134,-176,188,1,7,11
5.68E+02,-8536,-356,-78,207,-173,354,1,7,11
5.68E+02,-8321,-290,-116,255,-372,319,1,7,11
5.68E+02,-8367,32,109,531,-284,354,1,7,11
5.68E+02,-8419,99,92,521,77,174,1,7,11
5.69E+02,-8713,-100,119,226,-91,550,1,7,11
5.69E+02,-8719,-69,-113,152,-45,422,1,7,11
5.69E+02,-8734,-73,-77,318,-33,799,1,7,11
5.69E+02,-8716,-50,-50,263,-56,658,1,7,11
5.70E+02,-8432,-5,-13,-44,-100,1024,1,7,11
5.70E+02,-8370,293,266,-111,87,1140,1,7,11
5.70E+02,-8526,-7,301,26,17,978,1,7,11
5.70E+02,-8166,-71,346,-327,-288,977,1,7,11
5.71E+02,-8075,-94,368,-371,-324,1131,1,7,11
5.71E+02,-8266,-72,381,-363,-340,696,1,7,11
5.71E+02,-8241,-2,378,-328,-342,477,1,7,11
5.71E+02,-8236,311,358,-313,-327,529,1,7,11
5.72E+02,-8265,317,348,-336,-284,348,1,7,11
5.72E+02,-8291,309,343,-341,21,-77,1,7,11
5.72E+02,-8279,355,315,-302,78,24,1,7,11
5.72E+02,-8280,148,280,-283,-78,-339,1,7,11
5.73E+02,-8072,169,269,-283,298,-147,1,7,11
5.73E+02,-8151,177,261,-295,152,-172,1,7,11
5.73E+02,-8189,191,-27,-307,224,-154,1,7,11
5.73E+02,-8458,183,-58,-355,559,-367,1,7,11
5.74E+02,-8458,200,-100,-375,634,-318,1,7,11
5.74E+02,-8457,208,116,-144,455,-264,1,7,11
5.74E+02,-8467,209,87,-154,769,40,1,7,11
5.74E+02,-8481,215,61,-134,805,72,1,7,11
5.75E+02,-8491,214,35,-364,813,97,1,7,11
5.75E+02,-8469,198,-258,-340,805,115,1,7,11
5.75E+02,-8452,191,-286,-310,808,108,1,7,11
5.75E+02,-8468,195,-309,-283,814,89,1,7,11
5.76E+02,-8472,198,-327,-265,808,82,1,7,11
5.76E+02,-8466,199,-340,-263,797,88,1,7,11
5.76E+02,-8464,175,-351,-286,787,88,1,7,11
5.76E+02,-8478,378,-353,-328,510,61,1,7,11
5.77E+02,-8479,345,-365,-357,467,13,1,7,11
5.77E+02,-8510,317,-358,-371,418,-300,1,7,11
5.77E+02,-8555,297,-347,-362,580,-321,1,7,11
5.77E+02,-8576,290,-364,-266,242,-299,1,7,11
5.78E+02,-8575,316,-134,74,171,14,1,7,11
5.78E+02,-8563,365,-170,118,357,70,1,7,11
5.78E+02,-8558,363,-193,112,304,-113,1,7,11
5.78E+02,-8510,131,-222,-121,-9,-69,1,7,11
5.79E+02,-8488,153,-242,-120,-35,-86,1,7,11
5.79E+02,-8472,192,-254,-126,-49,-117,1,7,11
5.79E+02,-8466,203,-525,102,-47,106,1,7,11
5.79E+02,-8465,203,-528,70,-40,79,1,7,11
5.80E+02,-8192,201,-531,43,-33,60,1,7,11
5.80E+02,-8188,187,-535,18,-17,53,1,7,11
5.80E+02,-8182,163,-539,0,263,59,1,7,11
5.80E+02,-8187,382,-530,1,284,68,1,7,11
5.81E+02,-8458,356,-526,18,292,65,1,7,11
5.81E+02,-8465,349,-533,54,286,57,1,7,11
5.81E+02,-8471,346,-540,83,271,51,1,7,11
5.81E+02,-8468,365,-556,104,-10,46,1,7,11
5.82E+02,-8486,135,-567,110,-33,56,1,7,11
5.82E+02,-8485,153,-571,88,-71,85,1,7,11
5.82E+02,-8469,163,-570,41,-117,122,1,7,11
5.82E+02,-8470,158,-560,-268,101,-96,1,7,11
5.83E+02,-8473,144,-546,-308,70,-54,1,7,11
5.83E+02,-8479,136,-540,-326,40,-20,1,7,11
5.83E+02,-8465,143,-537,-315,25,269,1,7,11
5.83E+02,-8453,164,-536,-305,34,305,1,7,11
5.84E+02,-8166,159,-538,-306,48,339,1,7,11
5.84E+02,-8162,133,-517,-309,85,357,1,7,11
5.84E+02,-8165,128,-238,-279,109,359,1,7,11
5.84E+02,-8182,144,-217,24,119,357,1,7,11
5.85E+02,-8451,180,-218,65,119,367,1,7,11
5.85E+02,-8192,226,-232,101,115,141,1,7,11
5.85E+02,-8188,517,-256,110,116,176,1,7,11
5.85E+02,-8450,544,-521,95,-126,212,1,7,11
5.86E+02,-8456,581,-527,58,-117,246,1,7,11
5.86E+02,-8188,598,-531,13,-122,532,1,7,11
5.86E+02,-8175,617,-523,-285,-121,539,1,7,11
5.86E+02,-8169,611,-249,-338,-118,545,1,7,11
5.87E+02,-8182,604,-241,-141,-116,540,1,7,11
5.87E+02,-8190,385,-252,-164,-123,532,1,7,11
5.87E+02,-8192,416,-516,-195,126,544,1,7,11
5.87E+02,-8192,436,-516,-235,126,571,1,7,11
5.88E+02,-8186,440,-520,-527,-127,603,1,7,11
5.88E+02,-8181,438,-252,-560,-122,619,1,7,11
5.88E+02,-8184,455,-243,-564,-125,610,1,7,11
5.88E+02,-8449,477,-237,-546,121,598,1,7,11
5.89E+02,-8449,499,-239,-525,103,585,1,7,11
5.89E+02,-8192,777,-236,-239,86,571,1,7,11
5.89E+02,-8453,796,-232,-217,72,562,1,7,11
5.89E+02,-8189,810,-234,-198,58,552,1,7,11
5.90E+02,-8169,840,-233,-178,44,531,1,7,11
5.90E+02,-8159,855,-236,-157,38,245,1,7,11
5.90E+02,-8158,881,-232,-159,44,221,1,7,11
5.90E+02,-8159,643,-241,-164,48,210,1,7,11
5.91E+02,-8165,653,-245,-165,48,205,1,7,11
5.91E+02,-8157,662,-245,-163,54,207,1,7,11
5.91E+02,-8151,677,-240,-154,64,204,1,7,11
5.91E+02,-8131,684,-240,-149,75,199,1,7,11
5.92E+02,-8112,694,-246,-142,94,181,1,7,11
5.92E+02,-8127,710,-241,-133,-126,153,1,7,11
5.92E+02,-8136,746,-251,-382,-107,129,1,7,11
5.92E+02,-8130,1026,-513,-149,-95,359,1,7,11
5.93E+02,-8137,1035,-514,-186,-83,320,1,7,11
5.93E+02,-8149,1031,-248,-226,-88,278,1,7,11
5.93E+02,-8156,1042,-247,-514,-105,-20,1,7,11
5.93E+02,-8176,1049,-246,-553,-120,-51,1,7,11
5.94E+02,-8177,1059,-516,-583,113,-59,1,7,11
5.94E+02,-8156,1065,-522,-623,100,-57,1,7,11
5.94E+02,-8152,1053,-527,-426,96,-37,1,7,11
5.94E+02,-8157,1027,-522,-495,88,-7,1,7,11
5.95E+02,-8453,750,-248,-798,59,281,1,7,11
5.95E+02,-8481,727,-207,-802,-268,307,1,7,11
5.95E+02,-8462,753,-204,-494,-358,311,1,7,11
5.95E+02,-8189,1047,-210,-429,-178,314,1,7,11
5.96E+02,-8160,1087,-209,-635,-218,328,1,7,11
5.96E+02,-8153,1109,-199,-615,-217,346,1,7,11
5.96E+02,-8128,1117,-187,-615,-197,358,1,7,11
5.96E+02,-8107,1107,-169,-599,-157,341,1,7,11
5.97E+02,-8092,1098,-144,-573,-359,298,1,7,11
5.97E+02,-8089,1097,-377,-508,-303,-10,1,7,11
5.97E+02,-8098,1109,-362,-198,13,-64,1,7,11
5.97E+02,-8103,1118,-348,-153,65,-98,1,7,11
5.98E+02,-8122,1114,-346,-370,109,-111,1,7,11
5.98E+02,-8129,1105,-352,-315,-114,-114,1,7,11
5.98E+02,-8132,1109,-349,12,-90,-121,1,7,11
5.98E+02,-8157,1122,-350,74,-75,-124,1,7,11
5.99E+02,-8178,1132,-358,117,-79,-126,1,7,11
5.99E+02,-8190,1143,-377,-112,-108,121,1,7,11
5.99E+02,-8177,915,-133,-89,111,111,1,7,11
5.99E+02,-8177,948,-141,-98,88,106,1,7,11
6.00E+02,-8164,960,-149,-124,76,110,1,7,11
6.00E+02,-8147,961,-132,101,82,117,1,7,11
6.00E+02,-8136,956,-380,67,97,126,1,7,11
6.00E+02,-8130,938,-367,43,110,-126,1,7,11
6.01E+02,-8140,930,-356,32,-128,-127,1,7,11
6.01E+02,-8148,922,-358,36,-128,123,1,7,11
6.01E+02,-8141,933,-363,46,122,109,1,7,11
6.01E+02,-8141,947,-366,43,124,99,1,7,11
6.02E+02,-8138,963,-367,32,125,95,1,7,11
6.02E+02,-8132,970,-376,15,-125,90,1,7,11
6.02E+02,-8131,977,-370,0,-113,91,1,7,11
6.02E+02,-8131,971,-372,-283,-107,96,1,7,11
6.03E+02,-8140,963,-368,-302,-101,92,1,7,11
6.03E+02,-8143,967,-369,-310,-106,79,1,7,11
6.03E+02,-8129,960,-378,-333,-118,67,1,7,11
6.03E+02,-8114,955,-375,-355,-123,46,1,7,11
6.04E+02,-8134,937,-360,-131,-123,29,1,7,11
6.04E+02,-8151,930,-342,-149,123,19,1,7,11
6.04E+02,-8154,922,-349,-153,114,29,1,7,11
6.04E+02,-8158,916,-355,-141,122,48,1,7,11
6.05E+02,-8156,907,-354,-373,-125,80,1,7,11
6.05E+02,-8158,1134,-354,-342,-115,109,1,7,11
6.05E+02,-8153,1122,-353,-292,-113,123,1,7,11
6.05E+02,-8160,1130,-341,27,-121,124,1,7,11
6.06E+02,-8152,896,-348,83,116,122,1,7,11
6.06E+02,-8142,927,-361,116,95,124,1,7,11
6.06E+02,-8128,960,-381,122,92,124,1,7,11
6.06E+02,-8121,993,-153,102,102,126,1,7,11
6.07E+02,-8125,1006,-165,63,113,122,1,7,11
6.07E+02,-8147,1000,-165,20,125,113,1,7,11
6.07E+02,-8154,995,-168,-264,119,101,1,7,11
6.07E+02,-8146,974,-161,-293,109,84,1,7,11
6.08E+02,-8132,955,-164,-301,105,58,1,7,11
6.08E+02,-8127,942,-173,-295,107,37,1,7,11
6.08E+02,-8132,939,-170,-278,123,31,1,7,11
6.08E+02,-8155,935,-161,-257,-119,46,1,7,11
6.09E+02,-8172,943,-170,39,-119,69,1,7,11
6.09E+02,-8176,960,-166,71,126,90,1,7,11
6.09E+02,-8177,967,-163,94,108,99,1,7,11
6.09E+02,-8162,982,-159,108,87,92,1,7,11
6.10E+02,-8149,985,-161,106,65,79,1,7,11
6.10E+02,-8133,975,-152,98,48,64,1,7,11
6.10E+02,-8121,971,-138,89,52,46,1,7,11
6.10E+02,-8122,967,-378,85,65,37,1,7,11
6.11E+02,-8117,966,-378,86,78,35,1,7,11
6.11E+02,-8124,951,-361,83,101,41,1,7,11
6.11E+02,-8124,941,-359,90,115,47,1,7,11
6.11E+02,-8133,931,-359,97,-125,51,1,7,11
6.12E+02,-8142,923,-352,98,-119,52,1,7,11
6.12E+02,-8151,939,-356,106,-120,48,1,7,11
6.12E+02,-8159,948,-361,120,126,48,1,7,11
6.12E+02,-8175,958,-367,126,118,57,1,7,11
6.13E+02,-8180,957,-369,127,111,73,1,7,11
6.13E+02,-8169,962,-374,-125,97,89,1,7,11
6.13E+02,-8153,948,-371,-123,89,95,1,7,11
6.13E+02,-8148,930,-358,-115,88,86,1,7,11
6.14E+02,-8160,925,-344,-102,79,73,1,7,11
6.14E+02,-8150,931,-339,-91,54,62,1,7,11
6.14E+02,-8137,942,-329,-84,30,54,1,7,11
6.14E+02,-8127,938,-327,-84,14,53,1,7,11
6.15E+02,-8150,941,-322,-92,16,56,1,7,11
6.15E+02,-8172,940,-323,-97,11,76,1,7,11
6.15E+02,-8163,941,-324,-93,4,105,1,7,11
6.15E+02,-8147,949,-324,-91,17,-126,1,7,11
6.16E+02,-8129,953,-325,-96,38,-106,1,7,11
6.16E+02,-8117,978,-328,-110,86,-90,1,7,11
6.16E+02,-8131,994,-327,-115,108,-90,1,7,11
6.16E+02,-8144,1004,-331,-124,115,-83,1,7,11
6.17E+02,-8144,1019,-336,123,116,-80,1,7,11
6.17E+02,-8138,1280,-346,106,120,-82,1,7,11
6.17E+02,-8141,1282,-353,95,127,-92,1,7,11
6.17E+02,-8141,1293,-360,83,-125,-109,1,7,11
6.18E+02,-8148,1293,-356,69,-125,-125,1,7,11
6.18E+02,-8133,1017,-348,50,125,109,1,7,11
6.18E+02,-8133,994,-335,41,127,75,1,7,11
6.18E+02,-8151,991,-322,50,-127,39,1,7,11
6.19E+02,-8153,989,-316,63,115,20,1,7,11
6.19E+02,-8143,988,-327,75,111,19,1,7,11
6.19E+02,-8137,997,-333,75,121,47,1,7,11
6.19E+02,-8134,1003,-331,64,-111,65,1,7,11
6.20E+02,-8138,1002,-333,48,-98,78,1,7,11
6.20E+02,-8143,1012,-331,28,-96,77,1,7,11
6.20E+02,-8140,1023,-330,13,-106,71,1,7,11
6.20E+02,-8122,1283,-331,-272,-119,56,1,7,11
6.21E+02,-8114,1283,-328,-306,-120,37,1,7,11
6.21E+02,-8110,1281,-333,-332,-117,12,1,7,11
6.21E+02,-8114,1021,-323,-350,-100,-280,1,7,11
6.21E+02,-8119,1019,-330,-356,-82,-317,1,7,11
6.22E+02,-8101,1020,-334,-367,-67,-357,1,7,11
6.22E+02,-8073,1002,-345,-137,-42,-151,1,7,11
6.22E+02,-8078,972,-331,-158,-1,-233,1,7,11
6.22E+02,-8095,975,-330,-142,291,-577,1,7,11
6.23E+02,-8102,985,-326,-380,313,-397,1,7,11
6.23E+02,-8135,1011,-322,-145,325,-438,1,7,11
6.23E+02,-8167,1003,-323,-183,312,-442,1,7,11
6.23E+02,-8161,981,-325,-199,288,-454,1,7,11
6.24E+02,-8161,946,-349,-201,275,-473,1,7,11
6.24E+02,-8164,921,-363,-177,260,-769,1,7,11
6.24E+02,-8158,1150,-373,-153,256,-820,1,7,11
6.24E+02,-8131,1125,-373,-380,-2,-884,1,7,11
6.25E+02,-8131,1096,-360,-136,266,-682,1,7,11
6.25E+02,-8143,1056,-356,-168,268,-713,1,7,11
6.25E+02,-8158,1038,-342,-189,266,-729,1,7,11
6.25E+02,-8176,757,-351,-218,264,-707,1,7,11
6.26E+02,-8171,744,-357,-242,264,-672,1,7,11
6.26E+02,-8150,723,-353,-531,271,-887,1,7,11
6.26E+02,-8124,686,-345,-575,287,-861,1,7,11
6.26E+02,-8104,893,-320,-596,299,-840,1,7,11
6.27E+02,-8099,866,-295,-608,292,-844,1,7,11
6.27E+02,-8085,827,-263,-610,276,-821,1,7,11
6.27E+02,-8320,798,-260,-588,-1,-795,1,7,11
6.27E+02,-8301,780,-280,-557,264,-498,1,7,11
6.28E+02,-8320,775,-313,-525,323,-441,1,7,11
6.28E+02,-8090,798,-382,-243,143,-619,1,7,11
6.28E+02,-8115,807,-180,-245,235,-534,1,7,11
6.28E+02,-8151,816,-231,-514,577,-193,1,7,11
6.29E+02,-8164,820,-525,-538,631,-364,1,7,11
6.29E+02,-8458,795,-555,-581,420,-292,1,7,11
6.29E+02,-8521,493,-555,-603,430,23,1,7,11
6.29E+02,-8576,455,-563,-581,390,78,1,7,11
6.30E+02,-8356,417,-566,-535,569,125,1,7,11
6.30E+02,-8362,625,-609,-175,202,-110,1,7,11
6.30E+02,-8570,619,-401,-269,350,124,1,7,11
6.30E+02,-8514,613,-423,-119,269,67,1,7,11
6.31E+02,-8191,588,-453,262,-64,-288,1,7,11
6.31E+02,-8104,556,-502,374,106,-171,1,7,11
6.31E+02,-8279,543,-505,194,39,-467,1,7,11
6.31E+02,-8300,564,-470,231,-274,-653,1,7,11
6.32E+02,-8120,557,-404,200,-365,-771,1,7,11
6.32E+02,-8454,543,-599,145,-247,-1068,1,7,11
6.32E+02,-8527,248,-542,346,-431,-1034,1,7,11
6.32E+02,-8335,196,-518,321,-698,-682,1,7,11
6.33E+02,-8384,374,-231,302,-1093,-819,1,7,11
6.33E+02,-8418,347,-224,378,-933,-436,1,7,11
6.33E+02,-8706,132,-210,202,-974,-545,1,7,11
6.33E+02,-8738,164,-157,234,-984,-363,1,7,11
6.34E+02,-8784,131,-294,241,-987,81,1,7,11
6.34E+02,-8777,362,40,590,-1303,264,1,7,11
6.34E+02,-8381,372,34,472,-1385,159,1,7,11
6.34E+02,-8452,140,-285,836,-1387,227,1,7,11
6.35E+02,-8295,155,-336,857,-1291,230,1,7,11
6.35E+02,-7915,152,-354,812,-1134,182,1,7,11
6.35E+02,-7857,380,-313,459,-704,345,1,7,11
6.35E+02,-7876,297,-258,605,-833,-21,1,7,11
6.36E+02,-7908,-39,6,538,-789,123,1,7,11
6.36E+02,-7894,127,-308,246,-783,-258,1,7,11
6.36E+02,-8207,53,-359,230,-474,-141,1,7,11
6.36E+02,-8109,-260,-352,249,-391,-239,1,7,11
6.37E+02,-8362,6,-316,632,-588,-226,1,7,11
6.37E+02,-8755,44,-311,812,-615,-293,1,7,11
6.37E+02,-8817,68,-294,756,-395,-17,1,7,11
6.37E+02,-8824,94,2,943,-430,557,1,7,11
6.38E+02,-8829,114,85,1380,-477,840,1,7,11
6.38E+02,-8796,-74,-78,1559,-819,1064,1,7,11
6.38E+02,-8733,327,-16,1440,-667,964,1,7,11
6.38E+02,-8361,244,281,1485,-766,1344,1,7,11
6.39E+02,-8510,435,310,1434,-1074,1183,1,7,11
6.39E+02,-8159,876,346,1570,-1075,1267,1,7,11
6.39E+02,-8313,764,138,1386,-1033,1593,1,7,11
6.39E+02,-8230,1140,189,896,-686,1606,1,7,11
6.40E+02,-7885,975,214,894,-815,1588,1,7,11
6.40E+02,-8063,1018,231,638,-628,1254,1,7,11
6.40E+02,-8033,1302,253,185,-368,1373,1,7,11
6.40E+02,-8059,1362,548,261,-72,974,1,7,11
6.41E+02,-7876,1158,555,72,217,1149,1,7,11
6.41E+02,-8202,1181,529,-334,463,1075,1,7,11
6.41E+02,-8277,1401,517,-189,819,1027,1,7,11
6.41E+02,-8101,1372,245,-237,998,684,1,7,11
6.42E+02,-8172,1390,216,-185,1353,850,1,7,11
6.42E+02,-8490,1388,204,-137,1385,818,1,7,11
6.42E+02,-8507,1384,181,-345,1320,811,1,7,11
6.42E+02,-8488,1376,148,-282,933,793,1,7,11
6.43E+02,-8467,1342,353,54,1035,768,1,7,11
6.43E+02,-8464,1309,320,-90,864,456,1,7,11
6.43E+02,-8476,1296,279,284,416,388,1,7,11
6.43E+02,-8515,1290,-24,144,221,556,1,7,11
6.44E+02,-8564,1322,-70,239,283,221,1,7,11
6.44E+02,-8331,1364,124,543,113,184,1,7,11
6.44E+02,-8332,1154,86,547,-273,165,1,7,11
6.44E+02,-8361,1211,62,254,-358,157,1,7,11
6.45E+02,-8375,1239,44,157,-173,167,1,7,11
6.45E+02,-8389,1256,47,302,-234,177,1,7,11
6.45E+02,-8395,1548,71,-55,-546,188,1,7,11
6.45E+02,-8386,1582,92,92,-596,217,1,7,11
6.46E+02,-8366,1627,120,-262,-637,516,1,7,11
6.46E+02,-8562,1662,-110,-356,-422,560,1,7,11
6.46E+02,-8494,1432,-82,-183,-439,575,1,7,11
6.46E+02,-8453,1467,-52,-255,-437,575,1,7,11
6.47E+02,-8124,1470,-15,-586,-450,580,1,7,11
6.47E+02,-8305,1445,282,-385,-455,553,1,7,11
6.47E+02,-8275,1653,329,-399,-450,241,1,7,11
6.47E+02,-8294,1633,374,-595,-451,171,1,7,11
6.48E+02,-8311,1629,150,-247,-471,369,1,7,11
6.48E+02,-8309,1653,157,-145,-483,328,1,7,11
6.48E+02,-8301,1435,162,-322,-472,301,1,7,11
6.48E+02,-8304,1468,181,-260,-438,268,1,7,11
6.49E+02,-8069,1508,210,27,-393,-7,1,7,11
6.49E+02,-8081,1808,220,20,-610,-10,1,7,11
6.49E+02,-8079,1836,229,-288,-564,-16,1,7,11
6.49E+02,-8072,1860,232,-377,-243,-31,1,7,11
6.50E+02,-8070,1866,521,-244,-172,-50,1,7,11
6.50E+02,-8084,1873,568,-617,-363,-68,1,7,11
6.50E+02,-8086,1861,590,-468,-323,-80,1,7,11
6.50E+02,-8092,1819,384,-821,-286,-87,1,7,11
6.51E+02,-8097,1523,428,-872,-266,-85,1,7,11
6.51E+02,-8316,1476,434,-884,-265,-79,1,7,11
6.51E+02,-8295,1428,449,-860,13,-98,1,7,11
6.51E+02,-8311,1648,469,-810,45,-120,1,7,11
6.52E+02,-8311,1632,447,-485,63,119,1,7,11
6.52E+02,-8307,1651,432,-414,96,96,1,7,11
6.52E+02,-8315,1415,409,-628,-111,71,1,7,11
6.52E+02,-8066,1447,638,-601,-60,51,1,7,11
6.53E+02,-8088,1477,627,-588,-13,34,1,7,11
6.53E+02,-8107,1488,626,-592,274,20,1,7,11
6.53E+02,-8109,1482,633,-613,289,7,1,7,11
6.53E+02,-8105,1465,637,-639,288,-277,1,7,11
6.54E+02,-8102,1449,639,-403,278,-300,1,7,11
6.54E+02,-8104,1433,386,-405,261,-312,1,7,11
6.54E+02,-8104,1659,385,-406,-16,-312,1,7,11
6.54E+02,-8112,1617,395,-398,-26,-307,1,7,11
6.55E+02,-8117,1581,405,-630,-54,-289,1,7,11
6.55E+02,-8121,1547,416,-542,-92,-274,1,7,11
6.55E+02,-8110,1273,414,-197,120,5,1,7,11
6.55E+02,-8094,1264,404,-357,86,40,1,7,11
6.56E+02,-8086,1253,407,-259,71,72,1,7,11
6.56E+02,-8088,1255,404,97,64,100,1,7,11
6.56E+02,-8089,1276,397,-74,54,117,1,7,11
6.56E+02,-8089,1566,638,-12,53,119,1,7,11
6.57E+02,-8099,1630,619,274,68,110,1,7,11
6.57E+02,-8109,1442,605,261,85,110,1,7,11
6.57E+02,-8094,1490,577,-62,113,115,1,7,11
6.57E+02,-8087,1503,561,96,-104,114,1,7,11
6.58E+02,-8098,1475,579,-269,-67,103,1,7,11
6.58E+02,-8132,1447,598,-336,-47,79,1,7,11
6.58E+02,-8144,1428,597,-365,-53,67,1,7,11
6.58E+02,-8132,1429,581,-360,-49,64,1,7,11
6.59E+02,-8121,1453,553,-347,-22,79,1,7,11
6.59E+02,-8108,1454,539,-338,269,102,1,7,11
6.59E+02,-8107,1453,527,-321,300,120,1,7,11
6.59E+02,-8107,1449,255,-305,318,125,1,7,11
6.60E+02,-8114,1454,255,-291,317,110,1,7,11
6.60E+02,-8120,1466,241,-287,296,89,1,7,11
6.60E+02,-8117,1470,236,-296,267,66,1,7,11
6.60E+02,-8127,1474,239,-312,-13,47,1,7,11
6.61E+02,-8130,1477,242,-321,-46,35,1,7,11
6.61E+02,-8134,1466,519,-330,-73,39,1,7,11
6.61E+02,-8128,1463,528,-322,-99,50,1,7,11
6.61E+02,-8109,1450,533,-317,-112,56,1,7,11
6.62E+02,-8094,1442,546,-304,-112,54,1,7,11
6.62E+02,-8100,1434,554,-292,-106,42,1,7,11
6.62E+02,-8112,1431,564,-276,-102,39,1,7,11
6.62E+02,-8114,1439,581,-263,-106,43,1,7,11
6.63E+02,-8103,1443,572,-266,-116,52,1,7,11
6.63E+02,-8101,1449,567,-289,-113,59,1,7,11
6.63E+02,-8108,1437,561,-325,-108,75,1,7,11
6.63E+02,-8107,1431,550,-359,-102,89,1,7,11
6.64E+02,-8103,1415,552,-367,-89,71,1,7,11
6.64E+02,-8105,1648,548,-359,-80,39,1,7,11
6.64E+02,-8105,1635,547,-341,-75,1,1,7,11
6.64E+02,-8116,1635,540,-318,-74,-289,1,7,11
6.65E+02,-8123,1625,536,-294,-82,-303,1,7,11
6.65E+02,-8127,1628,533,-259,-89,-309,1,7,11
6.65E+02,-8135,1623,540,26,-92,-305,1,7,11
6.65E+02,-8138,1630,538,68,-102,-289,1,7,11
6.66E+02,-8135,1632,536,81,-108,-262,1,7,11
6.66E+02,-8141,1629,542,82,-110,29,1,7,11
6.66E+02,-8130,1626,523,90,-120,53,1,7,11
6.66E+02,-8115,1634,515,115,-121,48,1,7,11
6.67E+02,-8107,1648,244,-116,-108,27,1,7,11
6.67E+02,-8108,1657,236,-105,-92,0,1,7,11
6.67E+02,-8109,1650,245,-124,-86,-284,1,7,11
6.67E+02,-8106,1659,242,120,-81,-302,1,7,11
6.68E+02,-8096,1413,238,106,-76,-326,1,7,11
6.68E+02,-8095,1416,240,62,-69,-336,1,7,11
6.68E+02,-8126,1649,251,-257,-70,-324,1,7,11
6.68E+02,-8154,1637,246,-264,-92,-324,1,7,11
6.69E+02,-8170,1637,253,-267,122,-337,1,7,11
6.69E+02,-8162,1424,235,-284,88,-314,1,7,11
6.69E+02,-8154,1461,201,-351,75,21,1,7,11
6.69E+02,-8155,1471,172,-144,88,110,1,7,11
6.70E+02,-8169,1435,184,-154,122,-103,1,7,11
6.70E+02,-8131,1646,203,-372,-121,-125,1,7,11
6.70E+02,-8145,1619,228,-334,-113,75,1,7,11
6.70E+02,-8125,1608,237,-302,119,12,1,7,11
6.71E+02,-8139,1609,248,-299,101,-317,1,7,11
6.71E+02,-8138,1635,243,-323,58,-353,1,7,11
6.71E+02,-8115,1651,232,-365,24,-350,1,7,11
6.71E+02,-8121,1650,222,-141,24,-338,1,7,11
6.72E+02,-8134,1633,231,-158,27,-304,1,7,11
6.72E+02,-8103,1631,238,-140,20,-276,1,7,11
6.72E+02,-8103,1608,515,-134,38,1,1,7,11
6.72E+02,-8108,1581,525,-358,38,7,1,7,11
6.73E+02,-8123,1588,536,-307,28,-263,1,7,11
6.73E+02,-8129,1605,530,-257,12,-273,1,7,11
6.73E+02,-8120,1622,519,42,-258,-265,1,7,11
6.73E+02,-8123,1622,526,72,16,39,1,7,11
6.74E+02,-8144,1609,553,91,45,85,1,7,11
6.74E+02,-8137,1587,563,107,56,123,1,7,11
6.74E+02,-8111,1573,557,-125,40,122,1,7,11
6.74E+02,-8104,1584,562,-95,30,81,1,7,11
6.75E+02,-8106,1613,558,-55,12,37,1,7,11
6.75E+02,-8119,1638,560,-78,7,22,1,7,11
6.75E+02,-8130,1640,564,-124,6,24,1,7,11
6.75E+02,-8133,1644,570,86,0,35,1,7,11
6.76E+02,-8134,1633,578,49,3,41,1,7,11
6.76E+02,-8142,1619,592,41,0,31,1,7,11
6.76E+02,-8139,1626,595,49,-258,31,1,7,11
6.76E+02,-8131,1624,602,47,9,42,1,7,11
6.77E+02,-8137,1611,610,34,30,65,1,7,11
6.77E+02,-8116,1604,615,33,34,94,1,7,11
6.77E+02,-8139,1587,624,12,61,108,1,7,11
6.77E+02,-8135,1565,631,14,59,119,1,7,11
6.78E+02,-8125,1554,636,24,49,113,1,7,11
6.78E+02,-8116,1553,390,50,39,89,1,7,11
6.78E+02,-8098,1560,631,80,26,60,1,7,11
6.78E+02,-8109,1561,634,87,31,42,1,7,11
6.79E+02,-8121,1579,633,99,23,34,1,7,11
6.79E+02,-8124,1603,621,102,18,55,1,7,11
6.79E+02,-8116,1621,607,97,34,93,1,7,11
6.79E+02,-8115,1630,599,80,59,126,1,7,11
6.80E+02,-8111,1630,596,72,85,-118,1,7,11
6.80E+02,-8114,1628,602,59,110,-118,1,7,11
6.80E+02,-8131,1626,605,52,122,-127,1,7,11
6.80E+02,-8144,1639,607,43,115,118,1,7,11
6.81E+02,-8145,1639,609,29,104,112,1,7,11
6.81E+02,-8143,1633,598,16,95,118,1,7,11
6.81E+02,-8149,1618,611,-260,91,117,1,7,11
6.81E+02,-8137,1605,622,-268,81,118,1,7,11
6.82E+02,-8141,1603,629,-274,77,114,1,7,11
6.82E+02,-8123,1608,625,-268,60,115,1,7,11
6.82E+02,-8110,1599,634,-267,56,113,1,7,11
6.82E+02,-8113,1580,396,-262,53,108,1,7,11
6.83E+02,-8117,1573,407,16,45,101,1,7,11
6.83E+02,-8124,1578,413,47,35,102,1,7,11
6.83E+02,-8126,1595,404,71,28,109,1,7,11
6.83E+02,-8122,1606,400,83,36,122,1,7,11
6.84E+02,-8121,1622,405,96,51,125,1,7,11
6.84E+02,-8114,1632,405,94,66,-128,1,7,11
6.84E+02,-8116,1641,408,90,79,127,1,7,11
6.84E+02,-8129,1642,414,77,89,123,1,7,11
6.85E+02,-8124,1644,405,60,88,122,1,7,11
6.85E+02,-8128,1644,402,43,86,119,1,7,11
6.85E+02,-8122,1641,399,31,80,116,1,7,11
6.85E+02,-8116,1637,403,26,86,108,1,7,11
6.86E+02,-8122,1640,409,34,89,98,1,7,11
6.86E+02,-8122,1634,418,46,83,89,1,7,11
6.86E+02,-8118,1632,417,60,77,83,1,7,11
6.86E+02,-8116,1645,417,76,76,79,1,7,11
6.87E+02,-8109,1657,416,84,77,80,1,7,11
6.87E+02,-8114,1410,407,79,86,89,1,7,11
6.87E+02,-8114,1409,409,69,98,95,1,7,11
6.87E+02,-8123,1663,416,62,109,92,1,7,11
6.88E+02,-8142,1663,420,58,111,95,1,7,11
6.88E+02,-8134,1414,422,50,100,101,1,7,11
6.88E+02,-8118,1410,422,32,95,105,1,7,11
6.88E+02,-8118,1659,423,18,92,103,1,7,11
6.89E+02,-8134,1660,433,10,87,102,1,7,11
6.89E+02,-8136,1411,426,13,73,111,1,7,11
6.89E+02,-8134,1421,414,8,69,124,1,7,11
6.89E+02,-8123,1432,419,-259,77,-120,1,7,11
6.90E+02,-8105,1426,420,-275,89,-122,1,7,11
6.90E+02,-8096,1421,435,-282,101,122,1,7,11
6.90E+02,-8091,1424,442,-281,107,108,1,7,11
