timestamp,ax,ay,az,gx,gy,gz,Label1,Label2,Label3
9.97E+02,-6823,410,-3139,3827,-179,1932,1,7,11
9.92E+02,-6931,829,-3063,4931,-366,2620,1,7,11
1.00E+03,-6669,1188,-3679,5318,48,2730,1,7,11
1.03E+03,-6452,1745,-3928,5563,-6,3228,1,7,11
1.05E+03,-6433,2289,-3816,5479,475,3353,1,7,11
1.08E+03,-6708,2754,-3840,4549,730,2936,1,7,11
1.10E+03,-6974,3035,-3813,2616,660,2293,1,7,11
1.11E+03,-6818,3367,-3742,1082,589,2161,1,7,11
1.09E+03,-6808,3002,-3924,-410,-31,1496,1,7,11
1.06E+03,-6947,2770,-3574,-1696,-312,1376,1,7,11
1.00E+03,-6571,2512,-3703,-2897,-177,743,1,7,11
9.49E+02,-6544,2213,-3287,-3262,-153,403,1,7,11
9.13E+02,-6539,1962,-3407,-3479,-315,227,1,7,11
9.11E+02,-6752,2075,-3059,-3684,53,161,1,7,11
9.37E+02,-6710,1741,-3007,-3234,-26,151,1,7,11
9.76E+02,-6688,1778,-2983,-3174,198,169,1,7,11
1.01E+03,-6726,2050,-2953,-2745,636,171,1,7,11
1.03E+03,-6784,1699,-3114,-2870,490,194,1,7,11
1.03E+03,-6587,1889,-2783,-2563,793,136,1,7,11
1.01E+03,-6602,1701,-2777,-2101,795,337,1,7,11
9.88E+02,-6566,2114,-3096,-1416,780,288,1,7,11
9.65E+02,-6784,2041,-3168,-1373,778,-15,1,7,11
9.43E+02,-6540,2197,-2966,-988,784,-67,1,7,11
9.22E+02,-6567,2232,-2977,-1022,486,-102,1,7,11
9.05E+02,-6579,2235,-2962,-1300,426,118,1,7,11
8.92E+02,-6531,2581,-3005,-983,541,85,1,7,11
8.89E+02,-6739,2653,-3002,-990,244,78,1,7,11
8.99E+02,-6733,2597,-2974,-1295,240,80,1,7,11
9.28E+02,-6718,2283,-3179,-1297,204,97,1,7,11
9.73E+02,-6699,2256,-3166,-1095,184,72,1,7,11
1.03E+03,-6683,2285,-3178,-742,189,47,1,7,11
1.07E+03,-6662,2605,-2956,-777,187,17,1,7,11
1.11E+03,-6371,2657,-2987,-484,191,17,1,7,11
1.13E+03,-6362,2439,-3010,-431,232,15,1,7,11
1.13E+03,-6369,2468,-3044,-397,534,-264,1,7,11
1.13E+03,-6377,2486,-3055,-409,580,-296,1,7,11
1.12E+03,-6373,2521,-3341,-406,608,-348,1,7,11
1.11E+03,-6383,2557,-3373,-441,398,-245,1,7,11
1.10E+03,-6672,2816,-3381,-471,417,-568,1,7,11
1.09E+03,-6706,2553,-3375,-773,398,-598,1,7,11
1.07E+03,-6703,2501,-3369,-822,607,-585,1,7,11
1.05E+03,-6682,2679,-3372,-801,562,-563,1,7,11
1.02E+03,-6384,2672,-3387,-454,540,-567,1,7,11
9.96E+02,-6381,2679,-3392,-420,548,-574,1,7,11
9.68E+02,-6382,2669,-3396,-419,541,-546,1,7,11
9.45E+02,-6389,2609,-3381,-438,534,-519,1,7,11
9.26E+02,-6399,2574,-3362,-635,538,-243,1,7,11
9.11E+02,-6390,2580,-3380,-534,529,-218,1,7,11
8.99E+02,-6381,2618,-3405,-202,521,-198,1,7,11
8.89E+02,-6380,2643,-3434,-153,253,-182,1,7,11
8.80E+02,-6351,2655,-3446,-132,237,-169,1,7,11
8.70E+02,-6355,2652,-3443,-138,255,-191,1,7,11
8.60E+02,-6345,2658,-3445,-383,532,-192,1,7,11
8.49E+02,-6340,2670,-3218,-130,563,-212,1,7,11
8.37E+02,-6341,2636,-3210,-181,567,-523,1,7,11
8.24E+02,-6358,2678,-3224,-171,570,-614,1,7,11
8.12E+02,-6680,2666,-3235,-240,253,-434,1,7,11
8.01E+02,-6669,2605,-3227,-540,137,-449,1,7,11
7.91E+02,-6377,2301,-3211,-237,289,-507,1,7,11
7.82E+02,-6364,2594,-3241,-381,260,-811,1,7,11
7.75E+02,-6372,2638,-3267,-325,-26,-778,1,7,11
7.68E+02,-6331,2633,-3278,-317,-45,-435,1,7,11
7.61E+02,-6331,2635,-3268,-286,-1,-595,1,7,11
7.56E+02,-6350,2527,-3235,-294,302,-519,1,7,11
7.50E+02,-6395,2212,-3206,-321,314,-224,1,7,11
7.46E+02,-6659,2216,-3208,-319,277,-230,1,7,11
7.42E+02,-6385,2197,-3216,-376,-50,-199,1,7,11
7.40E+02,-6326,2195,-3211,-348,124,-169,1,7,11
7.39E+02,-6305,2207,-3232,-285,-83,-139,1,7,11
7.39E+02,-6318,2191,-3237,10,259,-370,1,7,11
7.41E+02,-6373,2198,-3256,63,274,-347,1,7,11
7.43E+02,-6379,2221,-3282,107,-10,-314,1,7,11
7.46E+02,-6347,2238,-3309,-115,-16,-288,1,7,11
7.48E+02,-6295,2262,-3602,-109,258,-303,1,7,11
7.51E+02,-6513,2235,-3616,109,301,-137,1,7,11
7.54E+02,-6280,2190,-3618,-91,351,-551,1,7,11
7.58E+02,-6303,2177,-3610,309,379,-493,1,7,11
7.61E+02,-6347,2422,-3612,235,383,-670,1,7,11
7.65E+02,-6380,2421,-3634,396,338,-1095,1,7,11
7.70E+02,-6386,2379,-3636,769,283,-969,1,7,11
7.76E+02,-6673,2310,-3642,855,-5,-1350,1,7,11
7.82E+02,-6692,2007,-3651,728,-60,-1167,1,7,11
7.91E+02,-6664,1976,-3673,1123,-112,-1187,1,7,11
8.01E+02,-6374,1935,-3687,999,126,-1221,1,7,11
8.14E+02,-6391,2129,-3671,1337,-125,-1546,1,7,11
8.30E+02,-6720,1766,-3651,1400,125,-1631,1,7,11
8.49E+02,-6780,1707,-3644,1277,69,-1418,1,7,11
8.69E+02,-6780,1692,-3675,1654,-287,-1443,1,7,11
8.90E+02,-6532,1891,-3463,1448,-133,-1512,1,7,11
9.10E+02,-6706,1518,-3682,1438,-524,-1875,1,7,11
9.28E+02,-6754,1503,-3472,1508,-248,-2100,1,7,11
9.42E+02,-6586,1422,-3707,1444,-609,-2015,1,7,11
9.51E+02,-6579,1539,-3665,1609,-481,-2424,1,7,11
9.55E+02,-6594,1176,-3647,1647,-817,-2632,1,7,11
9.55E+02,-6920,1311,-3604,1652,-883,-2846,1,7,11
9.54E+02,-6809,1075,-3265,1272,-742,-3088,1,7,11
9.52E+02,-6814,699,-3202,1277,-900,-3146,1,7,11
9.50E+02,-7040,494,-3221,1495,-1006,-3018,1,7,11
9.49E+02,-6831,395,-3208,1727,-1290,-3446,1,7,11
9.48E+02,-6823,535,-3435,1936,-1357,-3614,1,7,11
9.49E+02,-6841,356,-3389,2308,-1381,-3499,1,7,11
9.50E+02,-6876,-78,-3370,2377,-1153,-3880,1,7,11
9.50E+02,-6906,38,-3383,2418,-1181,-3938,1,7,11
9.48E+02,-7230,-176,-3344,2422,-1219,-3924,1,7,11
9.44E+02,-7261,-616,-3017,2375,-1591,-3894,1,7,11
9.38E+02,-7280,-818,-3184,2037,-1433,-3898,1,7,11
9.33E+02,-7076,-728,-3106,2038,-1805,-3968,1,7,11
9.29E+02,-7052,-1070,-3085,2364,-1682,-3765,1,7,11
9.26E+02,-7068,-1123,-2807,2353,-1782,-4127,1,7,11
9.24E+02,-7077,-931,-2766,1971,-2109,-4184,1,7,11
9.23E+02,-7118,-1019,-2691,1742,-2150,-4168,1,7,11
9.22E+02,-7132,-1185,-2856,1648,-1968,-3835,1,7,11
9.19E+02,-7083,-1418,-2492,1349,-2005,-3738,1,7,11
9.11E+02,-7075,-1853,-2687,978,-1942,-3936,1,7,11
8.96E+02,-7128,-1747,-2603,921,-2109,-3874,1,7,11
8.75E+02,-7442,-2076,-2301,1136,-2056,-3488,1,7,11
8.54E+02,-7161,-2155,-2258,713,-2100,-3280,1,7,11
8.42E+02,-7088,-2044,-2182,491,-2118,-3349,1,7,11
8.44E+02,-7048,-2393,-2372,416,-1779,-2945,1,7,11
8.56E+02,-7280,-2233,-2307,568,-1675,-3075,1,7,11
8.71E+02,-7254,-2580,-1988,223,-1819,-2709,1,7,11
8.80E+02,-7055,-2497,-2138,348,-1484,-2695,1,7,11
8.81E+02,-7075,-2940,-1777,320,-1469,-2916,1,7,11
8.75E+02,-7055,-2752,-1721,192,-1426,-2872,1,7,11
8.66E+02,-7295,-2773,-1686,533,-1634,-2843,1,7,11
8.56E+02,-7042,-2795,-1912,525,-1575,-2522,1,7,11
8.47E+02,-7293,-3162,-1837,170,-1558,-2446,1,7,11
8.43E+02,-7235,-3008,-1514,151,-1261,-2610,1,7,11
8.44E+02,-7207,-3037,-1498,359,-1199,-2288,1,7,11
8.51E+02,-7183,-3377,-1472,258,-1389,-2227,1,7,11
8.58E+02,-7190,-3210,-1421,-104,-1323,-2222,1,7,11
8.61E+02,-7212,-3588,-1574,15,-1309,-2215,1,7,11
8.59E+02,-6892,-3536,-1232,-347,-1318,-2430,1,7,11
8.57E+02,-6819,-3847,-1187,-314,-1002,-2424,1,7,11
8.64E+02,-6855,-3875,-1183,42,-1091,-2391,1,7,11
8.86E+02,-6861,-3740,-1407,23,-1072,-2314,1,7,11
9.18E+02,-6803,-4106,-1371,16,-1017,-1981,1,7,11
9.50E+02,-6795,-4115,-1363,-103,-660,-1921,1,7,11
9.70E+02,-6789,-3818,-1365,364,-845,-2063,1,7,11
9.68E+02,-6994,-4037,-1283,-101,-890,-1860,1,7,11
9.48E+02,-6656,-4419,-973,-41,-896,-1822,1,7,11
9.22E+02,-6621,-4455,-947,375,-832,-1801,1,7,11
9.02E+02,-6627,-4439,-935,514,-490,-1488,1,7,11
8.94E+02,-6629,-4407,-926,593,-424,-1643,1,7,11
8.91E+02,-6626,-4370,-938,581,-635,-1542,1,7,11
8.82E+02,-6611,-4417,-912,193,-611,-1192,1,7,11
8.57E+02,-6568,-4242,-1116,318,-567,-1383,1,7,11
8.19E+02,-6557,-4295,-1079,276,-241,-1361,1,7,11
7.82E+02,-6781,-4316,-1091,-5,-194,-1355,1,7,11
7.57E+02,-6544,-4656,-1087,-73,-169,-1401,1,7,11
7.47E+02,-6539,-4729,-1064,-81,-169,-1391,1,7,11
7.46E+02,-6768,-4503,-1057,-34,-168,-1360,1,7,11
7.48E+02,-6753,-4715,-1076,298,-148,-1300,1,7,11
7.51E+02,-6763,-4679,-1102,325,-141,-951,1,7,11
7.54E+02,-6777,-4719,-1086,-79,-200,-1039,1,7,11
7.57E+02,-6754,-4514,-1063,84,-516,-668,1,7,11
7.60E+02,-6719,-4520,-1043,48,-554,-843,1,7,11
7.63E+02,-6721,-4536,-1029,-288,-577,-794,1,7,11
7.65E+02,-6674,-4872,-707,-182,-407,-479,1,7,11
7.68E+02,-6666,-4886,-685,-182,-408,-480,1,7,11
7.70E+02,-6658,-4873,-675,-182,-403,-455,1,7,11
7.72E+02,-6385,-4596,-671,-188,-387,-419,1,7,11
7.74E+02,-6364,-4602,-660,-246,-614,-396,1,7,11
7.75E+02,-6366,-4893,-879,-549,-556,-417,1,7,11
7.77E+02,-6378,-4908,-859,-562,-246,-436,1,7,11
7.77E+02,-6371,-4992,-828,-611,-233,-444,1,7,11
7.78E+02,-6346,-4820,-793,-567,-220,-454,1,7,11
7.78E+02,-6321,-4815,-794,-141,-177,-458,1,7,11
7.78E+02,-6319,-4986,-837,-283,-383,-448,1,7,11
7.77E+02,-6384,-4769,-819,-367,-375,-445,1,7,11
7.76E+02,-6354,-4828,-800,-368,-132,-612,1,7,11
7.75E+02,-6344,-4828,-802,-308,-351,-569,1,7,11
7.74E+02,-6347,-4815,-816,5,-300,-252,1,7,11
7.72E+02,-6326,-4738,-850,43,4,-190,1,7,11
7.71E+02,-6349,-4987,-853,-287,24,-181,1,7,11
7.68E+02,-6323,-4739,-855,-359,5,-376,1,7,11
7.65E+02,-6298,-4772,-858,-156,1,-362,1,7,11
7.60E+02,-6280,-4781,-847,-149,24,-347,1,7,11
7.55E+02,-6526,-4763,-854,-150,42,-345,1,7,11
7.52E+02,-6302,-4798,-840,-192,45,-370,1,7,11
7.49E+02,-6319,-4820,-835,-185,16,-350,1,7,11
7.47E+02,-6289,-5121,-819,-181,-292,-301,1,7,11
7.45E+02,-6515,-5153,-807,-365,-263,-269,1,7,11
7.42E+02,-6306,-4831,-825,67,24,8,1,7,11
7.39E+02,-6297,-4829,-815,27,-274,36,1,7,11
7.36E+02,-6484,-4813,-814,6,-302,54,1,7,11
7.32E+02,-6508,-4772,-827,40,-232,-272,1,7,11
7.30E+02,-6326,-4759,-815,16,43,-330,1,7,11
7.27E+02,-6364,-4767,-799,-325,14,-354,1,7,11
7.25E+02,-6346,-4749,-794,-354,-284,-352,1,7,11
7.22E+02,-6340,-4750,-788,-157,-304,-360,1,7,11
7.18E+02,-6322,-4792,-503,-238,-329,-366,1,7,11
7.13E+02,-6314,-4833,-482,-254,-331,-377,1,7,11
7.07E+02,-6298,-4855,-475,-252,-347,-377,1,7,11
7.02E+02,-6282,-5125,-459,-239,-358,-384,1,7,11
6.98E+02,-6284,-5132,-455,-210,-350,-145,1,7,11
6.96E+02,-6276,-5173,-445,-196,-346,-137,1,7,11
6.94E+02,-6506,-5200,-448,-381,-335,-350,1,7,11
6.91E+02,-6523,-5181,-458,-283,-298,-317,1,7,11
6.88E+02,-6307,-5182,-461,-264,-288,-291,1,7,11
6.85E+02,-6317,-5224,-438,12,-326,-258,1,7,11
6.83E+02,-6313,-5015,-414,77,-350,6,1,7,11
6.85E+02,-6519,-5239,-401,276,-331,28,1,7,11
6.94E+02,-6500,-4839,-450,150,-274,-268,1,7,11
7.10E+02,-6526,-4778,-463,321,2,-326,1,7,11
7.27E+02,-6280,-4786,-445,-84,-284,-363,1,7,11
7.37E+02,-6282,-4782,-422,107,-291,-373,1,7,11
7.35E+02,-6304,-4742,-427,60,-280,-352,1,7,11
7.29E+02,-6332,-4741,-432,-323,-278,-316,1,7,11
7.27E+02,-6344,-4802,-415,-231,-309,-276,1,7,11
7.34E+02,-6329,-5138,-637,-596,-359,-266,1,7,11
7.43E+02,-6286,-5168,-637,-566,-372,14,1,7,11
7.46E+02,-6515,-5173,-385,-250,-356,11,1,7,11
7.40E+02,-6508,-5160,-410,-178,-315,-264,1,7,11
7.31E+02,-6506,-5144,-422,-374,-279,-286,1,7,11
7.26E+02,-6278,-5174,-414,-372,-281,-334,1,7,11
7.28E+02,-6507,-5227,-414,-354,-302,-366,1,7,11
7.35E+02,-6494,-5237,-416,-265,-277,-149,1,7,11
7.42E+02,-6492,-5162,-435,85,24,-154,1,7,11
7.46E+02,-6276,-5149,-427,40,37,-165,1,7,11
7.49E+02,-6520,-5167,-408,-291,23,-148,1,7,11
7.52E+02,-6290,-5166,-633,-360,22,-174,1,7,11
7.56E+02,-6277,-5226,-605,-209,4,-161,1,7,11
7.61E+02,-6492,-5008,-578,-516,-264,-159,1,7,11
7.66E+02,-6511,-5172,-600,-159,22,-175,1,7,11
7.71E+02,-6274,-5124,-624,-131,61,-197,1,7,11
7.69E+02,-6491,-5186,-606,-536,38,-139,1,7,11
7.52E+02,-6468,-5238,-595,-604,41,-378,1,7,11
7.23E+02,-6459,-5001,-589,-571,62,-372,1,7,11
6.95E+02,-6429,-5241,-597,-536,71,-370,1,7,11
6.86E+02,-6444,-5225,-609,-259,83,-168,1,7,11
6.93E+02,-6442,-5232,-606,-544,68,-170,1,7,11
6.99E+02,-6411,-5245,-599,-574,62,-160,1,7,11
6.85E+02,-6406,-5004,-600,-581,98,-159,1,7,11
6.58E+02,-6427,-5046,-596,-613,99,-142,1,7,11
6.35E+02,-6133,-5082,-588,-583,97,-365,1,7,11
6.30E+02,-6410,-5096,-588,-533,-112,-378,1,7,11
6.34E+02,-6418,-5086,-598,-218,-84,-352,1,7,11
6.36E+02,-6413,-5086,-605,-206,-69,-327,1,7,11
6.32E+02,-6419,-5102,-597,-187,-51,-303,1,7,11
6.22E+02,-6432,-5381,-611,-183,-54,-270,1,7,11
6.10E+02,-6125,-5392,-616,-156,-68,45,1,7,11
6.06E+02,-6096,-5408,-625,-369,-41,76,1,7,11
6.20E+02,-6096,-5388,-640,-321,268,86,1,7,11
6.45E+02,-6120,-5398,-623,-333,294,104,1,7,11
6.68E+02,-6113,-5429,-597,-327,307,-83,1,7,11
6.76E+02,-6113,-5490,-564,-299,330,-26,1,7,11
6.74E+02,-6085,-5474,-572,115,374,308,1,7,11
6.69E+02,-6098,-5402,-625,-34,170,342,1,7,11
6.67E+02,-6106,-5078,-636,-39,205,379,1,7,11
6.70E+02,-6122,-5037,-400,-119,246,172,1,7,11
6.77E+02,-6409,-5005,-413,15,551,519,1,7,11
6.85E+02,-6407,-5228,-416,-372,599,421,1,7,11
6.89E+02,-6427,-4744,-434,-531,437,837,1,7,11
6.84E+02,-6483,-4564,-778,-892,825,1031,1,7,11
6.74E+02,-6350,-4884,-802,-1758,748,1359,1,7,11
6.67E+02,-6352,-4569,-509,-2576,1072,1426,1,7,11
6.65E+02,-6371,-4469,-854,-3363,981,1750,1,7,11
6.66E+02,-6781,-4363,-907,-4743,1012,2185,1,7,11
6.67E+02,-6635,-4516,-1000,-6429,759,2776,1,7,11
6.69E+02,-7034,-4776,-1299,-5741,390,3389,1,7,11
6.70E+02,-6675,-4734,-1381,-4223,614,3702,1,7,11
6.72E+02,-6543,-4018,-1248,-2969,923,3548,1,7,11
6.72E+02,-7028,-3458,-1423,-2784,1339,3959,1,7,11
6.67E+02,-6854,-3218,-1494,-3941,1093,4179,1,7,11
6.57E+02,-6838,-3506,-1645,-4796,848,3986,1,7,11
6.48E+02,-6801,-3944,-1639,-5048,869,4080,1,7,11
6.46E+02,-7019,-3521,-1499,-5194,731,4066,1,7,11
6.50E+02,-6854,-3260,-1904,-5162,934,4217,1,7,11
6.53E+02,-7095,-2968,-1781,-5174,1174,4191,1,7,11
6.52E+02,-7682,-2924,-1942,-5022,1552,4021,1,7,11
6.50E+02,-7602,-2442,-2371,-5317,1295,4322,1,7,11
6.50E+02,-7297,-2273,-2604,-5969,815,4775,1,7,11
6.55E+02,-7197,-2238,-2673,-6106,638,5134,1,7,11
6.60E+02,-6845,-2338,-2462,-6203,886,4743,1,7,11
6.65E+02,-7221,-1757,-2820,-5594,936,4889,1,7,11
6.69E+02,-7058,-1511,-2914,-5629,955,4875,1,7,11
6.76E+02,-7180,-1800,-2905,-5864,728,4604,1,7,11
6.87E+02,-6646,-1807,-2920,-5938,864,4635,1,7,11
6.96E+02,-6551,-1609,-2944,-5115,1037,4122,1,7,11
6.97E+02,-6965,-1283,-2716,-4518,1282,3605,1,7,11
6.87E+02,-6899,-1036,-2735,-4411,1020,3054,1,7,11
6.74E+02,-6900,-1025,-2770,-4167,735,3195,1,7,11
6.68E+02,-6827,-750,-2799,-3595,834,2720,1,7,11
6.70E+02,-6871,-504,-2956,-2488,648,2653,1,7,11
6.75E+02,-7294,-259,-3350,-2073,667,2423,1,7,11
6.80E+02,-7071,-51,-3415,-1470,771,2340,1,7,11
6.85E+02,-7273,346,-3216,-1244,474,2362,1,7,11
6.91E+02,-7283,209,-3206,-1307,176,2336,1,7,11
6.98E+02,-7177,598,-3439,-1042,379,2007,1,7,11
7.08E+02,-7540,783,-3423,-500,284,1957,1,7,11
7.22E+02,-7523,683,-3395,-560,68,1981,1,7,11
7.38E+02,-7513,1049,-3348,-207,-158,1962,1,7,11
7.54E+02,-7511,1147,-3026,-347,-397,1979,1,7,11
7.64E+02,-7532,989,-2963,-120,-781,2037,1,7,11
7.68E+02,-7544,991,-3117,-48,-707,2384,1,7,11
7.68E+02,-7509,992,-2789,152,-900,2237,1,7,11
7.69E+02,-7442,1348,-2765,468,-1311,2562,1,7,11
7.73E+02,-7437,1215,-2743,733,-1185,2634,1,7,11
7.76E+02,-7133,1574,-2720,1132,-1609,2520,1,7,11
7.71E+02,-7257,1582,-2922,928,-1520,2916,1,7,11
7.57E+02,-6866,1614,-2882,1360,-1836,2938,1,7,11
7.40E+02,-6807,1477,-2845,1630,-1517,2821,1,7,11
7.33E+02,-6856,1862,-2817,1827,-1424,2438,1,7,11
7.40E+02,-6901,1736,-2516,1719,-1619,2662,1,7,11
7.56E+02,-7231,1789,-2433,1698,-1619,2642,1,7,11
7.72E+02,-7201,1786,-2616,1668,-1414,2676,1,7,11
7.82E+02,-6909,2101,-2576,1743,-1655,2637,1,7,11
7.88E+02,-7198,1972,-2569,2090,-1599,2301,1,7,11
7.94E+02,-7235,2341,-2283,2092,-1574,2274,1,7,11
8.03E+02,-7219,2395,-2239,1739,-1594,2279,1,7,11
8.14E+02,-7177,2183,-2194,1891,-1597,2262,1,7,11
8.24E+02,-6866,2181,-2395,1488,-1576,2429,1,7,11
8.32E+02,-6837,2212,-2373,1428,-1225,1999,1,7,11
8.35E+02,-6888,2676,-2427,1440,-1339,1765,1,7,11
8.35E+02,-7190,2517,-2431,1611,-955,1761,1,7,11
8.32E+02,-7222,2546,-2414,1317,-1050,1652,1,7,11
8.28E+02,-7219,2489,-2378,1101,-704,1579,1,7,11
8.22E+02,-7210,2652,-2343,694,-856,1230,1,7,11
8.15E+02,-7208,2300,-2306,860,-486,1357,1,7,11
8.05E+02,-7225,2255,-2033,849,-627,954,1,7,11
7.95E+02,-7250,2261,-2039,823,-523,1088,1,7,11
7.83E+02,-7270,2227,-2022,465,-199,744,1,7,11
7.72E+02,-7289,2403,-1983,628,-150,654,1,7,11
7.63E+02,-7060,2309,-1926,585,-375,802,1,7,11
7.51E+02,-7113,1991,-2129,390,-346,427,1,7,11
7.36E+02,-7149,2014,-2111,503,-341,615,1,7,11
7.13E+02,-7425,2320,-2113,833,-352,615,1,7,11
6.91E+02,-7432,2361,-2119,859,-358,418,1,7,11
6.78E+02,-7426,2401,-2131,862,-339,509,1,7,11
6.78E+02,-7158,2428,-2143,814,-330,884,1,7,11
6.91E+02,-7110,2367,-2123,435,-346,734,1,7,11
7.13E+02,-7099,2027,-2070,424,-315,753,1,7,11
7.43E+02,-7093,2320,-2081,769,-275,716,1,7,11
7.76E+02,-7118,2406,-2108,781,6,657,1,7,11
8.09E+02,-7120,2240,-2138,450,-258,871,1,7,11
8.40E+02,-7103,2566,-2170,558,-273,831,1,7,11
8.68E+02,-7084,2580,-1935,350,-304,798,1,7,11
8.93E+02,-7274,2224,-1947,-111,-335,493,1,7,11
9.15E+02,-7208,2194,-1973,66,-289,629,1,7,11
9.34E+02,-7194,2183,-1990,77,86,138,1,7,11
9.51E+02,-7178,2417,-1985,108,-98,-17,1,7,11
9.66E+02,-7214,2177,-1998,-46,-1,80,1,7,11
9.81E+02,-7041,2210,-1988,273,312,-316,1,7,11
9.95E+02,-7047,2218,-1971,300,285,-350,1,7,11
1.01E+03,-7048,2228,-1954,332,279,-150,1,7,11
1.02E+03,-7082,2243,-1951,353,258,-189,1,7,11
1.03E+03,-7044,2249,-1928,351,-61,-158,1,7,11
1.04E+03,-7270,2244,-2169,149,-85,-155,1,7,11
1.05E+03,-7243,2278,-1931,243,-81,-142,1,7,11
1.06E+03,-7176,2565,-1949,516,-78,-348,1,7,11
1.07E+03,-6855,2567,-1923,220,-57,-344,1,7,11
1.07E+03,-6843,2285,-2143,187,-5,-378,1,7,11
1.08E+03,-6887,2240,-2121,199,301,-175,1,7,11
1.08E+03,-7228,2209,-2105,240,339,-235,1,7,11
1.08E+03,-7294,2224,-2111,544,340,-518,1,7,11
1.08E+03,-7043,2207,-2140,518,312,-528,1,7,11
1.08E+03,-7280,2420,-1923,240,317,-547,1,7,11
1.08E+03,-7282,2412,-1972,252,376,-589,1,7,11
1.08E+03,-7081,2406,-1996,253,215,-614,1,7,11
1.08E+03,-7089,2426,-2034,555,558,-588,1,7,11
1.07E+03,-7092,2206,-2337,597,387,-509,1,7,11
1.06E+03,-7085,2221,-2388,617,480,-187,1,7,11
1.06E+03,-7288,2204,-2426,598,822,-130,1,7,11
1.05E+03,-7221,2395,-2196,564,856,-383,1,7,11
1.04E+03,-7175,2313,-2218,547,655,-203,1,7,11
1.03E+03,-7183,1991,-2261,583,707,-577,1,7,11
1.02E+03,-7175,1932,-2572,612,733,-421,1,7,11
1.01E+03,-7179,2156,-2635,638,758,-506,1,7,11
1.01E+03,-7203,2142,-2454,619,1028,-825,1,7,11
1.01E+03,-7181,2124,-2524,561,744,-819,1,7,11
1.01E+03,-6893,2083,-2838,199,706,-813,1,7,11
1.00E+03,-6884,1763,-2924,346,677,-797,1,7,11
9.78E+02,-6902,1718,-2760,272,655,-784,1,7,11
9.43E+02,-7185,1700,-3079,-48,876,-483,1,7,11
9.06E+02,-7231,1682,-3119,-114,829,-406,1,7,11
8.78E+02,-7269,1900,-3136,106,474,-545,1,7,11
8.65E+02,-7265,1876,-3146,110,613,-146,1,7,11
8.67E+02,-7250,1857,-3138,-101,249,-272,1,7,11
8.81E+02,-7220,1873,-3146,-40,153,91,1,7,11
9.04E+02,-7204,1873,-3134,-8,329,-78,1,7,11
9.31E+02,-7190,1864,-3107,284,-9,-11,1,7,11
9.63E+02,-7183,1863,-2815,336,-88,281,1,7,11
9.98E+02,-6912,1867,-2754,378,87,298,1,7,11
1.03E+03,-7207,1865,-2713,141,17,290,1,7,11
1.07E+03,-7214,1864,-2942,158,-329,303,1,7,11
1.11E+03,-7203,1856,-2943,174,-166,325,1,7,11
1.14E+03,-7213,1852,-2704,180,-230,327,1,7,11
1.16E+03,-7204,1850,-2700,155,-549,340,1,7,11
1.18E+03,-7243,1856,-2694,128,-563,331,1,7,11
1.19E+03,-7267,1864,-2695,328,-566,336,1,7,11
1.18E+03,-7257,1868,-2941,-25,-585,158,1,7,11
1.17E+03,-7206,1883,-2928,109,-596,185,1,7,11
1.15E+03,-7196,1668,-2926,16,-562,242,1,7,11
1.13E+03,-7204,1706,-2914,-332,-255,558,1,7,11
1.10E+03,-7184,1747,-2895,-147,-222,392,1,7,11
1.07E+03,-6908,1750,-2872,-222,-219,478,1,7,11
1.04E+03,-6884,1724,-2836,-564,-210,801,1,7,11
1.00E+03,-6852,1706,-2545,-572,-211,837,1,7,11
9.59E+02,-6848,1917,-2497,-578,-195,822,1,7,11
9.20E+02,-6832,1888,-2459,-522,-196,785,1,7,11
8.91E+02,-6824,1871,-2446,-177,-182,453,1,7,11
8.77E+02,-6820,1884,-2448,-297,-147,623,1,7,11
8.81E+02,-6852,1709,-2471,98,-343,534,1,7,11
8.99E+02,-6891,2054,-2479,-80,-310,514,1,7,11
9.31E+02,-6901,2125,-2484,-44,-292,544,1,7,11
9.73E+02,-7188,2175,-2487,-25,-258,552,1,7,11
1.02E+03,-7200,1966,-2501,261,12,565,1,7,11
1.08E+03,-7199,2001,-2496,305,26,578,1,7,11
1.15E+03,-7191,2042,-2478,139,44,573,1,7,11
1.21E+03,-7193,2344,-2457,183,51,549,1,7,11
1.27E+03,-7192,2344,-2435,142,39,528,1,7,11
1.31E+03,-7182,2365,-2672,377,18,220,1,7,11
1.29E+03,-7171,2424,-2680,355,-263,143,1,7,11
1.25E+03,-6908,2214,-2688,282,-291,347,1,7,11
1.20E+03,-6871,2204,-2660,-54,-343,306,1,7,11
1.16E+03,-6857,2182,-2637,-75,-370,-32,1,7,11
1.13E+03,-6888,2420,-2616,-39,-376,-120,1,7,11
1.10E+03,-7193,2413,-2596,274,-137,65,1,7,11
1.07E+03,-7207,2393,-2575,327,-179,34,1,7,11
1.04E+03,-7173,2376,-2574,382,-210,22,1,7,11
1.01E+03,-6892,2364,-2591,184,-216,-279,1,7,11
9.91E+02,-6869,2314,-2594,182,-193,-325,1,7,11
9.88E+02,-6870,2013,-2593,177,-140,-153,1,7,11
1.00E+03,-6901,2004,-2602,166,-330,-243,1,7,11
1.02E+03,-7186,2005,-2604,134,-273,-545,1,7,11
1.05E+03,-7200,2006,-2604,334,19,-553,1,7,11
1.08E+03,-7193,2004,-2604,-15,40,-527,1,7,11
1.11E+03,-7184,1961,-2613,103,43,-246,1,7,11
1.13E+03,-6901,2175,-2608,7,65,-223,1,7,11
1.14E+03,-7174,2153,-2615,-313,118,-243,1,7,11
1.15E+03,-7224,2147,-2611,-379,-96,-228,1,7,11
1.16E+03,-7263,2114,-2593,-185,-97,-190,1,7,11
1.17E+03,-7060,2070,-2598,-178,-116,-156,1,7,11
1.17E+03,-7086,1791,-2616,-130,93,-363,1,7,11
1.18E+03,-7095,1788,-2638,-319,46,-327,1,7,11
1.18E+03,-7093,1782,-2652,4,-257,-291,1,7,11
1.18E+03,-7096,1762,-2658,85,-285,-267,1,7,11
1.18E+03,-7124,1722,-2658,-101,-323,-276,1,7,11
1.19E+03,-7086,1733,-2681,332,-173,-257,1,7,11
1.19E+03,-7285,1768,-2435,171,-239,10,1,7,11
1.18E+03,-7259,1782,-2667,218,-521,44,1,7,11
1.18E+03,-7252,1776,-2626,528,-551,-123,1,7,11
1.17E+03,-7251,1774,-2612,594,-590,269,1,7,11
1.17E+03,-7282,1754,-2577,419,-631,185,1,7,11
1.16E+03,-7049,1739,-2303,798,-436,404,1,7,11
1.16E+03,-7288,1711,-2291,687,-507,662,1,7,11
1.16E+03,-7262,1670,-2275,1113,-803,1149,1,7,11
1.16E+03,-7235,1895,-2276,1314,-815,1358,1,7,11
1.16E+03,-7240,1897,-2295,1539,-786,1259,1,7,11
1.14E+03,-7252,1693,-2568,1530,-475,1657,1,7,11
1.12E+03,-7194,1759,-2571,1733,-424,1516,1,7,11
1.08E+03,-7206,2086,-2295,2132,-599,1529,1,7,11
1.05E+03,-7274,1947,-2275,1994,-255,1468,1,7,11
1.03E+03,-7062,2317,-2258,2021,-233,1423,1,7,11
1.03E+03,-7041,2412,-2234,1928,-525,1623,1,7,11
1.04E+03,-7286,2245,-2220,1784,-534,1253,1,7,11
1.07E+03,-7248,2581,-2217,1840,-534,1391,1,7,11
1.10E+03,-7218,2658,-2228,1608,-250,990,1,7,11
1.13E+03,-7182,2455,-2229,1314,-199,1087,1,7,11
1.15E+03,-6909,2459,-2209,708,-382,659,1,7,11
1.16E+03,-7213,2669,-2178,637,-303,498,1,7,11
1.17E+03,-7226,2580,-2424,135,-264,398,1,7,11
1.17E+03,-7191,2232,-2180,284,46,616,1,7,11
1.16E+03,-6874,2180,-2212,-2,-122,568,1,7,11
1.15E+03,-6830,2377,-2241,-38,263,521,1,7,11
1.14E+03,-6804,2336,-2246,-35,156,223,1,7,11
1.12E+03,-7036,2329,-2253,-23,547,203,1,7,11
1.11E+03,-6828,2342,-2255,-16,389,188,1,7,11
1.09E+03,-6830,2309,-2244,-20,620,251,1,7,11
1.07E+03,-6793,2322,-2268,293,589,574,1,7,11
1.05E+03,-6838,2363,-2589,334,580,634,1,7,11
1.03E+03,-6849,2386,-2638,340,517,784,1,7,11
1.01E+03,-6811,2405,-2473,148,199,664,1,7,11
9.87E+02,-6807,2210,-2554,522,186,740,1,7,11
9.70E+02,-6807,2671,-2889,634,184,1046,1,7,11
9.57E+02,-6820,2509,-2926,587,175,1027,1,7,11
9.48E+02,-6808,2817,-2910,167,145,719,1,7,11
9.45E+02,-6807,2825,-2859,-46,147,827,1,7,11
9.47E+02,-6857,2823,-2530,-344,176,636,1,7,11
9.54E+02,-6875,2559,-2474,-251,157,188,1,7,11
9.66E+02,-6852,2509,-2674,-433,374,256,1,7,11
9.83E+02,-6794,2486,-2655,-807,381,92,1,7,11
1.00E+03,-7025,2444,-2633,-690,173,-307,1,7,11
1.02E+03,-7010,2653,-2611,-1051,239,-353,1,7,11
1.05E+03,-6936,2601,-2585,-1073,553,-278,1,7,11
1.07E+03,-6622,2282,-2591,-755,636,73,1,7,11
1.10E+03,-6583,2238,-2617,-863,485,-92,1,7,11
1.12E+03,-6608,2191,-2653,-405,852,-21,1,7,11
1.14E+03,-6635,2193,-2686,-139,665,292,1,7,11
1.15E+03,-6952,2230,-2481,117,685,310,1,7,11
1.15E+03,-7037,2293,-2540,350,649,321,1,7,11
1.14E+03,-6787,2645,-2880,530,802,344,1,7,11
1.11E+03,-7022,2486,-2708,562,421,327,1,7,11
1.07E+03,-6966,2504,-2755,156,543,-8,1,7,11
1.02E+03,-6635,2538,-2788,-18,172,62,1,7,11
9.74E+02,-6572,2704,-3101,79,350,-160,1,7,11
9.47E+02,-6557,3076,-3127,-178,287,-575,1,7,11
9.39E+02,-6762,2815,-3121,-389,-36,-618,1,7,11
9.45E+02,-6757,2734,-3087,-781,-44,-392,1,7,11
9.63E+02,-6751,2901,-2802,-779,-39,-603,1,7,11
9.89E+02,-6697,2855,-2793,-427,-27,-573,1,7,11
1.02E+03,-6700,2887,-3077,-542,283,-387,1,7,11
1.05E+03,-6726,2717,-3126,-217,333,-469,1,7,11
1.08E+03,-6777,2769,-3158,-580,353,-822,1,7,11
1.10E+03,-6596,2768,-3156,-508,338,-694,1,7,11
1.12E+03,-6652,2723,-3108,-725,280,-1108,1,7,11
1.12E+03,-6787,2895,-2798,-923,-47,-1297,1,7,11
1.10E+03,-6876,2841,-2744,-1337,111,-1199,1,7,11
1.08E+03,-6875,2523,-2691,-1225,-281,-1271,1,7,11
1.04E+03,-6854,2670,-2880,-1644,-153,-1558,1,7,11
9.90E+02,-6867,2258,-2546,-1825,-210,-1565,1,7,11
9.51E+02,-6854,2399,-2476,-1897,-230,-1280,1,7,11
9.27E+02,-6851,2022,-2650,-1917,-220,-1256,1,7,11
9.24E+02,-6788,1979,-2609,-1792,-203,-1197,1,7,11
9.35E+02,-6992,2027,-2601,-1433,-141,-1155,1,7,11
9.53E+02,-6971,2310,-2611,-1660,-325,-1327,1,7,11
9.72E+02,-6989,2318,-2595,-1652,16,-975,1,7,11
9.90E+02,-6809,2043,-2301,-1633,94,-1149,1,7,11
1.01E+03,-6907,2034,-2278,-1566,125,-1064,1,7,11
1.03E+03,-7233,2031,-2264,-1218,113,-710,1,7,11
1.06E+03,-7205,2354,-2278,-1355,82,-869,1,7,11
1.09E+03,-7185,2425,-2297,-1300,83,-797,1,7,11
1.12E+03,-6837,2214,-2568,-1024,103,-445,1,7,11
1.14E+03,-6806,2240,-2577,-1022,-71,-449,1,7,11
1.13E+03,-6844,2230,-2575,-1309,260,-466,1,7,11
1.10E+03,-6865,2196,-2302,-1321,296,-484,1,7,11
1.04E+03,-6894,2188,-2303,-1022,324,-789,1,7,11
9.89E+02,-7177,2189,-2593,-962,349,-837,1,7,11
9.56E+02,-7189,2207,-2627,-944,371,-869,1,7,11
9.59E+02,-6912,2195,-2643,-1006,382,-886,1,7,11
9.90E+02,-6894,2387,-2621,-1327,161,-645,1,7,11
1.04E+03,-6907,2348,-2569,-1378,211,-663,1,7,11
1.08E+03,-7194,1996,-2269,-1386,247,-697,1,7,11
1.12E+03,-7245,1966,-2248,-1352,521,-719,1,7,11
1.15E+03,-7263,1956,-2221,-1317,230,-690,1,7,11
1.16E+03,-7236,1940,-2210,-1324,190,-649,1,7,11
1.15E+03,-7225,1922,-2217,-1350,175,-870,1,7,11
1.13E+03,-7230,2168,-2210,-1389,187,-825,1,7,11
1.09E+03,-7275,2158,-2192,-1172,217,-777,1,7,11
1.05E+03,-7051,2170,-2181,-1178,222,-443,1,7,11
1.01E+03,-7073,1921,-2418,-1163,220,-585,1,7,11
9.71E+02,-7083,1941,-2420,-1386,215,-206,1,7,11
9.46E+02,-7063,2001,-2199,-1361,210,-338,1,7,11
9.34E+02,-7277,2316,-2220,-1389,227,39,1,7,11
9.34E+02,-7255,2376,-2246,-1221,532,-120,1,7,11
9.46E+02,-7217,2418,-2249,-1636,584,268,1,7,11
9.69E+02,-6852,2215,-2287,-1823,400,163,1,7,11
1.00E+03,-6942,2298,-2608,-1717,794,559,1,7,11
1.04E+03,-6749,2468,-2453,-2130,1040,589,1,7,11
1.08E+03,-6755,2859,-2451,-2187,1156,173,1,7,11
1.12E+03,-6656,2722,-2656,-2821,1500,293,1,7,11
1.16E+03,-6829,2940,-2235,-3054,1887,269,1,7,11
1.20E+03,-7176,2460,-2038,-3649,1849,379,1,7,11
1.23E+03,-6895,2262,-2130,-3289,1513,538,1,7,11
1.25E+03,-6825,2181,-2063,-3127,1480,616,1,7,11
1.26E+03,-7024,2417,-2063,-2616,1460,639,1,7,11
1.27E+03,-6644,2415,-2130,-2098,1455,627,1,7,11
1.26E+03,-6564,2187,-1985,-1581,1801,208,1,7,11
1.24E+03,-6628,2260,-2387,-1127,1697,-44,1,7,11
1.22E+03,-7024,2302,-2246,-828,1774,-271,1,7,11
1.19E+03,-6868,2580,-2688,-626,1745,-157,1,7,11
1.16E+03,-6804,2625,-2828,-522,1858,-531,1,7,11
1.13E+03,-6997,2434,-2705,-271,1849,-617,1,7,11
1.11E+03,-6936,2487,-3081,-394,1880,-389,1,7,11
1.10E+03,-6614,2501,-3150,-895,1911,-394,1,7,11
1.10E+03,-6595,2671,-3198,-949,1688,-419,1,7,11
1.10E+03,-6577,2619,-2983,-1163,1704,-418,1,7,11
1.11E+03,-6579,2594,-3013,-1620,1702,-427,1,7,11
1.12E+03,-6571,2609,-3005,-1834,1888,-407,1,7,11
1.14E+03,-6554,2615,-3013,-2174,1520,-401,1,7,11
1.15E+03,-6557,2617,-3056,-2221,1642,-640,1,7,11
1.17E+03,-6597,2591,-3375,-2618,1215,-579,1,7,11
1.17E+03,-6537,2524,-3415,-2412,1329,-174,1,7,11
1.17E+03,-6552,3154,-3250,-2005,926,-322,1,7,11
1.17E+03,-6598,3399,-3315,-2407,669,-39,1,7,11
1.16E+03,-6737,3228,-3274,-2613,603,595,1,7,11
1.14E+03,-6359,3594,-3246,-2571,170,506,1,7,11
1.13E+03,-6362,3841,-3299,-2030,129,572,1,7,11
1.13E+03,-6757,4036,-3596,-1734,330,52,1,7,11
1.12E+03,-6600,4615,-3621,-1781,48,-789,1,7,11
1.12E+03,-6650,4656,-3283,-2360,-609,-1160,1,7,11
1.12E+03,-6537,4246,-3372,-2641,-1060,-1783,1,7,11
1.13E+03,-6718,4075,-2988,-2537,-1392,-2493,1,7,11
1.14E+03,-6380,3815,-2814,-2858,-1661,-3389,1,7,11
1.14E+03,-6299,3485,-2861,-2554,-1826,-3951,1,7,11
1.14E+03,-6279,3347,-2652,-2644,-1897,-4417,1,7,11
1.13E+03,-6328,2909,-2204,-2400,-1906,-4484,1,7,11
1.10E+03,-6339,2247,-2047,-2107,-1884,-4602,1,7,11
1.07E+03,-6373,2068,-2169,-1525,-1518,-4899,1,7,11
1.04E+03,-6730,1649,-2086,-1386,-1634,-4893,1,7,11
1.02E+03,-6545,1294,-1730,-646,-1202,-4529,1,7,11
1.00E+03,-6742,1116,-1904,27,-961,-4321,1,7,11
9.94E+02,-6648,1070,-1891,429,-815,-4317,1,7,11
9.93E+02,-7174,1107,-1719,1002,-214,-4440,1,7,11
1.00E+03,-7358,1052,-1766,1248,-264,-4214,1,7,11
1.01E+03,-7702,684,-1792,1551,20,-3582,1,7,11
1.03E+03,-7684,866,-2063,1549,-272,-3222,1,7,11
1.05E+03,-7412,705,-2128,1649,80,-2898,1,7,11
1.08E+03,-7736,1101,-1957,1469,-91,-2615,1,7,11
1.10E+03,-7804,928,-1991,1608,-77,-2031,1,7,11
1.12E+03,-7757,972,-1974,1175,-124,-1682,1,7,11
1.14E+03,-7752,1003,-1959,978,-124,-1492,1,7,11
1.16E+03,-7767,1285,-1981,700,89,-1585,1,7,11
1.19E+03,-7741,930,-2033,565,-257,-1174,1,7,11
1.20E+03,-7775,644,-2029,348,-360,-1345,1,7,11
1.22E+03,-7361,450,-1955,590,-209,-995,1,7,11
1.23E+03,-7321,401,-1954,882,-362,-1333,1,7,11
1.24E+03,-7683,630,-2167,748,-263,-1021,1,7,11
1.25E+03,-7695,598,-2083,663,-262,-1039,1,7,11
1.24E+03,-7689,204,-1913,458,-336,-494,1,7,11
1.24E+03,-7524,283,-1811,400,-179,-162,1,7,11
1.23E+03,-7391,-37,-1854,886,40,-159,1,7,11
1.22E+03,-7974,181,-1778,938,281,-361,1,7,11
1.22E+03,-8001,395,-1944,744,-23,110,1,7,11
1.22E+03,-7706,447,-2005,535,-115,-2,1,7,11
1.22E+03,-7139,458,-2341,-84,-2,-104,1,7,11
1.23E+03,-7229,827,-2398,-282,553,-185,1,7,11
1.23E+03,-7064,891,-2405,-256,835,-846,1,7,11
1.23E+03,-7167,672,-2362,-491,678,-1112,1,7,11
1.22E+03,-7528,822,-2034,-1040,887,-1017,1,7,11
1.21E+03,-7316,463,-1995,-973,799,-1325,1,7,11
1.20E+03,-7513,448,-2025,-1346,424,-1020,1,7,11
1.19E+03,-7148,425,-2024,-1548,549,-955,1,7,11
1.17E+03,-6899,410,-2000,-1461,228,-1090,1,7,11
1.17E+03,-6849,538,-1988,-1732,531,-1044,1,7,11
1.16E+03,-7214,313,-1993,-1963,390,-753,1,7,11
1.16E+03,-7080,-76,-1957,-2137,835,-671,1,7,11
1.16E+03,-7156,-55,-1982,-1652,714,-813,1,7,11
1.16E+03,-7323,-91,-2006,-1539,1074,-464,1,7,11
1.17E+03,-7596,-4,-2392,-1024,919,51,1,7,11
1.17E+03,-7565,327,-2214,-1024,912,189,1,7,11
1.17E+03,-7575,151,-2253,-1320,979,505,1,7,11
1.17E+03,-7629,220,-2563,-1393,1018,1092,1,7,11
1.17E+03,-7601,582,-2304,-1374,976,1545,1,7,11
1.16E+03,-7726,479,-2301,-1016,927,1777,1,7,11
1.15E+03,-7327,881,-2267,-953,933,2428,1,7,11
1.14E+03,-7474,1043,-2264,-1103,943,2480,1,7,11
1.14E+03,-7042,983,-2286,-721,950,2709,1,7,11
1.14E+03,-6840,1207,-2579,-860,1302,3085,1,7,11
1.14E+03,-7026,1463,-2585,-843,1253,2748,1,7,11
1.15E+03,-6769,1850,-2288,-699,1254,2768,1,7,11
1.14E+03,-6521,1837,-2577,-1042,1459,2527,1,7,11
1.14E+03,-6329,1713,-2450,-875,2109,2332,1,7,11
1.13E+03,-6697,1987,-2936,-889,2421,1731,1,7,11
1.11E+03,-6623,1991,-2812,-1321,2283,1792,1,7,11
1.10E+03,-6620,1936,-3133,-1187,2287,1517,1,7,11
1.09E+03,-6925,1982,-3007,-1020,2563,1549,1,7,11
1.09E+03,-6936,2603,-3315,-667,2424,1349,1,7,11
1.08E+03,-6589,2945,-3487,-401,1933,1395,1,7,11
1.09E+03,-6583,3640,-3522,-789,1820,1434,1,7,11
1.09E+03,-6277,3535,-3580,-1032,979,2008,1,7,11
1.11E+03,-6267,3918,-3848,-1123,877,2404,1,7,11
1.13E+03,-5863,3777,-4213,-987,632,1948,1,7,11
1.15E+03,-5857,3952,-4205,-1390,194,1686,1,7,11
1.18E+03,-6255,3688,-3733,-1620,318,1608,1,7,11
1.21E+03,-6453,3586,-3573,-1194,-85,1040,1,7,11
1.24E+03,-6662,3307,-3478,-1065,-276,866,1,7,11
1.27E+03,-6544,3381,-3638,-774,-612,890,1,7,11
1.29E+03,-6557,2779,-3250,-525,-761,731,1,7,11
1.30E+03,-6742,2559,-3416,317,-1331,1035,1,7,11
1.29E+03,-6776,2493,-3440,766,-1552,1042,1,7,11
1.27E+03,-6634,2640,-3215,1580,-1853,905,1,7,11
1.25E+03,-6949,2205,-3232,2082,-1974,1381,1,7,11
1.23E+03,-6913,2014,-3440,2632,-2617,1562,1,7,11
1.21E+03,-6578,2011,-3446,3382,-2920,1644,1,7,11
1.20E+03,-6693,2424,-3235,3758,-3143,1624,1,7,11
1.19E+03,-6299,2613,-3282,4088,-2989,1209,1,7,11
1.18E+03,-6514,2522,-3289,4400,-3155,913,1,7,11
1.18E+03,-6317,2889,-3246,4215,-2934,872,1,7,11
1.17E+03,-6395,2931,-3398,3858,-2677,576,1,7,11
1.16E+03,-6544,2929,-3001,3428,-2407,256,1,7,11
1.15E+03,-6971,2862,-3084,2695,-2164,-280,1,7,11
1.15E+03,-7202,2504,-2928,2261,-1686,-578,1,7,11
1.14E+03,-7154,2635,-2505,2162,-1824,-831,1,7,11
1.14E+03,-7308,2607,-2679,1886,-1479,-723,1,7,11
1.14E+03,-7365,2296,-2591,1569,-1473,-1035,1,7,11
1.14E+03,-7356,2243,-2577,996,-1481,-760,1,7,11
1.15E+03,-7313,2342,-2269,696,-1505,-699,1,7,11
1.16E+03,-7457,2158,-2427,777,-1444,-704,1,7,11
1.17E+03,-7434,1778,-2343,491,-1279,-1078,1,7,11
1.18E+03,-7484,1701,-2016,488,-1390,-932,1,7,11
1.18E+03,-7525,1834,-1932,630,-1313,-995,1,7,11
1.17E+03,-7551,1640,-2095,537,-1007,-1016,1,7,11
1.14E+03,-7540,1212,-1779,394,-959,-1001,1,7,11
1.10E+03,-7467,1403,-2049,659,-1104,-962,1,7,11
1.06E+03,-7499,1382,-2059,1099,-664,-960,1,7,11
1.03E+03,-7460,1328,-2069,924,-442,-1125,1,7,11
1.01E+03,-7081,1284,-2102,1005,-540,-1050,1,7,11
9.98E+02,-7254,1022,-2154,1366,-300,-1044,1,7,11
9.94E+02,-7229,1006,-1957,1406,-37,-1072,1,7,11
9.92E+02,-7290,1009,-2035,1203,244,-1104,1,7,11
9.86E+02,-7134,1281,-2363,1210,467,-1087,1,7,11
9.77E+02,-7497,1288,-2182,1376,642,-754,1,7,11
9.66E+02,-7339,1010,-2240,928,736,-648,1,7,11
9.54E+02,-7352,978,-2566,742,767,-775,1,7,11
9.44E+02,-7336,973,-2628,813,767,-450,1,7,11
9.38E+02,-7528,992,-2682,401,741,-419,1,7,11
9.38E+02,-7517,1296,-2484,246,705,-447,1,7,11
9.46E+02,-7546,1023,-2522,265,876,-458,1,7,11
9.62E+02,-7536,982,-2522,75,504,-398,1,7,11
9.87E+02,-7537,935,-2541,-329,400,-602,1,7,11
1.02E+03,-7297,1143,-2550,-179,572,-560,1,7,11
1.06E+03,-7326,1107,-2538,-224,229,-514,1,7,11
1.10E+03,-7299,1145,-2556,-170,139,-170,1,7,11
1.14E+03,-7519,936,-2846,-145,317,-329,1,7,11
1.18E+03,-7468,966,-2887,-173,259,43,1,7,11
1.20E+03,-7152,962,-2900,-210,-31,-100,1,7,11
1.21E+03,-7106,948,-2919,-197,-25,-18,1,7,11
1.21E+03,-7064,968,-2936,-374,258,309,1,7,11
1.19E+03,-7269,1000,-2936,-352,274,355,1,7,11
1.16E+03,-7231,994,-2926,-350,279,374,1,7,11
1.13E+03,-7199,954,-2896,-324,270,346,1,7,11
1.10E+03,-7228,974,-2884,27,265,286,1,7,11
1.07E+03,-7054,1280,-2893,116,-20,263,1,7,11
1.05E+03,-7102,1282,-2896,-117,115,263,1,7,11
1.05E+03,-7120,1285,-2900,-100,18,285,1,7,11
1.07E+03,-7138,1302,-2894,-91,-316,284,1,7,11
1.10E+03,-7439,1320,-2876,-60,-355,290,1,7,11
1.13E+03,-7499,1364,-2861,-18,-132,335,1,7,11
1.17E+03,-7512,1168,-2857,257,-172,188,1,7,11
1.19E+03,-7500,1180,-2831,-64,-217,551,1,7,11
1.21E+03,-7444,1168,-2543,-120,-231,386,1,7,11
1.21E+03,-7126,1167,-2503,112,-203,387,1,7,11
1.21E+03,-7096,1175,-2445,123,-163,598,1,7,11
1.20E+03,-7074,1211,-2665,-96,-376,550,1,7,11
1.19E+03,-7049,1239,-2641,-65,-361,253,1,7,11
1.18E+03,-7242,1539,-2644,-36,-334,213,1,7,11
1.17E+03,-7237,1567,-2653,-76,-282,372,1,7,11
1.16E+03,-7294,1556,-2645,100,28,272,1,7,11
1.14E+03,-7103,1562,-2630,61,63,-56,1,7,11
1.12E+03,-7150,1590,-2623,7,79,-126,1,7,11
1.10E+03,-7445,1602,-2626,-343,80,81,1,7,11
1.08E+03,-7146,1551,-2657,-205,63,32,1,7,11
1.07E+03,-7111,1263,-2676,-571,35,4,1,7,11
1.07E+03,-7082,1202,-2437,-636,83,-363,1,7,11
1.08E+03,-7114,1173,-2463,-428,-110,-231,1,7,11
1.10E+03,-7145,1167,-2456,-505,-72,-582,1,7,11
1.11E+03,-7437,1402,-2442,-871,-72,-387,1,7,11
1.12E+03,-7468,1333,-2666,-1030,-111,-422,1,7,11
1.13E+03,-7484,1294,-2656,-1086,119,-419,1,7,11
1.12E+03,-7497,1004,-2643,-1104,89,-440,1,7,11
1.12E+03,-7492,997,-2612,-1105,28,-463,1,7,11
1.12E+03,-7483,1019,-2583,-1082,0,-474,1,7,11
1.12E+03,-7547,1021,-2295,-1102,-288,-470,1,7,11
1.13E+03,-7300,975,-2247,-1113,-348,-387,1,7,11
1.14E+03,-7541,1004,-2238,-1032,-137,-534,1,7,11
1.14E+03,-7550,1004,-2231,-768,-149,-247,1,7,11
1.13E+03,-7298,966,-2187,-1049,-172,-145,1,7,11
1.11E+03,-7547,916,-2394,-740,-183,-315,1,7,11
1.08E+03,-7303,927,-2369,-863,-169,27,1,7,11
1.05E+03,-7313,946,-2352,-492,-159,104,1,7,11
1.01E+03,-7538,1202,-2417,-264,-17,-47,1,7,11
9.81E+02,-7530,1221,-2431,0,266,-75,1,7,11
9.53E+02,-7514,1248,-2209,-270,270,-123,1,7,11
9.35E+02,-7490,1241,-2219,-317,278,85,1,7,11
9.29E+02,-7480,1217,-2232,-360,293,38,1,7,11
9.38E+02,-7477,1194,-2235,-377,306,-257,1,7,11
9.60E+02,-7467,1202,-2240,-382,312,-284,1,7,11
9.94E+02,-7456,1188,-2242,-156,300,-308,1,7,11
1.04E+03,-7435,1183,-2256,-182,273,-320,1,7,11
1.09E+03,-7440,1399,-2254,-223,257,-341,1,7,11
1.14E+03,-7447,1363,-2248,-228,-4,-350,1,7,11
1.19E+03,-7496,1404,-2278,-199,-8,-132,1,7,11
1.23E+03,-7299,1199,-2585,-195,-41,-142,1,7,11
1.25E+03,-7354,1233,-2612,-525,-102,-171,1,7,11
1.26E+03,-7372,1541,-2631,-629,50,-155,1,7,11
1.25E+03,-7377,1581,-2633,-490,-321,-365,1,7,11
1.22E+03,-7366,1591,-2609,-891,-236,-301,1,7,11
1.18E+03,-7330,1559,-2579,-1026,-594,38,1,7,11
1.14E+03,-7533,1207,-2283,-932,-422,110,1,7,11
1.09E+03,-7484,1310,-2200,-928,-446,125,1,7,11
1.05E+03,-7460,1009,-2392,-695,-394,105,1,7,11
1.02E+03,-7469,1339,-2383,-404,-568,75,1,7,11
1.02E+03,-7501,1387,-2367,-245,-252,69,1,7,11
1.04E+03,-7515,1154,-2338,-371,-198,94,1,7,11
1.07E+03,-7497,1160,-2329,-264,-160,126,1,7,11
1.11E+03,-7487,1396,-2326,56,-375,-120,1,7,11
1.14E+03,-7521,1362,-2048,-114,-325,-123,1,7,11
1.17E+03,-7530,1380,-2317,-2,-298,-106,1,7,11
1.18E+03,-7517,1376,-2318,289,-292,-92,1,7,11
1.20E+03,-7507,1340,-2043,265,-285,-92,1,7,11
1.20E+03,-7515,1298,-2023,-15,-279,-124,1,7,11
1.20E+03,-7533,1015,-2001,260,-277,97,1,7,11
1.19E+03,-7306,971,-1947,257,-297,72,1,7,11
1.17E+03,-7307,988,-1935,323,-316,103,1,7,11
1.15E+03,-7321,1315,-1939,185,-311,-99,1,7,11
1.12E+03,-7323,1394,-1953,248,-298,-7,1,7,11
1.09E+03,-7313,1176,-1955,208,-291,351,1,7,11
1.05E+03,-7520,1178,-1955,144,-277,175,1,7,11
1.02E+03,-7460,1204,-1959,382,30,195,1,7,11
9.89E+02,-7443,1540,-1988,377,125,159,1,7,11
9.73E+02,-7441,1604,-2021,290,-50,383,1,7,11
9.69E+02,-7443,1606,-2039,-110,276,362,1,7,11
9.77E+02,-7434,1587,-2039,17,351,327,1,7,11
9.97E+02,-7473,1581,-2012,-295,191,292,1,7,11
1.03E+03,-7541,1636,-2014,-276,514,285,1,7,11
1.07E+03,-7375,1436,-2027,-318,516,311,1,7,11
1.11E+03,-7681,1657,-1994,-173,181,141,1,7,11
1.14E+03,-7392,1595,-1979,-216,335,235,1,7,11
1.17E+03,-7346,1564,-1961,-183,259,516,1,7,11
1.18E+03,-7539,1558,-1943,-366,-54,248,1,7,11
1.18E+03,-7477,1566,-1941,-294,-93,202,1,7,11
1.16E+03,-7458,1596,-1968,21,-84,368,1,7,11
1.11E+03,-7487,1632,-2006,37,-41,289,1,7,11
1.04E+03,-7508,1641,-2026,13,263,-4,1,7,11
9.63E+02,-7535,1662,-2034,-257,322,-41,1,7,11
9.10E+02,-7312,1415,-2036,-288,362,-57,1,7,11
8.94E+02,-7319,1638,-2022,-333,372,-41,1,7,11
9.13E+02,-7300,1575,-2002,-329,375,-11,1,7,11
9.53E+02,-7494,1556,-2013,14,147,279,1,7,11
9.97E+02,-7489,1576,-2043,111,214,285,1,7,11
1.03E+03,-7489,1576,-2329,-87,249,345,1,7,11
1.05E+03,-7490,1279,-2350,-49,537,158,1,7,11
1.06E+03,-7457,1155,-2349,-40,554,227,1,7,11
1.06E+03,-7097,976,-2306,298,616,539,1,7,11
1.05E+03,-7211,1098,-2012,577,805,537,1,7,11
1.04E+03,-6887,1063,-1986,1034,1123,247,1,7,11
1.02E+03,-6900,965,-2017,1621,1264,522,1,7,11
9.98E+02,-7198,1161,-2368,1785,1845,615,1,7,11
9.75E+02,-7252,1268,-2197,1962,2087,452,1,7,11
9.50E+02,-7427,1623,-2590,2030,1980,466,1,7,11
9.25E+02,-7454,1522,-2512,2334,1952,422,1,7,11
9.02E+02,-7489,1746,-2725,2007,1764,538,1,7,11
8.80E+02,-7504,1951,-2966,1671,1548,158,1,7,11
8.62E+02,-7461,2043,-3022,676,1146,336,1,7,11
8.47E+02,-7141,1996,-3053,-100,777,277,1,7,11
8.35E+02,-7276,1950,-3365,-415,522,262,1,7,11
8.28E+02,-7293,1750,-3051,-946,149,-101,1,7,11
8.23E+02,-7268,1800,-2971,-1155,316,-118,1,7,11
8.21E+02,-7253,1657,-3174,-1393,264,63,1,7,11
8.20E+02,-7234,1580,-3121,-1015,-53,20,1,7,11
8.22E+02,-7198,1553,-3093,-1124,-98,14,1,7,11
8.27E+02,-7172,1239,-2776,-733,106,5,1,7,11
8.35E+02,-6859,1545,-2774,-494,92,14,1,7,11
8.47E+02,-6889,1604,-2784,-628,113,-260,1,7,11
8.62E+02,-6875,1649,-2785,-564,-124,77,1,7,11
8.81E+02,-6853,1476,-2809,-253,-52,-101,1,7,11
9.03E+02,-6909,1525,-3092,-563,281,-53,1,7,11
9.27E+02,-6901,1521,-3077,-386,303,315,1,7,11
9.53E+02,-6862,1482,-3074,-446,336,334,1,7,11
9.81E+02,-6878,1487,-2803,-409,136,302,1,7,11
1.01E+03,-6882,1830,-3103,-630,152,284,1,7,11
1.04E+03,-7188,1825,-3101,-503,134,-6,1,7,11
1.06E+03,-7229,1506,-2808,-892,300,-22,1,7,11
1.08E+03,-7186,1473,-2777,-644,-81,-60,1,7,11
1.09E+03,-7197,1507,-2764,-855,102,100,1,7,11
1.09E+03,-7235,1510,-2745,-854,15,76,1,7,11
1.09E+03,-7211,1516,-2757,-815,-285,105,1,7,11
1.08E+03,-7196,1491,-2746,-751,-302,111,1,7,11
1.07E+03,-7176,1417,-2943,-406,-290,99,1,7,11
1.05E+03,-7202,1455,-2939,-245,6,27,1,7,11
1.04E+03,-7197,1531,-2941,-320,-4,31,1,7,11
1.03E+03,-6896,1838,-2693,19,-283,69,1,7,11
1.00E+03,-6850,1858,-2695,5,-276,98,1,7,11
9.68E+02,-6806,1844,-2696,-296,20,111,1,7,11
9.26E+02,-6839,1527,-2921,-322,94,82,1,7,11
8.87E+02,-6883,1521,-2906,11,-106,51,1,7,11
8.61E+02,-6904,1820,-2924,65,-98,52,1,7,11
8.55E+02,-6883,1820,-2689,15,-124,79,1,7,11
8.63E+02,-6861,1525,-2937,-313,-122,76,1,7,11
8.78E+02,-7170,1512,-2909,-331,-106,48,1,7,11
8.92E+02,-7193,1496,-2889,-339,117,70,1,7,11
9.04E+02,-7181,1516,-2883,-294,83,106,1,7,11
9.18E+02,-6907,1821,-2904,2,77,116,1,7,11
9.39E+02,-6905,1842,-2911,1,79,115,1,7,11
9.70E+02,-7172,1810,-2899,35,103,115,1,7,11
1.01E+03,-7187,1823,-2915,-108,-123,112,1,7,11
1.04E+03,-7182,1873,-2939,-13,-92,94,1,7,11
1.06E+03,-7190,1907,-2708,284,-61,68,1,7,11
1.07E+03,-7186,1667,-2719,273,-39,45,1,7,11
1.05E+03,-7197,1665,-2711,-33,-36,18,1,7,11
1.02E+03,-7213,1886,-2697,-78,-54,-261,1,7,11
9.77E+02,-7202,1878,-2703,-78,-83,-272,1,7,11
9.33E+02,-7199,1881,-2718,-84,-95,-284,1,7,11
8.93E+02,-7199,1902,-2735,-110,-97,-282,1,7,11
8.63E+02,-7193,1907,-2724,50,-109,-259,1,7,11
8.50E+02,-7196,1846,-2692,-341,-121,32,1,7,11
8.58E+02,-7174,1492,-2934,-134,-126,63,1,7,11
8.81E+02,-6908,1497,-2929,-342,-120,65,1,7,11
9.16E+02,-6911,1812,-2691,3,-111,69,1,7,11
9.55E+02,-7171,1835,-2704,10,-109,103,1,7,11
9.96E+02,-6911,1825,-2700,-310,-123,-116,1,7,11
1.04E+03,-7169,1533,-2935,-367,116,-106,1,7,11
1.08E+03,-6908,1516,-2910,-138,115,-104,1,7,11
1.12E+03,-7185,1813,-2908,-302,118,119,1,7,11
1.15E+03,-7200,1879,-2928,-268,106,106,1,7,11
1.17E+03,-7221,1911,-2696,-346,74,106,1,7,11
1.18E+03,-7227,1888,-2936,-206,34,121,1,7,11
1.17E+03,-7227,1862,-2914,-545,1,118,1,7,11
1.14E+03,-7213,1843,-2894,-569,-282,-128,1,7,11
1.08E+03,-7182,1814,-2886,-536,-291,-126,1,7,11
1.02E+03,-7175,1796,-2874,-172,6,94,1,7,11
9.65E+02,-7200,1794,-2879,-313,68,37,1,7,11
9.48E+02,-7219,1796,-2883,54,111,17,1,7,11
9.70E+02,-7216,1814,-2887,-117,-109,17,1,7,11
1.02E+03,-7206,1839,-2888,-81,-70,32,1,7,11
1.07E+03,-7205,1868,-2897,-85,-34,46,1,7,11
1.12E+03,-7186,1868,-2899,-108,-28,73,1,7,11
1.15E+03,-7175,1852,-2905,112,-16,61,1,7,11
1.16E+03,-7175,1835,-2901,91,-13,40,1,7,11
1.16E+03,-7170,1829,-2900,79,-26,16,1,7,11
1.15E+03,-7171,1838,-2912,63,-37,-260,1,7,11
1.14E+03,-7183,1842,-2917,29,-39,-278,1,7,11
1.13E+03,-7195,1826,-2921,-269,-50,-284,1,7,11
1.13E+03,-7181,1806,-2925,-282,-55,-286,1,7,11
1.11E+03,-6912,1819,-2934,-277,-55,-276,1,7,11
1.09E+03,-7180,1807,-2926,-287,-52,-289,1,7,11
1.05E+03,-7207,1793,-2910,-314,-43,-298,1,7,11
1.00E+03,-7209,1533,-2919,-320,-59,-290,1,7,11
9.59E+02,-7215,1519,-2920,-344,-73,-291,1,7,11
9.33E+02,-7210,1494,-2911,-336,-84,-285,1,7,11
9.30E+02,-7212,1504,-2915,-267,-79,-291,1,7,11
9.44E+02,-7221,1794,-2929,35,-70,-288,1,7,11
9.65E+02,-7218,1812,-2936,26,-70,0,1,7,11
9.85E+02,-7213,1802,-2926,-270,-78,18,1,7,11
1.00E+03,-7199,1802,-2923,-275,-80,23,1,7,11
1.01E+03,-7203,1534,-2914,-298,-76,-259,1,7,11
1.03E+03,-7209,1793,-2916,-291,-79,-258,1,7,11
1.04E+03,-7206,1808,-2917,-298,-85,-258,1,7,11
1.06E+03,-7199,1528,-2910,-335,-94,1,1,7,11
1.08E+03,-7180,1501,-2910,-342,-94,6,1,7,11
1.11E+03,-7187,1477,-2906,-330,-70,-275,1,7,11
1.12E+03,-7189,1475,-2897,-305,-56,-273,1,7,11
1.12E+03,-7190,1481,-2905,-296,-41,-272,1,7,11
1.12E+03,-7189,1477,-2920,-280,-33,-261,1,7,11
1.11E+03,-7221,1461,-2697,-259,258,-288,1,7,11
1.11E+03,-7087,1438,-2708,-272,288,-347,1,7,11
1.11E+03,-7153,1620,-2691,-300,-39,-314,1,7,11
1.11E+03,-7067,1573,-2697,60,-125,-259,1,7,11
1.13E+03,-7247,1623,-2727,-30,-121,-311,1,7,11
1.14E+03,-7177,1459,-2763,296,-81,-340,1,7,11
1.15E+03,-6858,1523,-2774,286,-25,-328,1,7,11
1.15E+03,-6854,1818,-2761,-45,295,-306,1,7,11
1.15E+03,-6848,1831,-2748,116,315,13,1,7,11
1.15E+03,-6848,1802,-2728,17,298,52,1,7,11
1.14E+03,-6841,1514,-2701,-279,266,85,1,7,11
1.14E+03,-6840,1497,-2934,-288,-21,82,1,7,11
1.15E+03,-6849,1522,-2939,-277,-55,71,1,7,11
1.15E+03,-6860,1533,-2939,-292,-96,58,1,7,11
1.15E+03,-6873,1531,-2936,-342,110,48,1,7,11
1.13E+03,-7180,1497,-2927,-156,81,-5,1,7,11
1.09E+03,-7242,1471,-2922,-194,71,-289,1,7,11
1.03E+03,-7048,1464,-2931,-190,75,-302,1,7,11
9.66E+02,-7066,1474,-2932,-139,74,-265,1,7,11
9.19E+02,-7049,1502,-2696,-135,99,35,1,7,11
9.01E+02,-7272,1485,-2691,-175,-125,100,1,7,11
9.06E+02,-7225,1449,-2928,-171,-69,-117,1,7,11
9.26E+02,-7213,1428,-2919,-374,-10,-113,1,7,11
9.50E+02,-7212,1417,-2917,-306,278,-117,1,7,11
9.70E+02,-7201,1415,-2928,12,282,112,1,7,11
9.87E+02,-7190,1417,-2930,54,-2,82,1,7,11
1.00E+03,-6912,1413,-2941,107,-24,40,1,7,11
1.01E+03,-7178,1442,-2711,-99,-40,-273,1,7,11
1.03E+03,-7200,1466,-2739,-112,-70,-308,1,7,11
1.03E+03,-7207,1459,-2729,98,-112,-316,1,7,11
1.04E+03,-7199,1446,-2716,63,115,-316,1,7,11
1.03E+03,-7201,1429,-2712,38,89,-312,1,7,11
1.02E+03,-7225,1417,-2700,20,74,-310,1,7,11
1.00E+03,-7258,1435,-2689,13,54,-294,1,7,11
9.85E+02,-7266,1431,-2940,-270,21,6,1,7,11
9.68E+02,-7249,1432,-2936,-288,8,52,1,7,11
9.57E+02,-7235,1435,-2935,-300,15,84,1,7,11
9.52E+02,-7234,1434,-2924,-319,32,105,1,7,11
9.51E+02,-7209,1434,-2913,-292,48,-124,1,7,11
9.54E+02,-7200,1448,-2908,-266,72,-116,1,7,11
9.58E+02,-7205,1457,-2899,-260,92,-106,1,7,11
9.64E+02,-7195,1443,-2889,-277,93,-91,1,7,11
9.69E+02,-7180,1424,-2876,-262,104,-101,1,7,11
9.75E+02,-7188,1435,-2888,35,127,121,1,7,11
9.80E+02,-7196,1462,-2906,48,-112,91,1,7,11
9.84E+02,-7215,1459,-2909,15,-97,89,1,7,11
9.85E+02,-7236,1470,-2918,8,-81,81,1,7,11
9.82E+02,-7241,1477,-2928,-271,-82,89,1,7,11
9.73E+02,-7233,1465,-2923,-295,-83,86,1,7,11
9.56E+02,-7225,1451,-2924,-310,-86,75,1,7,11
9.32E+02,-7227,1438,-2919,-326,-81,52,1,7,11
9.09E+02,-7233,1427,-2920,-323,-82,41,1,7,11
8.93E+02,-7231,1414,-2915,-302,-90,40,1,7,11
8.88E+02,-7227,1423,-2921,-269,-94,50,1,7,11
8.94E+02,-7211,1432,-2921,8,-108,61,1,7,11
9.11E+02,-7210,1434,-2925,21,-102,59,1,7,11
9.38E+02,-7217,1441,-2925,16,-100,49,1,7,11
9.70E+02,-7228,1437,-2913,-261,-101,47,1,7,11
9.99E+02,-7220,1438,-2912,-271,-112,56,1,7,11
1.02E+03,-7225,1452,-2926,-281,-118,60,1,7,11
1.02E+03,-7221,1444,-2920,-304,-119,79,1,7,11
9.91E+02,-7221,1446,-2916,-303,-116,95,1,7,11
9.52E+02,-7226,1443,-2901,-307,-112,115,1,7,11
9.12E+02,-7234,1443,-2897,-312,-105,120,1,7,11
8.81E+02,-7240,1435,-2899,-315,-108,126,1,7,11
8.67E+02,-7215,1443,-2902,-292,-114,-119,1,7,11
8.71E+02,-7192,1447,-2903,-283,-103,123,1,7,11
8.96E+02,-7197,1450,-2897,-272,-76,97,1,7,11
9.41E+02,-7222,1463,-2896,-258,-61,65,1,7,11
1.00E+03,-7257,1477,-2908,14,-62,55,1,7,11
1.06E+03,-7262,1492,-2919,14,-81,54,1,7,11
1.12E+03,-7261,1503,-2930,7,-97,65,1,7,11
1.17E+03,-7242,1505,-2936,-265,-103,74,1,7,11
1.19E+03,-7229,1503,-2939,-277,-97,62,1,7,11
1.20E+03,-7227,1503,-2940,-289,-87,46,1,7,11
1.19E+03,-7231,1479,-2924,-300,-86,29,1,7,11
1.17E+03,-7221,1470,-2922,-280,-99,11,1,7,11
1.14E+03,-7201,1420,-2923,-263,-114,-312,1,7,11
1.10E+03,-7211,1424,-2926,11,-102,-328,1,7,11
1.06E+03,-7231,1427,-2928,13,-94,-324,1,7,11
1.03E+03,-7243,1416,-2916,-262,-104,-298,1,7,11
1.01E+03,-7228,1411,-2921,-279,-120,-257,1,7,11
1.00E+03,-7228,1651,-2906,-305,-122,18,1,7,11
1.01E+03,-7241,1644,-2892,-290,127,38,1,7,11
1.02E+03,-7234,1409,-2903,3,123,67,1,7,11
1.02E+03,-7244,1433,-2915,3,-126,86,1,7,11
1.03E+03,-7246,1427,-2920,-269,-126,111,1,7,11
1.03E+03,-7239,1432,-2924,-268,-121,122,1,7,11
1.04E+03,-7247,1433,-2921,-282,-109,125,1,7,11
1.05E+03,-7251,1422,-2915,-286,-107,-126,1,7,11
1.06E+03,-7250,1420,-2902,-261,-107,127,1,7,11
1.08E+03,-7241,1430,-2900,10,-112,120,1,7,11
1.09E+03,-7232,1431,-2898,15,-117,117,1,7,11
1.11E+03,-7231,1444,-2890,25,-112,105,1,7,11
1.12E+03,-7243,1456,-2891,12,-111,103,1,7,11
1.13E+03,-7239,1462,-2882,-270,-112,103,1,7,11
1.14E+03,-7216,1468,-2885,-295,-109,80,1,7,11
1.13E+03,-7212,1458,-2888,-313,-95,57,1,7,11
1.12E+03,-7211,1444,-2889,-312,-80,36,1,7,11
1.10E+03,-7222,1433,-2889,-311,-60,18,1,7,11
1.07E+03,-7233,1444,-2902,-300,-52,13,1,7,11
1.06E+03,-7236,1452,-2908,-306,-55,16,1,7,11
1.05E+03,-7231,1448,-2918,-318,-59,20,1,7,11
1.05E+03,-7225,1446,-2926,-333,-63,23,1,7,11
1.06E+03,-7224,1433,-2926,-340,-63,22,1,7,11
1.08E+03,-7235,1419,-2911,-337,-65,15,1,7,11
1.09E+03,-7239,1413,-2907,-312,-75,16,1,7,11
1.10E+03,-7233,1427,-2916,-288,-90,24,1,7,11
1.10E+03,-7243,1441,-2926,-292,-92,27,1,7,11
1.09E+03,-7259,1433,-2918,-316,-101,37,1,7,11
1.09E+03,-7262,1415,-2909,-327,-121,57,1,7,11
1.09E+03,-7258,1655,-2887,-318,117,66,1,7,11
1.09E+03,-7238,1658,-2876,-281,114,79,1,7,11
1.09E+03,-7244,1434,-2883,1,124,81,1,7,11
1.08E+03,-7234,1447,-2887,6,-126,96,1,7,11
1.07E+03,-7211,1453,-2888,3,-120,100,1,7,11
1.05E+03,-7216,1440,-2891,-291,-95,72,1,7,11
1.03E+03,-7223,1417,-2880,-310,-95,50,1,7,11
1.02E+03,-7236,1429,-2877,-273,-87,28,1,7,11
1.01E+03,-7262,1469,-2887,13,-81,14,1,7,11
1.01E+03,-7263,1500,-2897,-282,-91,40,1,7,11
1.02E+03,-7252,1499,-2907,-356,-93,64,1,7,11
1.03E+03,-7246,1485,-2906,-158,-74,69,1,7,11
1.05E+03,-7232,1480,-2908,-185,-55,70,1,7,11
1.06E+03,-7225,1487,-2910,-197,-34,59,1,7,11
1.07E+03,-7229,1489,-2905,-216,-33,36,1,7,11
1.08E+03,-7224,1479,-2896,-225,-45,11,1,7,11
1.09E+03,-7217,1476,-2903,-236,-60,-285,1,7,11
1.10E+03,-7207,1479,-2909,-239,-62,-329,1,7,11
1.12E+03,-7219,1486,-2906,-516,-49,-382,1,7,11
1.13E+03,-7241,1499,-2920,-540,-41,-163,1,7,11
1.13E+03,-7252,1529,-2932,-593,-45,-184,1,7,11
1.12E+03,-7253,1801,-2927,-435,-60,-199,1,7,11
1.10E+03,-7242,1796,-2922,-801,-75,-220,1,7,11
1.06E+03,-7224,1806,-2920,-891,-83,-253,1,7,11
1.03E+03,-7235,1835,-2926,-729,-85,-576,1,7,11
1.00E+03,-7258,1857,-2926,-1115,-98,-638,1,7,11
9.80E+02,-7267,1881,-2929,-1008,-114,-437,1,7,11
9.70E+02,-7282,1890,-2914,-1186,117,-499,1,7,11
9.73E+02,-7293,1896,-2911,-1622,85,-817,1,7,11
9.89E+02,-7046,1901,-2896,-1795,46,-871,1,7,11
1.02E+03,-7054,1902,-2870,-1717,3,-651,1,7,11
1.06E+03,-7061,1854,-2853,-2150,-302,-657,1,7,11
1.10E+03,-7076,1533,-2548,-2015,-346,-655,1,7,11
1.13E+03,-7076,1493,-2509,-2327,-136,-890,1,7,11
1.16E+03,-7080,1473,-2488,-2337,-171,-880,1,7,11
1.19E+03,-7073,1465,-2444,-2318,-198,-860,1,7,11
1.20E+03,-7050,1443,-2662,-2037,-210,-829,1,7,11
1.20E+03,-7046,1658,-2626,-2005,-202,-795,1,7,11
1.19E+03,-7287,1607,-2574,-1956,-173,-491,1,7,11
1.16E+03,-7293,1548,-2260,-2107,-380,-453,1,7,11
1.14E+03,-7046,1259,-2209,-1902,-316,-408,1,7,11
1.11E+03,-7068,1542,-2182,-1639,19,-398,1,7,11
1.08E+03,-7081,1584,-2179,-1380,93,-397,1,7,11
1.06E+03,-7126,1631,-2431,-933,-99,-626,1,7,11
1.05E+03,-7148,1432,-2429,-705,-31,-583,1,7,11
1.05E+03,-7158,1479,-2190,-873,-10,-552,1,7,11
1.06E+03,-7426,1501,-2194,-828,-5,-518,1,7,11
1.07E+03,-7426,1507,-2194,-803,-4,-236,1,7,11
1.10E+03,-7425,1507,-2195,-769,257,-217,1,7,11
1.12E+03,-7160,1508,-2200,-486,260,-194,1,7,11
1.15E+03,-7157,1527,-2197,-450,262,-175,1,7,11
1.18E+03,-7137,1797,-2196,-441,267,-151,1,7,11
1.20E+03,-7125,1793,-2200,-470,275,-142,1,7,11
1.22E+03,-7110,1512,-2194,-504,298,-144,1,7,11
1.22E+03,-7110,1500,-2178,-497,330,-163,1,7,11
1.22E+03,-7095,1513,-2189,-459,367,-174,1,7,11
1.19E+03,-7088,1793,-2206,-443,148,-194,1,7,11
1.15E+03,-7100,1803,-2224,-460,184,-209,1,7,11
1.10E+03,-7118,1802,-2233,-472,209,-207,1,7,11
1.05E+03,-7101,1807,-2239,-460,226,-200,1,7,11
1.01E+03,-7117,1800,-2246,-464,516,-209,1,7,11
9.89E+02,-7138,1531,-2255,-458,520,-199,1,7,11
9.81E+02,-7144,1514,-2260,-439,255,-189,1,7,11
9.80E+02,-7157,1511,-2268,-408,244,-180,1,7,11
9.79E+02,-7166,1490,-2270,-635,224,-165,1,7,11
9.72E+02,-7159,1487,-2277,-572,197,-144,1,7,11
9.58E+02,-7120,1511,-2303,-252,189,-368,1,7,11
9.40E+02,-7082,1523,-2597,-214,210,-340,1,7,11
9.22E+02,-7057,1509,-2619,-219,234,-318,1,7,11
9.06E+02,-7060,1482,-2645,-203,534,-329,1,7,11
8.93E+02,-7083,1474,-2663,-168,539,-336,1,7,11
8.85E+02,-7063,1477,-2441,-134,515,-325,1,7,11
8.82E+02,-7061,1474,-2469,-364,230,-340,1,7,11
8.87E+02,-7089,1464,-2491,-369,209,-343,1,7,11
8.98E+02,-7112,1451,-2511,-371,168,-328,1,7,11
9.18E+02,-7104,1430,-2523,-370,303,-278,1,7,11
9.46E+02,-7084,1426,-2523,-354,-9,-275,1,7,11
9.81E+02,-7091,1436,-2515,-343,-46,-294,1,7,11
1.02E+03,-7103,1445,-2515,-333,-93,-293,1,7,11
1.07E+03,-7105,1459,-2511,-323,120,-264,1,7,11
1.11E+03,-7100,1453,-2502,-334,84,29,1,7,11
1.15E+03,-7065,1433,-2494,-334,59,59,1,7,11
1.18E+03,-7041,1435,-2473,-303,72,53,1,7,11
1.21E+03,-7047,1455,-2466,-270,96,47,1,7,11
1.22E+03,-7047,1459,-2462,-271,107,53,1,7,11
1.23E+03,-7296,1445,-2450,-284,117,62,1,7,11
1.24E+03,-7285,1433,-2436,-287,-128,62,1,7,11
1.24E+03,-7288,1431,-2433,-271,-104,54,1,7,11
1.24E+03,-7048,1453,-2449,2,-87,48,1,7,11
1.23E+03,-7046,1452,-2464,-292,-90,69,1,7,11
1.22E+03,-7045,1435,-2462,-326,-68,73,1,7,11
1.19E+03,-7076,1423,-2445,-345,-49,71,1,7,11
1.15E+03,-7081,1434,-2440,-352,-52,108,1,7,11
1.11E+03,-7064,1444,-2446,-379,-63,-110,1,7,11
1.07E+03,-7042,1439,-2443,-162,-53,-81,1,7,11
1.04E+03,-7052,1450,-2450,-193,-18,-69,1,7,11
1.03E+03,-7074,1459,-2687,-205,-9,-23,1,7,11
1.03E+03,-7054,1447,-2671,-207,-25,293,1,7,11
1.04E+03,-7046,1426,-2662,-158,-22,302,1,7,11
1.06E+03,-7069,1492,-2679,22,291,262,1,7,11
1.07E+03,-7133,1832,-2441,65,326,-45,1,7,11
1.08E+03,-7452,1874,-2668,23,303,-52,1,7,11
1.09E+03,-7463,1896,-2649,-268,-26,-34,1,7,11
1.09E+03,-7449,1900,-2621,-301,-114,-14,1,7,11
1.10E+03,-7152,1900,-2607,-325,58,267,1,7,11
1.10E+03,-7100,1879,-2609,-336,-268,275,1,7,11
1.09E+03,-7293,1852,-2601,-314,-306,277,1,7,11
1.08E+03,-7244,1829,-2602,-276,-299,-12,1,7,11
1.06E+03,-7227,1823,-2603,19,5,-50,1,7,11
1.03E+03,-7233,1823,-2624,56,56,-82,1,7,11
1.00E+03,-7224,1828,-2647,65,102,-96,1,7,11
9.69E+02,-7214,1825,-2666,54,-101,-124,1,7,11
9.45E+02,-7229,1836,-2684,35,-35,88,1,7,11
9.29E+02,-7257,1848,-2453,-274,261,64,1,7,11
9.22E+02,-7296,1850,-2454,-347,288,58,1,7,11
9.22E+02,-7078,1873,-2457,-145,296,69,1,7,11
9.29E+02,-7096,1889,-2472,-202,278,106,1,7,11
9.41E+02,-7099,1896,-2477,-535,-18,-118,1,7,11
9.59E+02,-7095,1871,-2467,-602,-53,-103,1,7,11
9.80E+02,-7094,1859,-2449,-621,-78,-100,1,7,11
1.00E+03,-7084,1876,-2434,-605,-107,-96,1,7,11
1.03E+03,-7062,1893,-2679,-603,116,-102,1,7,11
1.05E+03,-7288,1885,-2659,-626,86,-121,1,7,11
1.07E+03,-7283,1867,-2631,-627,76,86,1,7,11
1.08E+03,-7271,1881,-2615,-587,87,44,1,7,11
1.08E+03,-7270,1678,-2598,-551,113,-263,1,7,11
1.08E+03,-7278,1729,-2597,-571,-118,-323,1,7,11
1.06E+03,-7272,1738,-2595,-389,-98,-373,1,7,11
1.05E+03,-7241,1766,-2620,-463,-72,-164,1,7,11
1.03E+03,-7243,1736,-2605,-842,-26,-264,1,7,11
1.01E+03,-7293,1703,-2596,-691,303,-564,1,7,11
1.01E+03,-7075,1695,-2606,-716,368,-570,1,7,11
1.01E+03,-7121,1916,-2605,-750,153,-562,1,7,11
1.04E+03,-7167,1867,-2583,-1079,155,-519,1,7,11
1.07E+03,-7162,1857,-2586,-1049,371,-188,1,7,11
1.11E+03,-7139,1863,-2596,-731,323,-365,1,7,11
1.14E+03,-7106,1871,-2599,-891,286,-304,1,7,11
1.16E+03,-7100,1851,-2595,-832,261,-274,1,7,11
1.17E+03,-7121,1861,-2585,-468,-32,-265,1,7,11
1.17E+03,-7134,1871,-2580,-618,-85,5,1,7,11
1.16E+03,-7116,1880,-2578,-518,111,25,1,7,11
1.13E+03,-7084,1892,-2575,-145,73,37,1,7,11
1.10E+03,-7081,1912,-2561,-325,64,26,1,7,11
1.07E+03,-7084,1915,-2565,-301,52,22,1,7,11
1.03E+03,-7074,1895,-2563,-297,43,24,1,7,11
1.00E+03,-7067,1870,-2564,-289,45,23,1,7,11
9.80E+02,-7048,1845,-2568,-265,63,20,1,7,11
9.63E+02,-7052,1830,-2569,17,114,9,1,7,11
9.55E+02,-7078,1840,-2565,43,-82,14,1,7,11
9.54E+02,-7100,1871,-2566,53,-49,40,1,7,11
9.61E+02,-7095,1905,-2574,5,-49,90,1,7,11
9.74E+02,-7086,1668,-2577,-343,-51,119,1,7,11
9.92E+02,-7068,1687,-2578,-205,-60,-121,1,7,11
1.01E+03,-7052,1695,-2592,-580,-75,-102,1,7,11
1.04E+03,-7292,1702,-2601,-402,-90,-91,1,7,11
1.06E+03,-7279,1712,-2618,-433,-88,-98,1,7,11
1.08E+03,-7285,1721,-2615,-449,-79,-115,1,7,11
1.10E+03,-7293,1703,-2606,-469,-94,-126,1,7,11
1.12E+03,-7295,1681,-2591,-449,-107,127,1,7,11
1.14E+03,-7052,1682,-2581,-638,-104,121,1,7,11
1.15E+03,-7055,1709,-2581,-568,-101,-116,1,7,11
1.14E+03,-7044,1716,-2585,-247,-96,-89,1,7,11
1.12E+03,-7293,1707,-2581,-207,-97,-76,1,7,11
1.07E+03,-7060,1710,-2581,-143,-90,-95,1,7,11
1.02E+03,-7093,1720,-2582,-335,-94,-105,1,7,11
9.63E+02,-7088,1769,-2619,4,-110,-101,1,7,11
9.22E+02,-7081,1784,-2628,15,-124,-101,1,7,11
9.03E+02,-7061,1775,-2628,-269,-125,-103,1,7,11
9.04E+02,-7047,1761,-2612,-266,-119,-123,1,7,11
9.22E+02,-7047,1751,-2598,18,-113,96,1,7,11
9.54E+02,-7290,1757,-2604,71,-120,76,1,7,11
9.93E+02,-7282,1746,-2603,110,-115,42,1,7,11
1.03E+03,-7292,1741,-2592,-121,-100,0,1,7,11
1.06E+03,-7056,1738,-2585,-102,-86,-275,1,7,11
1.06E+03,-7067,1734,-2573,-90,-91,-274,1,7,11
1.05E+03,-7074,1742,-2581,-77,-89,-259,1,7,11
1.02E+03,-7075,1740,-2566,-84,-93,23,1,7,11
9.92E+02,-7056,1705,-2561,-82,-100,49,1,7,11
9.83E+02,-7286,1691,-2570,-43,-97,61,1,7,11
9.99E+02,-7294,1693,-2301,-14,-67,35,1,7,11
1.03E+03,-7069,1702,-2570,278,-51,19,1,7,11
1.08E+03,-7073,1703,-2582,278,-55,25,1,7,11
1.12E+03,-7059,1709,-2602,275,-49,41,1,7,11
1.15E+03,-7058,1708,-2617,265,-26,45,1,7,11
1.17E+03,-7051,1709,-2620,-4,-5,63,1,7,11
1.17E+03,-7041,1697,-2625,-35,266,76,1,7,11
1.17E+03,-7289,1679,-2617,-55,275,79,1,7,11
1.16E+03,-7282,1918,-2623,-70,286,71,1,7,11
1.14E+03,-7286,1906,-2636,-69,287,47,1,7,11
1.11E+03,-7041,1911,-2643,-63,287,36,1,7,11
1.08E+03,-7048,1678,-2649,-83,283,46,1,7,11
1.05E+03,-7076,1679,-2649,120,256,66,1,7,11
1.01E+03,-7052,1686,-2647,91,-41,116,1,7,11
9.80E+02,-7046,1683,-2649,48,-62,121,1,7,11
9.56E+02,-7045,1687,-2647,14,-71,-127,1,7,11
9.46E+02,-7295,1688,-2643,-274,-77,-126,1,7,11
9.56E+02,-7048,1700,-2630,-312,-71,122,1,7,11
9.81E+02,-7046,1715,-2630,-353,-82,-124,1,7,11
1.02E+03,-7056,1717,-2640,-132,-90,-103,1,7,11
1.05E+03,-7056,1700,-2632,-185,-102,-86,1,7,11
1.09E+03,-7052,1688,-2618,-172,-113,-77,1,7,11
1.12E+03,-7294,1705,-2623,-135,-123,-72,1,7,11
1.14E+03,-7292,1714,-2619,-152,-118,-86,1,7,11
1.16E+03,-7291,1686,-2607,-171,-123,-90,1,7,11
1.16E+03,-7280,1700,-2608,-130,-127,-106,1,7,11
1.16E+03,-7052,1713,-2609,-356,-108,122,1,7,11
1.16E+03,-7062,1731,-2619,-337,-106,-127,1,7,11
1.14E+03,-7279,1732,-2622,-357,-119,-114,1,7,11
1.12E+03,-7263,1720,-2613,-379,-101,124,1,7,11
1.09E+03,-7255,1699,-2607,-368,-81,96,1,7,11
1.05E+03,-7254,1703,-2604,-324,-54,52,1,7,11
1.02E+03,-7296,1739,-2615,-291,-26,12,1,7,11
9.96E+02,-7073,1771,-2631,-285,-20,15,1,7,11
9.84E+02,-7080,1790,-2644,-316,-24,45,1,7,11
9.85E+02,-7079,2055,-2652,-374,-25,68,1,7,11
9.97E+02,-7064,2049,-2645,-180,-37,82,1,7,11
1.02E+03,-7288,1776,-2640,-217,-61,100,1,7,11
1.04E+03,-7276,1749,-2632,-223,-52,80,1,7,11
1.08E+03,-7044,1732,-2622,-189,-45,50,1,7,11
1.11E+03,-7279,1737,-2625,-131,-71,51,1,7,11
1.14E+03,-7274,1733,-2625,-363,-85,34,1,7,11
1.16E+03,-7272,1716,-2623,-332,-89,30,1,7,11
1.18E+03,-7061,1724,-2611,8,-75,16,1,7,11
1.19E+03,-7049,1739,-2605,49,-98,55,1,7,11
1.19E+03,-7258,1738,-2614,47,-113,82,1,7,11
1.18E+03,-7251,1735,-2617,28,-93,74,1,7,11
1.16E+03,-7291,1728,-2599,9,-71,48,1,7,11
1.14E+03,-7048,1746,-2605,23,-78,66,1,7,11
1.11E+03,-7052,1769,-2620,3,-79,87,1,7,11
1.09E+03,-7290,1753,-2617,-313,-84,105,1,7,11
1.08E+03,-7263,1738,-2614,-328,-72,103,1,7,11
1.09E+03,-7267,1745,-2621,-327,-36,79,1,7,11
1.10E+03,-7289,1743,-2620,-337,-19,66,1,7,11
1.12E+03,-7041,1736,-2619,-350,-30,75,1,7,11
1.14E+03,-7292,1730,-2615,-341,-42,85,1,7,11
1.16E+03,-7288,1738,-2616,-319,-51,81,1,7,11
1.17E+03,-7288,1751,-2618,-304,-54,73,1,7,11
1.17E+03,-7290,1751,-2625,-306,-57,75,1,7,11
1.17E+03,-7292,1752,-2627,-308,-54,80,1,7,11
1.16E+03,-7285,1757,-2625,-295,-54,89,1,7,11
1.14E+03,-7279,1762,-2624,-297,-53,96,1,7,11
1.12E+03,-7272,1756,-2634,-304,-48,96,1,7,11
1.10E+03,-7263,1757,-2638,-297,-38,87,1,7,11
1.08E+03,-7264,1754,-2644,-297,-23,74,1,7,11
1.07E+03,-7269,1752,-2652,-301,-19,69,1,7,11
1.07E+03,-7268,1754,-2657,-300,-15,72,1,7,11
1.08E+03,-7266,1753,-2674,-288,-5,79,1,7,11
1.09E+03,-7268,1753,-2434,-281,-2,91,1,7,11
1.11E+03,-7270,1759,-2455,-277,-6,91,1,7,11
1.12E+03,-7278,1773,-2467,-273,-9,90,1,7,11
1.14E+03,-7278,1790,-2464,-277,-23,95,1,7,11
1.15E+03,-7258,1787,-2461,-305,-55,100,1,7,11
1.17E+03,-7236,1771,-2456,-335,-77,94,1,7,11
1.18E+03,-7242,1764,-2446,-336,-83,66,1,7,11
1.19E+03,-7229,1766,-2454,-329,-97,58,1,7,11
1.19E+03,-7202,1751,-2441,-347,-117,54,1,7,11
1.19E+03,-7192,1727,-2688,-346,-114,31,1,7,11
1.18E+03,-7211,1709,-2682,-329,-102,9,1,7,11
1.15E+03,-7257,1697,-2669,-308,-90,3,1,7,11
1.12E+03,-7047,1691,-2659,-277,-96,23,1,7,11
1.09E+03,-7072,1695,-2658,28,-119,64,1,7,11
1.06E+03,-7093,1724,-2665,77,-126,110,1,7,11
1.04E+03,-7098,1774,-2683,107,-126,-98,1,7,11
1.03E+03,-7083,2072,-2670,81,107,-43,1,7,11
1.03E+03,-7041,2060,-2641,13,77,261,1,7,11
1.03E+03,-7262,1782,-2625,-279,58,262,1,7,11
1.05E+03,-7242,2052,-2614,-277,61,-16,1,7,11
1.07E+03,-7240,2083,-2613,2,68,-73,1,7,11
1.10E+03,-7232,2081,-2604,-287,65,-102,1,7,11
1.12E+03,-7224,2055,-2601,-347,78,115,1,7,11
1.15E+03,-7243,1784,-2595,-350,97,70,1,7,11
1.17E+03,-7255,1788,-2589,-348,-125,56,1,7,11
1.19E+03,-7249,1785,-2600,-355,-103,59,1,7,11
1.20E+03,-7255,1789,-2603,-362,-73,51,1,7,11
1.19E+03,-7041,2056,-2609,-352,-54,48,1,7,11
1.17E+03,-7046,2056,-2623,-369,-72,77,1,7,11
1.12E+03,-7292,1784,-2629,-380,-82,93,1,7,11
1.07E+03,-7276,1788,-2633,-359,-74,81,1,7,11
1.03E+03,-7271,2065,-2636,-349,-57,64,1,7,11
9.99E+02,-7287,2065,-2630,-368,-48,55,1,7,11
1.00E+03,-7284,1790,-2631,-380,-59,55,1,7,11
1.03E+03,-7287,1790,-2631,-355,-72,55,1,7,11
1.07E+03,-7270,1787,-2636,-331,-98,65,1,7,11
1.11E+03,-7251,1776,-2629,-313,-107,63,1,7,11
1.14E+03,-7251,1772,-2620,-278,-101,57,1,7,11
1.16E+03,-7270,1780,-2619,4,-102,54,1,7,11
1.17E+03,-7269,1779,-2614,18,-118,69,1,7,11
1.18E+03,-7265,2048,-2603,39,-124,85,1,7,11
1.18E+03,-7271,2068,-2625,47,-125,95,1,7,11
1.18E+03,-7277,2091,-2627,31,-123,112,1,7,11
1.18E+03,-7278,2103,-2632,8,-114,126,1,7,11
1.17E+03,-7278,2113,-2631,-260,-106,-110,1,7,11
1.16E+03,-7271,2107,-2626,-282,-105,-98,1,7,11
1.13E+03,-7272,2085,-2600,-298,-105,-102,1,7,11
1.10E+03,-7286,1789,-2567,-293,-100,-117,1,7,11
1.07E+03,-7058,1778,-2292,3,-103,123,1,7,11
1.05E+03,-7069,1778,-2287,50,-128,-118,1,7,11
1.04E+03,-7073,1789,-2284,83,113,-103,1,7,11
1.05E+03,-7078,2054,-2286,105,100,-79,1,7,11
1.08E+03,-7051,2049,-2282,115,86,-47,1,7,11
1.11E+03,-7241,2051,-2293,-113,109,-31,1,7,11
1.14E+03,-7245,2057,-2289,-110,-78,-71,1,7,11
1.16E+03,-7238,2082,-2292,-98,-16,-73,1,7,11
1.16E+03,-7240,2104,-2290,-106,285,-87,1,7,11
1.15E+03,-7237,2121,-2298,-123,310,-85,1,7,11
1.13E+03,-7224,2122,-2567,99,320,-82,1,7,11
1.11E+03,-7215,2122,-2593,70,339,-100,1,7,11
1.08E+03,-7216,2130,-2615,45,363,126,1,7,11
1.05E+03,-7220,2143,-2637,21,374,102,1,7,11
1.02E+03,-7244,2154,-2662,-286,382,76,1,7,11
1.01E+03,-7266,2150,-2666,-345,375,64,1,7,11
1.00E+03,-7278,2153,-2677,-135,360,39,1,7,11
1.00E+03,-7280,2142,-2680,-189,334,28,1,7,11
1.02E+03,-7246,2142,-2678,-225,316,25,1,7,11
1.04E+03,-7235,2140,-2676,-252,319,4,1,7,11
1.08E+03,-7248,2121,-2674,-547,333,-269,1,7,11
1.11E+03,-7251,2098,-2667,-556,337,-266,1,7,11
1.15E+03,-7236,2091,-2681,-532,339,-265,1,7,11
1.19E+03,-7212,2094,-2433,-251,361,-269,1,7,11
1.22E+03,-7194,2105,-2438,-236,133,-270,1,7,11
1.23E+03,-7176,2099,-2451,-251,152,-271,1,7,11
1.24E+03,-7190,2085,-2461,-250,194,-299,1,7,11
1.23E+03,-7221,2102,-2472,-239,212,-329,1,7,11
1.22E+03,-7204,2109,-2500,-228,192,-308,1,7,11
1.20E+03,-7183,2117,-2524,-245,195,-308,1,7,11
1.17E+03,-7175,2105,-2554,-256,204,-305,1,7,11
1.15E+03,-6906,2096,-2848,-520,208,-308,1,7,11
1.13E+03,-7174,2073,-2850,-532,218,-313,1,7,11
1.12E+03,-7196,2056,-2843,-242,212,-294,1,7,11
1.13E+03,-7220,2056,-2835,-193,175,-264,1,7,11
1.15E+03,-7229,1786,-2823,-148,374,38,1,7,11
1.17E+03,-7213,1787,-2819,-344,319,71,1,7,11
1.19E+03,-7194,2063,-2836,-287,266,91,1,7,11
1.21E+03,-6892,2084,-2840,-260,-32,110,1,7,11
1.21E+03,-6858,2099,-2847,7,-46,81,1,7,11
1.21E+03,-6850,2098,-2847,-263,-56,68,1,7,11
1.19E+03,-6864,2090,-2848,-292,-57,14,1,7,11
1.18E+03,-6866,2088,-2859,-319,-73,-262,1,7,11
1.16E+03,-6886,2082,-2862,-368,-84,-279,1,7,11
1.15E+03,-6912,2077,-2860,-159,-91,-284,1,7,11
1.14E+03,-7197,2056,-2843,-210,-102,-268,1,7,11
1.12E+03,-7209,1775,-2823,-235,-113,10,1,7,11
1.09E+03,-7234,1760,-2541,-217,-108,23,1,7,11
1.07E+03,-7263,1768,-2536,-179,-104,55,1,7,11
1.04E+03,-7255,1776,-2539,-149,-115,100,1,7,11
1.01E+03,-7220,2049,-2546,-130,-117,-115,1,7,11
1.00E+03,-7170,2057,-2549,-374,-94,-99,1,7,11
1.01E+03,-6887,2061,-2543,-357,-50,-105,1,7,11
1.03E+03,-6903,2065,-2521,-316,-5,-109,1,7,11
1.05E+03,-7203,2079,-2526,-259,262,-101,1,7,11
1.09E+03,-7192,2113,-2543,46,-39,-57,1,7,11
1.12E+03,-6877,2127,-2552,64,-96,-21,1,7,11
1.14E+03,-6841,2143,-2821,68,114,-18,1,7,11
1.16E+03,-6836,2148,-2827,44,47,-29,1,7,11
1.17E+03,-6873,2172,-2828,11,-281,-50,1,7,11
1.16E+03,-7180,1962,-2551,-313,-366,-35,1,7,11
1.14E+03,-7208,1992,-2518,-145,-191,282,1,7,11
1.11E+03,-7231,1979,-2481,-226,-245,346,1,7,11
1.08E+03,-7237,1958,-2437,-255,-523,137,1,7,11
1.06E+03,-7234,1963,-2660,-244,-530,132,1,7,11
1.06E+03,-7227,1982,-2643,-227,-527,379,1,7,11
1.07E+03,-7211,1993,-2627,-228,-238,344,1,7,11
1.09E+03,-7218,1991,-2608,-229,-173,293,1,7,11
1.12E+03,-7217,2002,-2615,-205,-364,-14,1,7,11
1.15E+03,-7187,2025,-2638,-202,-309,-69,1,7,11
1.17E+03,-6899,2025,-2670,-228,26,125,1,7,11
1.18E+03,-6895,2010,-2678,-514,121,58,1,7,11
1.19E+03,-6899,1982,-2671,-522,-58,11,1,7,11
1.18E+03,-7176,1943,-2659,-229,-5,-269,1,7,11
1.16E+03,-7214,1941,-2638,-132,287,-272,1,7,11
1.14E+03,-7272,1941,-2616,-308,284,1,1,7,11
1.11E+03,-7212,1933,-2603,10,-51,67,1,7,11
1.08E+03,-6903,1954,-2612,81,-123,101,1,7,11
1.06E+03,-6902,1976,-2615,127,99,86,1,7,11
1.05E+03,-7195,2005,-2613,-106,89,78,1,7,11
1.04E+03,-7235,2041,-2604,125,70,88,1,7,11
1.05E+03,-7231,2324,-2589,57,30,122,1,7,11
1.06E+03,-7205,2319,-2586,-271,5,-116,1,7,11
1.08E+03,-7171,2306,-2590,-332,3,-124,1,7,11
1.10E+03,-6870,2013,-2620,-191,89,55,1,7,11
1.12E+03,-6899,1995,-2643,-231,-91,-269,1,7,11
1.15E+03,-7203,1984,-2665,-248,-21,-325,1,7,11
1.18E+03,-7263,1984,-2452,-256,291,-362,1,7,11
1.20E+03,-7231,1971,-2459,-244,314,9,1,7,11
1.22E+03,-7197,1937,-2437,-184,321,37,1,7,11
1.24E+03,-7231,1929,-2669,-340,330,38,1,7,11
1.24E+03,-7286,1936,-2643,8,294,59,1,7,11
1.23E+03,-7264,1950,-2616,84,-53,108,1,7,11
1.21E+03,-7188,1973,-2599,-110,112,-128,1,7,11
1.18E+03,-6885,2004,-2595,-90,68,96,1,7,11
1.14E+03,-6884,2028,-2592,-127,59,50,1,7,11
1.10E+03,-6905,2038,-2581,60,49,18,1,7,11
1.05E+03,-7182,2041,-2300,-276,37,-260,1,7,11
1.01E+03,-7195,2042,-2287,-357,33,-270,1,7,11
9.77E+02,-7214,2047,-2284,-171,53,-278,1,7,11
9.59E+02,-7230,2321,-2567,-239,86,-262,1,7,11
9.56E+02,-7197,2043,-2594,-611,123,13,1,7,11
9.61E+02,-6908,1968,-2603,-453,-60,-283,1,7,11
9.70E+02,-6911,2161,-2615,-497,295,-378,1,7,11
9.79E+02,-7202,1789,-2606,-780,137,-243,1,7,11
9.84E+02,-7242,1723,-2591,-637,218,-598,1,7,11
9.87E+02,-7212,1790,-2617,-361,522,-626,1,7,11
9.88E+02,-7194,2144,-2670,97,567,-597,1,7,11
9.85E+02,-7184,1940,-2440,-57,608,-514,1,7,11
9.81E+02,-7213,1995,-2467,264,638,-190,1,7,11
9.78E+02,-7216,2027,-2485,288,632,-139,1,7,11
9.78E+02,-7207,2309,-2491,260,588,-363,1,7,11
9.82E+02,-7184,2341,-2499,-71,254,-374,1,7,11
9.93E+02,-7211,2356,-2505,81,144,-146,1,7,11
1.01E+03,-7241,2348,-2492,-141,301,-151,1,7,11
1.03E+03,-7248,2330,-2483,-553,-62,-150,1,7,11
1.06E+03,-7238,2034,-2477,-456,117,-145,1,7,11
1.09E+03,-7207,1995,-2480,-833,84,-150,1,7,11
1.12E+03,-6899,1967,-2506,-673,85,-162,1,7,11
1.15E+03,-6820,1929,-2530,-755,112,-184,1,7,11
1.16E+03,-7028,1946,-2549,-768,-50,-536,1,7,11
1.17E+03,-6834,2044,-2855,-1067,311,-435,1,7,11
1.16E+03,-6894,2408,-2900,-968,352,-797,1,7,11
1.15E+03,-7219,2231,-2915,-1228,348,-663,1,7,11
1.12E+03,-7239,2252,-2905,-1801,286,-747,1,7,11
1.09E+03,-7226,2198,-2851,-2123,-37,-1061,1,7,11
1.05E+03,-7232,2347,-2501,-2365,-68,-1122,1,7,11
1.01E+03,-7287,1979,-2662,-2255,-92,-946,1,7,11
9.85E+02,-7090,2123,-2566,-2283,106,-973,1,7,11
9.71E+02,-7111,1772,-2237,-2209,31,-947,1,7,11
9.69E+02,-7105,1728,-2193,-2336,-294,-901,1,7,11
9.81E+02,-7086,1697,-2416,-1926,-337,-1085,1,7,11
1.01E+03,-7065,1682,-2387,-1756,-351,-742,1,7,11
1.04E+03,-7054,1672,-2376,-1846,-342,-663,1,7,11
1.08E+03,-7052,1666,-2365,-1421,-309,-838,1,7,11
1.13E+03,-7052,1675,-2352,-1244,-268,-501,1,7,11
1.16E+03,-7046,1687,-2352,-1329,15,-424,1,7,11
1.18E+03,-7042,1705,-2365,-906,42,-614,1,7,11
1.20E+03,-7042,1715,-2375,-735,85,-564,1,7,11
1.20E+03,-7057,1754,-2388,-832,124,-538,1,7,11
1.19E+03,-7090,2051,-2379,-473,-106,-245,1,7,11
1.17E+03,-7115,2064,-2375,-418,-95,-191,1,7,11
1.15E+03,-7128,1789,-2352,-633,-106,-130,1,7,11
1.11E+03,-7139,1764,-2350,-560,-110,-336,1,7,11
1.08E+03,-7142,1747,-2336,-200,-117,-285,1,7,11
1.06E+03,-7111,2066,-2374,48,-104,85,1,7,11
1.04E+03,-7143,2073,-2378,54,-90,115,1,7,11
1.03E+03,-7127,2085,-2365,43,-107,-93,1,7,11
1.04E+03,-7089,2076,-2355,32,-114,-43,1,7,11
1.06E+03,-7070,2088,-2368,47,-113,-18,1,7,11
1.08E+03,-7060,2128,-2393,85,-101,271,1,7,11
1.11E+03,-7072,2131,-2392,61,-90,293,1,7,11
1.13E+03,-7096,2145,-2396,40,-67,305,1,7,11
1.14E+03,-7120,1922,-2404,54,-58,323,1,7,11
1.14E+03,-7124,1964,-2407,54,-60,345,1,7,11
1.14E+03,-7096,1996,-2418,23,-99,382,1,7,11
1.12E+03,-7080,1999,-2409,-267,-121,379,1,7,11
1.09E+03,-7087,2007,-2408,-296,115,364,1,7,11
1.05E+03,-7109,1992,-2394,-327,78,370,1,7,11
1.02E+03,-7119,1968,-2363,-307,8,158,1,7,11
9.93E+02,-7108,1980,-2365,31,-332,243,1,7,11
9.88E+02,-7080,1987,-2365,50,-134,539,1,7,11
1.00E+03,-7060,1987,-2359,57,-138,529,1,7,11
1.03E+03,-7071,2026,-2348,81,-361,229,1,7,11
1.07E+03,-7056,2328,-2356,77,-351,210,1,7,11
1.10E+03,-7041,2344,-2366,18,-341,195,1,7,11
1.12E+03,-7044,2353,-2342,-309,-328,157,1,7,11
1.15E+03,-7070,2355,-2322,-370,-312,369,1,7,11
1.16E+03,-7082,2345,-2305,-146,-320,361,1,7,11
1.17E+03,-7081,2351,-2310,-157,-319,350,1,7,11
1.18E+03,-7075,2332,-2037,-190,-323,316,1,7,11
1.18E+03,-7075,2342,-2016,-154,-313,297,1,7,11
1.19E+03,-7085,2378,-2013,-147,-295,287,1,7,11
1.18E+03,-7095,2367,-2010,-182,-288,306,1,7,11
1.18E+03,-7062,2352,-2011,-164,-294,347,1,7,11
1.16E+03,-7043,2362,-2019,-367,-273,346,1,7,11
1.15E+03,-7054,2403,-2020,-332,11,309,1,7,11
1.13E+03,-7082,2197,-2020,-340,13,272,1,7,11
1.11E+03,-7103,2225,-2008,-134,-257,259,1,7,11
1.09E+03,-7092,2240,-2000,-181,-292,270,1,7,11
1.08E+03,-7051,2277,-2011,-215,-316,262,1,7,11
1.08E+03,-7265,2299,-2018,-542,-315,-18,1,7,11
1.08E+03,-7231,2564,-2000,-613,-287,-94,1,7,11
1.08E+03,-7242,2583,-1984,-417,14,50,1,7,11
1.10E+03,-7050,2597,-1967,-496,48,-378,1,7,11
1.12E+03,-7096,2582,-1938,-850,56,-168,1,7,11
1.14E+03,-7135,2262,-2169,-701,37,-242,1,7,11
1.15E+03,-7152,2191,-2125,-1033,2,-243,1,7,11
1.16E+03,-7168,2377,-2085,-1051,-306,-193,1,7,11
1.16E+03,-7164,2319,-2051,-755,-327,-378,1,7,11
1.15E+03,-7158,2036,-2049,-822,-336,-319,1,7,11
1.14E+03,-7137,2312,-2057,-420,-332,-259,1,7,11
1.13E+03,-7126,2327,-1786,-568,-324,63,1,7,11
1.13E+03,-7122,2358,-1774,-195,-314,-108,1,7,11
1.14E+03,-7133,2412,-1763,-360,-304,-45,1,7,11
1.15E+03,-7132,2189,-1748,-323,-307,291,1,7,11
1.16E+03,-7116,2196,-1745,-314,-298,336,1,7,11
1.18E+03,-7110,2202,-1745,-292,-275,328,1,7,11
1.20E+03,-7099,2228,-1752,-264,1,323,1,7,11
1.21E+03,-7102,2263,-1756,-269,13,319,1,7,11
1.23E+03,-7099,2278,-1758,-292,7,334,1,7,11
1.24E+03,-7100,2280,-1753,-331,-265,342,1,7,11
1.24E+03,-7130,2278,-1745,-348,0,317,1,7,11
1.23E+03,-7428,2571,-1748,-344,-266,300,1,7,11
1.22E+03,-7457,2606,-1744,-370,-304,346,1,7,11
1.20E+03,-7437,2602,-1731,-161,-345,169,1,7,11
1.19E+03,-7156,2564,-1695,-177,-365,197,1,7,11
1.18E+03,-7126,2282,-1920,-376,-361,202,1,7,11
1.18E+03,-7118,2575,-1919,-257,-342,176,1,7,11
1.18E+03,-7115,2638,-1680,70,-338,162,1,7,11
1.19E+03,-7091,2679,-1694,58,-345,160,1,7,11
1.19E+03,-7069,2677,-1695,7,-340,383,1,7,11
1.19E+03,-7067,2666,-1690,-274,-313,338,1,7,11
1.18E+03,-7088,2669,-1687,-275,-294,290,1,7,11
1.17E+03,-7141,2659,-1669,-288,-274,-9,1,7,11
1.16E+03,-7494,2650,-1884,-297,-309,-59,1,7,11
1.15E+03,-7340,2612,-1863,-285,-176,-50,1,7,11
1.13E+03,-7352,2574,-1889,95,-639,313,1,7,11
1.12E+03,-7304,2615,-1681,274,-836,378,1,7,11
1.10E+03,-7505,2458,-1704,158,-713,170,1,7,11
1.09E+03,-7433,2844,-1733,214,-1058,221,1,7,11
1.08E+03,-7094,2921,-1732,380,-1097,242,1,7,11
1.07E+03,-7264,2928,-1702,-48,-1068,224,1,7,11
1.07E+03,-7211,2915,-1874,18,-721,133,1,7,11
1.08E+03,-7206,2915,-1846,-151,-844,270,1,7,11
1.10E+03,-7248,2905,-1519,-582,-449,-86,1,7,11
1.12E+03,-7293,2856,-1464,-482,-592,109,1,7,11
1.16E+03,-7110,2496,-1412,-865,-239,59,1,7,11
1.19E+03,-7138,2651,-1569,-860,-171,32,1,7,11
1.23E+03,-7142,2650,-1278,-482,-363,20,1,7,11
1.25E+03,-7157,2661,-1248,-582,-324,49,1,7,11
1.26E+03,-7147,2441,-1276,-213,-279,87,1,7,11
1.27E+03,-7461,2440,-1258,-187,52,86,1,7,11
1.27E+03,-7460,2445,-1236,-366,110,-128,1,7,11
1.27E+03,-7453,2485,-1242,-266,-91,-111,1,7,11
1.27E+03,-7433,2525,-1261,47,-71,-66,1,7,11
1.26E+03,-7125,2535,-1556,45,-62,-15,1,7,11
1.25E+03,-7109,2488,-1573,-279,-28,-33,1,7,11
1.24E+03,-7136,2678,-1552,-310,259,-98,1,7,11
1.22E+03,-7427,2676,-1559,61,-4,95,1,7,11
1.19E+03,-7434,2496,-1604,-77,-21,62,1,7,11
1.15E+03,-7495,2552,-1650,-111,-32,40,1,7,11
1.11E+03,-7516,2519,-1652,46,-55,48,1,7,11
1.09E+03,-7551,2537,-1446,71,-67,25,1,7,11
1.08E+03,-7322,2552,-1464,58,-90,4,1,7,11
1.09E+03,-7328,2830,-1419,54,-116,26,1,7,11
1.12E+03,-7323,2865,-1654,59,81,74,1,7,11
1.15E+03,-7539,2842,-1623,4,0,123,1,7,11
1.18E+03,-7518,2833,-1591,13,-316,-96,1,7,11
1.21E+03,-7418,2553,-1594,33,-141,-41,1,7,11
1.22E+03,-7131,2552,-1588,73,-188,-2,1,7,11
1.22E+03,-7063,2536,-1571,-128,-199,-10,1,7,11
1.21E+03,-7072,2561,-1548,-60,-168,-33,1,7,11
1.20E+03,-7056,2818,-1265,-38,-173,-40,1,7,11
1.17E+03,-7067,2552,-1250,-35,-177,-120,1,7,11
1.15E+03,-7053,2535,-1538,-17,-202,99,1,7,11
1.12E+03,-7130,2527,-1568,-19,-351,31,1,7,11
1.09E+03,-7483,2513,-1579,-11,-281,-258,1,7,11
1.06E+03,-7305,2526,-1589,281,45,28,1,7,11
1.03E+03,-7390,2532,-1550,303,61,66,1,7,11
1.01E+03,-7332,2528,-1252,348,2,-84,1,7,11
9.94E+02,-7509,2543,-1235,166,-289,-26,1,7,11
9.99E+02,-7442,2830,-1246,219,-326,276,1,7,11
1.02E+03,-7097,2842,-1276,194,-336,324,1,7,11
1.05E+03,-7293,2553,-1547,128,-315,312,1,7,11
1.08E+03,-7274,2531,-1556,339,19,-12,1,7,11
1.12E+03,-7111,2538,-1544,301,-127,-107,1,7,11
1.15E+03,-7448,2531,-1240,-16,-94,-120,1,7,11
1.17E+03,-7127,2503,-1188,-43,53,-77,1,7,11
1.19E+03,-7084,2521,-1193,-41,36,-109,1,7,11
1.21E+03,-7260,2551,-1251,-12,42,-91,1,7,11
1.22E+03,-7055,2554,-1557,-90,114,-114,1,7,11
1.22E+03,-7112,2520,-1582,38,-37,117,1,7,11
1.22E+03,-7427,2480,-1585,-330,294,86,1,7,11
1.22E+03,-7317,2452,-1596,-132,145,57,1,7,11
1.20E+03,-7694,2447,-1597,-341,143,70,1,7,11
1.18E+03,-7792,2480,-1586,23,338,-117,1,7,11
1.16E+03,-7807,2540,-1276,-103,-27,-12,1,7,11
1.13E+03,-7711,2867,-1241,328,24,152,1,7,11
1.11E+03,-7458,2897,-1237,366,-186,561,1,7,11
1.10E+03,-7173,2555,-1269,350,-528,611,1,7,11
1.10E+03,-6849,2511,-1553,364,-135,244,1,7,11
1.12E+03,-6862,2456,-1552,317,-260,147,1,7,11
1.14E+03,-6861,2627,-1267,282,88,264,1,7,11
1.16E+03,-7046,2656,-1254,357,-27,9,1,7,11
1.17E+03,-7481,2491,-1544,183,-6,-271,1,7,11
1.18E+03,-7316,2826,-1569,189,-42,62,1,7,11
1.18E+03,-7363,2874,-1546,171,-73,-36,1,7,11
1.17E+03,-7379,2691,-1243,205,107,327,1,7,11
1.15E+03,-7535,2751,-1248,190,-266,534,1,7,11
1.12E+03,-7080,2706,-1271,355,-339,628,1,7,11
1.08E+03,-7257,2933,-1547,327,-277,599,1,7,11
1.04E+03,-7250,2708,-1601,300,96,539,1,7,11
1.01E+03,-7283,2912,-1552,-100,-101,201,1,7,11
9.99E+02,-7272,2889,-1540,-105,-75,350,1,7,11
9.98E+02,-7429,2920,-1537,-107,-15,-21,1,7,11
1.01E+03,-7473,2700,-1577,-99,-41,264,1,7,11
1.02E+03,-7366,2733,-1581,-103,-16,294,1,7,11
1.04E+03,-7391,2784,-1554,-56,-80,183,1,7,11
1.05E+03,-7345,3086,-1537,285,64,524,1,7,11
1.07E+03,-7146,3087,-1539,278,-309,400,1,7,11
1.08E+03,-6887,2743,-1539,263,-352,420,1,7,11
1.11E+03,-6917,2916,-1564,294,-275,521,1,7,11
1.13E+03,-7006,2881,-1582,332,-71,-43,1,7,11
1.15E+03,-6815,2886,-1617,348,287,99,1,7,11
1.16E+03,-6885,2501,-1576,259,305,52,1,7,11
1.16E+03,-7193,2660,-1565,379,309,39,1,7,11
1.13E+03,-7154,2672,-1603,563,358,19,1,7,11
1.09E+03,-7392,2521,-1661,470,374,119,1,7,11
1.04E+03,-7579,2855,-1419,777,326,328,1,7,11
1.01E+03,-7624,2704,-1430,875,-20,604,1,7,11
9.93E+02,-7758,2805,-1456,659,102,870,1,7,11
1.00E+03,-7509,2784,-1440,887,-300,1027,1,7,11
1.03E+03,-7046,2761,-1420,832,-307,701,1,7,11
1.07E+03,-7154,2770,-1434,509,-270,772,1,7,11
1.10E+03,-6834,3072,-1467,417,30,514,1,7,11
1.12E+03,-6790,2765,-1444,189,32,380,1,7,11
1.14E+03,-6926,2884,-1420,287,7,261,1,7,11
1.16E+03,-7036,2863,-1469,263,-110,-266,1,7,11
1.17E+03,-7277,2918,-1509,-18,271,-349,1,7,11
1.19E+03,-7514,2714,-1477,-79,326,-288,1,7,11
1.20E+03,-7388,2805,-1429,-39,-11,-57,1,7,11
1.22E+03,-7328,3149,-1422,-49,93,191,1,7,11
1.24E+03,-7158,3101,-1634,111,-298,422,1,7,11
1.26E+03,-7229,2747,-1590,112,-354,488,1,7,11
1.28E+03,-7040,2718,-1589,282,-367,422,1,7,11
1.29E+03,-6994,2785,-1630,165,-304,204,1,7,11
1.30E+03,-7013,3094,-1645,215,28,317,1,7,11
1.32E+03,-7032,3146,-1424,216,68,-3,1,7,11
1.33E+03,-6976,3105,-1438,145,79,-21,1,7,11
1.33E+03,-6978,2790,-1448,142,-121,126,1,7,11
1.34E+03,-6790,2744,-1524,167,-16,34,1,7,11
1.34E+03,-7050,2734,-1511,151,169,-137,1,7,11
1.34E+03,-7311,2794,-1529,235,247,-362,1,7,11
1.35E+03,-7713,2944,-1830,556,228,74,1,7,11
1.34E+03,-7359,3034,-1893,515,130,367,1,7,11
1.34E+03,-7151,3057,-1678,152,340,553,1,7,11
1.34E+03,-6905,3025,-1704,309,366,635,1,7,11
1.33E+03,-6794,2996,-1687,269,196,548,1,7,11
1.33E+03,-7024,2993,-1680,342,213,156,1,7,11
1.32E+03,-6974,3024,-1684,-14,213,270,1,7,11
1.31E+03,-6962,3073,-1919,47,183,110,1,7,11
1.30E+03,-6598,2807,-1714,67,383,-315,1,7,11
1.29E+03,-6689,3083,-1771,107,173,-516,1,7,11
1.28E+03,-6803,2695,-1741,-304,250,-605,1,7,11
1.27E+03,-7064,2937,-1748,-336,572,-414,1,7,11
1.25E+03,-7457,2768,-2081,53,529,-529,1,7,11
1.23E+03,-7511,3127,-2132,115,198,-337,1,7,11
1.22E+03,-7162,2964,-2145,90,370,-72,1,7,11
1.19E+03,-7043,3022,-2129,-262,327,163,1,7,11
1.17E+03,-6893,3011,-2116,-368,279,564,1,7,11
1.14E+03,-6812,3192,-2100,-227,-8,563,1,7,11
1.11E+03,-6991,3108,-2075,-532,-26,181,1,7,11
1.08E+03,-6965,3080,-2074,-194,-46,-29,1,7,11
1.04E+03,-6987,3097,-2082,-346,-97,29,1,7,11
1.01E+03,-7020,3094,-2089,-346,-96,-276,1,7,11
9.86E+02,-6809,2739,-1780,-162,-89,-298,1,7,11
9.70E+02,-6820,2865,-1738,-137,-119,-275,1,7,11
9.61E+02,-6826,2860,-1760,64,-99,-326,1,7,11
9.59E+02,-7179,2943,-1789,-69,-30,-274,1,7,11
9.60E+02,-7256,2790,-1789,-40,322,114,1,7,11
9.64E+02,-7279,3104,-2058,-56,344,346,1,7,11
9.69E+02,-7255,3120,-1771,-103,360,543,1,7,11
9.76E+02,-7241,3078,-1724,113,330,632,1,7,11
9.84E+02,-6905,2768,-1677,-93,-22,613,1,7,11
9.93E+02,-6837,3083,-1684,351,-123,208,1,7,11
1.00E+03,-6802,2979,-1745,202,80,327,1,7,11
1.01E+03,-6816,3022,-1763,308,70,-19,1,7,11
1.01E+03,-6837,2973,-1732,-78,60,-67,1,7,11
1.01E+03,-6867,3190,-1749,121,58,-109,1,7,11
1.01E+03,-7256,3178,-1744,35,85,116,1,7,11
1.00E+03,-7139,2997,-1764,31,-118,64,1,7,11
9.98E+02,-7115,3090,-1762,-285,86,-107,1,7,11
9.96E+02,-7080,3388,-1736,-369,46,-47,1,7,11
9.97E+02,-7249,3397,-1736,-194,0,346,1,7,11
1.00E+03,-7231,3055,-1915,-636,28,137,1,7,11
1.02E+03,-6899,2985,-1834,-450,-271,373,1,7,11
1.04E+03,-7032,2947,-1820,-569,-363,325,1,7,11
1.06E+03,-6926,2981,-1867,-215,-373,-77,1,7,11
1.09E+03,-7009,2988,-1864,-239,-336,14,1,7,11
1.10E+03,-7036,2969,-1845,-256,-368,-325,1,7,11
1.12E+03,-7176,2973,-1526,-236,-137,-165,1,7,11
1.12E+03,-7293,3016,-1495,-214,-224,-150,1,7,11
1.12E+03,-7112,3034,-1474,-522,-572,-351,1,7,11
1.12E+03,-7127,3017,-1479,-601,-387,4,1,7,11
1.11E+03,-7098,3000,-1496,-419,-635,85,1,7,11
1.10E+03,-7089,2979,-1477,-491,-557,-102,1,7,11
1.10E+03,-7054,2971,-1409,-499,-205,-62,1,7,11
1.09E+03,-7288,3024,-1637,-469,-369,-21,1,7,11
1.09E+03,-7225,3040,-1601,-512,-283,310,1,7,11
1.08E+03,-6881,3000,-1556,-791,42,374,1,7,11
1.07E+03,-6787,3190,-1271,-493,-120,137,1,7,11
1.07E+03,-6980,3165,-1269,-622,258,366,1,7,11
1.07E+03,-7040,2974,-1558,-170,155,303,1,7,11
1.07E+03,-6831,3034,-1580,-300,231,309,1,7,11
1.08E+03,-6786,3052,-1588,41,233,347,1,7,11
1.09E+03,-6965,3348,-1621,-108,243,347,1,7,11
1.09E+03,-6654,3438,-1432,-10,531,339,1,7,11
1.09E+03,-6614,3233,-1519,-35,577,345,1,7,11
1.07E+03,-6611,3422,-1513,-106,603,306,1,7,11
1.05E+03,-6588,3449,-1856,261,620,-8,1,7,11
1.03E+03,-6617,3247,-1672,-39,404,-115,1,7,11
1.01E+03,-6917,3274,-1710,116,425,79,1,7,11
9.87E+02,-7040,3270,-1729,-268,430,3,1,7,11
9.75E+02,-6881,3234,-1760,-384,634,-279,1,7,11
9.74E+02,-7272,3440,-1765,-208,606,-339,1,7,11
9.89E+02,-7147,3402,-1779,-218,537,-336,1,7,11
1.02E+03,-7130,3348,-1773,-199,137,-292,1,7,11
1.05E+03,-7265,3039,-1786,-357,268,-260,1,7,11
1.09E+03,-7201,3069,-2059,15,264,-270,1,7,11
1.12E+03,-7210,3330,-2053,86,301,33,1,7,11
1.14E+03,-7181,3064,-1786,122,312,74,1,7,11
1.15E+03,-6835,3059,-1775,-92,259,81,1,7,11
1.15E+03,-6946,3032,-1740,-105,-53,38,1,7,11
1.15E+03,-6534,2988,-1743,-111,-85,-328,1,7,11
1.15E+03,-6772,2965,-1739,-99,-57,-516,1,7,11
1.16E+03,-6601,2950,-1738,-104,-26,-427,1,7,11
1.17E+03,-6994,3164,-1737,112,-35,-792,1,7,11
1.17E+03,-6845,3138,-1760,85,-73,-859,1,7,11
1.16E+03,-7243,3139,-1787,56,-74,-873,1,7,11
1.14E+03,-7071,3115,-2060,1,-84,-801,1,7,11
1.11E+03,-7162,3078,-1777,-302,-94,-409,1,7,11
1.07E+03,-7085,2799,-1766,-290,124,-227,1,7,11
1.04E+03,-7056,3082,-1747,32,-98,-357,1,7,11
1.01E+03,-7239,3161,-1762,-121,-82,73,1,7,11
9.98E+02,-6889,2985,-1780,-54,-59,-32,1,7,11
9.92E+02,-7025,3022,-1789,-21,-57,327,1,7,11
9.93E+02,-6636,3018,-1792,267,-47,325,1,7,11
1.00E+03,-6780,3016,-2051,347,-62,-61,1,7,11
1.02E+03,-6739,3031,-1790,193,-84,-299,1,7,11
1.04E+03,-6539,3058,-1788,521,114,-569,1,7,11
1.05E+03,-6641,3360,-2097,571,37,-794,1,7,11
1.07E+03,-7027,3362,-2143,227,-278,-695,1,7,11
1.09E+03,-7245,3020,-2159,286,-270,-1047,1,7,11
1.11E+03,-7150,3137,-2144,123,-279,-1025,1,7,11
1.12E+03,-7307,2796,-2103,61,-271,-680,1,7,11
1.14E+03,-7308,2750,-2072,12,-345,-452,1,7,11
1.16E+03,-7520,2701,-1745,-327,-348,-187,1,7,11
1.18E+03,-7487,2707,-1687,-331,-340,-98,1,7,11
1.19E+03,-7135,2700,-1892,-359,-328,535,1,7,11
1.19E+03,-7216,2913,-1837,-338,-344,869,1,7,11
1.17E+03,-6999,2878,-1813,16,-344,763,1,7,11
1.13E+03,-6784,2851,-1534,-95,-345,736,1,7,11
1.08E+03,-6291,2886,-1831,150,-335,504,1,7,11
1.03E+03,-6514,2707,-1870,445,35,339,1,7,11
9.98E+02,-6367,3117,-1696,855,-94,10,1,7,11
9.91E+02,-6599,2947,-1782,810,299,-210,1,7,11
1.00E+03,-6878,3194,-2052,387,154,-571,1,7,11
1.03E+03,-7130,3108,-1801,220,220,-599,1,7,11
1.06E+03,-7363,3135,-2069,171,245,-595,1,7,11
1.08E+03,-7726,3119,-2062,294,180,-159,1,7,11
1.11E+03,-7347,3123,-2082,-48,365,105,1,7,11
1.13E+03,-7477,3186,-2105,-81,134,367,1,7,11
1.14E+03,-7088,2946,-2092,60,210,455,1,7,11
1.16E+03,-6888,3158,-2056,-329,535,867,1,7,11
1.17E+03,-6918,2792,-1748,-163,547,834,1,7,11
1.18E+03,-6757,2733,-1741,-227,520,595,1,7,11
1.18E+03,-6376,2761,-1760,-39,251,273,1,7,11
1.17E+03,-6368,2785,-1789,330,519,-136,1,7,11
1.14E+03,-6720,3123,-2131,163,553,-442,1,7,11
1.11E+03,-6651,3187,-1965,334,587,-874,1,7,11
1.07E+03,-6873,3147,-1991,114,583,-688,1,7,11
1.03E+03,-7065,3098,-2033,-316,530,-700,1,7,11
1.01E+03,-7530,3178,-2389,-166,219,-667,1,7,11
9.91E+02,-7407,3062,-2226,-443,353,-782,1,7,11
9.87E+02,-7375,3352,-2301,-897,-78,-588,1,7,11
9.93E+02,-7689,3210,-2578,-1586,99,-214,1,7,11
1.01E+03,-7785,3313,-2266,-2153,-311,-316,1,7,11
1.03E+03,-7766,3608,-2416,-2669,-618,-127,1,7,11
1.05E+03,-7346,3259,-2023,-3087,-1082,302,1,7,11
1.08E+03,-7077,3362,-2161,-3343,-1221,147,1,7,11
1.11E+03,-6948,3073,-1917,-3410,-1507,376,1,7,11
1.14E+03,-6720,2892,-1476,-3019,-1676,279,1,7,11
1.17E+03,-6359,2436,-1270,-2735,-1733,54,1,7,11
1.19E+03,-6323,2563,-1387,-2246,-1876,-328,1,7,11
1.20E+03,-6379,2240,-1292,-1870,-1436,-204,1,7,11
1.20E+03,-6567,2187,-960,-1146,-1162,-569,1,7,11
1.18E+03,-6793,2269,-949,96,-1119,-556,1,7,11
1.16E+03,-7287,2491,-988,493,-820,-163,1,7,11
1.13E+03,-7479,2717,-1285,901,-584,-118,1,7,11
1.11E+03,-7347,3138,-1332,1397,-382,243,1,7,11
1.09E+03,-7349,2989,-1373,1545,7,880,1,7,11
1.08E+03,-7514,3038,-1400,1610,111,1111,1,7,11
1.07E+03,-7093,3393,-1236,1487,-62,924,1,7,11
1.07E+03,-6876,3602,-1640,1834,281,1134,1,7,11
1.08E+03,-6644,3474,-1466,1650,161,757,1,7,11
1.09E+03,-6751,3475,-1479,1350,578,811,1,7,11
1.10E+03,-6692,3669,-1432,897,407,538,1,7,11
1.11E+03,-6688,3681,-1466,1072,437,283,1,7,11
1.12E+03,-6758,3702,-1512,655,439,70,1,7,11
1.13E+03,-6600,3650,-1514,409,439,-308,1,7,11
1.14E+03,-6958,3237,-1475,147,408,-347,1,7,11
1.14E+03,-7030,3067,-1432,303,631,-325,1,7,11
1.13E+03,-6889,2970,-1415,340,632,-303,1,7,11
1.11E+03,-7265,3137,-1632,153,620,34,1,7,11
1.08E+03,-7073,3161,-1664,584,576,112,1,7,11
1.06E+03,-7071,2962,-1486,437,523,-30,1,7,11
1.04E+03,-7067,3008,-1535,418,524,305,1,7,11
1.04E+03,-7102,3041,-1833,573,550,308,1,7,11
1.06E+03,-7148,3374,-1863,206,522,-44,1,7,11
1.09E+03,-7455,3279,-1690,291,360,18,1,7,11
1.12E+03,-7449,3503,-1774,-265,100,-217,1,7,11
1.14E+03,-7481,3844,-1787,-826,-207,-402,1,7,11
1.16E+03,-7479,3494,-1680,-1158,-816,-496,1,7,11
1.17E+03,-7144,3294,-1815,-1857,-1151,-507,1,7,11
1.17E+03,-7277,2799,-1636,-2130,-1370,-468,1,7,11
1.17E+03,-6824,2543,-1212,-1785,-1171,-408,1,7,11
1.16E+03,-7020,2660,-1358,-1633,-1320,-638,1,7,11
1.16E+03,-7001,2675,-1308,-1047,-983,-242,1,7,11
1.16E+03,-6793,2494,-1316,54,-456,-363,1,7,11
1.15E+03,-6842,2549,-1323,195,-196,56,1,7,11
1.14E+03,-6908,2911,-1371,784,36,-97,1,7,11
1.12E+03,-7261,2786,-1176,728,-42,-46,1,7,11
1.10E+03,-7069,3152,-1220,1044,310,-12,1,7,11
1.07E+03,-7114,3014,-1265,1044,350,-10,1,7,11
1.05E+03,-7115,3389,-1604,691,318,-12,1,7,11
1.04E+03,-7065,3427,-1645,464,287,-27,1,7,11
1.03E+03,-7053,3424,-1664,213,281,-74,1,7,11
1.03E+03,-7279,3356,-1636,-44,271,-110,1,7,11
1.04E+03,-7266,3004,-1590,56,263,86,1,7,11
1.06E+03,-7261,2976,-1567,46,-4,40,1,7,11
1.09E+03,-7257,2948,-1552,42,-8,28,1,7,11
1.13E+03,-7230,3156,-1556,61,260,61,1,7,11
1.16E+03,-7204,3137,-1570,-120,309,85,1,7,11
1.19E+03,-7187,3150,-1590,-47,363,111,1,7,11
1.21E+03,-7195,3136,-1581,-21,153,-122,1,7,11
1.22E+03,-7195,3132,-1591,310,176,-120,1,7,11
1.22E+03,-7194,3132,-1621,129,177,112,1,7,11
1.21E+03,-6909,3131,-1414,187,176,74,1,7,11
1.20E+03,-6907,3149,-1448,243,205,6,1,7,11
1.18E+03,-7199,3175,-1481,516,234,-307,1,7,11
1.17E+03,-7265,3186,-1497,216,237,-327,1,7,11
1.15E+03,-7045,3144,-1486,136,197,-315,1,7,11
1.14E+03,-7049,3164,-1511,140,130,-304,1,7,11
1.14E+03,-7043,2985,-1829,131,329,-273,1,7,11
1.16E+03,-7257,2986,-1843,275,269,61,1,7,11
1.18E+03,-7218,2971,-1834,-92,262,101,1,7,11
1.20E+03,-7195,2947,-1817,80,260,124,1,7,11
1.22E+03,-7190,2962,-1808,24,257,-108,1,7,11
1.24E+03,-6906,2976,-1812,0,265,-82,1,7,11
1.24E+03,-6869,2964,-1828,-275,286,-82,1,7,11
1.24E+03,-6838,2957,-1841,-274,340,-97,1,7,11
1.23E+03,-6836,3173,-1824,-297,172,-121,1,7,11
1.23E+03,-6851,3110,-1536,-308,514,109,1,7,11
1.23E+03,-6877,2810,-1514,39,587,75,1,7,11
1.23E+03,-6894,3117,-1799,-50,632,58,1,7,11
1.22E+03,-6906,3177,-1864,275,419,90,1,7,11
1.21E+03,-6897,3180,-1893,-6,458,-97,1,7,11
1.19E+03,-6876,3132,-1899,-43,769,-44,1,7,11
1.16E+03,-6874,3098,-1901,-34,812,-47,1,7,11
1.12E+03,-6891,3096,-1919,258,817,-118,1,7,11
1.09E+03,-6902,3131,-1713,287,784,43,1,7,11
1.06E+03,-6882,3157,-1769,267,475,-295,1,7,11
1.05E+03,-6891,3189,-2076,-55,437,-383,1,7,11
1.06E+03,-7177,3196,-2108,80,634,-169,1,7,11
1.07E+03,-7193,3180,-2128,-302,568,-169,1,7,11
1.09E+03,-7194,3143,-2133,-152,239,-136,1,7,11
1.11E+03,-7179,3111,-2137,-216,162,-375,1,7,11
1.13E+03,-6843,3097,-2166,-535,343,-196,1,7,11
1.13E+03,-6905,2789,-2143,-428,326,-622,1,7,11
1.14E+03,-6903,2690,-2095,-490,301,-619,1,7,11
1.14E+03,-7212,2909,-2053,-634,289,-619,1,7,11
1.14E+03,-7241,2934,-2072,-215,-2,-533,1,7,11
1.14E+03,-7230,2694,-2096,-346,-48,-378,1,7,11
1.14E+03,-7190,2707,-2090,54,-48,121,1,7,11
1.13E+03,-6883,2713,-2072,-103,-27,-4,1,7,11
1.12E+03,-6871,2750,-2062,-13,278,326,1,7,11
1.10E+03,-6859,2786,-2077,328,280,369,1,7,11
1.09E+03,-6816,3080,-2099,129,264,370,1,7,11
1.08E+03,-7023,3116,-2140,178,-8,312,1,7,11
1.08E+03,-7000,3179,-1934,180,271,-37,1,7,11
1.09E+03,-6802,2949,-1939,329,313,122,1,7,11
1.12E+03,-6899,2970,-2172,-19,332,38,1,7,11
1.15E+03,-7234,2998,-2161,-93,285,34,1,7,11
1.18E+03,-7212,2990,-2155,67,-55,82,1,7,11
1.20E+03,-6912,2944,-2141,-273,-113,74,1,7,11
1.22E+03,-6865,3168,-2135,-327,-123,34,1,7,11
1.23E+03,-6889,3126,-2097,-374,-113,-284,1,7,11
1.22E+03,-6898,3101,-2068,-377,122,-293,1,7,11
1.20E+03,-6892,3129,-2080,-360,80,-297,1,7,11
1.16E+03,-6852,3156,-2109,-152,38,-259,1,7,11
1.11E+03,-6806,3128,-2116,-520,43,23,1,7,11
1.06E+03,-6791,3073,-2098,-587,89,35,1,7,11
1.01E+03,-6787,2760,-2072,-572,-113,20,1,7,11
9.82E+02,-6815,2729,-2065,-224,-62,-274,1,7,11
9.72E+02,-6808,2723,-2085,-374,-52,-304,1,7,11
9.79E+02,-6826,2747,-2100,-293,-22,-359,1,7,11
9.96E+02,-6858,2773,-2122,7,258,-361,1,7,11
1.02E+03,-6878,2761,-2145,-257,267,-324,1,7,11
1.05E+03,-6862,2690,-2135,-327,260,-307,1,7,11
1.08E+03,-6833,2843,-2123,-345,-14,-353,1,7,11
1.11E+03,-7036,2534,-2130,2,258,-211,1,7,11
1.14E+03,-6996,2555,-2144,118,323,-598,1,7,11
1.17E+03,-7031,2558,-2115,-68,181,-447,1,7,11
1.20E+03,-6796,2854,-2108,327,539,-403,1,7,11
1.21E+03,-6858,2873,-2106,196,457,-586,1,7,11
1.21E+03,-6865,2918,-2144,427,769,-201,1,7,11
1.19E+03,-6880,2938,-1937,491,833,-382,1,7,11
1.15E+03,-7171,2933,-1969,771,877,-281,1,7,11
1.09E+03,-7184,2688,-1995,791,643,24,1,7,11
1.04E+03,-7206,2741,-2312,809,862,58,1,7,11
1.00E+03,-7202,2788,-2381,488,776,99,1,7,11
9.92E+02,-7179,2810,-2193,635,431,-98,1,7,11
1.00E+03,-6904,3076,-2240,235,590,-53,1,7,11
1.03E+03,-6889,2779,-2228,322,255,-34,1,7,11
1.06E+03,-6912,2756,-2213,-30,193,-39,1,7,11
1.10E+03,-6863,2769,-2213,-79,349,-44,1,7,11
1.13E+03,-6788,2794,-2233,78,297,-75,1,7,11
1.16E+03,-6996,2749,-2221,-338,322,-121,1,7,11
1.18E+03,-7015,2710,-2206,-174,346,64,1,7,11
1.18E+03,-6970,2909,-2190,-193,322,13,1,7,11
1.17E+03,-6962,2925,-2202,-150,339,-324,1,7,11
1.13E+03,-6960,2917,-2197,-168,338,-154,1,7,11
1.09E+03,-6984,2928,-2194,-175,377,-232,1,7,11
1.05E+03,-7024,2932,-2204,-214,376,-535,1,7,11
1.02E+03,-6808,2702,-2216,-566,364,-558,1,7,11
9.86E+02,-6807,2905,-2237,-436,286,-531,1,7,11
9.65E+02,-7028,2847,-2223,-440,-11,-238,1,7,11
9.56E+02,-7029,2862,-2218,-607,287,-540,1,7,11
9.60E+02,-6848,2883,-2221,-583,349,-556,1,7,11
9.75E+02,-7179,2854,-2203,-603,344,-536,1,7,11
9.98E+02,-7190,2557,-2179,-589,298,-204,1,7,11
1.03E+03,-6912,2504,-2407,-535,272,-146,1,7,11
1.06E+03,-6905,2497,-2408,-181,-7,-356,1,7,11
1.09E+03,-6906,2498,-2422,-365,-52,-297,1,7,11
1.11E+03,-6824,2434,-2206,-322,125,69,1,7,11
1.12E+03,-7035,2666,-2209,-304,58,-98,1,7,11
1.11E+03,-6992,2626,-2224,-300,44,-50,1,7,11
1.08E+03,-6972,2585,-2214,-350,69,-16,1,7,11
1.04E+03,-6945,2564,-2190,-364,116,273,1,7,11
9.95E+02,-6998,2492,-2213,-270,-29,290,1,7,11
9.57E+02,-7022,2851,-2241,7,287,200,1,7,11
9.31E+02,-7029,2867,-2234,-353,330,233,1,7,11
9.15E+02,-7014,2877,-2243,-153,357,513,1,7,11
9.10E+02,-7004,2919,-2260,-131,145,193,1,7,11
9.14E+02,-7033,2730,-2278,-344,190,320,1,7,11
9.24E+02,-7040,2782,-2300,-309,215,263,1,7,11
9.34E+02,-6801,2812,-2571,-284,217,-67,1,7,11
9.40E+02,-6800,2814,-2594,-281,191,-110,1,7,11
9.38E+02,-6803,2800,-2602,-283,180,95,1,7,11
9.29E+02,-6826,2787,-2593,-276,149,64,1,7,11
9.13E+02,-7024,2773,-2596,3,338,79,1,7,11
8.93E+02,-6972,2755,-2601,13,292,43,1,7,11
8.71E+02,-6945,2728,-2609,4,266,-258,1,7,11
8.54E+02,-6924,2691,-2612,-270,-4,-304,1,7,11
8.46E+02,-6973,2926,-2607,-283,267,-352,1,7,11
8.53E+02,-6998,2923,-2607,-265,-10,-304,1,7,11
8.72E+02,-6992,2922,-2630,-264,-41,7,1,7,11
9.04E+02,-6978,2914,-2663,-282,-69,60,1,7,11
9.46E+02,-6965,2897,-2671,-307,-72,86,1,7,11
9.95E+02,-6986,2878,-2663,-320,-66,103,1,7,11
1.04E+03,-7017,2870,-2658,-309,-80,-128,1,7,11
1.09E+03,-7018,2859,-2646,-284,-125,-92,1,7,11
1.12E+03,-7035,2861,-2650,8,98,-86,1,7,11
1.13E+03,-7036,2866,-2655,47,47,-51,1,7,11
1.13E+03,-6786,2879,-2651,84,9,-28,1,7,11
1.11E+03,-6788,2881,-2646,113,-288,265,1,7,11
1.09E+03,-6788,2874,-2617,-105,-321,306,1,7,11
1.05E+03,-6786,2881,-2605,-41,-368,345,1,7,11
1.02E+03,-6998,2889,-2618,271,-168,145,1,7,11
9.84E+02,-6975,2916,-2619,312,-182,158,1,7,11
9.62E+02,-6948,2688,-2632,366,-192,214,1,7,11
9.58E+02,-6644,2797,-2656,182,-192,560,1,7,11
9.69E+02,-6542,3092,-2673,232,-172,438,1,7,11
9.88E+02,-6738,3135,-2685,211,-321,846,1,7,11
1.01E+03,-6762,3107,-2626,140,115,872,1,7,11
1.02E+03,-6641,2893,-2260,327,318,643,1,7,11
1.02E+03,-6991,2535,-2201,167,145,641,1,7,11
1.01E+03,-7012,2536,-2209,434,131,843,1,7,11
9.94E+02,-6985,2892,-2276,718,320,393,1,7,11
9.83E+02,-6957,2784,-2638,933,-14,520,1,7,11
9.74E+02,-6941,3129,-2447,935,-109,181,1,7,11
9.64E+02,-6926,3163,-2476,954,93,364,1,7,11
9.53E+02,-6943,3173,-2482,780,43,276,1,7,11
9.36E+02,-6953,3182,-2479,585,-294,-35,1,7,11
9.18E+02,-6949,3155,-2450,138,-373,-95,1,7,11
9.03E+02,-6945,3131,-2680,-4,-187,107,1,7,11
8.96E+02,-6960,3101,-2651,-121,-243,75,1,7,11
9.00E+02,-6986,2789,-2596,48,-552,71,1,7,11
9.12E+02,-7019,2809,-2423,-45,-392,-72,1,7,11
9.27E+02,-6977,2778,-2375,-70,-388,-48,1,7,11
9.41E+02,-6941,2760,-2338,-34,-595,-86,1,7,11
9.52E+02,-6946,2779,-2322,294,-529,100,1,7,11
9.60E+02,-6949,2807,-2309,345,-206,43,1,7,11
9.67E+02,-6969,3084,-2037,355,-132,-260,1,7,11
9.74E+02,-6991,3077,-2032,338,-319,-276,1,7,11
9.80E+02,-7016,2764,-2026,324,-264,-282,1,7,11
9.82E+02,-6998,2758,-2308,131,31,-281,1,7,11
9.80E+02,-6954,2773,-2338,237,108,-316,1,7,11
9.70E+02,-6653,2807,-2396,223,-80,-350,1,7,11
9.55E+02,-6623,2802,-2195,382,256,-148,1,7,11
9.40E+02,-6631,2778,-2230,267,341,-216,1,7,11
9.31E+02,-6915,2767,-2243,-69,142,-513,1,7,11
9.32E+02,-6933,2766,-2289,112,170,-528,1,7,11
9.40E+02,-6961,2739,-2574,-265,190,-534,1,7,11
9.51E+02,-7003,2697,-2578,-151,214,-566,1,7,11
9.61E+02,-7040,2898,-2572,-530,212,-586,1,7,11
9.66E+02,-6806,2843,-2566,-616,183,-592,1,7,11
9.68E+02,-6818,2535,-2292,-397,148,-589,1,7,11
9.70E+02,-6867,2527,-2291,-633,371,-597,1,7,11
9.75E+02,-6891,2541,-2298,-628,288,-547,1,7,11
9.85E+02,-6863,2855,-2569,-626,-52,-200,1,7,11
9.94E+02,-7037,2850,-2594,-404,-102,-363,1,7,11
9.99E+02,-7034,2541,-2566,-493,-97,-310,1,7,11
9.95E+02,-7033,2514,-2254,-779,-60,-289,1,7,11
9.80E+02,-7031,2538,-2230,-471,-46,-288,1,7,11
9.57E+02,-6986,2852,-2240,-624,-70,23,1,7,11
9.30E+02,-6927,2903,-2287,-513,-76,58,1,7,11
9.05E+02,-6936,2889,-2302,-167,326,17,1,7,11
8.84E+02,-6995,2828,-2248,-132,220,-291,1,7,11
8.72E+02,-6789,2823,-2262,35,532,-319,1,7,11
8.71E+02,-7040,2823,-2260,-109,520,-302,1,7,11
8.82E+02,-6967,2857,-2259,-5,572,-319,1,7,11
9.03E+02,-6786,2921,-2291,297,415,-137,1,7,11
9.26E+02,-6828,2925,-2296,-13,400,-329,1,7,11
9.46E+02,-7026,2884,-2292,-52,590,31,1,7,11
9.59E+02,-6974,2875,-2565,-7,557,53,1,7,11
9.68E+02,-6936,2876,-2569,271,556,40,1,7,11
9.75E+02,-6632,2892,-2576,292,571,31,1,7,11
9.84E+02,-6633,2908,-2573,-13,584,-278,1,7,11
9.95E+02,-6653,2864,-2292,-98,595,-318,1,7,11
1.00E+03,-6923,2835,-2303,-93,587,-350,1,7,11
1.01E+03,-6628,2552,-2603,-88,582,-378,1,7,11
9.98E+02,-6620,2535,-2657,-120,634,-210,1,7,11
9.79E+02,-6619,2539,-2468,118,449,-556,1,7,11
9.59E+02,-6653,2544,-2560,66,772,-616,1,7,11
9.46E+02,-6636,2485,-2874,-325,822,-603,1,7,11
9.50E+02,-6643,2664,-2906,-368,652,-632,1,7,11
9.71E+02,-6960,2649,-2692,-333,727,-404,1,7,11
1.00E+03,-6981,2653,-2741,-353,760,-619,1,7,11
1.03E+03,-7018,2677,-2783,-378,762,-564,1,7,11
1.06E+03,-7040,2443,-2812,-166,726,-239,1,7,11
1.07E+03,-7031,2477,-3087,-205,657,-167,1,7,11
1.08E+03,-6966,2481,-3088,-537,802,-345,1,7,11
1.08E+03,-6639,2467,-3088,-596,475,-328,1,7,11
1.08E+03,-6606,2447,-3073,-625,427,-131,1,7,11
1.07E+03,-6594,2453,-3081,-597,638,-194,1,7,11
1.06E+03,-6571,2466,-2816,-579,567,-241,1,7,11
1.04E+03,-6535,2480,-3080,-554,253,-534,1,7,11
1.01E+03,-6779,2475,-3092,-560,211,-578,1,7,11
9.66E+02,-6773,2457,-3091,-578,166,-593,1,7,11
9.23E+02,-6739,2681,-2816,-585,372,-607,1,7,11
8.91E+02,-6717,2646,-3080,-601,341,-636,1,7,11
8.83E+02,-6746,2267,-2792,-394,318,-417,1,7,11
9.00E+02,-6536,2215,-2777,-638,302,-434,1,7,11
9.32E+02,-6609,2201,-3076,-546,293,-475,1,7,11
9.68E+02,-6633,2186,-3111,-236,256,-440,1,7,11
9.96E+02,-6645,2425,-3160,-211,-18,-410,1,7,11
1.01E+03,-6927,2408,-3174,-235,256,-629,1,7,11
1.03E+03,-6914,2405,-3183,-206,-2,-560,1,7,11
1.04E+03,-6913,2177,-2946,-180,-3,-243,1,7,11
1.05E+03,-6932,2179,-2947,-198,266,-173,1,7,11
1.07E+03,-6953,2176,-3195,-195,264,-359,1,7,11
1.08E+03,-6963,2426,-3192,-177,-29,-285,1,7,11
1.09E+03,-6930,2409,-3172,-132,-80,25,1,7,11
1.09E+03,-6936,2429,-3168,-297,-109,17,1,7,11
1.08E+03,-6934,2194,-3158,21,108,35,1,7,11
1.05E+03,-6655,2211,-3151,67,73,47,1,7,11
1.02E+03,-6646,2222,-3142,103,53,39,1,7,11
9.86E+02,-6647,2228,-3135,-124,30,18,1,7,11
9.63E+02,-6648,2217,-3118,-95,-260,-257,1,7,11
9.48E+02,-6645,2226,-3107,-56,-285,-263,1,7,11
9.42E+02,-6631,2255,-3099,-12,-303,7,1,7,11
9.43E+02,-6915,2281,-3090,-22,-302,6,1,7,11
9.52E+02,-6957,2281,-3055,-66,-310,42,1,7,11
9.68E+02,-6973,2260,-2756,-90,-340,93,1,7,11
9.91E+02,-6978,2243,-2726,-81,-366,-105,1,7,11
1.02E+03,-6971,2253,-2709,-55,-377,-57,1,7,11
1.05E+03,-6927,2297,-2715,263,-380,-9,1,7,11
1.08E+03,-6648,2566,-2719,264,-368,280,1,7,11
1.11E+03,-6654,2562,-2710,-39,-331,278,1,7,11
1.11E+03,-6942,2276,-2933,-109,-294,-22,1,7,11
1.10E+03,-6939,2267,-2905,117,-289,-29,1,7,11
1.08E+03,-6953,2296,-2904,-101,-302,-44,1,7,11
1.04E+03,-6940,2582,-2929,-97,-328,-32,1,7,11
1.00E+03,-6935,2566,-2925,97,-332,-41,1,7,11
9.69E+02,-6960,2299,-2918,83,-319,-64,1,7,11
9.47E+02,-6978,2565,-2910,95,-306,-76,1,7,11
9.34E+02,-7002,2592,-2914,95,-305,-69,1,7,11
9.33E+02,-7000,2613,-2920,74,-322,-47,1,7,11
9.41E+02,-6995,2631,-2922,31,-324,-35,1,7,11
9.57E+02,-6997,2613,-2904,-278,-331,-17,1,7,11
9.77E+02,-6977,2589,-2905,-304,-333,-9,1,7,11
9.99E+02,-6972,2294,-2886,-313,-323,-27,1,7,11
1.02E+03,-6953,2278,-2871,7,-312,-49,1,7,11
1.04E+03,-6945,2562,-2886,74,-295,-85,1,7,11
1.06E+03,-6956,2570,-2886,69,-273,-117,1,7,11
1.08E+03,-6961,2301,-2870,63,-257,109,1,7,11
1.10E+03,-6968,2296,-2850,89,9,87,1,7,11
1.11E+03,-6966,2567,-2847,-105,18,78,1,7,11
1.13E+03,-6976,2615,-2843,-64,42,60,1,7,11
1.14E+03,-7012,2652,-2848,-90,56,43,1,7,11
1.14E+03,-7002,2641,-2856,109,40,60,1,7,11
1.13E+03,-6986,2615,-2837,65,39,48,1,7,11
1.11E+03,-6977,2585,-2825,42,58,30,1,7,11
1.09E+03,-6956,2564,-2546,46,78,29,1,7,11
1.08E+03,-6953,2564,-2552,69,111,17,1,7,11
1.08E+03,-6967,2562,-2559,77,-119,12,1,7,11
1.08E+03,-6977,2295,-2555,80,-100,7,1,7,11
1.09E+03,-7010,2282,-2552,85,-85,1,1,7,11
1.11E+03,-7023,2265,-2536,90,-84,33,1,7,11
1.12E+03,-7019,2264,-2539,121,-89,65,1,7,11
1.13E+03,-7001,2288,-2558,-83,-94,73,1,7,11
1.14E+03,-6981,2591,-2850,-66,-84,62,1,7,11
1.14E+03,-7015,2627,-2854,-100,-47,25,1,7,11
1.13E+03,-6818,2583,-2472,-106,274,63,1,7,11
1.12E+03,-7032,2605,-2475,266,296,61,1,7,11
1.10E+03,-7023,2637,-2463,331,354,20,1,7,11
1.08E+03,-6849,2664,-2688,358,166,-320,1,7,11
1.06E+03,-7254,2674,-2646,137,194,-131,1,7,11
1.04E+03,-7126,2443,-2631,210,160,-129,1,7,11
1.03E+03,-7080,2466,-2656,545,312,-289,1,7,11
1.03E+03,-6875,2469,-2455,599,-34,32,1,7,11
1.04E+03,-6655,2673,-2526,599,-49,-306,1,7,11
1.05E+03,-6581,2588,-2856,572,306,-563,1,7,11
1.06E+03,-6960,2251,-2691,563,165,-840,1,7,11
1.08E+03,-6839,2419,-2772,526,146,-686,1,7,11
1.10E+03,-6836,2307,-3114,213,-9,-857,1,7,11
1.11E+03,-6962,2170,-2955,365,67,-451,1,7,11
1.12E+03,-6538,1723,-3051,-31,-298,-612,1,7,11
1.11E+03,-6727,1831,-3387,-84,-277,-422,1,7,11
1.10E+03,-6547,1516,-3440,-82,58,-772,1,7,11
1.07E+03,-6923,1529,-3455,-83,104,-788,1,7,11
1.02E+03,-7020,1826,-3449,-106,98,-440,1,7,11
9.69E+02,-6850,1868,-3425,99,66,-542,1,7,11
9.20E+02,-6883,1865,-3350,27,2,-334,1,7,11
8.85E+02,-6849,1853,-3012,14,-334,103,1,7,11
8.72E+02,-6788,1864,-2954,71,-141,-49,1,7,11
8.78E+02,-7013,1912,-3180,-114,-158,-27,1,7,11
9.02E+02,-7003,1708,-3143,-100,-168,-20,1,7,11
9.42E+02,-6967,1702,-3092,-110,-192,-2,1,7,11
9.93E+02,-6645,1668,-2796,-75,-231,287,1,7,11
1.05E+03,-6604,1884,-2774,278,-213,265,1,7,11
1.10E+03,-7014,1895,-2719,188,-356,-103,1,7,11
1.14E+03,-7207,1703,-2926,417,-379,296,1,7,11
1.17E+03,-6832,1700,-2908,821,-580,407,1,7,11
1.18E+03,-6976,1897,-2889,709,-442,799,1,7,11
1.17E+03,-6946,1862,-2896,945,-494,829,1,7,11
1.16E+03,-6954,1864,-2689,1225,-809,862,1,7,11
1.14E+03,-6958,1912,-2724,1515,-872,652,1,7,11
1.12E+03,-6969,1770,-2786,2053,-896,662,1,7,11
1.09E+03,-7009,2169,-3114,2033,-886,671,1,7,11
1.06E+03,-6812,2008,-3157,2342,-864,677,1,7,11
1.04E+03,-6880,2321,-3136,1993,-816,656,1,7,11
1.03E+03,-7238,2377,-3114,2058,-793,891,1,7,11
1.02E+03,-7271,2414,-3086,1687,-817,683,1,7,11
1.02E+03,-7279,2216,-3086,1898,-841,698,1,7,11
1.02E+03,-7264,2220,-2807,1630,-877,714,1,7,11
1.02E+03,-7187,2422,-2758,1170,-660,712,1,7,11
1.01E+03,-6833,2354,-2692,1295,-665,640,1,7,11
1.01E+03,-7031,2044,-2883,953,-860,477,1,7,11
1.02E+03,-7027,2009,-2833,1140,-785,553,1,7,11
1.03E+03,-7008,1991,-2546,1071,-487,156,1,7,11
1.05E+03,-6980,1985,-2505,712,-435,273,1,7,11
1.06E+03,-6977,1983,-2484,426,-588,109,1,7,11
1.06E+03,-7027,1984,-2458,234,-240,40,1,7,11
1.04E+03,-6807,2003,-2464,329,-230,32,1,7,11
9.88E+02,-6792,2001,-2463,-87,-206,90,1,7,11
9.36E+02,-6815,1981,-2467,5,-174,94,1,7,11
8.95E+02,-6850,1969,-2470,-148,-157,89,1,7,11
8.81E+02,-6892,1978,-2476,-551,-150,102,1,7,11
8.89E+02,-7181,1991,-2468,-440,-170,-113,1,7,11
9.11E+02,-7188,2036,-2456,-809,-205,-52,1,7,11
9.36E+02,-7201,2350,-2478,-731,-223,-19,1,7,11
9.58E+02,-7278,2326,-2463,-983,-234,-9,1,7,11
9.77E+02,-7107,2011,-2681,-1336,-564,268,1,7,11
9.92E+02,-7112,2028,-2675,-1012,-420,323,1,7,11
1.00E+03,-7088,2310,-2660,-972,-474,131,1,7,11
1.01E+03,-7042,2338,-2661,-936,-490,185,1,7,11
1.02E+03,-7262,2351,-2636,-932,-471,212,1,7,11
1.01E+03,-7251,2323,-2566,-916,-442,192,1,7,11
9.98E+02,-7251,2323,-2245,-1092,-405,131,1,7,11
9.72E+02,-7275,2336,-2429,-756,-632,310,1,7,11
9.46E+02,-7274,2357,-2354,-668,-393,-1,1,7,11
9.33E+02,-7241,2376,-2043,-821,-410,-39,1,7,11
9.42E+02,-7220,2404,-2022,-483,-401,-84,1,7,11
9.76E+02,-7215,2415,-1991,-439,-629,126,1,7,11
1.02E+03,-7202,2419,-1960,-425,-595,77,1,7,11
1.07E+03,-7188,2398,-1933,-442,-557,19,1,7,11
1.11E+03,-7223,2374,-2158,-464,-236,-328,1,7,11
1.13E+03,-7260,2374,-2157,-435,-175,-158,1,7,11
1.14E+03,-7274,2380,-2168,-401,-131,-158,1,7,11
1.13E+03,-7280,2360,-2155,-413,-306,-156,1,7,11
1.12E+03,-7295,2349,-2146,-390,13,-169,1,7,11
1.11E+03,-7044,2363,-2163,-605,70,-166,1,7,11
1.10E+03,-7043,2366,-1930,-603,-126,-157,1,7,11
1.09E+03,-7047,2358,-1951,-598,-60,-150,1,7,11
1.07E+03,-7050,2368,-1972,-568,260,-152,1,7,11
1.05E+03,-7069,2364,-1994,-575,311,-133,1,7,11
1.03E+03,-7051,2319,-2003,-588,336,-351,1,7,11
1.01E+03,-7054,2028,-2008,-556,362,-354,1,7,11
9.88E+02,-7060,2012,-2030,-234,364,-364,1,7,11
9.81E+02,-7074,2024,-2312,-168,347,-354,1,7,11
9.88E+02,-7066,2040,-2328,-384,318,-321,1,7,11
1.00E+03,-7084,2307,-2320,-358,300,-307,1,7,11
1.02E+03,-7103,2328,-2325,-316,265,-285,1,7,11
1.03E+03,-7114,2355,-2352,-280,-36,-264,1,7,11
1.03E+03,-7114,2374,-2368,-300,-71,19,1,7,11
1.03E+03,-7112,2384,-2358,-327,-87,44,1,7,11
1.03E+03,-7107,2397,-2331,-367,-101,68,1,7,11
1.02E+03,-7073,2387,-2318,-183,-127,110,1,7,11
1.02E+03,-7280,2322,-2029,-530,103,114,1,7,11
1.01E+03,-7271,2021,-2009,-255,100,39,1,7,11
1.01E+03,-7045,2305,-2069,-150,116,-313,1,7,11
1.00E+03,-7093,2407,-2368,-301,-100,-355,1,7,11
1.00E+03,-7117,2241,-2190,-346,-74,-323,1,7,11
9.90E+02,-7110,2429,-2411,-549,-79,32,1,7,11
9.72E+02,-7057,2033,-2332,-465,-126,118,1,7,11
9.42E+02,-7070,1946,-2001,-465,103,96,1,7,11
9.02E+02,-7135,1936,-2000,-564,70,33,1,7,11
8.63E+02,-7165,1926,-2015,-179,0,22,1,7,11
8.37E+02,-7423,1920,-2031,-370,-348,86,1,7,11
8.34E+02,-7150,1937,-2031,-320,-149,-99,1,7,11
8.48E+02,-7453,1983,-2004,-273,-136,-50,1,7,11
8.72E+02,-7473,2320,-1964,34,-132,318,1,7,11
8.99E+02,-7455,2410,-1945,82,-167,193,1,7,11
9.23E+02,-7127,2221,-1947,20,-202,593,1,7,11
9.37E+02,-7295,2240,-1934,-299,-202,423,1,7,11
9.40E+02,-7246,2224,-2139,-192,-364,393,1,7,11
9.26E+02,-7265,2235,-2126,-539,-261,562,1,7,11
9.00E+02,-7291,2284,-1940,-256,71,221,1,7,11
8.73E+02,-7070,2591,-2027,-533,127,142,1,7,11
8.55E+02,-7107,2633,-2325,-600,-112,344,1,7,11
8.51E+02,-7427,2630,-2321,-444,103,319,1,7,11
8.60E+02,-7474,2570,-2033,-497,-266,378,1,7,11
8.77E+02,-7507,2270,-1990,-440,-146,148,1,7,11
9.00E+02,-7310,2566,-1978,-243,-558,156,1,7,11
9.26E+02,-7550,2632,-2019,-310,-781,249,1,7,11
9.54E+02,-7483,2683,-2331,39,-718,584,1,7,11
9.81E+02,-7436,2434,-2360,82,-1087,384,1,7,11
1.01E+03,-7454,2453,-2326,-86,-1096,402,1,7,11
1.02E+03,-7307,2511,-2026,338,-1086,452,1,7,11
1.03E+03,-7378,2848,-2036,563,-1127,893,1,7,11
1.01E+03,-7551,2926,-2418,780,-952,918,1,7,11
9.72E+02,-7157,2733,-2608,660,-910,1362,1,7,11
9.12E+02,-7501,2804,-2460,719,-654,1315,1,7,11
8.41E+02,-7607,3002,-2495,1125,-624,1010,1,7,11
7.68E+02,-8017,3307,-2551,927,-404,1455,1,7,11
7.06E+02,-7691,3689,-2501,506,-679,2215,1,7,11
6.67E+02,-7051,3420,-2395,-282,-933,2891,1,7,11
6.52E+02,-6851,2874,-1883,-823,-1213,2873,1,7,11
6.55E+02,-7035,2415,-1258,-408,-1827,2584,1,7,11
6.66E+02,-6967,2013,-1386,-5,-1979,1978,1,7,11
6.78E+02,-6535,2336,-1339,871,-2576,1894,1,7,11
6.88E+02,-6727,2424,-994,996,-2443,1536,1,7,11
6.96E+02,-6634,2194,-1124,1226,-2640,995,1,7,11
7.03E+02,-7050,2185,-1050,1463,-2569,956,1,7,11
7.11E+02,-7431,2224,-1039,2050,-2601,1187,1,7,11
7.24E+02,-7498,2608,-1084,2420,-2659,1628,1,7,11
7.44E+02,-7552,2839,-898,2513,-2453,2165,1,7,11
7.61E+02,-7376,3093,-969,2707,-2464,2423,1,7,11
7.67E+02,-7405,3062,-1284,2706,-2493,2458,1,7,11
7.53E+02,-7311,3258,-1332,2554,-2819,2749,1,7,11
7.28E+02,-7165,3468,-1371,2436,-2842,3154,1,7,11
7.07E+02,-7291,3949,-1326,2271,-2845,3197,1,7,11
6.99E+02,-6908,4205,-992,2350,-2849,2964,1,7,11
7.00E+02,-6623,4091,-1109,1717,-2934,3021,1,7,11
7.02E+02,-6505,4379,-661,1553,-2932,2945,1,7,11
7.01E+02,-6156,4380,-446,976,-2524,2697,1,7,11
6.97E+02,-5958,4372,-517,732,-2187,2291,1,7,11
6.94E+02,-5923,4363,-317,844,-1773,2173,1,7,11
6.91E+02,-5909,4367,105,843,-1638,1889,1,7,11
6.88E+02,-6011,4416,-93,724,-973,1567,1,7,11
6.87E+02,-6245,4252,53,898,-746,1313,1,7,11
6.86E+02,-6065,4259,-338,1035,-207,967,1,7,11
6.86E+02,-6134,4288,-245,1400,114,1093,1,7,11
6.86E+02,-6344,4614,-397,1228,193,891,1,7,11
6.86E+02,-6743,4651,-783,1231,388,830,1,7,11
6.85E+02,-6562,4338,-878,1392,495,486,1,7,11
6.85E+02,-6919,4475,-669,1336,850,561,1,7,11
6.83E+02,-6796,4435,-721,1399,662,362,1,7,11
6.80E+02,-7170,4400,-742,1374,878,-56,1,7,11
6.74E+02,-7170,3997,-715,1337,495,-27,1,7,11
6.66E+02,-6850,4137,-706,1229,385,-12,1,7,11
6.56E+02,-6790,4138,-1026,1452,565,281,1,7,11
6.48E+02,-7001,4148,-1066,1803,519,321,1,7,11
6.47E+02,-6445,4656,-1429,1639,151,-117,1,7,11
6.53E+02,-6369,4743,-1564,-2273,-1403,-3923,1,7,11
6.63E+02,-6929,4414,-1147,-5654,-2447,-6521,1,7,11
6.76E+02,-7212,3875,-463,-7389,-2349,-6563,1,7,11
6.91E+02,-7155,2902,-328,-7092,-2226,-6649,1,7,11
7.05E+02,-7332,2523,113,-4910,-3382,-6483,1,7,11
7.19E+02,-7528,2752,70,-2561,-3325,-4546,1,7,11
7.29E+02,-7188,2728,4,-700,-2433,-2871,1,7,11
7.33E+02,-7179,3442,277,121,-1144,-1698,1,7,11
7.34E+02,-7582,3453,192,273,-1027,-1819,1,7,11
7.38E+02,-7686,3358,176,-75,-2409,-1303,1,7,11
7.52E+02,-7041,3387,137,-212,-3700,-718,1,7,11
7.73E+02,-7097,3357,196,-1344,-2649,-161,1,7,11
7.99E+02,-7262,3176,558,-1594,-1053,996,1,7,11
8.22E+02,-6836,3081,412,-1059,950,2774,1,7,11
8.39E+02,-6574,3356,86,-1039,1491,2103,1,7,11
8.51E+02,-7277,3222,250,-2177,1697,410,1,7,11
8.59E+02,-7399,3009,470,-2303,1238,-212,1,7,11
8.64E+02,-7407,2788,583,-1819,780,-1101,1,7,11
8.66E+02,-7299,3138,520,-1060,187,-1023,1,7,11
8.65E+02,-7418,3170,385,58,-60,-947,1,7,11
8.62E+02,-7573,2977,598,1329,-156,-657,1,7,11
8.57E+02,-7572,3058,152,2218,-44,213,1,7,11
8.48E+02,-7374,3411,-99,3070,254,1533,1,7,11
8.34E+02,-7484,3425,74,3676,870,2179,1,7,11
8.17E+02,-7429,3525,64,3439,-56,1322,1,7,11
7.99E+02,-7157,3571,75,2724,-284,1038,1,7,11
7.87E+02,-7443,3519,82,2689,131,1909,1,7,11
7.85E+02,-7307,3486,-49,2714,427,2790,1,7,11
7.91E+02,-7707,3323,-102,2693,301,3697,1,7,11
8.03E+02,-7354,3436,57,3637,-900,3304,1,7,11
8.16E+02,-7083,3658,0,4898,-2237,2370,1,7,11
8.28E+02,-6889,3936,-398,5957,-3721,1587,1,7,11
8.37E+02,-6828,3947,-390,5984,-5922,1579,1,7,11
8.41E+02,-7020,3996,-550,5041,-5546,439,1,7,11
8.38E+02,-6999,4730,-581,3177,-4082,-535,1,7,11
8.31E+02,-6883,4660,-361,696,-2040,-480,1,7,11
8.21E+02,-6893,3829,111,-1083,115,-1066,1,7,11
8.11E+02,-7179,4012,-294,-2106,2150,-1930,1,7,11
8.05E+02,-7453,4400,56,-3359,3053,-2975,1,7,11
8.08E+02,-7368,3728,-15,-4249,3293,-3466,1,7,11
8.26E+02,-7404,3317,-29,-4969,3141,-4086,1,7,11
8.54E+02,-7612,3302,171,-4483,3158,-3904,1,7,11
8.85E+02,-7405,3280,-107,-4067,3128,-2960,1,7,11
9.11E+02,-7760,3183,296,-3950,3635,-2837,1,7,11
9.28E+02,-7703,2756,-52,-3101,3987,-3147,1,7,11
9.35E+02,-7692,2894,101,-1983,3756,-3542,1,7,11
9.36E+02,-7571,2779,-275,-1599,2786,-4002,1,7,11
9.32E+02,-7656,3100,-566,-2316,1829,-3427,1,7,11
9.27E+02,-7750,2735,-396,-2749,1601,-2574,1,7,11
9.20E+02,-7734,2506,-215,-3331,1395,-1661,1,7,11
9.16E+02,-7340,2525,-196,-3166,971,-160,1,7,11
9.16E+02,-7148,2686,-240,-2871,1288,232,1,7,11
9.18E+02,-7453,2263,-517,-2424,1198,336,1,7,11
9.19E+02,-7351,2580,-528,-1426,1007,-68,1,7,11
9.13E+02,-7411,2615,-557,-641,1065,561,1,7,11
8.96E+02,-7385,2432,-629,3,892,921,1,7,11
8.71E+02,-7166,2940,-500,-57,665,1883,1,7,11
8.44E+02,-7248,2783,-794,-614,1361,1781,1,7,11
8.20E+02,-7290,2874,-457,-911,1374,935,1,7,11
8.03E+02,-7479,2470,-558,-1066,318,-573,1,7,11
7.88E+02,-7731,2441,-139,-176,-1152,-1695,1,7,11
7.73E+02,-7769,2818,-162,545,-1413,-2174,1,7,11
7.53E+02,-7786,2557,-198,807,-1593,-1503,1,7,11
7.21E+02,-7756,2880,-246,494,-1352,-1375,1,7,11
6.92E+02,-7983,2803,-522,356,-719,-1311,1,7,11
6.87E+02,-8128,2766,-543,-582,-1152,-868,1,7,11
6.96E+02,-7489,2205,-325,-1670,-2138,73,1,7,11
7.11E+02,-7978,2190,61,-2806,-1499,40,1,7,11
7.26E+02,-7763,2501,-263,-2069,-1816,335,1,7,11
7.41E+02,-7578,2768,3,-1631,-1469,369,1,7,11
7.54E+02,-7301,2910,99,-1431,-1775,294,1,7,11
7.69E+02,-7503,2833,-52,-1541,-1417,-321,1,7,11
7.91E+02,-7763,2899,-12,-1191,-1234,-434,1,7,11
8.24E+02,-7773,2695,275,-1585,-1499,-842,1,7,11
8.69E+02,-7779,2746,355,-1530,-1728,-1032,1,7,11
9.15E+02,-7736,2778,232,-1731,-2143,-946,1,7,11
9.53E+02,-7698,2758,388,-2173,-2110,-1294,1,7,11
9.81E+02,-7403,2923,800,-2010,-1692,-1335,1,7,11
9.97E+02,-7318,2840,641,-2165,-1513,-1169,1,7,11
1.00E+03,-7309,2535,703,-1952,-1340,-1591,1,7,11
1.00E+03,-7387,2487,1031,-2114,-728,-1492,1,7,11
9.92E+02,-7392,2862,752,-1916,-474,-1896,1,7,11
9.81E+02,-7736,2935,749,-1734,-185,-1775,1,7,11
9.74E+02,-7566,2887,1057,-1977,77,-2091,1,7,11
9.75E+02,-7801,2875,1064,-2426,273,-2139,1,7,11
9.81E+02,-7795,2910,754,-2641,186,-2029,1,7,11
9.87E+02,-7612,2895,733,-3091,636,-2247,1,7,11
9.86E+02,-7960,2442,1048,-3496,797,-2464,1,7,11
9.72E+02,-7942,2365,904,-4076,885,-2851,1,7,11
9.48E+02,-7775,1789,938,-4656,888,-2920,1,7,11
9.19E+02,-7547,1511,914,-4873,735,-2810,1,7,11
8.90E+02,-7382,1386,999,-4859,1016,-3417,1,7,11
8.67E+02,-7595,685,1401,-5233,1180,-3475,1,7,11
8.48E+02,-8064,554,1536,-4811,1219,-3910,1,7,11
8.34E+02,-7901,174,1246,-4308,1189,-3902,1,7,11
8.25E+02,-8245,193,1198,-4097,1179,-3492,1,7,11
8.22E+02,-8317,183,1360,-3539,1163,-3380,1,7,11
8.26E+02,-8278,155,984,-3296,1161,-2899,1,7,11
8.40E+02,-8258,328,1139,-3389,1237,-2211,1,7,11
8.62E+02,-8269,-28,1009,-2957,1605,-2073,1,7,11
8.91E+02,-8216,-45,871,-2943,1445,-1471,1,7,11
9.23E+02,-7869,314,509,-2437,1860,-1372,1,7,11
9.57E+02,-7882,338,469,-2246,1675,-939,1,7,11
9.89E+02,-7896,353,416,-2382,1680,-1047,1,7,11
1.02E+03,-7860,146,594,-1972,1894,-674,1,7,11
1.03E+03,-7816,189,514,-2105,1851,-878,1,7,11
1.04E+03,-8060,227,185,-1740,1841,-879,1,7,11
1.04E+03,-7858,246,144,-1668,1844,-655,1,7,11
1.02E+03,-7901,230,141,-1848,1794,-641,1,7,11
9.93E+02,-7883,206,370,-1451,1442,-864,1,7,11
9.57E+02,-7876,215,323,-1540,1621,-854,1,7,11
9.19E+02,-7879,197,263,-1183,1568,-872,1,7,11
8.89E+02,-7919,383,-14,-1369,1558,-882,1,7,11
8.77E+02,-8255,335,-25,-996,1560,-887,1,7,11
8.88E+02,-8270,340,-93,-1088,1260,-857,1,7,11
9.12E+02,-8077,368,77,-702,1266,-839,1,7,11
9.41E+02,-8181,178,-267,-848,1275,-771,1,7,11
9.63E+02,-8511,527,-345,-774,1245,-388,1,7,11
9.75E+02,-8182,440,-513,-473,1399,-143,1,7,11
9.74E+02,-8117,499,-616,-781,1280,-320,1,7,11
9.62E+02,-8111,482,-411,-713,1002,-333,1,7,11
9.38E+02,-8105,428,-428,-1015,944,-147,1,7,11
9.07E+02,-8093,631,-421,-1160,1104,-514,1,7,11
8.81E+02,-8077,579,-448,-1254,738,-613,1,7,11
8.69E+02,-8289,555,-500,-1561,893,-420,1,7,11
8.74E+02,-8229,525,-814,-1629,806,-449,1,7,11
8.88E+02,-7931,216,-820,-1429,486,-439,1,7,11
8.98E+02,-7923,156,-787,-1454,449,-434,1,7,11
8.91E+02,-8260,327,-490,-1425,427,-437,1,7,11
8.70E+02,-8112,-7,-460,-1586,610,-395,1,7,11
8.52E+02,-8164,-78,-450,-1173,232,-565,1,7,11
8.53E+02,-8159,-112,-434,-973,362,-198,1,7,11
8.83E+02,-8089,-107,-420,-1029,-23,-361,1,7,11
9.31E+02,-8232,-84,-436,-832,-127,-286,1,7,11
9.84E+02,-7902,-51,-448,-433,115,-270,1,7,11
1.03E+03,-7879,-12,-469,-604,-115,-273,1,7,11
1.05E+03,-7846,286,-497,-551,-79,4,1,7,11
1.06E+03,-7823,317,-502,-529,-18,5,1,7,11
1.04E+03,-8064,356,-791,-546,321,12,1,7,11
1.02E+03,-7810,369,-818,-590,152,27,1,7,11
9.77E+02,-7811,381,-831,-388,229,36,1,7,11
9.35E+02,-7841,349,-822,-472,559,36,1,7,11
9.02E+02,-7877,330,-808,-769,581,52,1,7,11
8.88E+02,-7872,314,-801,-788,536,78,1,7,11
8.93E+02,-7834,333,-826,-776,231,102,1,7,11
9.08E+02,-7859,332,-844,-781,254,60,1,7,11
9.22E+02,-7932,347,-861,-495,546,29,1,7,11
9.26E+02,-8213,351,-877,-496,525,44,1,7,11
9.20E+02,-8217,330,-853,-778,229,66,1,7,11
9.13E+02,-8206,298,-837,-509,183,81,1,7,11
9.13E+02,-7928,276,-830,-469,132,93,1,7,11
9.24E+02,-7923,-17,-818,-440,366,94,1,7,11
9.42E+02,-7912,-27,-826,-636,353,109,1,7,11
9.62E+02,-7872,-14,-846,-582,335,125,1,7,11
9.80E+02,-7849,-4,-875,-546,347,121,1,7,11
9.91E+02,-7828,277,-653,-245,382,-126,1,7,11
9.98E+02,-7809,305,-657,-218,193,-117,1,7,11
1.00E+03,-7844,338,-660,-193,517,-120,1,7,11
1.01E+03,-7866,326,-887,-203,522,-88,1,7,11
1.02E+03,-7934,308,-831,-249,229,-86,1,7,11
1.03E+03,-8280,295,-785,-521,145,-68,1,7,11
1.02E+03,-8316,288,-508,-513,281,-18,1,7,11
1.01E+03,-8312,304,-785,-232,-84,271,1,7,11
9.72E+02,-8255,328,-813,-224,88,298,1,7,11
9.31E+02,-7913,360,-821,-235,61,290,1,7,11
8.96E+02,-7923,372,-804,-240,102,-2,1,7,11
8.78E+02,-8215,379,-782,-233,109,264,1,7,11
8.79E+02,-8231,135,-786,-215,89,301,1,7,11
8.92E+02,-8232,160,-801,-180,79,323,1,7,11
9.10E+02,-8219,198,-825,-158,73,344,1,7,11
9.25E+02,-7892,227,-857,-163,48,137,1,7,11
9.36E+02,-7876,211,-845,-158,68,139,1,7,11
9.45E+02,-7862,230,-852,-361,87,143,1,7,11
9.51E+02,-7823,254,-864,-323,83,138,1,7,11
9.56E+02,-8040,513,-875,-325,85,366,1,7,11
9.59E+02,-8047,231,-850,-333,94,314,1,7,11
9.62E+02,-7839,216,-821,-303,96,264,1,7,11
9.63E+02,-7909,227,-791,17,86,-20,1,7,11
9.64E+02,-8194,518,-786,78,52,-13,1,7,11
9.63E+02,-7925,564,-788,109,11,262,1,7,11
9.62E+02,-7901,609,-799,117,-263,271,1,7,11
9.60E+02,-7881,385,-799,91,-264,263,1,7,11
9.57E+02,-7856,395,-792,39,-257,-3,1,7,11
9.55E+02,-7818,639,-804,-305,2,-48,1,7,11
9.52E+02,-8029,395,-844,-349,15,-95,1,7,11
9.49E+02,-8021,400,-817,-171,44,77,1,7,11
9.46E+02,-7852,639,-777,-253,93,5,1,7,11
9.44E+02,-8224,620,-492,-577,96,-273,1,7,11
9.42E+02,-8257,603,-512,-601,33,41,1,7,11
9.40E+02,-7928,582,-788,-609,-307,100,1,7,11
9.37E+02,-7847,601,-791,-547,-358,65,1,7,11
9.34E+02,-7877,614,-775,-243,-308,8,1,7,11
9.34E+02,-7917,606,-505,-255,-308,24,1,7,11
9.42E+02,-7928,597,-488,-520,-347,61,1,7,11
9.64E+02,-7908,584,-476,-530,-143,76,1,7,11
9.98E+02,-7879,544,-446,-530,-156,60,1,7,11
1.04E+03,-7888,519,-398,-243,-374,20,1,7,11
1.06E+03,-8197,516,-604,-178,-320,-260,1,7,11
1.07E+03,-8216,545,-588,-353,-319,35,1,7,11
1.06E+03,-7922,569,-594,-312,-337,88,1,7,11
1.02E+03,-7877,562,-597,-313,-324,107,1,7,11
9.71E+02,-7832,542,-596,-320,-293,94,1,7,11
9.20E+02,-8048,571,-614,-295,13,46,1,7,11
8.77E+02,-7812,609,-628,-296,102,-265,1,7,11
8.43E+02,-7859,636,-633,-312,-109,-279,1,7,11
8.20E+02,-7870,390,-399,-345,-126,7,1,7,11
8.09E+02,-7865,608,-402,-143,106,38,1,7,11
8.10E+02,-7899,538,-390,-197,99,36,1,7,11
8.20E+02,-7932,221,-629,-188,90,26,1,7,11
8.38E+02,-8210,244,-627,-371,76,-262,1,7,11
8.60E+02,-8214,558,-639,-330,47,2,1,7,11
8.85E+02,-7910,576,-393,-341,15,61,1,7,11
9.09E+02,-7873,575,-415,-337,30,89,1,7,11
9.29E+02,-7872,572,-439,-326,62,94,1,7,11
9.47E+02,-7889,583,-413,1,105,-10,1,7,11
9.61E+02,-7950,579,-632,-265,123,-289,1,7,11
9.74E+02,-8242,595,-607,4,125,-313,1,7,11
9.85E+02,-8258,599,-584,14,104,-331,1,7,11
9.95E+02,-8234,600,-583,6,42,-336,1,7,11
1.00E+03,-8208,564,-576,-274,29,-371,1,7,11
1.01E+03,-8224,234,-541,-364,24,-170,1,7,11
1.01E+03,-8222,172,-236,-130,-258,-224,1,7,11
1.01E+03,-7900,208,-240,-315,-286,-255,1,7,11
1.00E+03,-7890,245,-253,-300,-261,-534,1,7,11
9.94E+02,-7889,243,-255,-330,19,-234,1,7,11
9.78E+02,-7892,233,-248,-358,59,-172,1,7,11
9.58E+02,-7898,235,-240,-367,87,-351,1,7,11
9.35E+02,-7869,206,-247,-381,87,-259,1,7,11
9.17E+02,-7830,188,-252,-376,114,67,1,7,11
9.08E+02,-7823,191,-522,-363,-84,72,1,7,11
9.10E+02,-7851,192,-529,-348,-20,76,1,7,11
9.18E+02,-7877,198,-541,-331,277,90,1,7,11
9.30E+02,-7914,184,-546,-319,302,114,1,7,11
9.42E+02,-8202,175,-560,-270,323,-108,1,7,11
9.52E+02,-8249,175,-569,61,345,-84,1,7,11
9.61E+02,-8262,184,-584,-96,343,-31,1,7,11
9.68E+02,-8230,185,-618,269,330,289,1,7,11
9.73E+02,-7916,183,-394,382,332,330,1,7,11
9.77E+02,-7881,167,-410,244,370,334,1,7,11
9.77E+02,-7898,153,-399,639,158,310,1,7,11
9.74E+02,-7909,163,-413,814,170,305,1,7,11
9.68E+02,-7898,178,-435,738,162,321,1,7,11
9.58E+02,-7878,175,-469,1137,143,341,1,7,11
9.46E+02,-7844,141,-488,1000,379,350,1,7,11
9.34E+02,-7829,360,-484,1377,373,312,1,7,11
9.24E+02,-7910,329,-436,1251,132,262,1,7,11
9.18E+02,-8256,334,-408,1409,347,-8,1,7,11
9.18E+02,-8291,128,-409,1819,-22,283,1,7,11
9.28E+02,-8247,193,-435,1893,111,330,1,7,11
9.47E+02,-8212,215,-443,1879,40,342,1,7,11
9.71E+02,-7931,231,-440,1840,7,325,1,7,11
9.98E+02,-8209,518,-421,1529,0,280,1,7,11
1.02E+03,-8241,529,-393,1449,-291,-8,1,7,11
1.04E+03,-8238,243,-635,1616,-352,-13,1,7,11
1.06E+03,-8203,243,-392,1560,-144,-28,1,7,11
1.07E+03,-7922,242,-390,1255,-142,-65,1,7,11
1.08E+03,-8193,221,-632,1206,-370,-95,1,7,11
1.09E+03,-8194,217,-387,1191,-346,-86,1,7,11
1.09E+03,-8183,232,-413,1201,-324,-72,1,7,11
1.09E+03,-7886,255,-437,1210,-307,-48,1,7,11
1.09E+03,-7853,521,-457,1204,-280,-59,1,7,11
1.10E+03,-7856,524,-458,1183,18,-94,1,7,11
1.10E+03,-7866,244,-450,1392,52,-127,1,7,11
1.09E+03,-7871,233,-441,1359,58,82,1,7,11
1.07E+03,-7891,239,-434,1357,54,40,1,7,11
1.04E+03,-8223,523,-445,1328,26,33,1,7,11
9.98E+02,-8194,535,-453,1023,-273,78,1,7,11
9.53E+02,-7893,534,-463,941,-297,97,1,7,11
9.17E+02,-7875,516,-445,1099,-280,83,1,7,11
9.02E+02,-7922,251,-420,767,11,52,1,7,11
9.05E+02,-8250,235,-401,703,27,44,1,7,11
9.15E+02,-8288,218,-634,644,6,66,1,7,11
9.25E+02,-8285,197,-611,841,-284,102,1,7,11
9.29E+02,-8249,165,-590,801,-303,-114,1,7,11
9.32E+02,-8220,139,-568,785,-294,-94,1,7,11
9.41E+02,-8195,379,-544,774,-284,-87,1,7,11
9.64E+02,-7919,371,-522,770,-267,-101,1,7,11
1.00E+03,-7925,361,-242,501,4,123,1,7,11
1.04E+03,-7930,362,-216,470,3,87,1,7,11
1.08E+03,-7932,367,-191,440,-264,48,1,7,11
1.09E+03,-7906,375,-174,396,-284,10,1,7,11
1.08E+03,-7893,133,-166,584,-285,-291,1,7,11
1.04E+03,-7889,365,-159,167,-285,-329,1,7,11
9.85E+02,-7859,327,-142,324,-279,-342,1,7,11
9.33E+02,-7859,301,-140,262,24,-367,1,7,11
8.89E+02,-7854,292,-159,-40,68,-378,1,7,11
8.57E+02,-7857,278,-171,-106,120,-370,1,7,11
8.37E+02,-7848,267,-188,84,-51,-355,1,7,11
8.29E+02,-7883,268,-209,26,293,-362,1,7,11
8.33E+02,-7933,280,-229,-262,353,-342,1,7,11
8.44E+02,-7920,298,-520,-312,370,-283,1,7,11
8.61E+02,-7876,294,-548,-376,138,19,1,7,11
8.79E+02,-7869,259,-566,-185,202,13,1,7,11
