timestamp,ax,ay,az,gx,gy,gz,Label1,Label2,Label3
1.04E+03,-4400,5899,-2705,-324,-94,-343,1,7,11
1.05E+03,-4370,5620,-2709,-304,111,-278,1,7,11
1.05E+03,-4070,5617,-2739,-275,100,2,1,7,11
1.04E+03,-4043,5610,-2760,-270,-124,-262,1,7,11
1.01E+03,-4065,5600,-2762,-278,-67,-279,1,7,11
9.77E+02,-4089,5599,-2754,-274,-32,-258,1,7,11
9.40E+02,-4075,5593,-2757,-276,-24,40,1,7,11
9.12E+02,-4074,5594,-2754,-266,-14,53,1,7,11
9.00E+02,-4047,5596,-2773,-262,-13,86,1,7,11
9.00E+02,-4029,5609,-2772,-258,266,95,1,7,11
9.11E+02,-4028,5615,-2776,2,291,107,1,7,11
9.28E+02,-4039,5620,-2756,-262,306,96,1,7,11
9.49E+02,-4071,5620,-2737,-257,296,88,1,7,11
9.71E+02,-4054,5600,-2753,18,-5,106,1,7,11
9.91E+02,-4035,5590,-2780,44,-23,106,1,7,11
1.01E+03,-4008,5600,-3086,82,-1,112,1,7,11
1.02E+03,-3985,5601,-3131,84,297,118,1,7,11
1.03E+03,-3984,5600,-3147,83,355,107,1,7,11
1.03E+03,-4025,5611,-3153,103,147,75,1,7,11
1.04E+03,-4083,5924,-3158,-121,147,67,1,7,11
1.05E+03,-4371,5950,-3152,-113,346,97,1,7,11
1.05E+03,-4365,5952,-3139,121,270,-102,1,7,11
1.05E+03,-4074,5928,-3121,92,-58,-71,1,7,11
1.03E+03,-4051,5889,-3087,57,-121,-66,1,7,11
9.98E+02,-4031,5586,-3074,33,125,-66,1,7,11
9.60E+02,-3984,5559,-3084,23,-113,-70,1,7,11
9.24E+02,-4190,5561,-3117,29,-52,-97,1,7,11
8.99E+02,-4180,5588,-3137,20,303,100,1,7,11
8.87E+02,-4215,5618,-3149,-257,381,57,1,7,11
8.86E+02,-3990,5902,-3139,-285,155,25,1,7,11
8.93E+02,-4021,5930,-3132,-290,141,-262,1,7,11
9.04E+02,-4032,5953,-3137,-293,348,-274,1,7,11
9.19E+02,-4045,5966,-3133,-294,295,-288,1,7,11
9.37E+02,-4042,5957,-3134,-293,-19,-283,1,7,11
9.56E+02,-4023,5939,-3137,-296,-70,-278,1,7,11
9.75E+02,-3977,5918,-3149,-307,-101,-275,1,7,11
9.91E+02,-4223,5626,-3165,-341,-86,-307,1,7,11
1.00E+03,-3991,5586,-3185,-131,261,-343,1,7,11
1.01E+03,-4012,5605,-3183,-383,287,-359,1,7,11
1.01E+03,-4013,5896,-3197,-381,292,-369,1,7,11
9.97E+02,-4008,5927,-2955,-139,292,-134,1,7,11
9.84E+02,-4004,5946,-2969,-167,292,-181,1,7,11
9.68E+02,-4018,5978,-2973,-195,292,-251,1,7,11
9.52E+02,-4048,5988,-2961,-250,271,-581,1,7,11
9.41E+02,-4354,5965,-3198,-569,-25,-638,1,7,11
9.37E+02,-4386,5926,-3176,-601,-96,-408,1,7,11
9.45E+02,-4374,5629,-3155,-609,84,-413,1,7,11
9.63E+02,-4365,5576,-3132,-592,41,-423,1,7,11
9.87E+02,-4361,5532,-3120,-559,21,-439,1,7,11
1.01E+03,-4381,5749,-3102,-518,18,-467,1,7,11
1.03E+03,-4401,5722,-3107,-195,9,-468,1,7,11
1.04E+03,-4435,5708,-3118,-141,-262,-463,1,7,11
1.05E+03,-4435,5697,-3136,-346,-295,-408,1,7,11
1.04E+03,-4400,5687,-3164,-314,-322,-617,1,7,11
1.03E+03,-4380,5683,-3175,-301,-310,-611,1,7,11
1.01E+03,-4383,5706,-3190,-300,-283,-621,1,7,11
9.93E+02,-4456,5726,-3185,-326,-267,-385,1,7,11
9.71E+02,-4469,5741,-3192,-344,-287,-629,1,7,11
9.52E+02,-4293,5512,-3180,-349,-306,-459,1,7,11
9.38E+02,-4609,5563,-3183,-342,-345,-496,1,7,11
9.30E+02,-4651,5611,-3168,-318,-200,-817,1,7,11
9.29E+02,-4720,5893,-3124,-317,-542,-653,1,7,11
9.36E+02,-4505,5631,-2816,-317,-603,-767,1,7,11
9.50E+02,-4588,5623,-2762,-305,-568,-925,1,7,11
9.71E+02,-4922,5590,-2730,-259,-1047,-1291,1,7,11
9.96E+02,-4934,5514,-2690,49,-1301,-1350,1,7,11
1.02E+03,-4918,5656,-2868,53,-1564,-1157,1,7,11
1.05E+03,-4593,5248,-2527,77,-1509,-1216,1,7,11
1.06E+03,-4885,5393,-2446,271,-1894,-1642,1,7,11
1.06E+03,-4989,5118,-2490,547,-1765,-1501,1,7,11
1.04E+03,-4781,5101,-2879,490,-1928,-1503,1,7,11
9.89E+02,-4783,5107,-2803,874,-2307,-1472,1,7,11
9.35E+02,-4954,5103,-2960,855,-2342,-1458,1,7,11
8.88E+02,-4744,5084,-2969,454,-1954,-1877,1,7,11
8.61E+02,-5229,5058,-3130,577,-2058,-1775,1,7,11
8.52E+02,-5483,5045,-2754,236,-1766,-1736,1,7,11
8.58E+02,-5635,5030,-2905,165,-2107,-1531,1,7,11
8.75E+02,-5634,5002,-2827,334,-1967,-1271,1,7,11
9.00E+02,-5684,5200,-2477,-52,-1988,-1162,1,7,11
9.28E+02,-5512,5135,-2611,102,-2007,-1332,1,7,11
9.58E+02,-5583,4814,-2236,34,-2039,-999,1,7,11
9.85E+02,-5593,4757,-2412,23,-2343,-1131,1,7,11
1.01E+03,-5550,4977,-2328,23,-2346,-1028,1,7,11
1.03E+03,-5560,4916,-2037,3,-2028,-738,1,7,11
1.05E+03,-5523,4587,-1991,26,-1954,-663,1,7,11
1.06E+03,-5514,4527,-1946,83,-2095,-672,1,7,11
1.07E+03,-5760,4508,-2157,-58,-1719,-679,1,7,11
1.08E+03,-5536,4560,-2144,310,-1836,-753,1,7,11
1.08E+03,-5618,4878,-2134,353,-1473,-1083,1,7,11
1.07E+03,-5947,4933,-2119,340,-1662,-1123,1,7,11
1.06E+03,-5974,4959,-2062,264,-1634,-1128,1,7,11
1.05E+03,-5999,4921,-1696,-103,-1611,-1144,1,7,11
1.03E+03,-6194,4733,-1649,-43,-1538,-1091,1,7,11
1.02E+03,-6413,4360,-1268,0,-835,-992,1,7,11
9.96E+02,-6406,4011,-1271,42,-846,-928,1,7,11
9.80E+02,-6405,4182,-1275,88,-811,-1151,1,7,11
9.69E+02,-6408,4160,-1543,-70,-482,-1108,1,7,11
9.68E+02,-6450,4196,-1277,-1,-386,-1078,1,7,11
9.76E+02,-6274,3979,-1249,303,-563,-739,1,7,11
9.91E+02,-6287,4045,-1254,338,-516,-844,1,7,11
1.01E+03,-6330,4364,-1245,328,-202,-481,1,7,11
1.02E+03,-6318,4410,-1259,299,-150,-603,1,7,11
1.03E+03,-6287,4437,-1278,-21,-318,-538,1,7,11
1.03E+03,-6273,4436,-1271,-104,57,-530,1,7,11
1.03E+03,-6526,4425,-1265,64,-58,-577,1,7,11
1.03E+03,-6335,4405,-1253,0,348,-403,1,7,11
1.04E+03,-6361,4404,-1269,-297,191,-415,1,7,11
1.04E+03,-6390,4402,-1566,-353,540,-448,1,7,11
1.04E+03,-6740,4355,-1585,-175,616,-481,1,7,11
1.03E+03,-6761,4017,-1590,-238,625,-425,1,7,11
1.02E+03,-6737,4136,-1597,-235,630,-392,1,7,11
1.00E+03,-6728,4111,-1621,-152,407,-386,1,7,11
9.83E+02,-6722,3838,-1653,-333,442,-638,1,7,11
9.68E+02,-6664,3839,-1433,-276,461,-628,1,7,11
9.58E+02,-6376,3830,-1457,-286,511,-440,1,7,11
9.55E+02,-6371,3794,-1445,-332,796,-493,1,7,11
9.57E+02,-6330,3757,-1445,-360,823,-802,1,7,11
9.64E+02,-6399,3751,-1439,-352,881,-657,1,7,11
9.76E+02,-6698,3739,-1521,-344,893,-888,1,7,11
9.92E+02,-6702,3719,-1838,-347,645,-835,1,7,11
1.01E+03,-6713,3925,-1884,-372,657,-512,1,7,11
1.03E+03,-6741,3871,-1669,-377,668,-452,1,7,11
1.04E+03,-6758,3846,-1712,-348,661,-637,1,7,11
1.06E+03,-6777,3852,-1765,-312,655,-575,1,7,11
1.07E+03,-6774,3864,-2066,-310,888,-230,1,7,11
1.07E+03,-6780,3868,-2079,-346,869,-171,1,7,11
1.07E+03,-6555,3849,-2080,-362,834,-362,1,7,11
1.07E+03,-6544,3848,-2092,-334,771,-275,1,7,11
1.06E+03,-6544,3851,-2092,-289,451,41,1,7,11
1.05E+03,-6743,3902,-2117,24,639,109,1,7,11
1.04E+03,-6734,3958,-2130,15,596,100,1,7,11
1.04E+03,-6778,3749,-2122,-269,550,79,1,7,11
1.04E+03,-6783,3782,-2118,-305,215,103,1,7,11
1.05E+03,-6759,3773,-2095,-350,146,-119,1,7,11
1.05E+03,-6723,3761,-2075,-348,365,-63,1,7,11
1.06E+03,-6395,3733,-2063,-334,344,-6,1,7,11
1.07E+03,-6381,3956,-2049,-314,350,-19,1,7,11
1.08E+03,-6659,3914,-2072,-270,353,-36,1,7,11
1.09E+03,-6390,3903,-2086,20,340,-32,1,7,11
1.10E+03,-6386,3891,-2136,51,354,-48,1,7,11
1.10E+03,-6354,3896,-2161,90,379,-40,1,7,11
1.10E+03,-6347,3918,-2163,86,159,-61,1,7,11
1.09E+03,-6350,3966,-2171,88,196,-83,1,7,11
1.07E+03,-6392,3760,-2166,73,207,-106,1,7,11
1.05E+03,-6697,3794,-2134,2,183,-89,1,7,11
1.02E+03,-6764,3815,-2108,-291,382,-32,1,7,11
9.91E+02,-6767,3833,-2084,-308,283,334,1,7,11
9.73E+02,-6715,3821,-2071,-333,-66,158,1,7,11
9.64E+02,-6514,3798,-2078,-330,-43,140,1,7,11
9.64E+02,-6474,3789,-2105,-335,279,298,1,7,11
9.75E+02,-6501,3808,-2143,-314,352,-80,1,7,11
9.96E+02,-6515,4113,-1951,-307,137,119,1,7,11
1.02E+03,-6285,4133,-1996,-354,166,81,1,7,11
1.05E+03,-6294,4133,-2005,-154,178,67,1,7,11
1.07E+03,-6323,4121,-1988,-199,176,28,1,7,11
1.08E+03,-6356,4109,-1944,-213,130,6,1,7,11
1.08E+03,-6379,3836,-2154,-202,313,9,1,7,11
1.08E+03,-6374,3809,-2135,-173,-32,55,1,7,11
1.08E+03,-6311,3821,-2151,-370,-86,127,1,7,11
1.08E+03,-6512,3819,-1928,-345,-73,-94,1,7,11
1.08E+03,-6481,3815,-1958,-340,-36,-72,1,7,11
1.08E+03,-6458,3789,-1962,-365,275,-111,1,7,11
1.08E+03,-6471,3781,-1968,-361,329,78,1,7,11
1.08E+03,-6480,3801,-1991,-346,377,23,1,7,11
1.07E+03,-6508,3838,-2008,-352,175,-280,1,7,11
1.04E+03,-6307,4108,-1995,-380,210,-291,1,7,11
1.02E+03,-6465,4111,-2375,-295,370,-75,1,7,11
9.98E+02,-6472,4123,-2390,-279,334,-81,1,7,11
9.80E+02,-6450,4101,-2403,-285,299,-63,1,7,11
9.69E+02,-6401,3832,-2178,-290,295,-23,1,7,11
9.65E+02,-6101,3825,-2193,-306,330,259,1,7,11
9.69E+02,-6115,3826,-2179,-329,136,-13,1,7,11
9.81E+02,-6410,4096,-2408,-350,161,-28,1,7,11
9.98E+02,-6412,4114,-2396,-343,150,-18,1,7,11
1.02E+03,-6118,4145,-2422,-321,358,272,1,7,11
1.03E+03,-6120,4177,-2432,-311,355,-1,1,7,11
1.04E+03,-6142,4177,-2423,-349,332,257,1,7,11
1.05E+03,-6426,4152,-2424,-358,283,263,1,7,11
1.05E+03,-6142,4139,-2182,-344,-30,294,1,7,11
1.06E+03,-6111,4122,-2195,-345,-42,301,1,7,11
1.07E+03,-6084,4110,-2202,-333,-8,302,1,7,11
1.07E+03,-6104,4130,-2194,-296,319,281,1,7,11
1.08E+03,-6423,4165,-2193,7,352,287,1,7,11
1.08E+03,-6433,4198,-2194,42,326,338,1,7,11
1.07E+03,-6432,4218,-2189,73,289,360,1,7,11
1.05E+03,-6424,3995,-2190,97,-18,370,1,7,11
1.03E+03,-6419,4010,-2184,96,-71,356,1,7,11
1.01E+03,-6133,4021,-2197,96,117,348,1,7,11
9.80E+02,-6092,4021,-2210,73,67,335,1,7,11
9.55E+02,-6038,4020,-2237,40,51,329,1,7,11
9.36E+02,-6240,4008,-2261,-262,90,314,1,7,11
9.27E+02,-6224,3996,-2260,-316,-88,298,1,7,11
9.30E+02,-6237,3973,-2236,-375,-19,294,1,7,11
9.45E+02,-6022,4217,-2196,-134,281,290,1,7,11
9.67E+02,-6054,3985,-2428,-341,277,295,1,7,11
9.93E+02,-6064,4031,-2421,-294,-13,301,1,7,11
1.02E+03,-6062,4061,-2393,-271,-65,314,1,7,11
1.04E+03,-6261,4073,-2401,-257,-118,353,1,7,11
1.06E+03,-6219,4072,-2426,-266,-122,363,1,7,11
1.07E+03,-5888,4059,-2205,-298,-96,380,1,7,11
1.08E+03,-5852,4019,-2256,-353,-7,317,1,7,11
1.08E+03,-6155,4023,-2295,-352,382,-28,1,7,11
1.08E+03,-6213,4071,-2594,-339,233,-59,1,7,11
1.07E+03,-6031,4374,-2600,-339,545,-70,1,7,11
1.06E+03,-6080,4416,-2590,-324,518,-27,1,7,11
1.04E+03,-6075,4457,-2583,-313,173,-12,1,7,11
1.02E+03,-6095,4229,-2298,-311,322,-66,1,7,11
1.01E+03,-6087,4239,-2282,-337,-70,-98,1,7,11
9.86E+02,-6031,4465,-2257,-129,59,-120,1,7,11
9.67E+02,-6222,4445,-2225,-183,-263,104,1,7,11
9.52E+02,-6212,4410,-2192,-524,-273,41,1,7,11
9.44E+02,-6201,4041,-2177,-604,-284,17,1,7,11
9.46E+02,-6178,4012,-2193,-618,-256,-264,1,7,11
9.57E+02,-6171,4034,-2211,-590,70,-300,1,7,11
9.74E+02,-6190,4085,-2220,-603,-90,-356,1,7,11
9.93E+02,-6270,4374,-2197,-620,-11,-164,1,7,11
1.01E+03,-6264,4425,-2206,-604,256,-156,1,7,11
1.02E+03,-6227,4439,-2200,-629,260,-192,1,7,11
1.03E+03,-6171,4442,-2426,-386,262,-241,1,7,11
1.04E+03,-5879,4224,-2397,-407,301,-611,1,7,11
1.04E+03,-6169,4250,-2362,-465,352,-474,1,7,11
1.03E+03,-6164,4268,-2352,-809,379,-790,1,7,11
1.03E+03,-6146,4271,-2343,-675,167,-882,1,7,11
1.02E+03,-5887,4268,-2356,-1050,247,-746,1,7,11
1.02E+03,-5888,4303,-2381,-909,627,-1122,1,7,11
1.02E+03,-6165,4298,-2396,-1365,500,-959,1,7,11
1.02E+03,-5859,4471,-2420,-1584,883,-1012,1,7,11
1.02E+03,-5851,4083,-2192,-1500,1073,-1376,1,7,11
1.02E+03,-5817,4187,-2229,-1855,1020,-1189,1,7,11
1.00E+03,-5806,3808,-2248,-1876,1259,-1549,1,7,11
9.84E+02,-5775,3720,-2244,-1853,1480,-1652,1,7,11
9.66E+02,-5797,3921,-2188,-1827,1715,-1840,1,7,11
9.51E+02,-5888,3890,-2375,-1468,2169,-1749,1,7,11
9.41E+02,-6203,3882,-2330,-1585,2017,-1783,1,7,11
9.37E+02,-6232,3869,-2329,-1404,2345,-1756,1,7,11
9.39E+02,-6202,3897,-2410,-936,2397,-1682,1,7,11
9.47E+02,-5873,3958,-2269,-1055,2229,-1913,1,7,11
9.61E+02,-5861,3737,-2602,-1035,2599,-1713,1,7,11
9.75E+02,-6150,3727,-2644,-1048,2477,-2065,1,7,11
9.87E+02,-6057,3725,-2687,-761,2855,-2168,1,7,11
9.94E+02,-6118,3784,-2557,-712,2864,-2088,1,7,11
9.95E+02,-6068,3797,-2929,-753,2847,-1753,1,7,11
9.94E+02,-6118,3568,-3180,-1287,2785,-2115,1,7,11
9.92E+02,-6407,3506,-2994,-1000,3080,-1786,1,7,11
9.92E+02,-6130,3704,-3053,-972,2763,-1699,1,7,11
9.94E+02,-6085,3642,-3368,-953,2938,-1883,1,7,11
9.97E+02,-6245,3297,-3427,-956,2829,-1841,1,7,11
9.97E+02,-6245,3205,-3210,-925,2510,-1896,1,7,11
9.93E+02,-6055,3422,-3263,-1076,2668,-1907,1,7,11
9.85E+02,-6075,3438,-3328,-734,2228,-1824,1,7,11
9.71E+02,-6046,3436,-3613,-721,1992,-1432,1,7,11
9.52E+02,-6230,3438,-3672,-701,1783,-1537,1,7,11
9.27E+02,-6231,3433,-3486,-709,1880,-1182,1,7,11
9.03E+02,-6230,3408,-3562,-706,1446,-1284,1,7,11
8.87E+02,-6195,3399,-3888,-682,1275,-1126,1,7,11
8.86E+02,-6153,3410,-3947,-677,1386,-755,1,7,11
9.02E+02,-6153,3411,-3925,-728,1020,-706,1,7,11
9.29E+02,-6235,3372,-3853,-761,906,-694,1,7,11
9.60E+02,-6071,3361,-3575,-690,728,-869,1,7,11
9.87E+02,-6072,3348,-3852,-873,464,-456,1,7,11
1.01E+03,-6221,3060,-3895,-813,220,-525,1,7,11
1.02E+03,-5849,3001,-3921,-501,351,-150,1,7,11
1.03E+03,-5762,3193,-3918,-434,312,-310,1,7,11
1.04E+03,-5938,3178,-3912,-575,344,-271,1,7,11
1.04E+03,-5956,2961,-3911,-206,146,-301,1,7,11
1.03E+03,-5952,3009,-3903,-141,149,-292,1,7,11
1.01E+03,-5980,3052,-3895,-381,148,-320,1,7,11
9.92E+02,-5995,3048,-3873,-148,368,-318,1,7,11
9.62E+02,-5997,3041,-3850,-156,336,-321,1,7,11
9.34E+02,-6014,3328,-3573,-381,324,-361,1,7,11
9.13E+02,-5794,3367,-3569,-345,305,-169,1,7,11
9.07E+02,-5847,3377,-3545,-366,276,-177,1,7,11
9.13E+02,-5868,3346,-3530,-184,-88,-373,1,7,11
9.27E+02,-5833,3051,-3523,-211,85,-274,1,7,11
9.42E+02,-6010,3036,-3542,-211,56,67,1,7,11
9.52E+02,-5989,3018,-3531,-233,100,101,1,7,11
9.59E+02,-6006,2988,-3497,-242,-101,-118,1,7,11
9.64E+02,-5775,2985,-3466,-179,-59,-84,1,7,11
9.71E+02,-5804,3022,-3463,-352,-41,-58,1,7,11
9.81E+02,-5802,3334,-3464,-281,-38,-13,1,7,11
9.91E+02,-5774,3392,-3486,4,-57,297,1,7,11
9.98E+02,-5965,3409,-3497,-274,-73,335,1,7,11
9.98E+02,-5976,3418,-3480,-284,-45,293,1,7,11
9.88E+02,-6011,3436,-3486,-263,-41,256,1,7,11
9.71E+02,-5766,3221,-3501,-257,-84,-7,1,7,11
9.47E+02,-5992,3254,-3528,-299,117,268,1,7,11
9.20E+02,-5929,3255,-3545,-132,99,292,1,7,11
8.92E+02,-5617,3240,-3548,-216,-113,309,1,7,11
8.68E+02,-5616,3233,-3536,-534,-35,309,1,7,11
8.52E+02,-5911,3237,-3511,-551,315,273,1,7,11
8.50E+02,-5989,3268,-3506,-514,365,-26,1,7,11
8.60E+02,-6013,3320,-3522,-207,353,-14,1,7,11
8.80E+02,-6004,3605,-3518,-192,319,-22,1,7,11
9.09E+02,-5773,3607,-3484,-210,293,-40,1,7,11
9.42E+02,-5772,3584,-3461,-230,-17,-25,1,7,11
9.72E+02,-5996,3300,-3710,-231,-79,-2,1,7,11
9.92E+02,-5932,3292,-3460,-240,-118,257,1,7,11
9.92E+02,-5895,3289,-3710,-248,-103,-17,1,7,11
9.71E+02,-5618,3301,-3458,-517,-68,-20,1,7,11
9.37E+02,-5628,3289,-3711,-536,-8,-35,1,7,11
8.98E+02,-5903,3283,-3466,-527,298,-31,1,7,11
8.63E+02,-5907,3278,-3479,-518,340,-18,1,7,11
8.34E+02,-5631,3270,-3498,-242,372,257,1,7,11
8.12E+02,-5604,3276,-3532,-199,156,-8,1,7,11
7.99E+02,-5601,3304,-3567,-158,201,-47,1,7,11
7.95E+02,-5611,3601,-3859,-382,234,-76,1,7,11
7.98E+02,-5625,3639,-3876,-369,247,-75,1,7,11
8.10E+02,-5614,3676,-3904,-374,239,-40,1,7,11
8.28E+02,-5577,3694,-3902,-161,232,-22,1,7,11
8.51E+02,-5540,3697,-3889,-212,232,-53,1,7,11
8.77E+02,-5577,3676,-3584,-528,231,106,1,7,11
9.04E+02,-5579,3691,-3546,-544,203,28,1,7,11
9.30E+02,-5606,3466,-3519,-577,155,-314,1,7,11
9.54E+02,-5586,3497,-3513,-630,345,-330,1,7,11
9.74E+02,-5597,3497,-3512,-466,317,-361,1,7,11
9.90E+02,-5897,3710,-3508,-799,289,-370,1,7,11
1.00E+03,-5897,3660,-3518,-828,-16,-327,1,7,11
1.01E+03,-5630,3604,-3524,-810,-43,-280,1,7,11
1.01E+03,-5610,3313,-3570,-491,-47,46,1,7,11
1.01E+03,-5556,3312,-3846,-425,-36,123,1,7,11
1.01E+03,-5527,3606,-3885,-608,278,-92,1,7,11
1.01E+03,-5531,3650,-3867,-552,359,-73,1,7,11
1.01E+03,-5564,3682,-3841,-245,163,-50,1,7,11
1.00E+03,-5564,3457,-3579,-194,180,-34,1,7,11
1.00E+03,-5543,3504,-3845,-375,171,-70,1,7,11
9.97E+02,-5541,3536,-3576,-340,155,110,1,7,11
9.95E+02,-5576,3546,-3541,-360,377,33,1,7,11
9.95E+02,-5611,3550,-3511,-135,320,-265,1,7,11
9.96E+02,-5624,3530,-3478,-200,-24,-271,1,7,11
9.97E+02,-5567,3506,-3472,-238,-112,12,1,7,11
9.97E+02,-5755,3479,-3485,-524,118,22,1,7,11
9.94E+02,-5716,3470,-3505,-564,-98,35,1,7,11
9.89E+02,-5718,3694,-3473,-622,-22,58,1,7,11
9.83E+02,-5758,3648,-3458,-399,315,88,1,7,11
9.76E+02,-5537,3626,-3695,-615,364,-114,1,7,11
9.68E+02,-5569,3659,-3461,-525,139,-71,1,7,11
9.61E+02,-5568,3711,-3495,-203,132,262,1,7,11
9.54E+02,-5517,3489,-3525,-178,366,341,1,7,11
9.49E+02,-5684,3497,-3566,-167,365,133,1,7,11
9.45E+02,-5640,3508,-3846,-154,158,352,1,7,11
9.42E+02,-5685,3533,-3850,-131,222,260,1,7,11
9.39E+02,-5530,3841,-3845,-363,229,-41,1,7,11
9.35E+02,-5514,3841,-3862,-372,357,270,1,7,11
9.29E+02,-5702,3583,-3894,-374,287,306,1,7,11
9.23E+02,-5651,3845,-3906,-135,263,317,1,7,11
9.18E+02,-5646,3851,-3902,-156,290,278,1,7,11
9.15E+02,-5731,3867,-3866,-170,325,-35,1,7,11
9.12E+02,-5553,3871,-3580,-168,293,-28,1,7,11
9.09E+02,-5561,3881,-3575,-140,-45,295,1,7,11
9.03E+02,-5722,3898,-3848,-371,-125,362,1,7,11
8.94E+02,-5650,3884,-3851,-131,-126,359,1,7,11
8.85E+02,-5357,3876,-3579,-140,-83,329,1,7,11
8.77E+02,-5635,3864,-3548,-140,-39,269,1,7,11
8.74E+02,-5676,3868,-3517,-366,-31,-27,1,7,11
8.74E+02,-5680,3899,-3524,-321,-60,-29,1,7,11
8.75E+02,-5654,3940,-3542,-307,-98,-6,1,7,11
8.73E+02,-5348,3727,-3583,-328,-103,272,1,7,11
8.69E+02,-5356,3742,-3849,-151,-62,-21,1,7,11
8.65E+02,-5669,3726,-3561,-224,-32,-59,1,7,11
8.62E+02,-5722,3717,-3540,-246,-53,-63,1,7,11
8.65E+02,-5713,3966,-3533,-244,-121,-27,1,7,11
8.70E+02,-5692,3724,-3526,-235,91,-14,1,7,11
8.75E+02,-5683,3721,-3532,-243,58,262,1,7,11
8.77E+02,-5252,3950,-3878,-237,52,142,1,7,11
8.75E+02,-5284,3732,-3862,-228,-107,371,1,7,11
8.71E+02,-5653,3821,-3695,-133,-46,309,1,7,11
8.68E+02,-5659,3839,-3684,-377,-93,331,1,7,11
8.71E+02,-5368,3830,-3667,-168,111,372,1,7,11
8.78E+02,-5266,3807,-3678,-230,71,163,1,7,11
8.85E+02,-5417,3797,-3711,-536,120,143,1,7,11
8.89E+02,-5393,3830,-3475,-540,-3,324,1,7,11
8.88E+02,-5473,4129,-3473,-561,137,-13,1,7,11
8.81E+02,-5341,4135,-3461,-554,200,-4,1,7,11
8.68E+02,-5642,4142,-3479,-239,173,335,1,7,11
8.50E+02,-5342,4156,-3524,-156,366,133,1,7,11
8.31E+02,-5300,4180,-3578,-345,342,346,1,7,11
8.16E+02,-5311,4184,-3858,-282,332,257,1,7,11
8.12E+02,-5314,4184,-3896,66,303,-47,1,7,11
8.18E+02,-5293,4192,-3920,-103,264,-73,1,7,11
8.33E+02,-5251,4191,-3908,-31,-35,-78,1,7,11
8.53E+02,-5469,4164,-3856,-14,-88,-96,1,7,11
8.74E+02,-5473,4112,-3504,-7,127,113,1,7,11
8.95E+02,-5258,3829,-3667,269,71,77,1,7,11
9.12E+02,-5292,3811,-3628,271,-268,105,1,7,11
9.23E+02,-5258,3830,-3668,280,-353,-37,1,7,11
9.29E+02,-5429,4121,-3473,-16,-375,324,1,7,11
9.32E+02,-5117,4124,-3521,-105,-326,144,1,7,11
9.36E+02,-5093,4113,-3553,72,18,196,1,7,11
9.45E+02,-5380,3832,-3562,13,102,210,1,7,11
9.57E+02,-5456,3827,-3566,7,-87,191,1,7,11
9.70E+02,-5303,4101,-3584,51,-77,179,1,7,11
9.81E+02,-5341,4191,-3909,114,-117,220,1,7,11
9.88E+02,-5363,4223,-3916,116,106,237,1,7,11
9.90E+02,-5633,3986,-3890,111,74,514,1,7,11
9.88E+02,-5696,4001,-3844,109,39,513,1,7,11
9.83E+02,-5695,4004,-3565,106,-308,543,1,7,11
9.75E+02,-5643,4015,-3848,113,-182,385,1,7,11
9.63E+02,-5490,4018,-3898,58,-392,486,1,7,11
9.46E+02,-5099,4012,-3918,-278,-397,481,1,7,11
9.22E+02,-5072,4040,-3890,-326,-578,427,1,7,11
8.94E+02,-5063,4058,-3841,-136,-528,397,1,7,11
8.65E+02,-5100,4052,-3507,-175,-230,598,1,7,11
8.46E+02,-5379,4063,-3457,-156,-223,570,1,7,11
8.40E+02,-5383,4067,-3684,-146,-247,529,1,7,11
8.48E+02,-5394,4074,-3630,-368,-254,203,1,7,11
8.61E+02,-5424,4363,-3613,-329,-513,145,1,7,11
8.75E+02,-5441,4396,-3589,-335,-516,378,1,7,11
8.85E+02,-5452,4388,-3307,-372,-518,378,1,7,11
8.93E+02,-5423,4366,-3307,-153,-516,139,1,7,11
9.01E+02,-5379,4079,-3320,-180,-233,146,1,7,11
9.12E+02,-5085,4081,-3602,-193,-148,135,1,7,11
9.24E+02,-5096,4089,-3591,-215,-279,365,1,7,11
9.30E+02,-5404,4362,-3317,-224,94,367,1,7,11
9.26E+02,-5449,4402,-3300,-227,-79,135,1,7,11
9.08E+02,-5468,4407,-3274,-247,-54,180,1,7,11
8.83E+02,-5425,4409,-3278,-228,-56,218,1,7,11
8.61E+02,-5386,4422,-3295,-199,-47,180,1,7,11
8.52E+02,-5381,4453,-3303,-195,-25,371,1,7,11
8.58E+02,-5391,4469,-3303,-207,-21,329,1,7,11
8.73E+02,-5402,4471,-3293,-218,-36,314,1,7,11
8.91E+02,-5120,4474,-3322,-226,-67,338,1,7,11
9.08E+02,-5073,4472,-3604,-238,-82,360,1,7,11
9.22E+02,-5003,4475,-3646,-247,-67,134,1,7,11
9.36E+02,-5247,4248,-3671,-251,268,351,1,7,11
9.50E+02,-5036,4284,-3670,-525,332,320,1,7,11
9.64E+02,-5083,4310,-3646,-533,355,290,1,7,11
9.72E+02,-5400,4359,-3653,-237,328,260,1,7,11
9.70E+02,-5408,4634,-3645,-186,257,-3,1,7,11
9.51E+02,-5423,4635,-3629,-149,-62,-44,1,7,11
9.17E+02,-5414,4636,-3624,-363,126,-76,1,7,11
8.79E+02,-5101,4608,-3626,-340,3,-80,1,7,11
8.49E+02,-5039,4301,-3633,-346,-280,-95,1,7,11
8.38E+02,-5020,4262,-3628,-345,-289,65,1,7,11
8.42E+02,-5055,4240,-3624,-329,8,22,1,7,11
8.53E+02,-5072,4227,-3622,-306,9,34,1,7,11
8.64E+02,-5113,4466,-3625,-278,8,50,1,7,11
8.73E+02,-5388,4229,-3649,23,-264,96,1,7,11
8.82E+02,-5403,4236,-3662,56,-294,-126,1,7,11
8.93E+02,-5386,4245,-3683,101,-338,-79,1,7,11
9.09E+02,-5116,4241,-3671,-114,-376,-76,1,7,11
9.24E+02,-5404,4235,-3621,-69,-149,-97,1,7,11
9.30E+02,-5441,4256,-3304,-1,-209,-80,1,7,11
9.19E+02,-5463,4264,-3252,306,-566,-24,1,7,11
8.91E+02,-5478,4260,-3453,348,-415,298,1,7,11
8.57E+02,-5464,4256,-3455,156,-773,134,1,7,11
8.33E+02,-5422,4259,-3215,203,-845,210,1,7,11
8.29E+02,-5394,4254,-3246,232,-870,524,1,7,11
8.41E+02,-5397,4244,-3248,247,-861,560,1,7,11
8.61E+02,-5378,4244,-3271,251,-857,598,1,7,11
8.81E+02,-5401,4233,-3283,248,-843,596,1,7,11
8.97E+02,-5414,4242,-3292,248,-847,619,1,7,11
9.10E+02,-5429,4244,-3291,232,-857,634,1,7,11
9.22E+02,-5446,4239,-3291,228,-869,428,1,7,11
9.34E+02,-5419,4254,-3307,224,-865,491,1,7,11
9.46E+02,-5418,4270,-3312,211,-835,786,1,7,11
9.52E+02,-5118,4321,-3322,206,-799,838,1,7,11
9.51E+02,-5098,4625,-3289,166,-478,824,1,7,11
9.41E+02,-5398,4676,-3275,363,-419,800,1,7,11
9.23E+02,-5437,4709,-3233,296,-405,510,1,7,11
9.03E+02,-5499,4490,-3438,259,-420,462,1,7,11
8.86E+02,-5501,4538,-3412,-31,-496,442,1,7,11
8.74E+02,-5504,4564,-3355,-90,-830,387,1,7,11
8.70E+02,-5250,4591,-3331,123,-654,602,1,7,11
8.74E+02,-5496,4587,-3061,53,-749,580,1,7,11
8.87E+02,-5458,4557,-3063,-288,-1104,590,1,7,11
9.02E+02,-5371,4510,-3051,-382,-903,610,1,7,11
9.11E+02,-5069,4703,-3012,-543,-899,384,1,7,11
9.04E+02,-5019,4645,-2967,-589,-1105,394,1,7,11
8.78E+02,-5033,4659,-3180,-550,-733,598,1,7,11
8.46E+02,-5120,4700,-3136,-247,-889,557,1,7,11
8.18E+02,-5439,4721,-3100,-198,-840,572,1,7,11
8.06E+02,-5438,4512,-3095,-367,-812,618,1,7,11
8.10E+02,-5388,4574,-3117,-329,-788,400,1,7,11
8.26E+02,-5101,4574,-3113,-357,-461,629,1,7,11
8.51E+02,-5390,4565,-3083,-357,-623,562,1,7,11
8.80E+02,-5393,4562,-3073,-341,-564,520,1,7,11
9.07E+02,-5404,4565,-2808,-319,-514,220,1,7,11
9.25E+02,-5416,4572,-2791,-287,-217,205,1,7,11
9.30E+02,-5415,4589,-2805,-268,-193,224,1,7,11
9.23E+02,-5402,4589,-2815,-290,-189,523,1,7,11
9.08E+02,-5078,4564,-3086,-326,-183,562,1,7,11
8.88E+02,-5093,4602,-3113,-329,-340,236,1,7,11
8.68E+02,-5089,4897,-3121,-341,-318,216,1,7,11
8.52E+02,-5101,4943,-3125,-349,-286,185,1,7,11
8.46E+02,-5382,4738,-3105,-377,-261,159,1,7,11
8.53E+02,-5401,4736,-2798,-164,0,145,1,7,11
8.70E+02,-5442,4962,-2735,-163,-273,373,1,7,11
8.91E+02,-5469,4922,-2702,-360,-314,378,1,7,11
9.12E+02,-5472,4894,-2690,-265,-354,144,1,7,11
9.27E+02,-5437,4888,-2698,99,-381,191,1,7,11
9.40E+02,-5109,4900,-2722,-82,-379,243,1,7,11
9.49E+02,-5041,4908,-2748,-41,-327,246,1,7,11
9.56E+02,-5037,4935,-2762,-30,25,187,1,7,11
9.61E+02,-5065,4743,-2766,-31,98,145,1,7,11
9.64E+02,-5072,4801,-2768,-30,-108,129,1,7,11
9.64E+02,-5071,4845,-2778,-54,-81,131,1,7,11
9.60E+02,-5044,4855,-2765,113,-85,129,1,7,11
9.52E+02,-5050,4856,-2745,11,-80,282,1,7,11
9.39E+02,-5091,4855,-2731,-337,-92,-44,1,7,11
9.23E+02,-5115,4833,-2727,-131,114,-38,1,7,11
9.03E+02,-5101,4788,-2731,-170,54,272,1,7,11
8.84E+02,-5063,4737,-2762,-179,17,342,1,7,11
8.71E+02,-5027,4953,-2792,-142,26,135,1,7,11
8.71E+02,-5013,4952,-3085,-334,72,162,1,7,11
8.83E+02,-5011,4958,-3098,-269,-127,177,1,7,11
9.02E+02,-5242,4758,-3118,79,-82,198,1,7,11
9.22E+02,-5050,4852,-3112,127,-28,150,1,7,11
9.37E+02,-5065,5172,-3111,-82,-19,364,1,7,11
9.47E+02,-5038,5219,-3105,-59,-101,315,1,7,11
9.54E+02,-5017,5230,-3084,-91,116,-20,1,7,11
9.60E+02,-5041,5232,-2807,122,94,-111,1,7,11
9.65E+02,-5079,5210,-2753,53,31,96,1,7,11
9.70E+02,-5075,5165,-2716,-275,-333,110,1,7,11
9.74E+02,-5050,4848,-2928,-344,-169,104,1,7,11
9.75E+02,-5056,4808,-2892,-130,-207,101,1,7,11
9.73E+02,-5068,4752,-2865,-170,-223,115,1,7,11
9.67E+02,-5065,4970,-2878,-131,-219,-90,1,7,11
9.56E+02,-5058,4970,-2916,-330,-188,-62,1,7,11
9.39E+02,-5041,4743,-2712,-258,-139,-28,1,7,11
9.18E+02,-5041,4798,-2785,66,-318,-20,1,7,11
8.98E+02,-5068,4834,-3100,96,-259,-26,1,7,11
8.88E+02,-5042,4763,-2905,571,-444,-21,1,7,11
8.92E+02,-5239,4813,-2724,618,-472,298,1,7,11
9.08E+02,-5001,4823,-2770,592,-438,310,1,7,11
9.31E+02,-5072,4822,-2802,573,-407,335,1,7,11
9.53E+02,-5392,4818,-3085,580,-414,378,1,7,11
9.69E+02,-5424,4815,-3099,578,-453,172,1,7,11
9.79E+02,-5446,4828,-3118,577,-494,203,1,7,11
9.86E+02,-5442,4844,-3133,561,-807,239,1,7,11
9.94E+02,-5464,4850,-3119,538,-847,520,1,7,11
1.00E+03,-5494,4832,-2815,518,-649,542,1,7,11
1.01E+03,-5287,4798,-2765,220,-733,584,1,7,11
1.01E+03,-5254,4772,-2753,203,-1119,418,1,7,11
1.00E+03,-5412,4766,-2778,195,-994,770,1,7,11
9.77E+02,-5063,4785,-2774,142,-1348,801,1,7,11
9.46E+02,-5074,4823,-2742,279,-1349,477,1,7,11
9.15E+02,-5090,4860,-2944,-47,-1359,476,1,7,11
8.91E+02,-5090,5154,-2875,-108,-1382,488,1,7,11
8.78E+02,-5068,5180,-2551,98,-1162,778,1,7,11
8.74E+02,-5033,5159,-2495,39,-1191,786,1,7,11
8.77E+02,-5052,4861,-2680,7,-1189,496,1,7,11
8.84E+02,-5061,4827,-2618,15,-1194,495,1,7,11
8.93E+02,-5061,4827,-2600,77,-1175,501,1,7,11
9.04E+02,-5044,5129,-2613,-111,-1380,789,1,7,11
9.16E+02,-5073,5203,-2614,-97,-1284,779,1,7,11
9.27E+02,-5399,5013,-2608,-106,-952,797,1,7,11
9.37E+02,-5426,5075,-2600,-119,-917,850,1,7,11
9.45E+02,-5463,5104,-2563,92,-900,880,1,7,11
9.49E+02,-5480,5113,-2263,58,-914,665,1,7,11
9.48E+02,-5462,5088,-2224,45,-964,695,1,7,11
9.41E+02,-5436,5074,-2208,65,-1018,698,1,7,11
9.28E+02,-5383,5072,-2201,81,-1317,691,1,7,11
9.09E+02,-5063,5052,-2182,76,-1311,660,1,7,11
8.87E+02,-4994,5038,-2428,77,-1019,888,1,7,11
8.70E+02,-5190,5044,-2406,76,-929,817,1,7,11
8.66E+02,-5229,5067,-2378,88,-1060,449,1,7,11
8.79E+02,-4998,5402,-2357,121,-707,407,1,7,11
9.01E+02,-5009,5459,-2336,-108,-882,390,1,7,11
9.26E+02,-5242,5503,-2312,-91,-798,393,1,7,11
9.46E+02,-5247,5266,-2026,-106,-444,623,1,7,11
9.59E+02,-5005,5278,-1995,-117,-590,598,1,7,11
9.67E+02,-5019,5284,-1987,-118,-551,574,1,7,11
9.72E+02,-5017,5277,-1997,-121,-526,565,1,7,11
9.76E+02,-4993,5266,-2023,-117,-220,577,1,7,11
9.80E+02,-5191,5262,-2306,-122,-132,589,1,7,11
9.79E+02,-5170,5262,-2318,122,7,535,1,7,11
9.71E+02,-5161,5282,-2321,121,-119,205,1,7,11
9.51E+02,-5208,5317,-2312,107,-19,332,1,7,11
9.26E+02,-5004,5364,-2043,111,280,-10,1,7,11
9.04E+02,-5028,5647,-2035,102,273,-54,1,7,11
8.94E+02,-5040,5636,-2028,69,-14,-72,1,7,11
9.02E+02,-5023,5331,-2016,30,-61,-61,1,7,11
9.20E+02,-4998,5271,-2019,21,-93,-52,1,7,11
9.41E+02,-5239,5491,-2319,51,-98,-39,1,7,11
9.58E+02,-5184,5466,-2385,76,-81,-10,1,7,11
9.65E+02,-5144,5476,-2206,106,259,-12,1,7,11
9.62E+02,-5151,5288,-2238,116,141,-66,1,7,11
9.50E+02,-5037,5650,-2214,93,244,89,1,7,11
9.31E+02,-5436,5708,-2200,106,205,87,1,7,11
9.06E+02,-5485,5707,-2205,107,290,127,1,7,11
8.83E+02,-5111,5681,-2242,112,79,-60,1,7,11
8.67E+02,-5045,5367,-2247,100,-295,108,1,7,11
8.62E+02,-5002,5299,-2221,88,-353,19,1,7,11
8.67E+02,-5205,5473,-2426,89,-377,-309,1,7,11
8.78E+02,-5209,5379,-2351,93,-376,-382,1,7,11
8.94E+02,-5244,5053,-2027,-122,-138,-142,1,7,11
9.12E+02,-5213,5012,-1973,-73,-187,-332,1,7,11
9.31E+02,-5217,4999,-1954,-18,-189,-285,1,7,11
9.50E+02,-5247,5040,-1977,308,-168,59,1,7,11
9.66E+02,-5021,5095,-2035,334,-139,-69,1,7,11
9.81E+02,-5043,5418,-2359,344,-368,301,1,7,11
9.94E+02,-5048,5482,-2422,330,-345,153,1,7,11
1.00E+03,-5049,5277,-2214,294,-312,203,1,7,11
1.01E+03,-5067,5333,-2248,267,-279,213,1,7,11
1.02E+03,-5076,5636,-2260,-37,-260,196,1,7,11
1.01E+03,-5110,5647,-2250,-86,1,141,1,7,11
1.00E+03,-5085,5356,-2200,97,-159,280,1,7,11
9.77E+02,-5036,5314,-2192,76,-198,261,1,7,11
9.45E+02,-5246,5261,-2430,58,-212,-15,1,7,11
9.12E+02,-5186,5485,-2424,51,-199,-36,1,7,11
8.83E+02,-5168,5456,-2403,43,-158,-77,1,7,11
8.65E+02,-5167,5426,-2362,31,-371,-92,1,7,11
8.57E+02,-5150,5392,-2317,42,-334,-69,1,7,11
8.60E+02,-5137,5393,-2306,93,-292,-46,1,7,11
8.74E+02,-5124,5435,-2308,-125,1,-23,1,7,11
8.94E+02,-5153,5474,-2307,127,55,-44,1,7,11
9.18E+02,-5224,5257,-2031,113,89,-54,1,7,11
9.40E+02,-5002,5298,-2307,115,80,-5,1,7,11
9.58E+02,-4995,5370,-2341,111,69,304,1,7,11
9.71E+02,-5219,5670,-2362,97,87,341,1,7,11
9.81E+02,-5230,5676,-2342,53,127,330,1,7,11
9.89E+02,-5002,5669,-2322,18,-111,319,1,7,11
9.97E+02,-5035,5645,-2040,4,-121,294,1,7,11
1.00E+03,-5005,5634,-2033,25,104,277,1,7,11
1.01E+03,-5203,5368,-2305,51,81,253,1,7,11
1.00E+03,-5162,5354,-2322,41,118,-46,1,7,11
9.96E+02,-5146,5326,-2328,8,-90,-109,1,7,11
9.81E+02,-5193,5293,-2348,-275,-59,78,1,7,11
9.61E+02,-5189,5280,-2391,-292,-64,81,1,7,11
9.36E+02,-5172,5272,-2412,-314,-49,106,1,7,11
9.06E+02,-5144,5275,-2186,-324,-10,-100,1,7,11
8.79E+02,-5152,5305,-2208,-331,299,-89,1,7,11
8.60E+02,-5195,5346,-2225,-335,324,-89,1,7,11
8.54E+02,-5223,5374,-2223,-362,305,-81,1,7,11
8.60E+02,-5229,5643,-2209,-370,269,-70,1,7,11
8.76E+02,-5201,5668,-2208,-364,-29,-71,1,7,11
8.96E+02,-5216,5660,-2425,-135,-61,-115,1,7,11
9.18E+02,-5226,5369,-2387,-141,-115,119,1,7,11
9.40E+02,-5206,5328,-2362,-377,83,112,1,7,11
9.60E+02,-5170,5291,-2365,-356,52,107,1,7,11
9.77E+02,-5124,5265,-2372,-343,69,114,1,7,11
9.89E+02,-4850,5252,-2371,-327,-120,110,1,7,11
9.97E+02,-4860,5259,-2368,-306,-41,93,1,7,11
1.00E+03,-5179,5293,-2353,-285,290,60,1,7,11
1.00E+03,-5231,5653,-2341,21,287,112,1,7,11
9.94E+02,-5211,5670,-2343,7,-4,-76,1,7,11
9.85E+02,-5186,5653,-2353,-290,-33,-28,1,7,11
9.74E+02,-5143,5361,-2383,-314,-42,266,1,7,11
9.63E+02,-4860,5345,-2411,-336,-2,271,1,7,11
9.51E+02,-5135,5327,-2409,-364,326,262,1,7,11
9.38E+02,-5153,5301,-2388,-361,361,303,1,7,11
9.21E+02,-5148,5295,-2381,-312,363,348,1,7,11
9.01E+02,-5137,5310,-2385,13,343,128,1,7,11
8.80E+02,-5134,5336,-2378,58,323,378,1,7,11
8.64E+02,-4858,5361,-2370,93,285,377,1,7,11
8.59E+02,-4790,5640,-2393,106,-8,361,1,7,11
8.65E+02,-4748,5661,-2428,99,-9,296,1,7,11
8.77E+02,-4755,5685,-2202,68,268,-41,1,7,11
8.90E+02,-4771,5692,-2212,28,286,-80,1,7,11
8.98E+02,-4797,5692,-2218,8,304,-98,1,7,11
9.03E+02,-4809,5725,-2224,32,306,-93,1,7,11
9.06E+02,-4832,5513,-2241,60,298,-96,1,7,11
9.12E+02,-4845,5547,-2260,86,271,-100,1,7,11
9.21E+02,-4855,5560,-2262,84,-23,119,1,7,11
9.27E+02,-4855,5542,-2244,68,-82,75,1,7,11
9.23E+02,-4826,5749,-2208,37,114,10,1,7,11
9.01E+02,-4794,5679,-2418,4,72,-338,1,7,11
8.67E+02,-4779,5295,-2353,-269,58,-185,1,7,11
8.35E+02,-4775,5488,-2334,16,66,-231,1,7,11
8.21E+02,-4971,5431,-2341,65,85,-209,1,7,11
8.34E+02,-4960,5404,-2366,111,-58,-174,1,7,11
8.64E+02,-4974,5428,-2425,-40,304,-131,1,7,11
8.99E+02,-4768,5495,-2251,261,148,-327,1,7,11
9.28E+02,-4800,5310,-2576,260,211,15,1,7,11
9.47E+02,-4851,5368,-2617,-29,255,62,1,7,11
9.59E+02,-5173,5646,-2638,-65,237,114,1,7,11
9.68E+02,-5185,5661,-2644,-76,168,-90,1,7,11
9.76E+02,-5189,5676,-2654,-51,347,-69,1,7,11
9.85E+02,-5164,5701,-2686,-26,275,-56,1,7,11
9.93E+02,-5141,5712,-2446,-24,-24,-75,1,7,11
1.00E+03,-4852,5703,-2466,-40,-47,-118,1,7,11
1.01E+03,-4842,5680,-2450,-69,-49,76,1,7,11
1.01E+03,-4820,5646,-2435,-101,-64,27,1,7,11
1.01E+03,-4794,5351,-2664,-125,-69,-288,1,7,11
1.01E+03,-4781,5319,-2627,117,-74,-336,1,7,11
9.99E+02,-4778,5295,-2592,103,-75,-379,1,7,11
9.86E+02,-4828,5266,-2303,95,-86,-162,1,7,11
9.68E+02,-4840,5499,-2289,107,124,-379,1,7,11
9.44E+02,-4809,5474,-2294,115,88,-329,1,7,11
9.15E+02,-4751,5462,-2582,113,88,-275,1,7,11
8.85E+02,-4992,5445,-2582,69,-109,-275,1,7,11
8.62E+02,-4769,5427,-2574,41,-52,-277,1,7,11
8.52E+02,-4801,5460,-2574,58,-15,-275,1,7,11
8.56E+02,-5126,5255,-2575,69,260,-268,1,7,11
8.71E+02,-5151,5329,-2578,75,-19,57,1,7,11
8.93E+02,-5151,5365,-2583,38,-50,119,1,7,11
9.19E+02,-5129,5364,-2583,0,-78,-85,1,7,11
9.45E+02,-4838,5339,-2593,-288,-91,-58,1,7,11
9.68E+02,-4804,5311,-2611,-311,-80,-66,1,7,11
9.88E+02,-4785,5282,-2625,-332,-47,-79,1,7,11
1.00E+03,-4789,5258,-2637,-329,262,-85,1,7,11
1.01E+03,-4769,5248,-2652,-318,304,-56,1,7,11
1.02E+03,-4758,5502,-2657,-315,357,-48,1,7,11
1.02E+03,-4768,5275,-2659,-316,145,-77,1,7,11
1.02E+03,-4789,5305,-2653,-346,155,-116,1,7,11
1.03E+03,-4794,5323,-2639,-383,133,110,1,7,11
1.02E+03,-4779,5329,-2637,-165,362,99,1,7,11
1.01E+03,-4765,5332,-2661,-192,342,109,1,7,11
9.82E+02,-4745,5306,-2660,-233,343,-126,1,7,11
9.46E+02,-4753,5269,-2646,-529,368,-80,1,7,11
9.11E+02,-4746,5263,-2639,-529,128,-61,1,7,11
8.82E+02,-4762,5292,-2646,-234,149,-59,1,7,11
8.67E+02,-4781,5342,-2646,-181,152,-51,1,7,11
8.64E+02,-4791,5634,-2649,-145,383,-19,1,7,11
8.70E+02,-4760,5661,-2650,-360,358,271,1,7,11
8.84E+02,-4970,5671,-2653,-356,351,275,1,7,11
9.04E+02,-4973,5654,-2644,-370,368,-42,1,7,11
9.29E+02,-4973,5375,-2655,-373,358,-73,1,7,11
9.55E+02,-4928,5328,-2685,-383,351,-93,1,7,11
9.81E+02,-4895,5289,-2441,-379,131,-121,1,7,11
1.01E+03,-4600,5270,-2451,-362,190,-124,1,7,11
1.03E+03,-4881,5283,-2457,-340,521,106,1,7,11
1.04E+03,-4926,5324,-2452,-348,547,108,1,7,11
1.04E+03,-4976,5365,-2448,-379,530,-126,1,7,11
1.04E+03,-4753,5649,-2436,-174,214,-83,1,7,11
1.03E+03,-4747,5652,-2688,-216,131,-18,1,7,11
1.02E+03,-4902,5693,-2482,-538,150,-265,1,7,11
1.01E+03,-4947,5747,-2504,-560,380,-315,1,7,11
9.96E+02,-4932,5531,-2526,-578,333,-319,1,7,11
9.87E+02,-4967,5559,-2508,-607,318,-378,1,7,11
9.79E+02,-4795,5549,-2451,-630,276,-160,1,7,11
9.73E+02,-4787,5758,-2678,-606,-93,-353,1,7,11
9.69E+02,-4961,5704,-2438,-557,75,-294,1,7,11
9.67E+02,-4889,5665,-2452,-255,85,-283,1,7,11
9.67E+02,-4603,5366,-2468,-243,-122,-306,1,7,11
9.70E+02,-4882,5373,-2458,-213,-57,-380,1,7,11
9.74E+02,-4940,5683,-2457,-170,-39,-185,1,7,11
9.81E+02,-4968,5748,-2487,-140,-87,-199,1,7,11
9.89E+02,-4952,5557,-2537,-141,103,-206,1,7,11
9.99E+02,-4954,5592,-2548,-189,44,-514,1,7,11
1.01E+03,-4985,5556,-2489,-543,-280,-606,1,7,11
1.02E+03,-4769,5701,-2611,-587,-384,-421,1,7,11
1.03E+03,-4741,5264,-2290,-556,-594,-462,1,7,11
1.04E+03,-4742,5384,-2240,-242,-410,-501,1,7,11
1.05E+03,-4765,5096,-2273,-245,-416,-481,1,7,11
1.06E+03,-4786,5398,-2598,-105,-402,-411,1,7,11
1.06E+03,-4821,5444,-2657,-49,-622,-623,1,7,11
1.06E+03,-5188,5476,-2688,-40,-623,-393,1,7,11
1.06E+03,-5012,5252,-2453,-42,-458,-436,1,7,11
1.07E+03,-5102,5298,-2455,-45,-869,-793,1,7,11
1.07E+03,-5442,5334,-2446,-87,-1059,-868,1,7,11
1.07E+03,-5496,5358,-2685,120,-1006,-876,1,7,11
1.06E+03,-5491,5375,-2433,52,-1188,-801,1,7,11
1.06E+03,-5443,5337,-2656,-326,-1549,-441,1,7,11
1.06E+03,-5448,5266,-2567,-188,-1571,-613,1,7,11
1.05E+03,-5414,5434,-2206,-528,-1601,-222,1,7,11
1.04E+03,-5414,5092,-2364,-558,-1580,-148,1,7,11
1.03E+03,-5390,5044,-2308,-520,-1568,-284,1,7,11
1.02E+03,-5090,5037,-1986,-231,-1258,69,1,7,11
1.01E+03,-5064,5048,-2165,-193,-1171,-104,1,7,11
1.00E+03,-5023,5104,-2057,-169,-1330,-68,1,7,11
9.94E+02,-5055,5428,-1734,-143,-977,-105,1,7,11
9.91E+02,-5114,5472,-1665,-372,-900,-107,1,7,11
9.93E+02,-5095,5475,-1871,-379,-905,-41,1,7,11
9.97E+02,-5035,5451,-1851,-372,-1134,282,1,7,11
1.00E+03,-4998,5437,-1860,-352,-1029,284,1,7,11
1.01E+03,-5014,5428,-1884,-317,-885,282,1,7,11
1.01E+03,-5026,5458,-1665,-268,-469,296,1,7,11
1.01E+03,-5049,5265,-1688,33,-551,315,1,7,11
9.96E+02,-5080,5311,-1673,54,-143,343,1,7,11
9.75E+02,-5424,5345,-1886,68,-284,322,1,7,11
9.46E+02,-5498,5374,-1860,98,-275,338,1,7,11
9.13E+02,-5262,5375,-1845,115,-341,357,1,7,11
8.79E+02,-5267,5348,-1864,-107,-164,368,1,7,11
8.49E+02,-5481,5314,-1669,-78,-217,139,1,7,11
8.22E+02,-5419,5283,-1737,-62,-201,142,1,7,11
8.02E+02,-5096,5262,-2055,-61,-374,360,1,7,11
7.89E+02,-5078,5286,-2089,-78,4,-17,1,7,11
7.82E+02,-5405,5337,-2083,-119,106,71,1,7,11
7.82E+02,-5480,5641,-2055,87,-127,-283,1,7,11
7.87E+02,-5271,5649,-1741,12,78,-300,1,7,11
7.98E+02,-5289,5364,-1900,-329,3,-277,1,7,11
8.13E+02,-5303,5314,-1817,-375,-347,41,1,7,11
8.31E+02,-5392,5311,-2072,9,174,43,1,7,11
8.52E+02,-5448,5345,-2067,8,182,4,1,7,11
8.75E+02,-5461,5366,-1778,-262,141,11,1,7,11
8.99E+02,-5487,5356,-1712,-332,339,-269,1,7,11
9.24E+02,-5499,5340,-1672,-148,-43,13,1,7,11
9.48E+02,-5480,5302,-1898,-176,-120,59,1,7,11
9.69E+02,-5439,5267,-1900,-178,95,110,1,7,11
9.85E+02,-5401,5251,-1671,-167,123,119,1,7,11
9.93E+02,-5405,5256,-1705,-131,-59,104,1,7,11
9.95E+02,-5401,5289,-1760,-333,270,93,1,7,11
9.89E+02,-5434,5325,-2051,-304,324,47,1,7,11
9.77E+02,-5467,5355,-2052,-290,334,24,1,7,11
9.58E+02,-5477,5358,-1768,-283,300,21,1,7,11
9.38E+02,-5445,5338,-1741,-274,-20,41,1,7,11
9.23E+02,-5398,5312,-1710,-271,-63,29,1,7,11
9.15E+02,-5102,5281,-1674,-268,-80,-257,1,7,11
9.17E+02,-5095,5272,-1903,0,-68,-297,1,7,11
9.25E+02,-5110,5286,-1917,21,-43,-310,1,7,11
9.37E+02,-5391,5314,-1694,22,-18,-303,1,7,11
9.49E+02,-5422,5342,-1720,10,265,-284,1,7,11
9.61E+02,-5428,5363,-1741,-261,292,2,1,7,11
9.71E+02,-5444,5369,-1785,-276,319,18,1,7,11
9.81E+02,-5440,5364,-2069,-279,342,30,1,7,11
9.88E+02,-5440,5337,-2101,-285,380,43,1,7,11
9.92E+02,-5441,5306,-2104,-266,152,47,1,7,11
9.91E+02,-5445,5277,-2096,14,179,29,1,7,11
9.83E+02,-5452,5273,-2075,56,184,8,1,7,11
9.69E+02,-5432,5288,-2054,96,167,-266,1,7,11
9.51E+02,-5426,5315,-1773,100,145,-316,1,7,11
9.34E+02,-5390,5320,-1760,78,362,-339,1,7,11
9.21E+02,-5102,5310,-1753,38,339,-371,1,7,11
9.15E+02,-5104,5274,-1752,-263,344,-143,1,7,11
9.15E+02,-5107,5485,-1749,-307,351,-376,1,7,11
9.19E+02,-5098,5437,-1755,-329,372,-326,1,7,11
9.25E+02,-5117,5407,-1772,-331,147,-265,1,7,11
9.33E+02,-5383,5423,-2054,-304,189,69,1,7,11
9.41E+02,-5407,5446,-2085,-276,224,-98,1,7,11
9.50E+02,-5411,5477,-2114,3,513,-4,1,7,11
9.59E+02,-5422,5257,-2139,17,549,314,1,7,11
9.66E+02,-5415,5291,-2150,18,559,370,1,7,11
9.70E+02,-5394,5313,-2154,15,570,135,1,7,11
9.68E+02,-5399,5315,-2143,6,566,371,1,7,11
9.60E+02,-5115,5297,-2146,1,520,346,1,7,11
9.48E+02,-5086,5288,-2171,6,220,262,1,7,11
9.37E+02,-5054,5275,-1927,7,187,-83,1,7,11
9.32E+02,-5056,5267,-1941,14,191,60,1,7,11
9.36E+02,-5086,5276,-1967,34,175,-287,1,7,11
9.47E+02,-5106,5301,-1986,52,142,-380,1,7,11
9.63E+02,-5110,5350,-1994,92,354,-229,1,7,11
9.81E+02,-5062,5279,-1931,-281,-16,-443,1,7,11
1.00E+03,-5035,5438,-2163,-297,-29,-448,1,7,11
1.02E+03,-5003,5379,-2164,0,266,-463,1,7,11
1.02E+03,-5003,5082,-1921,45,350,-432,1,7,11
1.02E+03,-5245,5019,-1930,54,165,-612,1,7,11
1.01E+03,-5009,5242,-1951,69,294,-556,1,7,11
9.88E+02,-5041,5014,-2006,-108,591,-538,1,7,11
9.66E+02,-5390,5067,-2309,-49,422,-516,1,7,11
9.48E+02,-5460,5391,-2365,256,477,-179,1,7,11
9.36E+02,-5494,5425,-2387,-1,473,-343,1,7,11
9.30E+02,-5263,5453,-2399,-22,448,-283,1,7,11
9.28E+02,-5290,5482,-2178,-25,402,7,1,7,11
9.29E+02,-5293,5503,-2221,-42,590,32,1,7,11
9.32E+02,-5277,5496,-2260,-95,520,39,1,7,11
9.37E+02,-5502,5480,-2294,110,224,30,1,7,11
9.41E+02,-5475,5451,-2301,55,206,22,1,7,11
9.44E+02,-5435,5404,-2296,3,196,14,1,7,11
9.47E+02,-5445,5106,-2259,-282,196,-302,1,7,11
9.50E+02,-5439,5082,-2230,-268,158,-330,1,7,11
9.53E+02,-5418,5068,-2197,13,373,-361,1,7,11
9.59E+02,-5398,5060,-2421,39,333,-369,1,7,11
9.66E+02,-5397,5043,-2386,47,296,-378,1,7,11
9.74E+02,-5119,5028,-2382,68,-5,-360,1,7,11
9.82E+02,-5082,5012,-2399,65,-41,-355,1,7,11
9.90E+02,-5056,5015,-2424,70,-30,-357,1,7,11
9.95E+02,-5061,5017,-2202,58,268,-351,1,7,11
9.96E+02,-5060,5006,-2232,42,313,-293,1,7,11
9.93E+02,-5068,4994,-2272,20,369,25,1,7,11
9.83E+02,-5063,5245,-2298,9,163,80,1,7,11
9.69E+02,-5081,5031,-2573,20,221,85,1,7,11
9.53E+02,-5388,5064,-2562,17,249,81,1,7,11
9.38E+02,-5433,5104,-2266,34,233,97,1,7,11
9.24E+02,-5451,5111,-2250,60,175,-123,1,7,11
9.14E+02,-5433,5110,-2241,84,359,-80,1,7,11
9.09E+02,-5390,5110,-2275,113,314,-69,1,7,11
9.10E+02,-5080,5108,-2576,121,298,-83,1,7,11
9.16E+02,-5041,5088,-2633,92,317,-123,1,7,11
9.22E+02,-5043,5086,-2683,63,372,48,1,7,11
9.27E+02,-5080,5395,-2477,70,179,-299,1,7,11
9.28E+02,-5406,5452,-2491,59,222,-145,1,7,11
9.26E+02,-5502,5473,-2452,7,190,-180,1,7,11
9.22E+02,-5276,5458,-2662,-299,325,-158,1,7,11
9.17E+02,-5490,5409,-2630,-305,-75,-155,1,7,11
9.14E+02,-5399,5082,-2593,-299,65,-173,1,7,11
9.13E+02,-5081,5236,-2274,-315,16,-515,1,7,11
9.17E+02,-5045,4859,-2198,-285,-260,-583,1,7,11
9.26E+02,-5007,4787,-2426,69,18,-626,1,7,11
9.40E+02,-5006,4774,-2182,-68,94,-390,1,7,11
9.60E+02,-5037,4807,-2229,278,-65,-610,1,7,11
9.86E+02,-5057,4845,-2296,318,296,-532,1,7,11
1.01E+03,-5092,5145,-2615,315,136,-185,1,7,11
1.04E+03,-5095,5195,-2676,288,215,-368,1,7,11
1.06E+03,-5405,5223,-2455,-18,531,-353,1,7,11
1.07E+03,-5460,4998,-2478,-60,547,-339,1,7,11
1.08E+03,-5283,5006,-2480,-106,527,-346,1,7,11
1.07E+03,-5308,5001,-2495,121,192,-308,1,7,11
1.05E+03,-5298,5238,-2501,98,379,-297,1,7,11
1.03E+03,-5277,5213,-2513,92,333,-296,1,7,11
9.98E+02,-5494,5191,-2519,74,301,-296,1,7,11
9.73E+02,-5479,5147,-2509,42,283,-310,1,7,11
9.57E+02,-5459,4840,-2505,29,265,-307,1,7,11
9.54E+02,-5437,4801,-2511,36,-2,-313,1,7,11
9.65E+02,-5421,4785,-2499,65,-8,-306,1,7,11
9.84E+02,-5399,4791,-2481,78,-7,-299,1,7,11
1.00E+03,-5403,4814,-2453,113,259,-299,1,7,11
1.02E+03,-5410,5124,-2465,-117,-4,-266,1,7,11
1.03E+03,-5112,5154,-2481,124,-21,53,1,7,11
1.03E+03,-5077,5158,-2456,80,-12,80,1,7,11
1.03E+03,-5102,5099,-2678,33,272,62,1,7,11
1.03E+03,-5402,4848,-2680,67,273,65,1,7,11
1.03E+03,-5375,5127,-2472,-118,-9,94,1,7,11
1.02E+03,-5069,5156,-2543,-64,-9,-125,1,7,11
1.02E+03,-5030,5164,-2851,-55,291,-110,1,7,11
1.01E+03,-5069,5156,-2868,-93,374,112,1,7,11
9.99E+02,-5383,5133,-2873,127,183,77,1,7,11
9.87E+02,-5458,5122,-2858,110,167,39,1,7,11
9.71E+02,-5485,5145,-2862,-116,362,40,1,7,11
9.49E+02,-5477,5129,-2844,117,291,66,1,7,11
9.24E+02,-5419,4863,-2852,98,-27,112,1,7,11
9.03E+02,-5401,4832,-2865,58,-31,110,1,7,11
8.93E+02,-5403,4842,-2887,28,-13,107,1,7,11
9.01E+02,-5426,4845,-2896,-282,271,108,1,7,11
9.23E+02,-5438,4849,-2899,-322,281,125,1,7,11
9.54E+02,-5416,4842,-2907,-355,284,-93,1,7,11
9.87E+02,-5388,4834,-2907,-373,298,-78,1,7,11
1.02E+03,-5381,4818,-2895,-382,309,-94,1,7,11
1.04E+03,-5379,4825,-2899,-363,301,-120,1,7,11
1.06E+03,-5378,4855,-2880,-352,280,90,1,7,11
1.07E+03,-5429,5124,-2824,-368,-14,41,1,7,11
1.07E+03,-5446,4863,-2526,-360,-91,56,1,7,11
1.07E+03,-5384,5127,-2517,-338,74,119,1,7,11
1.06E+03,-5054,5137,-2521,-327,57,-115,1,7,11
1.05E+03,-5038,5143,-2506,-320,106,124,1,7,11
1.04E+03,-5028,5140,-2529,-320,-97,-126,1,7,11
1.03E+03,-5024,5138,-2826,-322,-39,-125,1,7,11
1.02E+03,-5016,5135,-2879,-322,289,119,1,7,11
1.00E+03,-5023,5138,-2913,-321,366,88,1,7,11
9.74E+02,-5048,5159,-2689,-313,167,54,1,7,11
9.35E+02,-5074,5177,-2697,-326,186,33,1,7,11
8.97E+02,-5104,5190,-2944,-344,168,2,1,7,11
8.74E+02,-5104,5172,-2929,-366,366,0,1,7,11
8.73E+02,-5119,5159,-2881,-363,311,-280,1,7,11
8.89E+02,-5386,5162,-2847,-324,-6,-268,1,7,11
9.14E+02,-5394,5157,-2555,-301,-67,23,1,7,11
9.39E+02,-5109,5126,-2526,-279,126,79,1,7,11
9.59E+02,-5079,4863,-2528,2,93,124,1,7,11
9.76E+02,-4995,4845,-2829,13,89,-87,1,7,11
9.90E+02,-5204,4809,-2861,-261,-98,-127,1,7,11
1.00E+03,-5227,4800,-2878,-267,259,45,1,7,11
1.02E+03,-5026,4818,-2891,-271,331,-267,1,7,11
1.03E+03,-5084,4845,-2898,-282,363,-294,1,7,11
1.03E+03,-5403,5124,-2905,-302,357,-293,1,7,11
1.04E+03,-5422,5134,-2935,-302,319,17,1,7,11
1.03E+03,-5462,5156,-2708,-278,295,33,1,7,11
1.02E+03,-5456,5157,-2752,4,-34,65,1,7,11
9.98E+02,-5428,5139,-2763,46,-87,39,1,7,11
9.65E+02,-5388,5147,-2786,106,119,-276,1,7,11
9.24E+02,-5064,5122,-2762,-121,76,-327,1,7,11
8.85E+02,-5019,4849,-2718,-84,78,-164,1,7,11
8.61E+02,-5024,4828,-2926,-65,75,-223,1,7,11
8.63E+02,-5013,4782,-2864,-80,56,-248,1,7,11
8.87E+02,-5241,4779,-2694,-1,101,-323,1,7,11
9.23E+02,-5046,4761,-2731,-67,-59,-311,1,7,11
9.60E+02,-5119,4987,-2739,-119,-7,-286,1,7,11
9.91E+02,-5464,4984,-2755,120,257,-277,1,7,11
1.01E+03,-5274,4746,-2796,112,-38,32,1,7,11
1.03E+03,-5280,4760,-3080,80,-89,100,1,7,11
1.04E+03,-5270,4752,-3111,49,-121,-108,1,7,11
1.04E+03,-5499,4979,-3103,23,113,-81,1,7,11
1.04E+03,-5496,4950,-3074,24,109,-83,1,7,11
1.03E+03,-5493,4954,-2799,72,91,-76,1,7,11
1.03E+03,-5468,4987,-2799,109,59,-88,1,7,11
1.03E+03,-5455,4773,-2774,110,32,-105,1,7,11
1.03E+03,-5465,4823,-2736,93,-258,125,1,7,11
1.03E+03,-5484,4861,-2937,40,-328,-125,1,7,11
1.01E+03,-5475,5121,-2878,-276,-166,-81,1,7,11
9.84E+02,-5446,4851,-2834,-342,-520,-33,1,7,11
9.45E+02,-5391,4811,-2537,-156,-605,256,1,7,11
9.07E+02,-5083,4769,-2528,-199,-395,-7,1,7,11
8.80E+02,-5062,4752,-2542,-210,-391,-35,1,7,11
8.72E+02,-5038,4760,-2862,-217,-620,-35,1,7,11
8.78E+02,-5016,4781,-2879,-227,-564,-18,1,7,11
8.91E+02,-5062,4793,-2874,-250,-222,-22,1,7,11
9.07E+02,-5406,4778,-2844,-531,-185,278,1,7,11
9.21E+02,-5410,4783,-2830,-516,-201,132,1,7,11
9.34E+02,-5420,4821,-2838,-187,-226,154,1,7,11
9.47E+02,-5429,4848,-2860,-132,-250,167,1,7,11
9.59E+02,-5393,5123,-2886,-350,-537,217,1,7,11
9.71E+02,-5387,5127,-2882,-337,-549,229,1,7,11
9.82E+02,-5404,5138,-2868,-327,-521,172,1,7,11
9.93E+02,-5406,4862,-2838,-360,-516,148,1,7,11
1.00E+03,-5439,5122,-2538,-350,-247,349,1,7,11
1.01E+03,-5439,5145,-2504,-337,-256,326,1,7,11
1.01E+03,-5440,5165,-2462,-362,-522,282,1,7,11
1.01E+03,-5483,5175,-2638,-151,-539,-30,1,7,11
1.00E+03,-5305,5217,-2290,-158,-568,-57,1,7,11
9.85E+02,-5355,5011,-2263,-151,-407,272,1,7,11
9.66E+02,-5326,5057,-2299,-164,-787,139,1,7,11
9.48E+02,-5295,5071,-2604,-203,-888,227,1,7,11
9.34E+02,-5499,5039,-2650,-256,-706,550,1,7,11
9.26E+02,-5425,5233,-2681,-541,-734,574,1,7,11
9.25E+02,-5117,5186,-2673,-535,-702,531,1,7,11
9.31E+02,-5065,5144,-2638,-251,-651,222,1,7,11
9.44E+02,-5029,5124,-2575,-193,-827,136,1,7,11
9.60E+02,-5045,5134,-2251,-361,-484,292,1,7,11
9.77E+02,-5061,5173,-2185,2,-404,-27,1,7,11
9.89E+02,-5091,5222,-2399,84,-599,-55,1,7,11
9.95E+02,-5066,5014,-2404,-115,-548,-30,1,7,11
9.97E+02,-5068,5044,-2410,-122,-197,-52,1,7,11
9.99E+02,-5088,5060,-2178,101,-366,-48,1,7,11
1.00E+03,-5078,5071,-2201,53,-293,-38,1,7,11
1.01E+03,-5090,5066,-2213,-263,44,-59,1,7,11
1.01E+03,-5094,5076,-2207,-305,-125,-69,1,7,11
1.01E+03,-5120,5077,-2185,-352,-40,-93,1,7,11
9.91E+02,-5394,5097,-2424,-367,278,-109,1,7,11
9.64E+02,-5424,5108,-2405,-381,309,120,1,7,11
9.33E+02,-5481,5106,-2387,-133,312,49,1,7,11
9.07E+02,-5484,5082,-2373,-384,273,57,1,7,11
8.94E+02,-5455,5046,-2382,-370,-55,62,1,7,11
8.94E+02,-5379,5007,-2408,-319,-58,73,1,7,11
9.04E+02,-5102,5244,-2195,-305,-30,62,1,7,11
9.21E+02,-5387,5232,-2223,-286,311,24,1,7,11
9.40E+02,-5418,5240,-2228,-279,140,40,1,7,11
9.60E+02,-5441,5092,-2256,-255,281,-108,1,7,11
9.80E+02,-5425,5102,-2257,-276,-3,-125,1,7,11
9.99E+02,-5415,5097,-2255,-297,-23,116,1,7,11
1.01E+03,-5111,5081,-2270,-326,-26,114,1,7,11
1.03E+03,-5072,5054,-2282,-362,264,94,1,7,11
1.04E+03,-5054,5027,-2289,-140,331,64,1,7,11
1.05E+03,-5083,5000,-2292,-162,144,35,1,7,11
1.06E+03,-5115,5243,-2274,-160,182,38,1,7,11
1.07E+03,-5397,5004,-2264,-383,191,59,1,7,11
1.07E+03,-5421,5034,-2262,-355,175,92,1,7,11
1.06E+03,-5397,5056,-2250,-347,133,-102,1,7,11
1.05E+03,-5088,5046,-2207,-134,291,-22,1,7,11
1.03E+03,-5027,5010,-2231,-139,292,-22,1,7,11
9.99E+02,-5241,5239,-2273,-381,363,-49,1,7,11
9.63E+02,-5230,4996,-2584,-353,214,-55,1,7,11
9.24E+02,-5234,5063,-2644,-335,584,-96,1,7,11
8.88E+02,-5084,5407,-2663,-343,411,68,1,7,11
8.63E+02,-5462,5465,-2648,-374,637,45,1,7,11
8.59E+02,-5480,5501,-2652,-384,245,103,1,7,11
8.77E+02,-5440,5491,-2637,-162,365,-127,1,7,11
9.08E+02,-5417,5455,-2611,-204,264,-120,1,7,11
9.43E+02,-5109,5359,-2597,-224,-66,-97,1,7,11
9.72E+02,-5017,5051,-2590,-203,-91,-99,1,7,11
9.92E+02,-5245,4993,-2580,-187,-57,-122,1,7,11
1.01E+03,-5200,4996,-2599,-371,257,119,1,7,11
1.02E+03,-5229,5061,-2627,-310,340,55,1,7,11
1.03E+03,-5023,5376,-2639,-299,145,10,1,7,11
1.05E+03,-5102,5437,-2620,-317,145,-267,1,7,11
1.07E+03,-5119,5457,-2593,-367,319,30,1,7,11
1.08E+03,-5091,5428,-2572,-176,-31,65,1,7,11
1.10E+03,-5029,5408,-2297,-183,-89,65,1,7,11
1.10E+03,-5004,5410,-2288,-191,-103,22,1,7,11
1.10E+03,-5011,5404,-2272,-202,-71,-273,1,7,11
1.09E+03,-5078,5435,-2247,-214,-41,-301,1,7,11
1.07E+03,-5112,5429,-2221,-253,-65,1,1,7,11
1.05E+03,-5079,5404,-2209,-517,-100,55,1,7,11
1.02E+03,-5032,5404,-2228,-243,-104,45,1,7,11
9.91E+02,-5017,5397,-2224,-243,-74,-275,1,7,11
9.70E+02,-5020,5119,-2207,-213,-38,-346,1,7,11
9.60E+02,-5049,5111,-2224,-149,-10,-141,1,7,11
9.60E+02,-5016,5105,-2281,-341,269,-136,1,7,11
9.68E+02,-5202,5105,-2612,-261,354,-134,1,7,11
9.82E+02,-5172,5113,-2676,27,234,-162,1,7,11
1.00E+03,-5193,5076,-2686,20,609,-205,1,7,11
1.02E+03,-5230,5035,-2672,43,415,-250,1,7,11
1.03E+03,-5042,5023,-2671,95,418,-546,1,7,11
1.04E+03,-5077,5036,-2677,-101,612,-531,1,7,11
1.04E+03,-5049,5044,-2447,-65,530,-235,1,7,11
1.03E+03,-5034,5059,-2451,-65,234,-250,1,7,11
1.01E+03,-5090,5064,-2674,-126,183,-549,1,7,11
9.80E+02,-5113,5048,-2665,88,374,-540,1,7,11
9.40E+02,-5107,5017,-2668,54,318,-253,1,7,11
8.96E+02,-5100,4997,-2680,25,304,-230,1,7,11
8.59E+02,-5108,5227,-2440,9,314,-197,1,7,11
8.36E+02,-5390,5224,-2508,-264,323,-369,1,7,11
8.30E+02,-5405,5237,-2521,-258,331,-140,1,7,11
8.37E+02,-5107,5020,-2538,7,325,-147,1,7,11
8.50E+02,-5087,5020,-2502,-311,333,-204,1,7,11
8.67E+02,-5110,5234,-2671,-346,348,-529,1,7,11
8.85E+02,-5104,5225,-2626,-293,340,-555,1,7,11
9.04E+02,-5043,5006,-2649,38,343,-573,1,7,11
9.25E+02,-5219,5072,-2436,33,159,-399,1,7,11
9.46E+02,-5213,5104,-2672,-343,554,-823,1,7,11
9.69E+02,-5002,5048,-2611,-232,430,-726,1,7,11
9.92E+02,-5007,5218,-2571,-559,776,-1064,1,7,11
1.01E+03,-5226,5161,-2583,-536,881,-1142,1,7,11
1.04E+03,-5143,5184,-2680,-228,1024,-962,1,7,11
1.05E+03,-4829,5197,-2545,-567,994,-1375,1,7,11
1.07E+03,-4859,5175,-2825,-449,1273,-1570,1,7,11
1.08E+03,-5136,5127,-2851,-872,1535,-1455,1,7,11
1.09E+03,-5147,4766,-2843,-762,2053,-1836,1,7,11
1.10E+03,-4861,4739,-2881,-1028,2315,-1671,1,7,11
1.11E+03,-4789,4760,-2701,-1064,2585,-1786,1,7,11
1.11E+03,-4775,4742,-2734,-946,2903,-1956,1,7,11
1.11E+03,-4909,4871,-2703,-1391,2951,-2370,1,7,11
1.12E+03,-5060,4486,-2696,-1212,3439,-2178,1,7,11
1.12E+03,-5093,4663,-2759,-1154,3266,-2272,1,7,11
1.12E+03,-5056,4335,-2814,-1332,3234,-1959,1,7,11
1.12E+03,-5108,4288,-3109,-1014,3218,-2001,1,7,11
1.12E+03,-5386,4422,-3139,-996,3379,-2010,1,7,11
1.11E+03,-5425,4062,-3198,-1104,3030,-2026,1,7,11
1.11E+03,-5417,4093,-3363,-806,3174,-1959,1,7,11
1.10E+03,-5101,4233,-3307,-549,3094,-2103,1,7,11
1.09E+03,-5108,4341,-3701,-234,2806,-1749,1,7,11
1.08E+03,-5450,4655,-3488,-513,2815,-1910,1,7,11
1.07E+03,-5354,4673,-3465,-528,2756,-1513,1,7,11
1.06E+03,-5693,4623,-3710,-240,2549,-1245,1,7,11
1.05E+03,-5647,4323,-3494,-373,2290,-963,1,7,11
1.05E+03,-5290,4322,-3841,11,2323,-1035,1,7,11
1.05E+03,-5481,4327,-3902,58,1938,-707,1,7,11
1.05E+03,-5443,4308,-3962,28,2093,-642,1,7,11
1.05E+03,-5084,4231,-3732,-331,1714,-800,1,7,11
1.05E+03,-5216,4353,-3752,-165,1871,-510,1,7,11
1.04E+03,-4863,4024,-3780,-157,1828,-848,1,7,11
1.03E+03,-4829,4004,-3802,-132,1803,-754,1,7,11
1.01E+03,-4853,4010,-4098,-367,1507,-1126,1,7,11
9.89E+02,-4833,4011,-4192,-132,1651,-1125,1,7,11
9.65E+02,-4755,4223,-3991,-194,1542,-1095,1,7,11
9.47E+02,-4973,3977,-4045,-219,1255,-1114,1,7,11
9.41E+02,-4982,4015,-4085,-221,1236,-1116,1,7,11
9.45E+02,-4806,4032,-4078,-256,1198,-1100,1,7,11
9.54E+02,-4853,4013,-4072,-582,1347,-737,1,7,11
9.63E+02,-5131,3976,-4067,-579,957,-878,1,7,11
9.66E+02,-5121,3992,-4356,-247,1064,-484,1,7,11
9.64E+02,-4807,4019,-4406,-203,665,-611,1,7,11
9.58E+02,-4772,4031,-4432,-199,812,-531,1,7,11
9.52E+02,-4748,4018,-4438,-227,463,-208,1,7,11
9.46E+02,-4744,3991,-4433,-239,639,-163,1,7,11
9.42E+02,-4966,4199,-4431,-238,546,-364,1,7,11
9.39E+02,-4918,4154,-4440,-201,242,-337,1,7,11
9.37E+02,-4908,4143,-4452,-371,239,-346,1,7,11
9.35E+02,-4907,4150,-4464,-316,235,-354,1,7,11
9.32E+02,-4917,4140,-4461,-295,225,-355,1,7,11
9.26E+02,-4918,4145,-4225,-269,207,-354,1,7,11
9.13E+02,-4903,4163,-4234,-270,180,-352,1,7,11
8.95E+02,-4915,4180,-4235,-281,172,-363,1,7,11
8.74E+02,-4941,4211,-4227,-313,162,-363,1,7,11
8.52E+02,-4983,4206,-4454,-382,130,-339,1,7,11
8.32E+02,-4742,4183,-4416,-168,336,-298,1,7,11
8.18E+02,-4760,4173,-4391,-162,284,-265,1,7,11
8.16E+02,-4764,4163,-4378,-153,-33,29,1,7,11
8.28E+02,-4750,4138,-4092,-135,-100,67,1,7,11
8.51E+02,-4975,4166,-4079,-334,121,89,1,7,11
8.78E+02,-4969,4191,-4079,-325,103,102,1,7,11
9.03E+02,-4958,4197,-4046,-333,97,-115,1,7,11
9.23E+02,-4929,4188,-4038,-324,100,-69,1,7,11
9.38E+02,-4894,4187,-4047,-298,114,-18,1,7,11
9.49E+02,-4577,4189,-4072,-279,-114,292,1,7,11
9.56E+02,-4536,4212,-4093,10,-37,291,1,7,11
9.60E+02,-4542,4002,-4365,23,311,266,1,7,11
9.62E+02,-4554,4025,-4365,-279,371,-2,1,7,11
9.62E+02,-4566,4037,-4082,-329,160,-28,1,7,11
9.61E+02,-4585,4046,-4051,-129,170,-71,1,7,11
9.57E+02,-4871,4050,-4042,-164,159,-123,1,7,11
9.47E+02,-4913,4066,-4043,-184,377,88,1,7,11
9.28E+02,-4939,4075,-4060,-216,311,90,1,7,11
8.99E+02,-4939,4070,-4083,-253,-23,-120,1,7,11
8.68E+02,-4916,4028,-4361,-535,-96,-47,1,7,11
8.45E+02,-4604,4217,-4399,-529,117,286,1,7,11
8.38E+02,-4526,4178,-4434,-218,122,340,1,7,11
8.49E+02,-4730,4168,-4454,-136,-74,344,1,7,11
8.69E+02,-4719,4198,-4450,-283,278,305,1,7,11
8.92E+02,-4522,4011,-4431,58,363,-19,1,7,11
9.11E+02,-4587,4082,-4402,95,128,-53,1,7,11
9.26E+02,-4605,4375,-4397,111,350,-61,1,7,11
9.36E+02,-4596,4400,-4397,95,306,-75,1,7,11
9.41E+02,-4537,4376,-4407,11,-4,-73,1,7,11
9.42E+02,-4696,4083,-4402,-346,-15,-123,1,7,11
9.39E+02,-4692,4065,-4404,-176,274,29,1,7,11
9.36E+02,-4488,4059,-4397,-237,340,-130,1,7,11
9.34E+02,-4530,4072,-4388,-533,377,-135,1,7,11
9.31E+02,-4545,4090,-4379,-566,378,-364,1,7,11
9.24E+02,-4560,4095,-4358,-611,378,-347,1,7,11
9.06E+02,-4588,4079,-4054,-430,370,-341,1,7,11
8.76E+02,-4887,4031,-3998,-430,346,-341,1,7,11
8.44E+02,-4911,3993,-3985,-612,285,-286,1,7,11
8.22E+02,-4593,4012,-4010,-255,-31,73,1,7,11
8.22E+02,-4490,4045,-4058,-195,-48,-94,1,7,11
8.43E+02,-4659,4062,-4091,-187,270,-56,1,7,11
8.72E+02,-4635,4069,-4378,-181,128,-74,1,7,11
8.97E+02,-4663,4094,-4415,-152,235,-122,1,7,11
9.10E+02,-4696,4374,-4448,-382,552,98,1,7,11
9.14E+02,-4719,4405,-4480,-354,581,81,1,7,11
9.14E+02,-4730,4410,-4240,-355,575,82,1,7,11
9.16E+02,-4718,4396,-4480,-351,554,83,1,7,11
9.20E+02,-4697,4391,-4472,-319,529,40,1,7,11
9.21E+02,-4711,4410,-4469,-269,513,-297,1,7,11
9.12E+02,-4718,4448,-4475,26,222,-350,1,7,11
8.87E+02,-4714,4464,-4230,11,188,-372,1,7,11
8.55E+02,-4692,4446,-4233,-284,157,-374,1,7,11
8.27E+02,-4707,4402,-4478,-339,148,-135,1,7,11
8.15E+02,-4733,4076,-4446,-131,369,-379,1,7,11
8.22E+02,-4500,4050,-4452,-364,325,-346,1,7,11
8.38E+02,-4486,4039,-4232,-349,-2,2,1,7,11
8.54E+02,-4686,4007,-4254,-136,-46,93,1,7,11
8.63E+02,-4668,4067,-4477,-366,380,-99,1,7,11
8.70E+02,-4689,4358,-4462,-356,132,125,1,7,11
8.77E+02,-4687,4410,-4480,-334,367,72,1,7,11
8.90E+02,-4681,4454,-4240,-333,338,18,1,7,11
9.07E+02,-4700,4238,-4239,-366,311,-298,1,7,11
9.21E+02,-4485,4264,-4478,-162,282,-329,1,7,11
9.26E+02,-4526,4239,-4439,-303,-37,-323,1,7,11
9.15E+02,-4549,4425,-4405,-627,-125,-283,1,7,11
8.92E+02,-4512,4376,-4406,-625,26,43,1,7,11
8.65E+02,-4688,4363,-4441,-610,-297,116,1,7,11
8.39E+02,-4634,4359,-4464,-625,-282,-97,1,7,11
8.20E+02,-4615,4359,-4456,-417,25,-26,1,7,11
8.07E+02,-4336,4070,-4447,-490,78,352,1,7,11
8.00E+02,-4269,4044,-4435,-776,105,214,1,7,11
7.98E+02,-4432,4056,-4455,-476,-71,248,1,7,11
8.01E+02,-4469,4353,-4470,-408,320,138,1,7,11
8.05E+02,-4265,4401,-4474,-587,139,320,1,7,11
8.11E+02,-4321,4455,-4468,-227,158,-15,1,7,11
8.20E+02,-4647,4262,-4460,-376,143,-103,1,7,11
8.34E+02,-4702,4322,-4455,-291,330,111,1,7,11
8.57E+02,-4711,4350,-4405,-278,-29,72,1,7,11
8.82E+02,-4482,4325,-4062,-320,-114,27,1,7,11
8.97E+02,-4483,4269,-3990,-344,50,34,1,7,11
8.92E+02,-4662,4224,-3979,-347,-294,81,1,7,11
8.60E+02,-4337,4454,-3990,-334,-289,102,1,7,11
8.18E+02,-4241,4435,-4047,-330,32,-95,1,7,11
7.84E+02,-4242,4412,-4060,-359,-22,-86,1,7,11
7.72E+02,-4277,4406,-4073,-349,366,-53,1,7,11
7.78E+02,-4320,4407,-4087,-309,205,-24,1,7,11
7.90E+02,-4336,4432,-4380,78,218,-32,1,7,11
8.01E+02,-4627,4608,-4281,293,189,-121,1,7,11
8.09E+02,-4648,4612,-4284,259,142,114,1,7,11
8.18E+02,-4682,4336,-4254,-69,318,109,1,7,11
8.32E+02,-4671,4290,-4461,-117,-49,-117,1,7,11
8.50E+02,-4642,4261,-4439,-127,106,-109,1,7,11
8.67E+02,-4311,4247,-4459,-124,19,-60,1,7,11
8.76E+02,-4447,4232,-4232,90,-261,-19,1,7,11
8.74E+02,-4393,4459,-4236,33,69,-57,1,7,11
8.61E+02,-4399,4441,-4233,-273,-77,-90,1,7,11
8.39E+02,-4468,4413,-4457,-314,281,-124,1,7,11
8.10E+02,-4286,4410,-4417,-301,330,-125,1,7,11
7.77E+02,-4346,4420,-4390,-260,324,-100,1,7,11
7.47E+02,-4621,4451,-4401,56,287,-58,1,7,11
7.26E+02,-4348,4235,-4425,96,-6,-36,1,7,11
7.10E+02,-4320,4265,-4461,118,-35,-46,1,7,11
6.94E+02,-4259,4257,-4243,-70,-84,-120,1,7,11
6.75E+02,-4463,4289,-4309,-36,-72,95,1,7,11
6.58E+02,-4449,4272,-4337,-95,-21,67,1,7,11
6.48E+02,-4265,4447,-4237,75,258,6,1,7,11
6.49E+02,-4243,4450,-4323,-154,356,-23,1,7,11
6.56E+02,-4240,4460,-4312,-370,363,275,1,7,11
6.64E+02,-4242,4469,-4303,-298,358,270,1,7,11
6.68E+02,-4231,4245,-4306,36,324,-6,1,7,11
6.63E+02,-4469,4255,-4293,62,283,-59,1,7,11
6.48E+02,-4244,4258,-4268,80,-6,118,1,7,11
6.31E+02,-4257,4254,-4262,80,-77,115,1,7,11
6.22E+02,-4438,4256,-4286,60,82,-86,1,7,11
6.18E+02,-4086,4260,-4311,-258,58,-72,1,7,11
6.07E+02,-4061,4267,-4339,-345,118,-95,1,7,11
5.84E+02,-4065,4224,-4317,-149,-83,116,1,7,11
5.67E+02,-4393,4242,-4320,-131,264,113,1,7,11
5.75E+02,-4462,4479,-4271,-183,312,-117,1,7,11
5.92E+02,-4260,4469,-4266,-179,318,-87,1,7,11
5.92E+02,-4272,4234,-4277,-130,275,-69,1,7,11
5.72E+02,-4232,4249,-4284,-349,-30,-63,1,7,11
5.52E+02,-4467,4237,-4276,-343,-61,-71,1,7,11
5.46E+02,-4458,4470,-4270,-350,-89,-66,1,7,11
5.52E+02,-4401,4477,-4296,-335,-127,-7,1,7,11
5.63E+02,-4035,4477,-4346,-343,113,310,1,7,11
5.68E+02,-4194,4450,-4641,-378,-96,321,1,7,11
5.57E+02,-4162,4439,-4669,-136,271,-3,1,7,11
5.39E+02,-4021,4448,-4655,-381,146,106,1,7,11
5.33E+02,-4429,4239,-4617,-289,182,28,1,7,11
5.45E+02,-4313,4321,-4625,80,350,43,1,7,11
5.71E+02,-4331,4615,-4650,-111,-93,-101,1,7,11
5.97E+02,-4259,4608,-4662,-76,-265,-35,1,7,11
5.96E+02,-4234,4322,-4633,-74,-371,-89,1,7,11
5.55E+02,-4254,4250,-4324,-70,-215,117,1,7,11
5.22E+02,-4268,4413,-4296,257,-588,121,1,7,11
5.45E+02,-4466,4385,-4322,382,-455,-82,1,7,11
5.93E+02,-4408,4372,-4336,175,-769,-58,1,7,11
6.11E+02,-4393,4379,-4338,177,-507,-56,1,7,11
5.92E+02,-4436,4391,-4350,155,-492,-34,1,7,11
5.78E+02,-4444,4395,-4638,381,-777,313,1,7,11
5.94E+02,-4433,4393,-4679,358,-802,378,1,7,11
6.16E+02,-4444,4362,-4697,350,-798,152,1,7,11
6.16E+02,-4470,4080,-4682,383,-789,160,1,7,11
5.96E+02,-4473,4086,-4662,192,-793,188,1,7,11
5.75E+02,-4254,4378,-4635,248,-787,166,1,7,11
5.63E+02,-4296,4414,-4347,553,-807,170,1,7,11
5.59E+02,-4338,4427,-4334,578,-837,193,1,7,11
5.61E+02,-4342,4432,-4328,617,-884,254,1,7,11
5.65E+02,-4322,4443,-4327,632,-659,548,1,7,11
5.69E+02,-4333,4443,-4286,634,-661,578,1,7,11
5.73E+02,-4628,4458,-4251,388,-672,612,1,7,11
5.76E+02,-4670,4445,-4479,622,-707,618,1,7,11
5.80E+02,-4654,4457,-4236,620,-1038,401,1,7,11
5.85E+02,-4635,4471,-4264,617,-1149,630,1,7,11
5.91E+02,-4350,4236,-4289,580,-938,613,1,7,11
5.97E+02,-4321,4240,-4299,472,-952,582,1,7,11
5.99E+02,-4343,4469,-4270,161,-942,537,1,7,11
5.99E+02,-4625,4422,-4228,268,-919,527,1,7,11
5.95E+02,-4648,4360,-4434,-36,-917,536,1,7,11
5.89E+02,-4619,4081,-4415,-32,-916,566,1,7,11
5.81E+02,-4693,4371,-4027,-78,-760,396,1,7,11
5.73E+02,-4704,4380,-4007,-73,-749,468,1,7,11
5.68E+02,-4674,4415,-4012,-50,-727,784,1,7,11
5.71E+02,-4679,4242,-4033,-29,-667,495,1,7,11
5.77E+02,-4730,4344,-4059,-59,-863,449,1,7,11
5.72E+02,-4526,4667,-4064,96,-864,424,1,7,11
5.57E+02,-4550,4678,-4044,-270,-654,415,1,7,11
5.51E+02,-4562,4660,-4029,-328,-703,630,1,7,11
5.65E+02,-4594,4638,-4007,-335,-739,578,1,7,11
5.82E+02,-4565,4638,-4003,-311,-1042,574,1,7,11
5.82E+02,-4527,4644,-4002,-318,-1052,553,1,7,11
5.71E+02,-4725,4611,-3970,-131,-1041,534,1,7,11
5.63E+02,-4714,4305,-4182,-191,-712,190,1,7,11
5.67E+02,-4498,4276,-4154,-193,-884,350,1,7,11
5.87E+02,-4528,4255,-4131,-201,-830,297,1,7,11
6.21E+02,-4542,4479,-3835,-209,-784,263,1,7,11
6.50E+02,-4552,4234,-3808,-195,-468,257,1,7,11
6.59E+02,-4548,4240,-3790,-218,-412,275,1,7,11
6.48E+02,-4558,4247,-3788,-231,-605,301,1,7,11
6.35E+02,-4582,4264,-3794,-243,-542,327,1,7,11
6.34E+02,-4872,4283,-3801,-513,-233,365,1,7,11
6.49E+02,-4884,4318,-3790,-521,-193,171,1,7,11
6.81E+02,-4900,4620,-3748,-544,-157,209,1,7,11
7.27E+02,-4930,4642,-3949,-575,-168,254,1,7,11
7.77E+02,-4937,4658,-3915,-570,-215,538,1,7,11
8.18E+02,-4928,4717,-3906,-234,-565,538,1,7,11
8.44E+02,-4878,4509,-3923,-204,-629,553,1,7,11
8.56E+02,-4575,4534,-3921,-209,-390,527,1,7,11
8.60E+02,-4552,4531,-3907,-229,-640,236,1,7,11
8.60E+02,-4543,4516,-3887,-245,-611,179,1,7,11
8.58E+02,-4562,4496,-3857,-246,-584,130,1,7,11
8.56E+02,-4554,4734,-3575,-236,-562,371,1,7,11
8.56E+02,-4562,4722,-3554,-210,-526,328,1,7,11
8.58E+02,-4562,4718,-3546,-182,-232,298,1,7,11
8.59E+02,-4591,4712,-3550,-153,-178,-3,1,7,11
8.56E+02,-4871,4721,-3556,-367,-378,-28,1,7,11
8.48E+02,-4883,4723,-3551,-340,-334,-26,1,7,11
8.35E+02,-4892,4729,-3555,-300,-288,-39,1,7,11
8.22E+02,-4911,4728,-3562,-274,1,-49,1,7,11
8.10E+02,-4889,4734,-3579,-257,22,-67,1,7,11
7.99E+02,-4902,4490,-3568,2,54,-128,1,7,11
7.83E+02,-4907,4509,-3561,7,75,95,1,7,11
7.59E+02,-4906,4535,-3556,-257,92,79,1,7,11
7.27E+02,-4929,4554,-3546,-284,114,76,1,7,11
6.94E+02,-4940,4555,-3530,-325,117,-128,1,7,11
6.68E+02,-4865,4533,-3508,-136,108,-24,1,7,11
6.50E+02,-4586,4541,-3518,-163,-121,-26,1,7,11
6.42E+02,-4580,4563,-3535,-189,-81,-48,1,7,11
6.42E+02,-4589,4586,-3543,-226,-44,-63,1,7,11
6.49E+02,-4592,4591,-3549,-524,-22,-55,1,7,11
6.61E+02,-4586,4584,-3540,-543,-5,-59,1,7,11
6.76E+02,-4588,4594,-3530,-535,275,-76,1,7,11
6.95E+02,-4882,4602,-3519,-526,285,-101,1,7,11
7.16E+02,-4908,4594,-3517,-239,257,-85,1,7,11
7.39E+02,-4906,4584,-3532,-198,-49,-57,1,7,11
7.67E+02,-4879,4598,-3562,-142,-88,-30,1,7,11
7.99E+02,-4604,4872,-3572,-360,-100,-33,1,7,11
8.32E+02,-4877,4917,-3560,-349,-94,-35,1,7,11
8.58E+02,-4890,4944,-3542,-360,-111,-9,1,7,11
8.71E+02,-4912,4964,-3542,-157,114,272,1,7,11
8.71E+02,-4925,4961,-3541,-214,53,304,1,7,11
8.62E+02,-4888,4939,-3519,-525,-263,342,1,7,11
8.51E+02,-4883,4908,-3487,-561,-294,357,1,7,11
8.43E+02,-4588,4901,-3485,-562,-312,158,1,7,11
8.38E+02,-4536,4894,-3489,-563,-308,196,1,7,11
8.37E+02,-4491,4911,-3502,-558,-279,179,1,7,11
8.38E+02,-4500,4943,-3500,-558,28,365,1,7,11
8.39E+02,-4523,4973,-3490,-558,70,319,1,7,11
8.39E+02,-4514,4989,-3480,-558,95,311,1,7,11
8.33E+02,-4505,4991,-3707,-562,126,294,1,7,11
8.24E+02,-4498,4978,-3692,-553,-105,281,1,7,11
8.14E+02,-4510,4970,-3676,-518,-73,-37,1,7,11
8.09E+02,-4545,4988,-3663,-199,-62,-89,1,7,11
8.11E+02,-4550,4738,-3667,-153,-75,-111,1,7,11
8.17E+02,-4537,4987,-3669,-367,-87,-121,1,7,11
8.23E+02,-4517,4972,-3681,-331,-79,114,1,7,11
8.24E+02,-4540,4971,-3683,-287,-58,69,1,7,11
8.23E+02,-4531,4987,-3703,14,-55,52,1,7,11
8.26E+02,-4528,4991,-3709,16,-45,21,1,7,11
8.39E+02,-4540,4976,-3700,13,-27,7,1,7,11
8.62E+02,-4556,4973,-3701,16,-12,-260,1,7,11
8.87E+02,-4556,4972,-3699,19,-8,5,1,7,11
9.05E+02,-4563,4965,-3695,20,-8,11,1,7,11
9.10E+02,-4577,4973,-3697,37,-18,23,1,7,11
9.02E+02,-4552,4984,-3459,52,-41,63,1,7,11
8.88E+02,-4532,4986,-3462,43,-41,90,1,7,11
8.72E+02,-4521,4978,-3464,22,-22,107,1,7,11
8.59E+02,-4522,4974,-3702,6,-2,112,1,7,11
8.49E+02,-4536,4739,-3685,3,-1,114,1,7,11
8.42E+02,-4545,4770,-3692,3,-34,-119,1,7,11
8.38E+02,-4538,4790,-3703,-269,-62,-88,1,7,11
8.36E+02,-4517,4798,-3708,-304,-76,-53,1,7,11
8.32E+02,-4511,4782,-3459,-349,-71,-30,1,7,11
8.25E+02,-4498,4762,-3464,-373,-62,-3,1,7,11
8.15E+02,-4494,4764,-3473,-383,-51,256,1,7,11
8.02E+02,-4736,4770,-3481,-384,-46,-6,1,7,11
7.86E+02,-4490,4776,-3465,-129,-39,-32,1,7,11
7.71E+02,-4506,4770,-3710,-372,-44,-44,1,7,11
7.54E+02,-4507,4755,-3475,-350,-67,-38,1,7,11
7.38E+02,-4510,4748,-3482,-311,-79,-41,1,7,11
7.25E+02,-4496,4818,-3507,82,-117,-111,1,7,11
7.22E+02,-4515,4815,-3514,69,126,123,1,7,11
7.34E+02,-4520,4806,-3508,37,91,-116,1,7,11
7.56E+02,-4527,4805,-3486,19,72,-114,1,7,11
7.71E+02,-4549,4795,-3461,7,29,-76,1,7,11
7.64E+02,-4535,4774,-3707,-258,-282,-17,1,7,11
7.36E+02,-4527,4762,-3711,8,-318,274,1,7,11
7.03E+02,-4496,4756,-3472,9,-348,310,1,7,11
6.83E+02,-4509,4760,-3479,22,-353,308,1,7,11
6.78E+02,-4551,4803,-3487,44,-373,328,1,7,11
6.81E+02,-4577,4836,-3487,18,-175,146,1,7,11
6.85E+02,-4555,4853,-3483,-271,-244,243,1,7,11
6.92E+02,-4526,5130,-3482,-318,-563,587,1,7,11
7.06E+02,-4502,5148,-3479,-371,-618,433,1,7,11
7.29E+02,-4510,5160,-3465,-190,-401,447,1,7,11
7.54E+02,-4530,5171,-3698,-255,-435,486,1,7,11
7.74E+02,-4541,5175,-3673,-568,-484,833,1,7,11
7.84E+02,-4723,5239,-3327,-486,-725,1032,1,7,11
7.85E+02,-4483,5011,-3289,-775,-752,762,1,7,11
7.78E+02,-4724,5051,-3253,-773,-1037,1045,1,7,11
7.67E+02,-4694,5096,-3217,-510,-1041,1071,1,7,11
7.53E+02,-4679,5406,-3433,-509,-761,1102,1,7,11
7.38E+02,-4630,5441,-3407,-794,-761,905,1,7,11
7.25E+02,-4349,5437,-3343,-853,-737,1133,1,7,11
7.15E+02,-4638,5465,-3026,-845,-709,1064,1,7,11
7.10E+02,-4669,5500,-2981,-825,-720,1029,1,7,11
7.13E+02,-4714,5272,-3199,-792,-757,1027,1,7,11
7.22E+02,-4720,5327,-2946,-485,-1081,1095,1,7,11
7.40E+02,-4734,5367,-2956,-505,-909,950,1,7,11
7.64E+02,-4343,5272,-2961,-675,-1369,1209,1,7,11
7.88E+02,-4289,5503,-3187,-718,-1369,1191,1,7,11
8.05E+02,-4261,5265,-3133,-726,-1320,1402,1,7,11
8.09E+02,-4234,5303,-3073,-697,-1008,1383,1,7,11
8.08E+02,-4438,5633,-2774,-644,-946,1388,1,7,11
8.09E+02,-4428,5714,-2738,-875,-1120,1357,1,7,11
8.20E+02,-4405,5539,-2944,-871,-1059,1295,1,7,11
8.36E+02,-4417,5615,-2876,-863,-747,914,1,7,11
8.46E+02,-4446,5945,-2546,-840,-720,1045,1,7,11
8.41E+02,-4473,5970,-2462,-793,-719,686,1,7,11
8.19E+02,-4471,5975,-2676,-443,-747,888,1,7,11
7.93E+02,-4418,5955,-2669,-594,-1028,875,1,7,11
7.76E+02,-4083,5945,-2682,-225,-731,829,1,7,11
7.75E+02,-4023,5968,-2448,-384,-884,781,1,7,11
7.85E+02,-4013,5763,-2676,-353,-482,442,1,7,11
8.00E+02,-4061,5808,-2647,-327,-597,614,1,7,11
8.13E+02,-4083,5827,-2615,-313,-253,507,1,7,11
8.26E+02,-4091,5849,-2584,-291,-206,181,1,7,11
8.37E+02,-4357,5856,-2293,-276,-199,130,1,7,11
8.48E+02,-4354,5832,-2250,-282,-200,362,1,7,11
8.58E+02,-4087,5789,-2223,-276,-199,346,1,7,11
8.64E+02,-4043,6000,-2226,-263,-196,353,1,7,11
8.66E+02,-4004,5988,-2253,27,-360,312,1,7,11
8.62E+02,-4012,5776,-2299,80,29,-10,1,7,11
8.52E+02,-4029,5841,-2611,-118,-97,-43,1,7,11
8.38E+02,-4046,6150,-2639,124,277,-53,1,7,11
8.20E+02,-4054,6187,-2659,89,371,-78,1,7,11
8.03E+02,-4377,6202,-2637,36,186,102,1,7,11
7.91E+02,-4432,6189,-2616,8,178,67,1,7,11
7.91E+02,-4460,6150,-2581,-263,368,43,1,7,11
8.00E+02,-4450,5842,-2567,17,278,42,1,7,11
8.16E+02,-4398,5799,-2598,66,-45,67,1,7,11
8.33E+02,-4060,5767,-2648,99,-49,81,1,7,11
8.49E+02,-4005,5766,-2459,125,278,60,1,7,11
8.63E+02,-3983,5786,-2524,118,379,8,1,7,11
8.75E+02,-4017,5812,-2550,98,222,-315,1,7,11
8.83E+02,-4050,5850,-2835,76,537,-354,1,7,11
8.88E+02,-4363,5861,-2818,32,553,-381,1,7,11
8.88E+02,-4427,5868,-2532,6,528,-384,1,7,11
8.81E+02,-4475,5843,-2488,-266,184,-359,1,7,11
8.69E+02,-4238,5814,-2456,-270,307,-319,1,7,11
8.56E+02,-4453,5782,-2441,-257,-78,-265,1,7,11
8.46E+02,-4395,6006,-2688,2,109,26,1,7,11
8.42E+02,-4061,5973,-2688,-281,99,73,1,7,11
8.45E+02,-4022,5936,-2686,-301,-87,84,1,7,11
8.53E+02,-4046,5932,-2679,-295,264,104,1,7,11
8.65E+02,-4075,5945,-2677,-277,346,-94,1,7,11
8.79E+02,-4376,5972,-2437,11,137,-29,1,7,11
8.91E+02,-4378,5765,-2474,40,158,302,1,7,11
8.98E+02,-4365,5796,-2511,45,161,355,1,7,11
8.96E+02,-4034,5818,-2830,36,168,364,1,7,11
8.87E+02,-4030,5857,-2875,-302,247,-87,1,7,11
8.74E+02,-4030,5871,-2878,-328,252,98,1,7,11
8.59E+02,-4033,5874,-2876,-360,240,32,1,7,11
8.45E+02,-4037,5883,-2863,-383,212,-290,1,7,11
8.35E+02,-4096,5868,-2827,-172,156,-347,1,7,11
8.33E+02,-4371,5832,-2533,-200,307,-329,1,7,11
8.39E+02,-4347,5999,-2517,-205,-59,-280,1,7,11
8.50E+02,-4040,5951,-2538,-180,113,54,1,7,11
8.63E+02,-4000,5916,-2823,-366,104,117,1,7,11
8.73E+02,-3982,5898,-2853,-317,-92,122,1,7,11
8.77E+02,-4028,5920,-2862,-257,-18,82,1,7,11
8.70E+02,-4052,5985,-2875,62,264,81,1,7,11
8.46E+02,-4064,5791,-2896,83,-8,64,1,7,11
8.08E+02,-4093,5876,-2932,104,-41,10,1,7,11
7.62E+02,-4401,6200,-2695,87,-103,-318,1,7,11
7.19E+02,-4449,6230,-2703,63,42,-356,1,7,11
6.83E+02,-4436,6219,-2706,39,-359,-363,1,7,11
6.56E+02,-4448,5861,-2892,-284,-243,-164,1,7,11
6.37E+02,-4457,5963,-2520,-278,-398,-201,1,7,11
6.26E+02,-4418,5593,-2469,105,-801,-208,1,7,11
6.24E+02,-4355,5570,-2491,272,-881,-216,1,7,11
6.32E+02,-4090,5597,-2538,378,-867,-231,1,7,11
6.47E+02,-4383,5627,-2547,174,-812,-199,1,7,11
6.69E+02,-4416,5909,-2829,213,-778,-359,1,7,11
6.96E+02,-4274,5961,-2849,512,-857,118,1,7,11
7.26E+02,-4313,5969,-2844,514,-665,-103,1,7,11
7.60E+02,-4343,5978,-2831,513,-751,-76,1,7,11
7.94E+02,-4631,5980,-2830,254,-1117,-58,1,7,11
8.27E+02,-4630,5989,-2871,517,-993,-7,1,7,11
8.57E+02,-4336,6010,-2925,224,-1357,283,1,7,11
8.81E+02,-4324,5991,-2689,140,-1156,296,1,7,11
8.96E+02,-4306,5985,-2913,303,-1188,330,1,7,11
8.99E+02,-4293,5977,-2851,-30,-1173,345,1,7,11
8.85E+02,-4322,5962,-2537,-86,-1396,351,1,7,11
8.57E+02,-4300,5946,-2449,119,-1374,377,1,7,11
8.23E+02,-4271,5940,-2613,65,-1285,312,1,7,11
7.94E+02,-4277,5943,-2275,57,-952,-4,1,7,11
7.79E+02,-4308,5953,-2194,48,-1144,-62,1,7,11
7.77E+02,-4312,5962,-2391,31,-1112,-68,1,7,11
7.85E+02,-4272,5943,-2362,-265,-1079,-49,1,7,11
8.00E+02,-4274,5931,-2339,-294,-740,-65,1,7,11
8.19E+02,-4281,5915,-2346,-318,-648,-44,1,7,11
8.37E+02,-4256,5915,-2362,-345,-789,-25,1,7,11
8.53E+02,-4269,5914,-2349,-375,-636,-20,1,7,11
8.65E+02,-4282,5931,-2332,-139,-220,261,1,7,11
8.73E+02,-4305,5935,-2038,-152,-335,297,1,7,11
8.81E+02,-4276,5939,-2024,-148,26,348,1,7,11
8.88E+02,-4247,5961,-2038,-383,-120,320,1,7,11
8.94E+02,-4265,5760,-2322,-363,-12,-8,1,7,11
8.96E+02,-4663,5769,-2272,-160,304,84,1,7,11
8.92E+02,-4661,5767,-2282,-145,270,83,1,7,11
8.81E+02,-4620,5789,-2304,-379,-17,82,1,7,11
8.68E+02,-4633,5801,-2570,-365,-33,-7,1,7,11
8.56E+02,-4640,5828,-2591,-352,-49,-304,1,7,11
8.46E+02,-4644,5844,-2599,-349,-117,-364,1,7,11
8.42E+02,-4669,5828,-2578,-136,81,-151,1,7,11
8.47E+02,-4674,5802,-2563,-181,21,-164,1,7,11
8.63E+02,-4653,6008,-2294,-196,-281,-153,1,7,11
8.88E+02,-4652,5944,-2275,-181,-299,-147,1,7,11
9.12E+02,-4696,5910,-2243,-137,-300,-173,1,7,11
9.28E+02,-4729,5898,-2224,-310,-331,-172,1,7,11
9.29E+02,-4733,5920,-2241,25,-367,-177,1,7,11
9.17E+02,-4736,5949,-2262,72,-136,-191,1,7,11
8.97E+02,-4490,5977,-2293,75,-150,-215,1,7,11
8.72E+02,-4504,5976,-2571,44,-177,-237,1,7,11
8.46E+02,-4509,5955,-2573,-272,-222,-515,1,7,11
8.23E+02,-4517,5626,-2246,-343,-542,-545,1,7,11
8.04E+02,-4499,5508,-2337,87,-791,-244,1,7,11
7.93E+02,-4487,5536,-2335,-55,-811,-221,1,7,11
7.89E+02,-4529,5572,-2342,285,-797,-197,1,7,11
7.94E+02,-4570,5603,-2349,337,-795,-140,1,7,11
8.09E+02,-4608,5626,-2353,366,-793,-358,1,7,11
8.30E+02,-4918,5912,-2379,133,-788,-348,1,7,11
8.52E+02,-4920,5924,-2407,378,-817,-313,1,7,11
8.71E+02,-4932,5923,-2414,344,-821,-345,1,7,11
8.85E+02,-4992,5919,-2390,301,-821,-137,1,7,11
8.96E+02,-4799,5895,-2353,256,-857,-159,1,7,11
9.04E+02,-4839,5611,-2305,-30,-672,-154,1,7,11
9.11E+02,-4790,5575,-1967,-24,-1052,-356,1,7,11
9.17E+02,-4767,5571,-1965,-2,-1027,-343,1,7,11
9.23E+02,-4969,5544,-2173,-6,-784,-312,1,7,11
9.29E+02,-4934,5531,-2172,-63,-467,-329,1,7,11
9.34E+02,-4939,5523,-2159,-123,-635,-359,1,7,11
9.33E+02,-4934,5531,-2131,72,-553,-363,1,7,11
9.22E+02,-4981,5526,-2097,-261,-208,-138,1,7,11
8.96E+02,-4781,5517,-2081,-300,-141,-374,1,7,11
8.59E+02,-4812,5744,-2076,-328,-377,-333,1,7,11
8.25E+02,-4787,5745,-2100,-304,-354,-276,1,7,11
8.06E+02,-4783,5504,-2119,-278,-287,-268,1,7,11
8.10E+02,-4811,5540,-2138,2,42,-274,1,7,11
8.27E+02,-4859,5570,-2149,6,87,-272,1,7,11
8.49E+02,-5150,5571,-2152,4,98,3,1,7,11
8.66E+02,-5145,5551,-2160,0,97,36,1,7,11
8.79E+02,-5132,5512,-2158,-257,116,30,1,7,11
8.90E+02,-4863,5741,-2159,20,-114,3,1,7,11
9.00E+02,-5135,5737,-2147,48,-81,-313,1,7,11
9.12E+02,-5172,5733,-2146,75,-70,-351,1,7,11
9.24E+02,-5168,5728,-2144,98,-82,-353,1,7,11
9.35E+02,-5168,5718,-2154,104,-77,-366,1,7,11
9.45E+02,-5150,5712,-2166,89,-73,-365,1,7,11
9.53E+02,-5159,5698,-2158,24,-47,-148,1,7,11
9.58E+02,-5188,5697,-2143,-265,-29,-161,1,7,11
9.60E+02,-5189,5683,-2119,-303,-32,-134,1,7,11
9.58E+02,-5187,5670,-2095,-329,-33,-372,1,7,11
9.53E+02,-5187,5661,-2075,-346,-36,-371,1,7,11
9.48E+02,-5211,5666,-2064,-347,-46,-376,1,7,11
9.45E+02,-5200,5678,-2079,-347,-65,-354,1,7,11
9.45E+02,-5201,5673,-2101,-352,-58,-341,1,7,11
9.44E+02,-5208,5658,-2138,-340,-41,-302,1,7,11
9.38E+02,-5180,5635,-1921,-332,-15,0,1,7,11
9.19E+02,-5185,5364,-1950,-313,297,-273,1,7,11
8.87E+02,-5185,5641,-1990,-283,343,-295,1,7,11
8.51E+02,-5223,5667,-1995,-279,378,-350,1,7,11
8.22E+02,-5215,5642,-2142,-329,-39,-526,1,7,11
8.07E+02,-5017,5648,-2111,-344,-60,-253,1,7,11
8.05E+02,-5030,5650,-2113,-340,-102,-166,1,7,11
8.09E+02,-5010,5374,-2130,-334,122,-341,1,7,11
8.14E+02,-5223,5360,-1934,-315,-127,-289,1,7,11
8.19E+02,-5218,5358,-1965,-306,-34,-321,1,7,11
8.26E+02,-5230,5360,-1975,-307,272,-359,1,7,11
8.39E+02,-5241,5362,-1975,-318,302,-158,1,7,11
8.57E+02,-5007,5343,-1958,-349,311,-210,1,7,11
8.78E+02,-5010,5297,-1941,-358,291,-248,1,7,11
9.01E+02,-5234,5263,-1934,-325,270,-559,1,7,11
9.21E+02,-5225,5278,-1936,0,291,-419,1,7,11
9.38E+02,-5243,5316,-1949,40,308,-777,1,7,11
9.47E+02,-5013,5313,-1955,25,318,-843,1,7,11
9.45E+02,-5028,5284,-1934,5,320,-890,1,7,11
9.32E+02,-5040,5253,-2166,3,321,-681,1,7,11
9.11E+02,-5055,5477,-2165,15,343,-711,1,7,11
8.92E+02,-5084,5451,-2169,22,375,-751,1,7,11
8.81E+02,-5385,5449,-1927,25,165,-1045,1,7,11
8.80E+02,-5442,5453,-1952,43,204,-1059,1,7,11
8.87E+02,-5459,5447,-1990,49,231,-1028,1,7,11
8.98E+02,-5445,5446,-2030,62,521,-734,1,7,11
9.08E+02,-5391,5435,-2322,43,555,-679,1,7,11
9.17E+02,-5115,5409,-2332,20,623,-679,1,7,11
9.25E+02,-5402,5114,-2314,17,406,-703,1,7,11
9.32E+02,-5453,5089,-2045,45,416,-679,1,7,11
9.38E+02,-5462,5041,-2017,92,628,-643,1,7,11
9.42E+02,-5457,5034,-2307,-68,611,-836,1,7,11
9.44E+02,-5440,5012,-2359,-30,627,-819,1,7,11
9.42E+02,-5432,4998,-2407,-34,426,-798,1,7,11
9.37E+02,-5463,5236,-2201,-70,500,-813,1,7,11
9.33E+02,-5253,5225,-2225,-99,810,-789,1,7,11
9.32E+02,-5257,5194,-2289,-105,797,-509,1,7,11
9.37E+02,-5291,5203,-2581,-105,824,-510,1,7,11
9.48E+02,-5357,5199,-2573,107,837,-508,1,7,11
9.56E+02,-5721,5201,-2584,97,785,-472,1,7,11
9.57E+02,-5740,5190,-2590,100,443,-622,1,7,11
9.43E+02,-5725,5140,-2600,76,571,-184,1,7,11
9.19E+02,-5683,4829,-2607,57,166,-360,1,7,11
8.93E+02,-5352,4792,-2627,62,376,-303,1,7,11
8.72E+02,-5299,4790,-2638,79,368,-307,1,7,11
8.62E+02,-5286,4840,-2626,99,381,-360,1,7,11
8.60E+02,-5340,5175,-2604,106,382,-141,1,7,11
8.62E+02,-5278,5163,-2298,-341,-270,65,1,7,11
8.65E+02,-5480,5147,-2568,-306,-290,30,1,7,11
8.69E+02,-5435,5153,-2612,-284,-265,-263,1,7,11
8.73E+02,-5429,5162,-2647,-315,100,-331,1,7,11
8.77E+02,-5497,5154,-2657,-359,-23,-379,1,7,11
8.82E+02,-5259,5153,-2677,-372,307,-333,1,7,11
8.89E+02,-5273,5135,-2679,-135,351,-348,1,7,11
8.97E+02,-5349,5152,-2681,-361,364,-164,1,7,11
9.09E+02,-5683,5172,-2441,-345,316,-215,1,7,11
9.22E+02,-5743,5185,-2451,-347,-50,-566,1,7,11
9.35E+02,-5751,5162,-2680,-374,34,-396,1,7,11
9.48E+02,-5644,4847,-2632,-376,-380,-480,1,7,11
9.57E+02,-5343,4817,-2634,-345,-153,-873,1,7,11
9.63E+02,-5371,4769,-2608,-169,-357,-693,1,7,11
9.67E+02,-5651,4906,-2290,-556,-328,-677,1,7,11
9.68E+02,-5648,4550,-2240,-549,-293,-874,1,7,11
9.67E+02,-5683,4496,-2226,-194,14,-849,1,7,11
9.64E+02,-5558,4515,-2253,-302,72,-814,1,7,11
9.59E+02,-5584,4558,-2603,119,-335,-527,1,7,11
9.53E+02,-5895,4891,-2260,68,-1044,94,1,7,11
9.45E+02,-5609,4874,-2432,-271,-1108,-86,1,7,11
9.33E+02,-5626,4893,-2386,-278,-905,-16,1,7,11
9.14E+02,-5631,4900,-2348,8,-961,298,1,7,11
8.86E+02,-5873,4887,-2034,16,-980,314,1,7,11
8.53E+02,-5604,4921,-2316,85,-1296,319,1,7,11
8.25E+02,-5577,4937,-2319,126,-1305,325,1,7,11
8.11E+02,-5567,4968,-2332,103,-983,329,1,7,11
8.14E+02,-5594,4974,-2022,44,-1149,301,1,7,11
8.28E+02,-5915,4736,-1951,28,-1074,295,1,7,11
8.45E+02,-5995,4986,-2123,12,-1062,316,1,7,11
8.59E+02,-6001,4968,-2079,11,-1127,168,1,7,11
8.70E+02,-5928,4898,-1789,-262,-922,255,1,7,11
8.77E+02,-5562,4580,-1754,32,-918,233,1,7,11
8.84E+02,-5545,4864,-1756,-123,-1061,171,1,7,11
8.90E+02,-5525,4871,-1753,-114,-679,143,1,7,11
8.95E+02,-5527,4866,-1744,-118,-776,135,1,7,11
8.98E+02,-5506,4901,-1752,-81,-620,129,1,7,11
9.00E+02,-5550,4949,-1710,-41,-214,273,1,7,11
8.99E+02,-5632,4785,-1676,-20,-355,-25,1,7,11
8.94E+02,-5625,4801,-1773,-22,37,111,1,7,11
8.84E+02,-5631,4847,-2102,-40,115,82,1,7,11
8.69E+02,-5930,5120,-2138,-93,-56,-266,1,7,11
8.49E+02,-6003,5140,-1954,90,-17,-132,1,7,11
8.25E+02,-6012,5122,-1978,5,-64,-190,1,7,11
8.00E+02,-5766,4832,-1954,-352,127,-250,1,7,11
7.74E+02,-5811,4757,-2110,-216,33,-560,1,7,11
7.52E+02,-5788,4885,-1738,-516,-378,-256,1,7,11
7.34E+02,-5957,4529,-1670,-220,-256,-210,1,7,11
7.22E+02,-5899,4734,-1886,-138,-556,-219,1,7,11
7.20E+02,-5913,4483,-1888,5,-241,-234,1,7,11
7.29E+02,-5947,4545,-1689,-127,-151,-173,1,7,11
7.49E+02,-5966,4587,-1756,-108,-317,-319,1,7,11
7.78E+02,-5763,4587,-1760,122,22,15,1,7,11
8.16E+02,-5810,4589,-1764,-108,65,94,1,7,11
8.58E+02,-6164,4913,-2087,-11,-195,332,1,7,11
9.00E+02,-5848,4949,-2100,258,-235,346,1,7,11
9.37E+02,-5826,4958,-2104,256,-237,319,1,7,11
9.66E+02,-5801,4991,-2083,-11,-233,317,1,7,11
9.87E+02,-5807,4743,-2056,-45,-221,295,1,7,11
1.00E+03,-5766,4750,-1772,-87,-240,317,1,7,11
1.01E+03,-5989,4990,-1719,119,-520,296,1,7,11
1.01E+03,-5963,4955,-1914,78,-536,286,1,7,11
1.00E+03,-5938,4913,-1853,66,-552,280,1,7,11
9.99E+02,-5895,4887,-1817,105,-553,290,1,7,11
9.95E+02,-5626,4883,-1809,-37,-255,276,1,7,11
9.93E+02,-5614,4888,-1844,290,-207,297,1,7,11
9.94E+02,-5599,4910,-1901,328,-382,290,1,7,11
9.95E+02,-5595,4955,-1710,347,-262,276,1,7,11
9.96E+02,-5604,4754,-1750,316,-128,-17,1,7,11
9.95E+02,-5924,4802,-1741,-24,-17,-74,1,7,11
9.89E+02,-5767,4811,-1673,-111,270,-115,1,7,11
9.75E+02,-5837,4822,-1861,-126,-38,-106,1,7,11
9.51E+02,-6145,4832,-1836,-100,102,-60,1,7,11
9.18E+02,-5847,4840,-1852,-85,-289,286,1,7,11
8.84E+02,-5782,4845,-1884,-94,-354,303,1,7,11
8.56E+02,-5931,4823,-1686,-123,-351,280,1,7,11
8.41E+02,-5937,4815,-1687,94,-269,-64,1,7,11
8.35E+02,-5970,4785,-1670,58,91,85,1,7,11
8.36E+02,-5981,4742,-1898,15,-89,90,1,7,11
8.38E+02,-5928,4797,-1668,-372,200,-307,1,7,11
8.41E+02,-6006,4832,-2095,-524,385,-209,1,7,11
8.47E+02,-6010,4855,-2108,-523,622,-526,1,7,11
8.58E+02,-5959,4854,-2122,-541,580,-571,1,7,11
8.75E+02,-5628,4838,-2131,-580,586,-437,1,7,11
8.93E+02,-5936,4795,-2107,-632,627,-863,1,7,11
9.10E+02,-5981,4991,-2068,-413,632,-696,1,7,11
9.21E+02,-6014,4918,-1777,-410,606,-739,1,7,11
9.26E+02,-5887,4336,-2382,-286,254,309,1,7,11
9.29E+02,-6150,4627,-2393,-293,175,268,1,7,11
9.34E+02,-5844,4649,-2319,-131,-107,75,1,7,11
9.43E+02,-5836,4564,-2355,104,-113,113,1,7,11
9.55E+02,-5794,4520,-2334,40,123,82,1,7,11
9.66E+02,-6000,4696,-2007,-258,95,13,1,7,11
9.72E+02,-5965,4637,-1949,28,79,-336,1,7,11
9.71E+02,-5934,4614,-1940,111,93,-141,1,7,11
9.62E+02,-5622,4634,-1980,-87,-106,-142,1,7,11
9.46E+02,-5617,4620,-2002,-126,261,-166,1,7,11
9.24E+02,-5897,4314,-2020,101,375,-168,1,7,11
8.97E+02,-5911,4277,-2320,-125,229,-160,1,7,11
8.69E+02,-5952,4287,-2394,-51,596,-170,1,7,11
8.44E+02,-5998,4336,-2217,-6,426,-160,1,7,11
8.25E+02,-5804,4618,-2264,-20,483,-163,1,7,11
8.15E+02,-5872,4641,-2275,-23,478,-152,1,7,11
8.20E+02,-6204,4656,-2278,-21,428,-159,1,7,11
8.40E+02,-6023,4674,-2278,-5,589,-146,1,7,11
8.74E+02,-6039,4706,-2289,265,209,-357,1,7,11
9.10E+02,-6265,4711,-2296,-23,352,-308,1,7,11
9.39E+02,-6208,4694,-2302,-83,269,-278,1,7,11
9.52E+02,-6156,4346,-2262,51,-57,-300,1,7,11
9.51E+02,-6149,4298,-2244,16,-72,-296,1,7,11
9.45E+02,-5845,4242,-2236,-259,-89,5,1,7,11
9.44E+02,-5773,4438,-2214,86,-30,40,1,7,11
9.54E+02,-5775,4439,-2223,78,-44,85,1,7,11
9.69E+02,-6006,4455,-2237,64,-56,125,1,7,11
9.81E+02,-6006,4465,-2226,50,-57,-122,1,7,11
9.81E+02,-5797,4253,-2214,71,-37,114,1,7,11
9.65E+02,-5880,4313,-2217,97,-34,-107,1,7,11
9.39E+02,-5866,4615,-2255,108,-65,270,1,7,11
9.14E+02,-5817,4651,-2293,85,-52,343,1,7,11
9.00E+02,-5807,4664,-2301,35,-16,347,1,7,11
9.00E+02,-5817,4651,-2298,3,-2,305,1,7,11
9.08E+02,-5857,4634,-2561,15,-34,-19,1,7,11
9.22E+02,-5843,4623,-2581,31,-105,-36,1,7,11
9.35E+02,-5799,4336,-2592,27,107,-60,1,7,11
9.45E+02,-6003,4312,-2623,40,102,-73,1,7,11
9.53E+02,-5977,4303,-2623,23,-117,-109,1,7,11
9.57E+02,-5998,4300,-2621,9,-81,115,1,7,11
9.57E+02,-5766,4299,-2620,-289,-86,118,1,7,11
9.53E+02,-5789,4256,-2589,-344,-116,-124,1,7,11
9.45E+02,-6006,4253,-2571,-334,97,-103,1,7,11
9.31E+02,-6012,4280,-2285,-320,90,124,1,7,11
9.14E+02,-5787,4323,-2247,-298,81,-127,1,7,11
8.95E+02,-5806,4351,-2200,-291,59,-90,1,7,11
8.80E+02,-5784,4346,-2197,-279,28,-34,1,7,11
8.71E+02,-5942,4331,-2299,-320,-65,-7,1,7,11
8.67E+02,-5976,4610,-2562,-337,291,-80,1,7,11
8.67E+02,-5775,4648,-2562,-354,350,-127,1,7,11
8.66E+02,-5818,4680,-2290,-367,360,-119,1,7,11
8.64E+02,-5844,4705,-2290,-368,324,-82,1,7,11
8.63E+02,-5824,4697,-2294,-141,-13,-22,1,7,11
8.66E+02,-5805,4679,-2273,-161,-89,256,1,7,11
8.76E+02,-5791,4667,-2284,-169,86,265,1,7,11
8.90E+02,-5772,4647,-2288,-193,12,273,1,7,11
9.05E+02,-5770,4635,-2568,-219,-293,300,1,7,11
9.19E+02,-6004,4628,-2585,-247,-325,373,1,7,11
9.27E+02,-5948,4482,-2350,-234,-383,164,1,7,11
9.32E+02,-5939,4519,-2324,-164,-352,162,1,7,11
9.33E+02,-5953,4556,-2318,-370,-323,134,1,7,11
9.31E+02,-5942,4593,-2327,-314,-308,368,1,7,11
9.29E+02,-5950,4888,-2327,-288,-282,322,1,7,11
9.26E+02,-5961,4904,-2313,-297,-265,319,1,7,11
9.25E+02,-5926,4882,-2047,-312,-276,351,1,7,11
9.27E+02,-5613,4595,-2307,-302,-274,323,1,7,11
9.30E+02,-5576,4580,-2331,-280,10,257,1,7,11
9.29E+02,-5629,4868,-2315,-305,-286,-114,1,7,11
9.21E+02,-5898,4564,-1976,-287,105,-251,1,7,11
9.01E+02,-5892,4576,-1999,-264,-111,-224,1,7,11
8.75E+02,-5927,4581,-2021,-269,-57,-195,1,7,11
8.45E+02,-5949,4543,-2021,-290,-26,-149,1,7,11
8.18E+02,-5973,4521,-2033,-290,-10,-371,1,7,11
7.97E+02,-5987,4511,-2310,-298,-5,-356,1,7,11
7.85E+02,-5992,4497,-2336,-305,256,-349,1,7,11
7.87E+02,-5973,4717,-2377,-313,270,-333,1,7,11
8.01E+02,-5993,4698,-2385,-313,322,-355,1,7,11
8.22E+02,-5768,4675,-2394,-309,383,-338,1,7,11
8.47E+02,-5784,4686,-2401,-280,171,-320,1,7,11
8.70E+02,-5808,4691,-2383,7,158,-313,1,7,11
8.93E+02,-5790,4725,-2394,44,369,-305,1,7,11
9.16E+02,-5802,4501,-2381,59,318,-337,1,7,11
9.39E+02,-5822,4481,-2333,20,257,-351,1,7,11
9.63E+02,-5831,4723,-2030,-258,-59,-346,1,7,11
9.84E+02,-5774,4719,-2038,24,100,-279,1,7,11
9.99E+02,-5965,4703,-2311,3,103,0,1,7,11
1.01E+03,-5932,4712,-2332,-264,-87,-268,1,7,11
1.00E+03,-5970,4702,-2326,-288,258,-277,1,7,11
9.96E+02,-5995,4698,-2320,-273,315,37,1,7,11
9.88E+02,-6007,4696,-2327,1,353,85,1,7,11
9.84E+02,-6007,4714,-2345,40,359,-120,1,7,11
9.83E+02,-5987,4483,-2377,51,349,-95,1,7,11
9.83E+02,-5980,4510,-2401,58,343,-112,1,7,11
9.80E+02,-5966,4527,-2184,42,319,-117,1,7,11
9.68E+02,-5941,4513,-2222,-268,312,-115,1,7,11
9.50E+02,-5933,4492,-2243,-317,325,113,1,7,11
9.31E+02,-5921,4715,-2259,-374,332,107,1,7,11
9.19E+02,-5900,4686,-2258,-176,348,92,1,7,11
9.18E+02,-5920,4678,-2249,-185,382,42,1,7,11
9.25E+02,-5985,4691,-2236,-185,143,24,1,7,11
9.35E+02,-5765,4702,-2216,-161,372,72,1,7,11
9.42E+02,-5780,4717,-2189,-380,318,118,1,7,11
9.42E+02,-5777,4722,-2415,-338,-4,-75,1,7,11
9.36E+02,-5608,4704,-2403,-257,-71,-112,1,7,11
9.27E+02,-5617,4711,-2423,27,260,95,1,7,11
9.18E+02,-5901,4481,-2181,59,323,66,1,7,11
9.10E+02,-5912,4530,-2210,76,368,56,1,7,11
9.04E+02,-5994,4572,-2211,60,139,0,1,7,11
9.02E+02,-5806,4869,-2217,35,345,-257,1,7,11
9.05E+02,-5814,4872,-2201,-270,-13,31,1,7,11
9.10E+02,-5776,4585,-2184,-308,-115,51,1,7,11
9.14E+02,-5962,4547,-2206,-331,89,74,1,7,11
9.12E+02,-5890,4493,-2228,-372,108,81,1,7,11
9.02E+02,-5590,4690,-2233,-141,-72,69,1,7,11
8.84E+02,-5604,4646,-2227,-142,287,10,1,7,11
8.59E+02,-5908,4655,-2227,-344,349,-303,1,7,11
8.27E+02,-5944,4694,-2238,-307,357,-331,1,7,11
7.92E+02,-5974,4732,-2250,-286,324,-335,1,7,11
7.56E+02,-5952,4564,-2284,-286,273,-317,1,7,11
7.22E+02,-5970,4595,-2287,-352,-18,-351,1,7,11
6.93E+02,-5986,4593,-2291,-171,-81,-344,1,7,11
6.73E+02,-5933,4735,-2194,-558,74,-155,1,7,11
6.64E+02,-5901,4661,-2206,4,310,-787,1,7,11
6.68E+02,-5918,4661,-2212,63,381,-705,1,7,11
6.88E+02,-5960,4652,-2210,109,160,-1086,1,7,11
7.22E+02,-5911,4632,-2217,-128,165,-913,1,7,11
7.68E+02,-5629,4337,-2204,127,215,-1335,1,7,11
8.23E+02,-5905,4302,-2191,-120,545,-1265,1,7,11
8.82E+02,-5909,4278,-2192,-96,609,-1635,1,7,11
9.37E+02,-5926,4242,-2207,-67,441,-1481,1,7,11
9.79E+02,-5968,4434,-2247,-43,807,-1794,1,7,11
1.00E+03,-5995,4359,-2570,-15,688,-1826,1,7,11
1.00E+03,-5781,4040,-2659,283,1110,-1876,1,7,11
9.93E+02,-5838,4030,-2480,328,1290,-1701,1,7,11
9.80E+02,-6161,4038,-2852,348,1267,-1709,1,7,11
9.70E+02,-6195,3972,-2864,296,1568,-1687,1,7,11
9.66E+02,-6193,4134,-2875,289,1568,-1912,1,7,11
9.66E+02,-6189,3785,-2901,303,1558,-1665,1,7,11
9.69E+02,-5883,3958,-2933,292,1543,-1693,1,7,11
9.74E+02,-5870,3881,-2941,-8,1588,-2073,1,7,11
9.80E+02,-6160,3575,-2692,-33,1645,-1925,1,7,11
9.84E+02,-6223,3533,-2690,-55,1436,-1989,1,7,11
9.87E+02,-6033,3493,-2944,-74,1446,-1985,1,7,11
9.86E+02,-6047,3694,-2695,-99,1419,-1936,1,7,11
9.82E+02,-6038,3623,-2703,117,1655,-2175,1,7,11
9.78E+02,-6106,2767,-3586,-238,1916,-2321,1,7,11
9.74E+02,-6070,2716,-3624,-547,1899,-2032,1,7,11
9.71E+02,-6076,2691,-3673,-579,1900,-2351,1,7,11
9.70E+02,-6133,2931,-3500,-606,1874,-2373,1,7,11
9.69E+02,-6142,2857,-3561,-420,1524,-2014,1,7,11
9.65E+02,-6124,2517,-3885,-423,1441,-1949,1,7,11
9.60E+02,-6117,2480,-3950,-386,1611,-2152,1,7,11
9.51E+02,-6020,2349,-4199,20,229,-873,1,7,11
9.41E+02,-6404,2349,-4155,-291,-57,-614,1,7,11
9.29E+02,-6194,1961,-3742,-870,-109,-444,1,7,11
9.14E+02,-6206,2175,-3732,-673,-56,-469,1,7,11
8.97E+02,-6198,2171,-3746,-682,257,-467,1,7,11
8.78E+02,-6203,1941,-3765,-690,343,-472,1,7,11
8.54E+02,-6208,2166,-3741,-711,146,-830,1,7,11
8.30E+02,-6045,1938,-3758,-643,251,-848,1,7,11
8.06E+02,-6065,1944,-3789,-643,515,-462,1,7,11
7.85E+02,-6263,1989,-3823,-895,520,-568,1,7,11
7.69E+02,-6247,2045,-3824,-660,589,-549,1,7,11
7.59E+02,-6267,2333,-3820,-683,402,-572,1,7,11
7.57E+02,-6105,2371,-3840,-689,478,-391,1,7,11
7.63E+02,-6074,2315,-3826,-1066,463,-383,1,7,11
7.74E+02,-6272,2018,-3804,-911,473,19,1,7,11
7.87E+02,-6235,1957,-3769,-950,492,44,1,7,11
8.04E+02,-6251,1920,-3755,-935,498,-269,1,7,11
8.24E+02,-6042,2124,-3729,-1152,461,-335,1,7,11
8.49E+02,-6081,2092,-3729,-768,632,-356,1,7,11
8.80E+02,-6025,1984,-4161,-577,135,-190,1,7,11
9.10E+02,-6038,1993,-4193,-637,299,-300,1,7,11
9.35E+02,-6238,1998,-3983,-411,-56,-123,1,7,11
9.48E+02,-6166,2028,-4050,-427,-98,-21,1,7,11
9.50E+02,-5878,2315,-4078,-402,-83,-87,1,7,11
9.45E+02,-6249,2411,-4377,-591,264,-94,1,7,11
9.38E+02,-6082,2222,-4363,-591,305,316,1,7,11
9.34E+02,-6405,2283,-4057,-598,289,580,1,7,11
9.36E+02,-6119,2278,-4016,-569,-48,838,1,7,11
9.40E+02,-6066,2608,-4033,-148,-94,689,1,7,11
9.46E+02,-6234,2493,-3970,-528,-196,646,1,7,11
9.52E+02,-6180,2630,-4154,-440,-605,810,1,7,11
9.55E+02,-6739,2943,-3720,-523,-4414,2583,1,7,11
9.55E+02,-6731,3104,-3891,55,-4639,2563,1,7,11
9.49E+02,-6718,3014,-3494,-25,-4574,2674,1,7,11
9.36E+02,-6708,3421,-3597,176,-4957,2524,1,7,11
9.19E+02,-6695,3640,-3261,629,-4799,2933,1,7,11
9.01E+02,-6508,3485,-3451,601,-5210,2807,1,7,11
8.85E+02,-6038,3480,-3344,383,-5179,2743,1,7,11
8.74E+02,-6239,3478,-3169,-3,-4938,2594,1,7,11
8.67E+02,-6092,3543,-2745,-58,-4352,2145,1,7,11
8.64E+02,-6438,3877,-2833,-85,-4055,1827,1,7,11
8.65E+02,-6292,3915,-2624,90,-3784,1605,1,7,11
8.69E+02,-6304,3896,-2393,6,-3859,1250,1,7,11
8.74E+02,-6521,3580,-2121,-291,-3696,1373,1,7,11
8.80E+02,-6460,3573,-1889,82,-3279,947,1,7,11
8.85E+02,-6451,3892,-1433,-64,-3344,674,1,7,11
8.93E+02,-6275,3906,-1222,-18,-3194,416,1,7,11
9.04E+02,-6371,3848,-979,303,-3127,255,1,7,11
9.19E+02,-6684,3520,-744,236,-3156,182,1,7,11
9.33E+02,-6351,3685,-512,420,-3063,155,1,7,11
9.39E+02,-6354,3298,-237,661,-3403,-107,1,7,11
9.28E+02,-6116,3287,-59,4020,-2054,-681,1,7,11
9.00E+02,-6143,3627,110,4260,-1604,-870,1,7,11
8.66E+02,-6097,3701,-283,4613,-1119,-833,1,7,11
8.39E+02,-6456,3576,-208,4320,-513,-751,1,7,11
8.30E+02,-6681,3949,-395,4375,313,-1147,1,7,11
8.38E+02,-6612,3743,-836,3785,769,-938,1,7,11
8.53E+02,-7007,3775,-1052,3499,1150,-904,1,7,11
8.68E+02,-6899,3835,-1301,3416,1237,-1147,1,7,11
8.78E+02,-7064,3777,-1264,2940,1460,-1091,1,7,11
8.83E+02,-7155,3728,-1478,2225,1842,-1051,1,7,11
8.87E+02,-7322,3568,-1824,1917,1861,-1100,1,7,11
8.89E+02,-7339,3318,-1854,1220,1458,-1028,1,7,11
8.91E+02,-7376,3427,-1906,973,1562,-1082,1,7,11
8.93E+02,-7142,3090,-2105,1029,1396,-718,1,7,11
8.95E+02,-7406,3074,-1915,609,1147,-1654,1,7,11
8.96E+02,-7107,2647,-1795,323,644,-1282,1,7,11
8.96E+02,-6906,2578,-1523,153,939,-992,1,7,11
8.91E+02,-7227,2656,-1868,167,1323,-1268,1,7,11
8.80E+02,-7196,2888,-1730,-348,1128,-1842,1,7,11
8.64E+02,-7144,2942,-1896,-1137,529,-1952,1,7,11
8.44E+02,-6749,2212,-2093,-1600,-99,-3178,1,7,11
8.22E+02,-7492,2021,-1610,-1201,-853,-3824,1,7,11
8.02E+02,-7321,1990,-1547,-134,-1373,-2765,1,7,11
7.87E+02,-7353,2044,-1185,747,-1115,-1031,1,7,11
7.81E+02,-7426,2398,-1244,2071,-222,723,1,7,11
7.87E+02,-7212,2319,-1602,2889,385,1845,1,7,11
8.00E+02,-6853,2329,-1693,3444,174,267,1,7,11
8.18E+02,-6889,1950,-1723,3206,180,-2363,1,7,11
8.36E+02,-7148,1735,-1913,3286,-524,-5694,1,7,11
8.54E+02,-7728,1573,-2150,3861,-1624,-8117,1,7,11
8.70E+02,-7617,1214,-2170,-37,-1756,-7109,1,7,11
8.84E+02,-7697,1087,-2110,-2152,-752,-6763,1,7,11
8.93E+02,-7867,677,-2070,-4010,155,-5458,1,7,11
8.96E+02,-7922,827,-1890,-5866,1058,-3523,1,7,11
8.91E+02,-7879,194,-1636,-7429,176,-2539,1,7,11
8.78E+02,-8195,-128,-1395,-7400,-693,-3261,1,7,11
8.60E+02,-8077,153,-1169,-6500,-2148,-3727,1,7,11
8.44E+02,-8175,876,-1200,-5068,-2496,-2964,1,7,11
8.34E+02,-8320,625,-1331,-4606,-2673,-1563,1,7,11
8.32E+02,-8277,492,-1266,-3981,-2413,-224,1,7,11
8.36E+02,-8271,703,-1632,-4212,-1898,1341,1,7,11
8.44E+02,-8241,1054,-1170,-4475,-1641,2781,1,7,11
8.55E+02,-7644,1104,-986,-4298,-1635,3557,1,7,11
8.66E+02,-7395,1150,-911,-4080,-975,3060,1,7,11
8.75E+02,-7332,946,-911,-3810,383,1978,1,7,11
8.82E+02,-7793,929,-928,-3943,1832,1196,1,7,11
8.87E+02,-8053,1016,-1000,-4022,2873,1328,1,7,11
8.92E+02,-8297,1403,-1019,-4575,3171,1881,1,7,11
8.98E+02,-8246,1428,-1352,-5257,2540,2815,1,7,11
9.06E+02,-7948,1713,-1171,-6150,1930,4630,1,7,11
9.11E+02,-7396,1791,-1358,-6713,1467,5306,1,7,11
9.09E+02,-7685,1684,-916,-7014,1487,6044,1,7,11
8.95E+02,-7103,2264,-1375,-6800,1895,7175,1,7,11
8.69E+02,-7178,2540,-1375,-7656,3072,8030,1,7,11
8.39E+02,-7198,2536,-968,-7993,3937,7415,1,7,11
8.13E+02,-6869,2871,-1016,-6561,3889,6251,1,7,11
7.96E+02,-6592,3119,-1172,-5032,3675,4305,1,7,11
7.87E+02,-6691,3150,-1615,-3583,3894,3077,1,7,11
7.84E+02,-6454,3190,-1871,-2404,3974,1272,1,7,11
7.86E+02,-6107,3148,-1732,-1050,4779,-145,1,7,11
7.91E+02,-6096,3015,-1740,449,5851,-2575,1,7,11
8.00E+02,-6406,3079,-1780,2244,7212,-4871,1,7,11
8.13E+02,-6109,2707,-2411,4469,8861,-6306,1,7,11
8.27E+02,-6108,2738,-2831,5551,10520,-8008,1,7,11
8.43E+02,-6124,2539,-3353,6158,11279,-9264,1,7,11
8.58E+02,-6689,2346,-3582,5716,10960,-10269,1,7,11
8.72E+02,-6828,1887,-4202,4776,9508,-10680,1,7,11
8.82E+02,-7457,1402,-4037,4141,6741,-10549,1,7,11
8.87E+02,-7473,929,-3987,2767,3827,-8801,1,7,11
8.87E+02,-7180,704,-4364,1564,1981,-6740,1,7,11
8.80E+02,-6822,222,-4063,183,486,-5137,1,7,11
8.66E+02,-6843,-338,-4219,154,-1059,-4042,1,7,11
8.45E+02,-6850,-153,-3994,1347,-2767,-4518,1,7,11
8.17E+02,-6889,-275,-4025,1752,-4412,-5118,1,7,11
7.86E+02,-7202,254,-4005,1553,-4836,-5060,1,7,11
7.52E+02,-6887,638,-4182,-227,-5071,-3530,1,7,11
7.19E+02,-6839,253,-3570,-2291,-5238,-1275,1,7,11
6.89E+02,-6969,220,-3660,-4559,-4090,249,1,7,11
6.63E+02,-7030,151,-3217,-5700,-2834,2043,1,7,11
6.42E+02,-6907,248,-3429,-5766,-1628,3513,1,7,11
6.28E+02,-7066,482,-3002,-6461,-927,4927,1,7,11
6.20E+02,-7186,643,-2803,-6283,-1407,5594,1,7,11
6.20E+02,-6656,745,-2875,-5963,-1172,5927,1,7,11
6.30E+02,-6719,1105,-2560,-4657,-750,5186,1,7,11
6.50E+02,-6746,1306,-2862,-3077,-147,4192,1,7,11
6.77E+02,-6595,1272,-2709,-1622,16,2788,1,7,11
7.10E+02,-6961,1892,-3086,-460,-239,2069,1,7,11
7.49E+02,-6934,2116,-3156,-539,-732,1317,1,7,11
7.92E+02,-6638,1945,-3138,-561,-1219,411,1,7,11
8.38E+02,-6639,2100,-2770,-311,-1165,-50,1,7,11
8.82E+02,-6656,1501,-2913,825,-889,-887,1,7,11
9.19E+02,-6896,1577,-2940,2360,-359,-2489,1,7,11
9.43E+02,-7725,1592,-2865,3664,-521,-3748,1,7,11
9.53E+02,-8240,1503,-2839,4463,-1485,-3158,1,7,11
9.52E+02,-8330,1947,-3076,2798,-5159,-1761,1,7,11
9.48E+02,-7420,1281,-2731,1169,-7193,-1176,1,7,11
9.44E+02,-7424,1120,-2622,1234,-6134,-720,1,7,11
9.44E+02,-7317,883,-2159,2408,-4444,132,1,7,11
9.47E+02,-7693,674,-1786,3527,-2086,1911,1,7,11
9.52E+02,-8501,1236,-2216,4509,-1769,2713,1,7,11
9.57E+02,-7497,1487,-2241,4206,-4391,2721,1,7,11
9.61E+02,-7159,1901,-2397,2910,-4080,2085,1,7,11
9.63E+02,-7353,1856,-2114,1434,-3791,1021,1,7,11
9.62E+02,-7341,1820,-1805,648,-3514,501,1,7,11
9.55E+02,-7390,1867,-1552,195,-3286,298,1,7,11
9.45E+02,-7546,1524,-1297,-325,-3014,-381,1,7,11
9.34E+02,-7317,1461,-1047,-426,-2500,-512,1,7,11
9.22E+02,-7368,1448,-828,-883,-2046,-1044,1,7,11
9.13E+02,-7298,1492,-390,-715,-1668,-1140,1,7,11
9.05E+02,-7492,1512,-566,-918,-1188,-1315,1,7,11
9.00E+02,-7539,1630,-229,-1237,-646,-1276,1,7,11
8.98E+02,-7361,1187,-171,-1822,-181,-1447,1,7,11
8.97E+02,-7362,1289,-169,-1766,-14,-1805,1,7,11
8.99E+02,-7393,926,-248,-2135,447,-1913,1,7,11
9.02E+02,-7421,1126,-603,-1985,916,-1905,1,7,11
9.08E+02,-7367,1078,-447,-2227,1463,-1821,1,7,11
9.14E+02,-7318,699,-794,-2444,2055,-1529,1,7,11
9.22E+02,-7364,506,-649,-2852,2180,-1492,1,7,11
9.32E+02,-7424,619,-1027,-2851,2507,-1637,1,7,11
9.42E+02,-7369,542,-954,-2500,2692,-1193,1,7,11
9.52E+02,-7508,213,-1402,-2676,2811,-1320,1,7,11
9.63E+02,-7121,377,-1606,-2598,3189,-1024,1,7,11
9.74E+02,-7097,-3,-1515,-2288,3386,-1351,1,7,11
9.84E+02,-7076,-64,-1898,-2398,3304,-1378,1,7,11
9.93E+02,-7046,-45,-2051,-1958,3649,-1380,1,7,11
1.00E+03,-7180,-61,-1971,-2128,3599,-1353,1,7,11
1.01E+03,-6869,44,-2312,-1923,3310,-1166,1,7,11
1.02E+03,-6869,-310,-2376,-2119,3585,-1238,1,7,11
1.03E+03,-7187,-336,-2402,-1719,3613,-1260,1,7,11
1.04E+03,-7291,-310,-2188,-1513,3594,-1199,1,7,11
1.05E+03,-7456,30,-2265,-1553,3313,-1323,1,7,11
1.06E+03,-7383,-29,-2614,-1021,3236,-765,1,7,11
1.08E+03,-7699,546,-2456,-764,3031,-542,1,7,11
1.09E+03,-7393,778,-2553,-689,2719,-69,1,7,11
1.10E+03,-7302,871,-2823,-718,2684,524,1,7,11
1.12E+03,-7438,665,-2873,-674,2194,506,1,7,11
1.13E+03,-7051,688,-2698,-850,2007,891,1,7,11
1.14E+03,-7232,699,-2768,-824,2171,880,1,7,11
1.15E+03,-7199,691,-3127,-789,2089,839,1,7,11
1.15E+03,-6895,692,-2946,-462,1741,812,1,7,11
1.15E+03,-6867,705,-3032,-613,1678,511,1,7,11
1.15E+03,-6888,750,-3375,-523,1901,482,1,7,11
1.15E+03,-7188,745,-3206,-206,1819,794,1,7,11
1.15E+03,-6901,762,-3313,-363,1452,664,1,7,11
1.14E+03,-7034,1115,-3468,24,1661,1043,1,7,11
1.14E+03,-6969,1358,-3917,257,1430,935,1,7,11
1.14E+03,-6649,1573,-4005,-213,253,192,1,7,11
1.13E+03,-6627,1573,-3981,-188,157,135,1,7,11
1.13E+03,-6629,1588,-4215,-172,331,133,1,7,11
1.12E+03,-6617,1558,-4175,-206,-52,158,1,7,11
1.12E+03,-6580,1243,-4123,-230,57,207,1,7,11
1.11E+03,-6775,1195,-3823,-198,-307,243,1,7,11
1.11E+03,-6740,1172,-3765,-354,-365,516,1,7,11
1.10E+03,-6705,1223,-3757,44,-375,553,1,7,11
1.09E+03,-6705,1278,-3744,118,-359,579,1,7,11
1.08E+03,-6721,1538,-3744,92,-364,607,1,7,11
1.08E+03,-6694,1257,-3745,68,-377,388,1,7,11
1.07E+03,-6691,1250,-3737,82,-339,396,1,7,11
1.06E+03,-6722,1558,-3731,-111,-261,424,1,7,11
1.05E+03,-6774,1418,-3753,256,22,491,1,7,11
1.05E+03,-6591,1414,-3736,296,23,785,1,7,11
1.04E+03,-6632,1610,-3942,262,-359,510,1,7,11
1.03E+03,-6644,1567,-3884,290,-223,479,1,7,11
1.02E+03,-6639,1582,-3861,229,-588,447,1,7,11
1.02E+03,-6618,1630,-3862,583,-436,413,1,7,11
1.01E+03,-6609,1650,-3842,577,-796,615,1,7,11
1.00E+03,-6580,1632,-3556,517,-885,571,1,7,11
9.98E+02,-6576,1561,-3488,178,-680,523,1,7,11
9.93E+02,-6545,1237,-3693,168,-730,517,1,7,11
9.87E+02,-6784,1231,-3683,191,-733,237,1,7,11
9.81E+02,-6555,1259,-3684,188,-704,209,1,7,11
9.75E+02,-6590,1263,-3676,148,-687,226,1,7,11
9.68E+02,-6603,1275,-3681,376,-681,528,1,7,11
9.61E+02,-6916,1556,-3654,358,-657,563,1,7,11
9.53E+02,-6962,1616,-3642,345,-668,627,1,7,11
9.46E+02,-7021,1653,-3617,301,-698,415,1,7,11
9.39E+02,-6839,1650,-3327,-6,-760,461,1,7,11
9.34E+02,-6875,1629,-3291,-14,-1127,799,1,7,11
9.30E+02,-6820,1655,-3260,298,-1009,692,1,7,11
9.27E+02,-6785,1431,-3226,370,-1378,709,1,7,11
9.27E+02,-7022,1424,-3428,135,-1206,684,1,7,11
9.29E+02,-7013,1434,-3383,153,-1250,890,1,7,11
9.32E+02,-7030,1480,-3362,220,-1244,837,1,7,11
9.36E+02,-7036,1520,-3361,536,-1256,825,1,7,11
9.41E+02,-7032,1530,-3342,514,-1240,812,1,7,11
9.44E+02,-6791,1800,-3040,513,-1190,788,1,7,11
9.47E+02,-6798,1838,-3003,532,-1384,502,1,7,11
9.49E+02,-6803,1877,-2972,520,-1345,483,1,7,11
9.53E+02,-6795,1878,-3183,180,-1314,440,1,7,11
9.58E+02,-6822,1847,-3090,363,-1282,386,1,7,11
9.65E+02,-6810,1850,-2793,360,-1011,605,1,7,11
9.75E+02,-6827,1877,-2749,349,-970,521,1,7,11
9.87E+02,-6838,1666,-2733,302,-921,195,1,7,11
1.00E+03,-6876,1664,-2934,125,-1123,128,1,7,11
1.02E+03,-6889,1860,-2845,-265,-1104,370,1,7,11
1.03E+03,-6884,1793,-2499,-268,-1101,128,1,7,11
1.05E+03,-6865,1840,-2490,79,-1052,169,1,7,11
1.07E+03,-6825,1887,-2491,69,-724,142,1,7,11
1.08E+03,-6827,1893,-2465,-319,-862,331,1,7,11
1.09E+03,-6820,1838,-2665,-195,-505,282,1,7,11
1.11E+03,-6799,1503,-2587,-250,-393,-19,1,7,11
1.12E+03,-6795,1479,-2561,-183,-241,-70,1,7,11
1.13E+03,-6826,1483,-2287,-263,-363,-84,1,7,11
1.13E+03,-6839,1841,-2592,83,39,-68,1,7,11
1.14E+03,-6851,1821,-2580,-267,-106,-95,1,7,11
1.14E+03,-6858,1530,-2583,-300,-15,-108,1,7,11
1.14E+03,-6869,1489,-2592,49,304,-116,1,7,11
1.13E+03,-6888,1886,-2665,-58,158,-128,1,7,11
1.11E+03,-7192,1700,-2464,-77,555,98,1,7,11
1.09E+03,-7226,1709,-2470,16,608,104,1,7,11
1.04E+03,-7270,1671,-2476,-323,629,115,1,7,11
9.71E+02,-7287,1900,-2479,-355,610,120,1,7,11
8.77E+02,-7070,1873,-2446,-323,564,122,1,7,11
7.73E+02,-7276,1679,-2556,107,231,-64,1,7,11
6.74E+02,-7240,1724,-2860,66,191,-93,1,7,11
6.00E+02,-7256,1728,-2856,-285,198,-125,1,7,11
5.75E+02,-7274,1726,-2863,-358,184,-109,1,7,11
5.95E+02,-7255,1700,-2862,-156,135,-70,1,7,11
6.37E+02,-7221,1683,-2818,-149,349,-34,1,7,11
6.82E+02,-7182,1723,-2892,-267,342,276,1,7,11
7.14E+02,-7176,1769,-2926,-307,347,263,1,7,11
7.33E+02,-7181,1769,-2928,-148,374,-4,1,7,11
7.40E+02,-7176,1747,-2929,-219,130,-25,1,7,11
7.41E+02,-7194,1726,-2915,-241,133,-53,1,7,11
7.34E+02,-7196,1716,-2904,-138,342,-23,1,7,11
7.20E+02,-7170,1769,-2942,-357,320,-2,1,7,11
6.98E+02,-6881,1755,-2921,-164,306,-18,1,7,11
6.67E+02,-6865,1739,-2901,-185,320,-38,1,7,11
6.33E+02,-6889,1734,-2875,-162,345,-66,1,7,11
6.05E+02,-7188,1761,-2874,-369,356,-63,1,7,11
5.85E+02,-7188,1787,-2884,13,304,266,1,7,11
5.74E+02,-6888,2101,-2928,-259,263,297,1,7,11
5.73E+02,-6855,1781,-2916,-382,-16,266,1,7,11
5.85E+02,-6837,1755,-2887,-157,263,-38,1,7,11
6.23E+02,-6838,1778,-2896,-142,271,-69,1,7,11
6.82E+02,-6820,1774,-2915,-346,-22,-51,1,7,11
7.44E+02,-6798,2070,-2711,-384,-6,-59,1,7,11
8.09E+02,-6820,1776,-2691,-533,283,127,1,7,11
8.56E+02,-6842,1752,-2934,-603,312,104,1,7,11
8.81E+02,-6847,1748,-2937,-607,325,100,1,7,11
8.91E+02,-6846,1778,-2717,-580,331,119,1,7,11
8.92E+02,-6866,1755,-2741,-556,310,-127,1,7,11
8.91E+02,-6887,1775,-2767,-207,314,-70,1,7,11
8.95E+02,-6882,1761,-2761,-235,303,-22,1,7,11
9.09E+02,-6850,2060,-2781,-162,304,295,1,7,11
9.37E+02,-6836,2082,-2742,-138,286,336,1,7,11
9.74E+02,-6798,2114,-2800,-278,263,375,1,7,11
1.01E+03,-6794,1921,-3078,-311,-4,320,1,7,11
1.04E+03,-6798,1920,-2796,-154,-10,268,1,7,11
1.05E+03,-7037,1922,-2733,-183,-20,259,1,7,11
1.06E+03,-7030,2162,-2705,-332,-22,-34,1,7,11
1.06E+03,-6842,1942,-2703,-303,262,121,1,7,11
1.05E+03,-6888,1946,-2933,-303,-11,65,1,7,11
1.05E+03,-6888,2083,-2868,25,11,83,1,7,11
1.04E+03,-6851,1779,-2856,61,-271,90,1,7,11
1.03E+03,-6830,1739,-2833,-60,-300,79,1,7,11
1.02E+03,-6826,2076,-2901,327,-271,110,1,7,11
1.00E+03,-7040,2103,-2940,301,19,-125,1,7,11
9.85E+02,-6988,2107,-2703,260,88,-96,1,7,11
9.59E+02,-6970,2109,-2710,-31,-62,-91,1,7,11
9.27E+02,-6979,2131,-2725,-54,287,-86,1,7,11
8.93E+02,-6998,2128,-2736,-94,348,-81,1,7,11
8.58E+02,-7017,2142,-2741,-120,136,-75,1,7,11
8.24E+02,-6791,2037,-2810,-300,206,-100,1,7,11
7.90E+02,-6824,2046,-2802,-137,200,96,1,7,11
7.56E+02,-6861,2041,-2774,-211,166,53,1,7,11
7.21E+02,-6873,2305,-2760,-516,358,52,1,7,11
6.87E+02,-6877,2017,-2740,-575,284,46,1,7,11
6.53E+02,-6863,1952,-2717,-605,-48,59,1,7,11
6.19E+02,-6824,2140,-2702,-596,-108,66,1,7,11
5.85E+02,-6785,2083,-2941,-550,114,77,1,7,11
5.53E+02,-7002,1787,-2690,-218,117,100,1,7,11
5.24E+02,-6941,1758,-2776,-278,122,-112,1,7,11
5.06E+02,-6934,2079,-3102,81,-49,-124,1,7,11
5.00E+02,-6957,2138,-3139,96,359,107,1,7,11
5.04E+02,-7004,1930,-3173,107,196,99,1,7,11
5.16E+02,-7021,1957,-2945,107,229,-126,1,7,11
5.34E+02,-7020,1936,-3196,73,220,126,1,7,11
5.54E+02,-7021,2155,-3172,74,202,70,1,7,11
5.76E+02,-7020,2140,-3145,-125,181,-262,1,7,11
5.97E+02,-7038,2150,-3087,-62,146,-322,1,7,11
6.15E+02,-6787,2142,-2783,314,327,-325,1,7,11
6.32E+02,-7020,2146,-2769,304,-2,-313,1,7,11
6.50E+02,-6978,2070,-2736,260,-65,-294,1,7,11
6.68E+02,-6945,2048,-2733,275,-70,-276,1,7,11
6.90E+02,-6928,2088,-2774,305,-31,9,1,7,11
7.16E+02,-6933,2121,-2812,284,278,78,1,7,11
7.48E+02,-6958,2122,-3101,-16,346,-95,1,7,11
7.85E+02,-6962,2110,-3145,-42,146,-6,1,7,11
8.22E+02,-6953,2080,-3170,294,173,320,1,7,11
8.56E+02,-6923,2151,-2992,370,223,353,1,7,11
8.82E+02,-6920,2166,-3020,313,528,290,1,7,11
8.99E+02,-6931,2172,-3038,266,566,-39,1,7,11
9.09E+02,-6961,2146,-3030,-43,577,-123,1,7,11
9.13E+02,-6984,2108,-3022,-76,542,70,1,7,11
9.13E+02,-6971,2068,-3000,-71,234,43,1,7,11
9.10E+02,-6944,2063,-2988,-47,184,37,1,7,11
9.05E+02,-6654,2054,-2987,-32,141,49,1,7,11
8.99E+02,-6616,2068,-3006,-21,380,64,1,7,11
8.95E+02,-6624,2099,-3023,-32,130,66,1,7,11
8.93E+02,-6645,2093,-2999,-77,371,108,1,7,11
8.93E+02,-6671,2048,-3171,-122,340,-97,1,7,11
8.94E+02,-6918,1757,-3184,-72,279,-43,1,7,11
8.98E+02,-6644,2072,-3004,312,257,298,1,7,11
9.03E+02,-6592,2099,-3343,316,260,329,1,7,11
9.10E+02,-6549,2110,-3425,284,304,368,1,7,11
9.19E+02,-6536,2084,-3211,-30,379,128,1,7,11
9.28E+02,-6781,2060,-3229,-50,202,383,1,7,11
9.37E+02,-6593,2061,-3223,-17,595,319,1,7,11
9.45E+02,-6955,2065,-3223,299,618,281,1,7,11
9.49E+02,-6990,2075,-3240,136,561,278,1,7,11
9.48E+02,-7008,2070,-3245,168,231,-23,1,7,11
9.43E+02,-6992,1784,-3218,183,378,-54,1,7,11
9.37E+02,-6958,2100,-3250,549,314,-48,1,7,11
9.30E+02,-6654,2112,-3252,453,-18,-85,1,7,11
9.22E+02,-6617,2105,-3242,337,-68,-114,1,7,11
9.11E+02,-6593,2089,-3225,-40,-111,124,1,7,11
8.97E+02,-6559,2067,-3226,119,112,-102,1,7,11
8.81E+02,-6755,1763,-3454,46,106,-25,1,7,11
8.66E+02,-6737,1761,-3442,31,-119,280,1,7,11
8.53E+02,-6754,1773,-3426,44,-48,308,1,7,11
8.40E+02,-6774,2051,-3421,118,-48,341,1,7,11
8.27E+02,-6537,2134,-3210,253,-58,339,1,7,11
8.16E+02,-6546,2140,-3426,-86,-90,297,1,7,11
8.06E+02,-6559,2166,-3407,-123,-120,277,1,7,11
7.96E+02,-6564,2174,-3389,71,82,277,1,7,11
7.84E+02,-6540,1925,-3385,13,43,284,1,7,11
7.73E+02,-6541,2173,-3363,-304,33,258,1,7,11
7.64E+02,-6564,2156,-3347,-343,40,-5,1,7,11
7.58E+02,-6587,2145,-3339,-350,51,278,1,7,11
7.54E+02,-6586,2101,-3053,-310,26,337,1,7,11
7.53E+02,-6564,2119,-3341,30,39,170,1,7,11
7.53E+02,-6548,2079,-3363,24,60,177,1,7,11
7.50E+02,-6533,2074,-3415,81,102,178,1,7,11
7.40E+02,-6768,2119,-3214,-118,-104,173,1,7,11
7.22E+02,-6729,2175,-3230,-69,-53,164,1,7,11
7.10E+02,-6729,2013,-3296,257,287,152,1,7,11
7.05E+02,-6743,2033,-3304,-112,341,334,1,7,11
7.01E+02,-6782,2001,-3274,63,379,-8,1,7,11
6.95E+02,-6568,1978,-3260,48,376,-103,1,7,11
6.91E+02,-6576,1975,-3250,61,328,85,1,7,11
6.88E+02,-6575,1991,-3243,70,276,28,1,7,11
6.85E+02,-6573,2007,-3239,46,-37,3,1,7,11
6.81E+02,-6578,1981,-3218,-291,-97,-257,1,7,11
6.75E+02,-6548,1930,-3456,-365,90,33,1,7,11
6.65E+02,-6742,2142,-3449,-167,51,67,1,7,11
6.49E+02,-6706,2111,-3405,-203,66,71,1,7,11
6.27E+02,-6702,2083,-3382,-137,92,80,1,7,11
6.03E+02,-6728,2113,-3392,-363,-111,82,1,7,11
5.88E+02,-6538,2140,-3403,-363,-45,81,1,7,11
5.89E+02,-6552,2166,-3424,-333,-4,-126,1,7,11
5.97E+02,-6567,1950,-3202,-293,306,-85,1,7,11
6.00E+02,-6540,1973,-3243,43,286,-19,1,7,11
5.97E+02,-6728,2027,-3316,22,274,278,1,7,11
5.91E+02,-6679,2004,-3320,-350,305,-41,1,7,11
5.86E+02,-6698,1978,-3319,-151,352,126,1,7,11
5.81E+02,-6720,1970,-3322,-169,362,74,1,7,11
5.75E+02,-6744,1947,-3283,-373,332,34,1,7,11
5.70E+02,-6758,2019,-3321,-289,317,53,1,7,11
5.63E+02,-6751,2044,-3585,-359,282,38,1,7,11
5.56E+02,-6780,2046,-3303,-199,-2,1,1,7,11
5.50E+02,-6541,2017,-3252,-536,-54,-272,1,7,11
5.45E+02,-6553,1983,-3448,-582,-113,-275,1,7,11
5.41E+02,-6532,1945,-3380,-566,68,-260,1,7,11
5.41E+02,-6783,1986,-3404,-532,51,49,1,7,11
5.42E+02,-6727,1952,-3391,-634,24,81,1,7,11
5.43E+02,-6699,2172,-3385,-424,63,102,1,7,11
5.44E+02,-6707,2160,-3404,-613,-114,94,1,7,11
5.46E+02,-6707,1973,-3455,-577,-30,105,1,7,11
5.50E+02,-6718,2020,-3219,-622,325,113,1,7,11
5.56E+02,-6722,2312,-3225,-412,139,-122,1,7,11
5.65E+02,-6725,2312,-3224,-481,168,120,1,7,11
5.78E+02,-6720,2045,-3223,-782,162,80,1,7,11
5.96E+02,-6762,2045,-3217,-810,160,8,1,7,11
6.17E+02,-6553,2042,-3210,-827,366,-266,1,7,11
6.36E+02,-6768,2324,-3242,-813,284,60,1,7,11
6.53E+02,-6720,2338,-3276,-840,-21,122,1,7,11
6.68E+02,-6390,2307,-3258,-855,-56,-67,1,7,11
6.86E+02,-6374,2334,-3310,-809,-4,-33,1,7,11
7.08E+02,-6670,2022,-3279,-882,286,-55,1,7,11
7.34E+02,-6713,2042,-3272,-851,342,-62,1,7,11
7.63E+02,-6715,2331,-3286,-779,329,-38,1,7,11
7.94E+02,-6682,2362,-3286,-442,303,-31,1,7,11
8.28E+02,-6732,2344,-3204,-220,-76,-89,1,7,11
8.64E+02,-6668,2391,-3249,-167,-125,-29,1,7,11
9.00E+02,-6334,2408,-3249,-150,119,-1,1,7,11
9.35E+02,-6340,2236,-3308,-366,-42,267,1,7,11
9.59E+02,-6381,2249,-3274,-513,283,-4,1,7,11
9.66E+02,-6702,2234,-3229,-578,340,268,1,7,11
9.54E+02,-6773,2217,-3444,-598,333,275,1,7,11
9.25E+02,-6779,2200,-3429,-567,264,315,1,7,11
8.80E+02,-6731,2208,-3423,-532,-67,303,1,7,11
8.23E+02,-6717,2220,-3405,-243,-109,-12,1,7,11
7.63E+02,-6715,2230,-3386,-219,111,-55,1,7,11
7.10E+02,-6702,2239,-3386,-187,66,-53,1,7,11
6.86E+02,-6390,2261,-3425,-173,25,-9,1,7,11
7.21E+02,-6300,2242,-3421,-174,7,292,1,7,11
8.02E+02,-6492,2564,-3235,-373,98,353,1,7,11
8.79E+02,-6490,2572,-3216,-237,-45,324,1,7,11
9.27E+02,-6296,2301,-3434,-552,328,300,1,7,11
9.47E+02,-6392,2297,-3400,-541,136,263,1,7,11
9.47E+02,-6724,2564,-3378,-212,383,262,1,7,11
9.37E+02,-6779,2571,-3371,-140,328,260,1,7,11
9.24E+02,-6779,2583,-3391,-311,-15,284,1,7,11
9.12E+02,-6718,2602,-3443,7,-115,307,1,7,11
9.05E+02,-6360,2608,-3244,50,76,306,1,7,11
9.06E+02,-6282,2617,-3291,64,85,261,1,7,11
9.13E+02,-6525,2593,-3298,113,-110,-69,1,7,11
9.19E+02,-6302,2615,-3300,119,-25,-103,1,7,11
9.18E+02,-6341,2570,-3264,94,261,-124,1,7,11
9.04E+02,-6360,2284,-3432,118,-5,116,1,7,11
8.88E+02,-6395,2257,-3364,-95,-43,79,1,7,11
8.77E+02,-6392,2275,-3350,-19,-109,89,1,7,11
8.69E+02,-6277,2565,-3396,301,76,-126,1,7,11
8.64E+02,-6519,2572,-3432,288,112,-116,1,7,11
8.58E+02,-6518,2596,-3219,266,-78,-82,1,7,11
8.50E+02,-6285,2591,-3232,-37,-17,-55,1,7,11
8.41E+02,-6326,2569,-3222,-53,285,-29,1,7,11
8.36E+02,-6378,2297,-3227,-26,298,-9,1,7,11
8.44E+02,-6661,2271,-3263,304,272,293,1,7,11
8.70E+02,-6381,2241,-3305,177,-50,318,1,7,11
9.06E+02,-6367,2578,-3645,554,-49,328,1,7,11
9.39E+02,-6363,2583,-3638,243,-68,288,1,7,11
9.65E+02,-6385,2568,-3618,213,-82,260,1,7,11
9.84E+02,-6385,2585,-3616,210,-117,257,1,7,11
9.99E+02,-6368,2592,-3624,182,92,281,1,7,11
1.01E+03,-6329,2588,-3629,145,65,314,1,7,11
1.02E+03,-6322,2585,-3628,352,76,326,1,7,11
1.03E+03,-6324,2567,-3616,311,81,361,1,7,11
1.03E+03,-6319,2281,-3597,291,69,150,1,7,11
1.03E+03,-6312,2277,-3605,310,53,184,1,7,11
1.03E+03,-6290,2284,-3624,305,31,180,1,7,11
1.02E+03,-6290,2270,-3610,280,22,153,1,7,11
1.01E+03,-6325,2269,-3593,284,22,377,1,7,11
9.88E+02,-6343,2285,-3321,302,-262,131,1,7,11
9.65E+02,-6341,2301,-3313,321,-293,149,1,7,11
9.43E+02,-6328,2298,-3284,355,-330,132,1,7,11
9.28E+02,-6348,2629,-3587,168,-326,141,1,7,11
9.28E+02,-6337,2648,-3318,322,-358,141,1,7,11
9.43E+02,-6306,2654,-3324,-10,-356,168,1,7,11
9.65E+02,-6286,2671,-3325,-69,-330,178,1,7,11
9.86E+02,-6275,2440,-3312,-124,-297,196,1,7,11
1.00E+03,-6285,2442,-3295,85,0,194,1,7,11
1.02E+03,-6311,2685,-3241,55,22,188,1,7,11
1.04E+03,-6327,2654,-3227,59,6,201,1,7,11
1.05E+03,-6324,2627,-3244,101,-281,209,1,7,11
1.06E+03,-6308,2642,-3277,-98,-305,221,1,7,11
1.04E+03,-6508,2669,-3318,-52,-320,253,1,7,11
1.01E+03,-6469,2438,-3317,-27,-306,530,1,7,11
9.80E+02,-6369,2436,-3364,-125,-161,233,1,7,11
9.61E+02,-6367,2434,-3344,123,-217,239,1,7,11
9.49E+02,-6422,2677,-3340,-152,-136,607,1,7,11
9.43E+02,-6423,2448,-3360,-316,7,522,1,7,11
9.39E+02,-6458,2447,-3347,15,-123,170,1,7,11
9.34E+02,-6499,2477,-3358,123,-29,381,1,7,11
9.27E+02,-6498,2532,-3391,-32,273,134,1,7,11
9.18E+02,-6467,2837,-3439,265,294,128,1,7,11
9.07E+02,-6449,2880,-3211,-9,315,339,1,7,11
8.96E+02,-6458,2910,-3451,-58,330,272,1,7,11
8.85E+02,-6520,2937,-3456,-59,349,-27,1,7,11
8.76E+02,-6301,2692,-3448,105,316,-26,1,7,11
8.70E+02,-6518,2850,-3259,-309,278,381,1,7,11
8.67E+02,-6501,2862,-3294,-267,-31,167,1,7,11
8.69E+02,-6457,2865,-3308,31,-96,206,1,7,11
8.78E+02,-6427,2703,-3602,86,-107,568,1,7,11
8.90E+02,-6108,2696,-3314,-294,-113,627,1,7,11
9.02E+02,-6135,2725,-3291,-376,-70,620,1,7,11
9.10E+02,-6443,2759,-3254,-166,-48,607,1,7,11
9.12E+02,-6423,2807,-3235,-171,-66,409,1,7,11
9.09E+02,-6106,3102,-3218,-173,-102,431,1,7,11
9.03E+02,-6113,3132,-3453,-189,-88,618,1,7,11
8.97E+02,-6430,3161,-3421,-203,-79,538,1,7,11
8.90E+02,-6448,3162,-3402,-219,-123,524,1,7,11
8.85E+02,-6420,3176,-3405,-214,102,521,1,7,11
8.81E+02,-6092,3168,-3396,-204,77,542,1,7,11
8.79E+02,-6028,3193,-3448,-167,124,583,1,7,11
8.78E+02,-6212,2946,-3205,-242,-53,562,1,7,11
8.78E+02,-6237,2960,-3205,-555,335,229,1,7,11
8.78E+02,-6058,2963,-3203,-593,179,148,1,7,11
8.79E+02,-6404,2959,-3452,-572,233,369,1,7,11
8.79E+02,-6418,2982,-3233,-515,222,155,1,7,11
8.79E+02,-6102,3019,-3267,-240,194,179,1,7,11
8.79E+02,-6075,3019,-3266,-526,183,143,1,7,11
8.79E+02,-6045,3004,-3264,-560,158,346,1,7,11
8.80E+02,-6175,3069,-3318,-486,339,379,1,7,11
8.80E+02,-6195,3612,-3268,-1072,244,213,1,7,11
8.81E+02,-6232,3623,-3202,-1051,215,174,1,7,11
8.83E+02,-6198,3647,-3437,-721,136,172,1,7,11
8.84E+02,-6167,3631,-3395,-664,336,366,1,7,11
8.86E+02,-6176,3619,-3397,-837,285,291,1,7,11
8.88E+02,-6145,3607,-3412,-476,-38,268,1,7,11
8.90E+02,-5847,3595,-3432,-391,-98,279,1,7,11
8.92E+02,-5766,3322,-3434,-249,-120,312,1,7,11
8.94E+02,-6012,3615,-3222,-138,-51,335,1,7,11
8.97E+02,-5768,3618,-3213,-139,266,333,1,7,11
8.99E+02,-5832,3634,-3441,-363,333,328,1,7,11
9.02E+02,-6154,3648,-3396,-303,343,341,1,7,11
9.05E+02,-6148,3674,-3371,52,307,141,1,7,11
9.08E+02,-5846,3703,-3367,125,273,149,1,7,11
9.11E+02,-5795,3463,-3375,-96,-5,383,1,7,11
9.15E+02,-6012,3491,-3390,-88,-12,320,1,7,11
9.18E+02,-5996,3500,-3419,-118,-17,257,1,7,11
9.22E+02,-5965,3494,-3210,98,-18,-30,1,7,11
9.27E+02,-5944,3705,-3213,62,-2,-55,1,7,11
9.32E+02,-5965,3704,-3304,-124,308,-38,1,7,11
9.39E+02,-5975,3700,-3587,78,330,-33,1,7,11
9.48E+02,-5850,3612,-3380,252,-170,-35,1,7,11
9.60E+02,-5983,3614,-3419,424,-515,-18,1,7,11
9.73E+02,-5897,3641,-3229,503,-240,-42,1,7,11
9.82E+02,-5905,3666,-3284,489,-147,-71,1,7,11
9.87E+02,-5956,3638,-3273,478,-324,-70,1,7,11
9.90E+02,-6010,3652,-3292,469,-263,305,1,7,11
9.90E+02,-5827,3636,-3284,401,-263,186,1,7,11
9.89E+02,-5858,3635,-3301,638,-327,532,1,7,11
9.87E+02,-5859,3660,-3599,391,-155,617,1,7,11
9.84E+02,-5807,3703,-3658,386,-228,427,1,7,11
9.81E+02,-5997,3480,-3698,622,-517,422,1,7,11
9.78E+02,-5982,3567,-3495,604,-231,416,1,7,11
9.75E+02,-5946,3854,-3484,157,-214,621,1,7,11
9.70E+02,-5969,3851,-3682,-38,-170,246,1,7,11
9.64E+02,-5783,3848,-3588,67,-148,367,1,7,11
9.53E+02,-5861,3843,-3242,-283,-183,283,1,7,11
9.38E+02,-6148,3577,-3420,-341,-524,-8,1,7,11
9.23E+02,-5878,3564,-3373,-379,-612,-10,1,7,11
9.10E+02,-5843,3563,-3348,-150,-424,263,1,7,11
9.01E+02,-5777,3556,-3368,-188,-464,299,1,7,11
8.93E+02,-5971,3554,-3399,-235,-447,332,1,7,11
8.87E+02,-5930,3549,-3406,-550,-633,360,1,7,11
8.80E+02,-5945,3541,-3449,-562,-528,173,1,7,11
8.72E+02,-5913,3529,-3439,-389,-184,515,1,7,11
8.63E+02,-5915,3511,-3387,-409,-329,549,1,7,11
8.55E+02,-5949,3529,-3344,-624,14,540,1,7,11
8.49E+02,-5989,3544,-3335,-561,58,249,1,7,11
8.47E+02,-5991,3577,-3063,-219,68,201,1,7,11
8.48E+02,-5966,3878,-3047,-151,74,373,1,7,11
8.52E+02,-6006,3894,-3024,-373,101,203,1,7,11
8.60E+02,-5791,3897,-3004,-358,116,-115,1,7,11
8.71E+02,-5800,3903,-2993,-338,90,-121,1,7,11
8.82E+02,-5785,3901,-2991,-352,65,-96,1,7,11
8.95E+02,-6006,3890,-2990,-132,57,-72,1,7,11
9.08E+02,-5991,3862,-2966,-162,83,-80,1,7,11
9.20E+02,-5803,3856,-2980,-371,-109,-74,1,7,11
9.31E+02,-5806,3848,-2973,-383,-90,-15,1,7,11
9.40E+02,-5784,3853,-2976,-353,-65,302,1,7,11
9.49E+02,-6002,3884,-2998,-325,-34,306,1,7,11
9.57E+02,-5762,3909,-3023,-323,263,-13,1,7,11
9.65E+02,-5763,3943,-3040,-322,270,-50,1,7,11
9.75E+02,-5613,3723,-3220,-532,-19,-85,1,7,11
9.88E+02,-5625,3947,-3219,-599,302,-101,1,7,11
1.00E+03,-5897,3930,-3446,-629,351,-108,1,7,11
1.02E+03,-5949,3915,-3406,-616,129,119,1,7,11
1.03E+03,-6001,3944,-3400,-529,134,109,1,7,11
1.04E+03,-5979,3743,-3423,-175,348,-117,1,7,11
1.04E+03,-5943,3749,-3409,-375,308,74,1,7,11
1.05E+03,-5992,3786,-3421,-326,318,23,1,7,11
1.05E+03,-6014,3747,-3368,-371,262,-273,1,7,11
1.04E+03,-5765,3725,-3336,-350,-62,-266,1,7,11
1.04E+03,-5765,3718,-3338,-326,124,1,1,7,11
1.04E+03,-5981,3739,-3363,-299,70,52,1,7,11
1.04E+03,-5970,3738,-3367,-312,60,89,1,7,11
1.03E+03,-5994,3716,-3329,-345,100,101,1,7,11
1.03E+03,-6002,3929,-3037,-360,-123,119,1,7,11
1.03E+03,-6007,3912,-3021,-329,-114,124,1,7,11
1.03E+03,-5989,3942,-3041,47,-111,-117,1,7,11
1.01E+03,-5972,3723,-3330,85,-100,-126,1,7,11
9.94E+02,-5981,3758,-3338,-119,-82,49,1,7,11
9.62E+02,-5980,3755,-3331,75,-116,30,1,7,11
9.26E+02,-5995,3741,-3063,42,117,30,1,7,11
8.97E+02,-5592,3934,-3393,11,102,-83,1,7,11
8.77E+02,-5614,3928,-3399,31,-87,-109,1,7,11
8.64E+02,-5912,3951,-3399,59,-25,116,1,7,11
8.57E+02,-5948,3739,-3413,95,266,106,1,7,11
8.54E+02,-5967,3755,-3415,-108,271,55,1,7,11
8.53E+02,-5984,3794,-3427,94,-7,39,1,7,11
8.52E+02,-5983,3770,-3404,3,-44,-262,1,7,11
8.50E+02,-6013,3763,-3386,-308,-85,-314,1,7,11
8.45E+02,-5794,3745,-3362,-351,110,-339,1,7,11
8.37E+02,-5791,3712,-3338,-382,38,-311,1,7,11
8.28E+02,-5916,3866,-3360,76,32,-112,1,7,11
8.18E+02,-5915,3885,-3370,126,-125,121,1,7,11
8.08E+02,-5934,3326,-3531,3308,1938,-1413,1,7,11
8.00E+02,-5849,3707,-3719,3257,1959,-1646,1,7,11
7.93E+02,-6184,3532,-4163,2987,2110,-1559,1,7,11
7.90E+02,-6030,3547,-4032,2537,1914,-1271,1,7,11
7.88E+02,-6085,3526,-4388,2009,1616,-1397,1,7,11
7.87E+02,-6081,3457,-4430,1419,1015,-983,1,7,11
7.88E+02,-6046,3591,-4414,1088,664,-1051,1,7,11
7.89E+02,-6212,3411,-4363,563,598,-870,1,7,11
7.91E+02,-5861,2977,-4045,-70,348,-511,1,7,11
7.94E+02,-5773,3118,-4018,-290,-72,-439,1,7,11
8.00E+02,-5964,2764,-3981,-182,97,-392,1,7,11
8.10E+02,-5933,2711,-4194,-243,84,-589,1,7,11
8.25E+02,-5932,2931,-4155,-532,113,-515,1,7,11
8.47E+02,-5937,2900,-4140,-517,-108,-138,1,7,11
8.75E+02,-5614,2901,-4168,-231,-83,-259,1,7,11
9.08E+02,-5576,2918,-4209,-231,-14,58,1,7,11
9.46E+02,-5558,2942,-3981,-254,318,96,1,7,11
9.88E+02,-5598,2697,-3981,-558,148,71,1,7,11
1.03E+03,-5938,2730,-4218,-588,195,46,1,7,11
1.07E+03,-6010,2731,-4156,-630,161,58,1,7,11
1.10E+03,-5785,2715,-4132,-626,335,105,1,7,11
1.12E+03,-6016,2703,-3833,-574,-5,-105,1,7,11
1.12E+03,-5970,2755,-4128,-203,-54,-115,1,7,11
1.11E+03,-5623,2781,-4160,-138,-72,-45,1,7,11
1.09E+03,-5566,2768,-4171,-207,-89,267,1,7,11
1.05E+03,-5577,2747,-4167,-250,-8,-52,1,7,11
1.01E+03,-5608,2750,-4156,-255,333,-111,1,7,11
9.74E+02,-5903,2754,-4140,-247,378,-86,1,7,11
9.39E+02,-5599,2779,-4154,-197,133,-28,1,7,11
9.16E+02,-5584,2801,-4146,-175,151,-64,1,7,11
9.08E+02,-5901,3085,-4125,-188,189,102,1,7,11
9.12E+02,-5946,3101,-4112,-177,152,77,1,7,11
9.22E+02,-5919,3125,-4134,-158,331,107,1,7,11
9.35E+02,-5561,3121,-4155,-162,300,121,1,7,11
9.48E+02,-5506,3143,-3974,-140,267,114,1,7,11
9.59E+02,-5736,3110,-3976,-273,334,87,1,7,11
9.63E+02,-5755,3079,-3977,-579,161,54,1,7,11
9.64E+02,-5573,2814,-3972,-569,218,19,1,7,11
9.62E+02,-5623,3113,-4021,-217,196,67,1,7,11
9.60E+02,-5556,2740,-4054,26,103,-377,1,7,11
9.60E+02,-5596,2730,-4059,68,93,-181,1,7,11
9.64E+02,-5621,2721,-4056,64,48,-171,1,7,11
9.71E+02,-5890,2925,-3998,72,-261,-188,1,7,11
9.81E+02,-5913,2886,-4174,118,-328,-224,1,7,11
9.92E+02,-5930,2817,-4102,-51,-170,-237,1,7,11
9.98E+02,-5630,2840,-4129,379,-251,-211,1,7,11
1.00E+03,-5563,2907,-4204,541,-522,-185,1,7,11
9.97E+02,-5591,2688,-4017,614,-230,-187,1,7,11
9.97E+02,-5608,2729,-4080,393,-137,-349,1,7,11
1.00E+03,-5946,2717,-4080,569,-340,-308,1,7,11
1.02E+03,-6014,2692,-4071,532,-319,25,1,7,11
1.05E+03,-5815,2926,-4056,552,-359,82,1,7,11
1.09E+03,-5849,2916,-4042,572,-179,-123,1,7,11
1.12E+03,-5830,2892,-4030,600,-532,-83,1,7,11
1.14E+03,-5812,2853,-4001,601,-604,-109,1,7,11
1.15E+03,-5783,2823,-3970,630,-409,84,1,7,11
1.15E+03,-5804,2860,-4004,434,-424,13,1,7,11
1.15E+03,-5809,2868,-4000,593,-469,-284,1,7,11
1.15E+03,-5830,2841,-3977,218,-484,-288,1,7,11
1.16E+03,-5877,2546,-4177,352,-494,-273,1,7,11
1.17E+03,-6163,2503,-4117,269,-781,86,1,7,11
1.19E+03,-5870,2481,-3826,-35,-818,-44,1,7,11
1.20E+03,-5844,2455,-3787,-76,-826,292,1,7,11
1.21E+03,-5791,2449,-3788,-80,-818,365,1,7,11
1.22E+03,-6000,2462,-3804,-80,-788,155,1,7,11
1.23E+03,-5943,2488,-3825,-106,-478,197,1,7,11
1.23E+03,-5897,2486,-3813,71,-640,186,1,7,11
1.24E+03,-5905,2454,-3766,14,-522,149,1,7,11
1.24E+03,-5911,2461,-3750,21,-161,374,1,7,11
1.25E+03,-5953,2464,-3723,41,-326,309,1,7,11
1.25E+03,-5967,2509,-3731,100,1,271,1,7,11
1.26E+03,-5783,2545,-3747,-97,79,-84,1,7,11
1.26E+03,-5867,2841,-3751,-124,98,-73,1,7,11
1.27E+03,-5863,2840,-3766,92,73,263,1,7,11
1.26E+03,-5831,2851,-3788,81,75,307,1,7,11
1.26E+03,-5818,2889,-3820,59,110,308,1,7,11
1.25E+03,-5833,2903,-3820,-260,-110,304,1,7,11
1.24E+03,-5867,2894,-3800,-320,-78,280,1,7,11
1.23E+03,-6178,2871,-3776,-342,-76,282,1,7,11
1.23E+03,-6202,2858,-3750,-321,-101,306,1,7,11
1.23E+03,-6193,2868,-3760,-272,113,344,1,7,11
1.23E+03,-5868,2899,-3786,20,85,376,1,7,11
1.23E+03,-5806,2905,-3787,40,91,301,1,7,11
1.23E+03,-5828,2918,-3797,-272,-128,-37,1,7,11
1.23E+03,-5867,2852,-3722,-345,-128,124,1,7,11
1.23E+03,-5859,2547,-3719,-310,89,107,1,7,11
1.22E+03,-5796,2540,-3739,5,56,90,1,7,11
1.22E+03,-5763,2544,-3736,30,86,57,1,7,11
1.22E+03,-5873,2851,-3813,92,271,43,1,7,11
1.21E+03,-5877,2862,-3839,80,269,96,1,7,11
1.21E+03,-5855,2874,-4133,59,-5,-96,1,7,11
1.21E+03,-5809,2877,-4167,16,-1,-45,1,7,11
1.21E+03,-5805,2871,-4167,-289,292,-61,1,7,11
1.20E+03,-5816,2862,-4140,-336,312,-85,1,7,11
1.20E+03,-5822,2840,-4115,-354,305,-104,1,7,11
1.20E+03,-5844,2846,-3832,-339,301,107,1,7,11
1.20E+03,-5857,2851,-3805,-336,267,90,1,7,11
1.20E+03,-5842,2827,-3771,-337,-48,106,1,7,11
1.20E+03,-5807,2828,-3765,-308,-89,105,1,7,11
1.20E+03,-5801,2844,-3774,-310,-109,89,1,7,11
1.20E+03,-5771,2849,-3791,-323,123,-123,1,7,11
1.21E+03,-5980,2841,-3811,-357,126,-100,1,7,11
1.21E+03,-5981,2554,-3801,-331,-69,96,1,7,11
1.21E+03,-5763,2835,-3823,-313,-1,120,1,7,11
1.21E+03,-5791,2820,-3807,-316,300,-97,1,7,11
1.21E+03,-5831,2825,-3810,-269,322,-60,1,7,11
1.22E+03,-5847,2852,-3835,48,305,-50,1,7,11
1.22E+03,-5851,2886,-4130,81,271,-70,1,7,11
1.23E+03,-5852,2921,-4162,85,-25,-106,1,7,11
1.23E+03,-5834,2927,-4183,74,-70,76,1,7,11
1.24E+03,-5809,2919,-4181,20,-112,100,1,7,11
1.24E+03,-5985,2870,-4151,-329,120,98,1,7,11
1.25E+03,-5964,2558,-4141,-371,-117,54,1,7,11
