timestamp,ax,ay,az,gx,gy,gz,Label1,Label2,Label3
8.04E+02,-6118,4548,-1004,-383,438,208,1,7,11
7.55E+02,-6127,4522,-980,-232,387,196,1,7,11
7.31E+02,-6128,4525,-1000,-117,608,193,1,7,11
7.28E+02,-6137,4698,-985,-30,603,196,1,7,11
7.39E+02,-6111,4676,-1283,130,591,134,1,7,11
7.57E+02,-6112,4717,-1339,548,610,337,1,7,11
7.77E+02,-6130,4499,-1390,459,629,354,1,7,11
7.93E+02,-6101,4554,-1259,871,387,172,1,7,11
8.07E+02,-6084,4579,-1549,716,404,570,1,7,11
8.20E+02,-5855,4959,-1716,1118,413,490,1,7,11
8.35E+02,-5873,4888,-1747,659,742,846,1,7,11
8.50E+02,-5806,4901,-2115,878,1151,884,1,7,11
8.65E+02,-5977,4968,-2044,787,1304,642,1,7,11
8.78E+02,-5619,4986,-2407,618,1261,665,1,7,11
8.87E+02,-5539,4765,-2266,350,1657,651,1,7,11
8.91E+02,-5743,4794,-2599,-116,1515,890,1,7,11
8.93E+02,-5689,4818,-2646,-348,1846,868,1,7,11
8.92E+02,-5642,4835,-2664,-590,1902,833,1,7,11
8.90E+02,-5340,4854,-2673,-808,1919,795,1,7,11
8.88E+02,-5293,5134,-2674,-752,1913,498,1,7,11
8.88E+02,-5503,5136,-2656,-932,1904,457,1,7,11
8.91E+02,-5465,5138,-2628,-1310,1884,427,1,7,11
8.90E+02,-5377,5205,-2441,-1391,1875,392,1,7,11
8.81E+02,-5401,5169,-2604,-1538,1664,405,1,7,11
8.57E+02,-5420,5180,-2271,-1551,1867,424,1,7,11
8.23E+02,-5446,5231,-2204,-1552,1485,417,1,7,11
7.92E+02,-5462,4999,-2400,-1545,1550,637,1,7,11
7.77E+02,-5434,4998,-2393,-1256,1323,578,1,7,11
7.80E+02,-5398,4994,-2383,-1201,1141,244,1,7,11
7.93E+02,-5389,5007,-2374,-1369,728,159,1,7,11
8.04E+02,-5399,5029,-2351,-1288,837,321,1,7,11
8.09E+02,-5421,5044,-2039,-944,410,-21,1,7,11
8.07E+02,-5426,5055,-1990,-1076,208,-94,1,7,11
8.03E+02,-5426,5069,-1952,-674,267,103,1,7,11
7.98E+02,-5403,5094,-1935,-774,94,67,1,7,11
7.92E+02,-5119,5383,-1930,-639,-263,51,1,7,11
7.86E+02,-5102,5411,-2167,-527,-296,62,1,7,11
7.78E+02,-5093,5436,-2103,-185,-287,110,1,7,11
7.70E+02,-5399,5436,-1754,-364,2,-118,1,7,11
7.64E+02,-5424,5453,-1687,25,-384,-104,1,7,11
7.60E+02,-5416,5499,-1694,268,-517,-105,1,7,11
7.60E+02,-5091,5260,-1729,346,-584,-113,1,7,11
7.63E+02,-5055,5284,-1735,139,-551,114,1,7,11
7.69E+02,-5055,5303,-1717,165,-520,62,1,7,11
7.78E+02,-5055,5293,-1698,182,-530,-280,1,7,11
7.89E+02,-5026,5298,-1703,252,-600,-383,1,7,11
8.00E+02,-5021,5297,-1714,575,-421,-239,1,7,11
8.08E+02,-5061,5261,-1678,402,-788,-603,1,7,11
8.07E+02,-5095,5487,-1679,813,-721,-454,1,7,11
7.99E+02,-5420,5446,-1670,718,-926,-814,1,7,11
7.86E+02,-5255,5382,-1670,917,-1178,-647,1,7,11
7.70E+02,-5650,5068,-1670,1349,-1443,-730,1,7,11
7.55E+02,-5527,5231,-1918,1264,-1760,-741,1,7,11
7.41E+02,-5940,5152,-1873,1470,-2386,-697,1,7,11
7.27E+02,-5853,4783,-1801,1713,-2882,-843,1,7,11
7.15E+02,-6222,4960,-1522,2008,-3245,-466,1,7,11
7.06E+02,-6035,4876,-1513,2259,-4132,-638,1,7,11
7.01E+02,-6071,4871,-1797,2484,-4713,-598,1,7,11
6.99E+02,-6068,4944,-1855,2871,-5210,-573,1,7,11
7.00E+02,-6040,4987,-1667,2832,-5275,-529,1,7,11
7.03E+02,-6247,4971,-1694,2434,-5663,-196,1,7,11
7.08E+02,-6184,4958,-1685,2268,-5343,-358,1,7,11
7.14E+02,-6156,4934,-1883,2360,-5117,0,1,7,11
7.20E+02,-6153,4945,-1838,1984,-4778,100,1,7,11
7.27E+02,-6170,4963,-1517,2073,-4333,-57,1,7,11
7.35E+02,-6221,4959,-1650,1869,-3827,265,1,7,11
7.46E+02,-6258,4973,-1551,1433,-3630,285,1,7,11
7.61E+02,-6027,4974,-1206,1255,-2955,259,1,7,11
7.76E+02,-6272,4971,-1187,982,-2566,-57,1,7,11
7.89E+02,-6268,4966,-1173,1050,-2098,-93,1,7,11
8.00E+02,-6261,4939,-1161,860,-1629,-124,1,7,11
8.11E+02,-6019,4906,-1379,412,-918,94,1,7,11
8.19E+02,-6073,4872,-1318,242,-505,42,1,7,11
8.25E+02,-6138,4575,-999,349,-185,-269,1,7,11
8.29E+02,-6442,4524,-944,-23,36,-318,1,7,11
8.29E+02,-6480,4728,-906,-90,-88,-359,1,7,11
8.25E+02,-6492,4697,-1140,-106,-19,-381,1,7,11
8.18E+02,-6499,4692,-902,-100,270,-368,1,7,11
8.08E+02,-6495,4660,-909,-97,279,-322,1,7,11
7.97E+02,-6478,4639,-923,-57,289,-257,1,7,11
7.86E+02,-6478,4649,-939,-9,308,62,1,7,11
7.75E+02,-6475,4669,-973,283,320,124,1,7,11
7.65E+02,-6485,4682,-978,285,330,-84,1,7,11
7.57E+02,-6475,4696,-1013,-3,346,-62,1,7,11
7.48E+02,-6463,4723,-1285,-49,357,-50,1,7,11
7.38E+02,-6443,4502,-1322,-111,372,-40,1,7,11
7.25E+02,-6457,4506,-1266,21,171,-22,1,7,11
7.09E+02,-6473,4698,-978,-355,192,-32,1,7,11
6.90E+02,-6476,4711,-981,-186,188,-113,1,7,11
6.71E+02,-6479,4691,-940,-580,234,-263,1,7,11
6.55E+02,-6509,4689,-1141,-418,560,-309,1,7,11
6.43E+02,-6527,4683,-903,-470,622,-375,1,7,11
6.37E+02,-6340,4685,-1071,-511,636,-137,1,7,11
6.36E+02,-6507,4713,-942,-623,247,-326,1,7,11
6.37E+02,-6464,4625,-929,-495,627,-336,1,7,11
6.35E+02,-6483,4345,-918,-834,676,-162,1,7,11
6.31E+02,-6493,4347,-930,-872,1057,-228,1,7,11
6.24E+02,-6470,4612,-969,-879,1098,-531,1,7,11
6.14E+02,-6447,4628,-1017,-879,942,-569,1,7,11
6.02E+02,-6433,4645,-1331,-877,1019,-591,1,7,11
5.89E+02,-6428,4671,-1380,-889,1355,-597,1,7,11
5.78E+02,-6422,4674,-1178,-653,1167,-596,1,7,11
5.72E+02,-6415,4675,-1226,-680,1226,-594,1,7,11
5.74E+02,-6413,4682,-1271,-692,1544,-594,1,7,11
5.81E+02,-6420,4686,-1565,-722,1595,-595,1,7,11
5.92E+02,-6413,4663,-1599,-753,1633,-601,1,7,11
6.05E+02,-6409,4656,-1629,-768,1656,-603,1,7,11
6.20E+02,-6415,4660,-1644,-1038,1416,-598,1,7,11
6.35E+02,-6415,4662,-1662,-1052,1421,-586,1,7,11
6.51E+02,-6414,4671,-1409,-1070,1420,-565,1,7,11
6.65E+02,-6417,4670,-1421,-1087,1415,-541,1,7,11
6.78E+02,-6422,4663,-1425,-1106,1661,-520,1,7,11
6.88E+02,-6422,4661,-1429,-1111,1644,-254,1,7,11
6.92E+02,-6438,4658,-1420,-1115,1621,-254,1,7,11
6.90E+02,-6450,4650,-1662,-1115,1578,-513,1,7,11
6.79E+02,-6462,4644,-1657,-1111,1264,-534,1,7,11
6.63E+02,-6455,4636,-1653,-1094,1193,-559,1,7,11
6.41E+02,-6459,4629,-1644,-1070,1374,-589,1,7,11
6.21E+02,-6456,4623,-1630,-1029,1281,-606,1,7,11
6.14E+02,-6436,4622,-1619,-719,924,-617,1,7,11
6.24E+02,-6424,4625,-1631,-657,1092,-616,1,7,11
6.36E+02,-6413,4621,-1639,-856,762,-603,1,7,11
6.31E+02,-6415,4618,-1648,-787,694,-577,1,7,11
6.12E+02,-6407,4348,-1657,-458,884,-538,1,7,11
5.91E+02,-6410,4345,-1410,-627,828,-238,1,7,11
5.78E+02,-6412,4339,-1422,-541,780,-186,1,7,11
5.75E+02,-6419,4320,-1430,-199,481,-132,1,7,11
5.77E+02,-6410,4327,-1454,-357,426,-331,1,7,11
5.74E+02,-6401,4338,-1481,-269,387,-271,1,7,11
5.54E+02,-6402,4341,-1500,55,612,54,1,7,11
5.30E+02,-6131,4619,-1535,113,574,-93,1,7,11
5.32E+02,-6121,4633,-1814,-89,538,-59,1,7,11
5.53E+02,-6093,4656,-1843,-61,255,272,1,7,11
5.59E+02,-6065,4666,-1889,-42,245,331,1,7,11
5.35E+02,-6034,4673,-1909,-33,242,378,1,7,11
5.04E+02,-6253,4681,-1675,-31,248,147,1,7,11
4.86E+02,-6225,4707,-1704,-28,253,150,1,7,11
4.82E+02,-6223,4481,-1722,-38,522,137,1,7,11
4.87E+02,-6229,4497,-1737,-77,538,375,1,7,11
4.96E+02,-6233,4512,-1763,7,523,318,1,7,11
5.02E+02,-6232,4509,-1768,-333,250,289,1,7,11
5.03E+02,-6225,4511,-1782,-153,231,265,1,7,11
4.97E+02,-6216,4503,-1785,-196,224,-2,1,7,11
4.97E+02,-6207,4512,-1788,-552,223,258,1,7,11
5.15E+02,-6196,4516,-2053,-629,232,270,1,7,11
5.32E+02,-6172,4495,-1789,-462,514,274,1,7,11
5.24E+02,-6164,4500,-1777,-787,555,266,1,7,11
5.01E+02,-6157,4516,-1764,-849,592,257,1,7,11
4.85E+02,-6161,4517,-1751,-642,636,258,1,7,11
4.82E+02,-6165,4511,-1739,-686,418,269,1,7,11
4.86E+02,-6171,4508,-1722,-707,441,288,1,7,11
4.88E+02,-6179,4514,-1721,-706,446,309,1,7,11
4.83E+02,-6190,4523,-1712,-696,438,333,1,7,11
4.78E+02,-6159,4588,-1746,-663,425,362,1,7,11
4.80E+02,-5860,4584,-1744,-688,442,155,1,7,11
4.94E+02,-5839,4884,-1768,-673,471,188,1,7,11
5.20E+02,-5805,4903,-1772,-708,504,222,1,7,11
5.44E+02,-5771,4912,-1762,-736,802,244,1,7,11
5.51E+02,-5987,4931,-1759,-759,841,254,1,7,11
5.50E+02,-5944,4927,-1748,-1041,890,513,1,7,11
5.59E+02,-5894,4929,-1747,-1041,691,243,1,7,11
5.82E+02,-5600,4931,-1730,-1027,761,216,1,7,11
6.13E+02,-5515,4793,-2056,-423,1131,35,1,7,11
6.46E+02,-5516,4810,-2119,-389,1119,-277,1,7,11
6.75E+02,-5529,4804,-2135,-637,1114,-328,1,7,11
6.93E+02,-5545,4801,-2164,-624,1105,-133,1,7,11
6.94E+02,-5557,4800,-1962,-619,1096,-192,1,7,11
6.75E+02,-5575,4813,-1997,-622,1083,-239,1,7,11
6.30E+02,-5595,4817,-2028,-637,1070,-523,1,7,11
5.75E+02,-5612,4814,-2308,-400,1053,-530,1,7,11
5.52E+02,-5622,4812,-2321,-436,1030,-513,1,7,11
5.89E+02,-5622,4817,-2337,-472,735,-231,1,7,11
6.61E+02,-5616,4822,-2332,-807,714,-193,1,7,11
7.32E+02,-5604,4817,-2339,-868,691,-136,1,7,11
7.76E+02,-5598,4816,-2335,-663,678,-328,1,7,11
7.96E+02,-5591,4825,-2324,-710,661,-267,1,7,11
7.99E+02,-5582,4819,-2043,-759,892,57,1,7,11
7.89E+02,-5561,4816,-2028,-1035,857,123,1,7,11
7.66E+02,-5551,4832,-2012,-1034,826,-71,1,7,11
7.25E+02,-5540,4857,-2011,-1031,792,-7,1,7,11
6.63E+02,-5531,4858,-1997,-1044,503,312,1,7,11
6.01E+02,-5529,4854,-1977,-1044,469,358,1,7,11
5.75E+02,-5527,4860,-1953,-768,414,135,1,7,11
5.90E+02,-5510,5138,-1932,-744,604,165,1,7,11
6.15E+02,-5730,5171,-2155,-712,254,220,1,7,11
6.24E+02,-5697,5211,-2151,-694,207,524,1,7,11
6.18E+02,-5664,5239,-2142,-696,184,578,1,7,11
6.08E+02,-5655,5025,-2129,-700,175,627,1,7,11
6.03E+02,-5363,5051,-2078,-755,151,440,1,7,11
6.09E+02,-5331,5051,-2063,-726,141,451,1,7,11
6.30E+02,-5455,5492,-2104,-597,548,800,1,7,11
6.53E+02,-5442,5267,-2107,-543,581,828,1,7,11
6.62E+02,-5421,5268,-2113,-253,586,846,1,7,11
6.54E+02,-5388,5266,-2123,-211,580,844,1,7,11
6.45E+02,-5106,5280,-2141,-164,568,825,1,7,11
6.47E+02,-5075,5312,-2174,-376,548,794,1,7,11
6.55E+02,-5049,5348,-1939,-349,525,506,1,7,11
6.58E+02,-4999,5374,-1957,-340,242,473,1,7,11
6.49E+02,-5220,5636,-1963,-346,231,436,1,7,11
6.38E+02,-5195,5645,-1963,-354,216,394,1,7,11
6.33E+02,-5163,5654,-1972,-360,201,601,1,7,11
6.37E+02,-5139,5651,-1974,-369,187,542,1,7,11
6.48E+02,-4861,5659,-1976,-369,177,226,1,7,11
6.63E+02,-4847,5664,-1974,-382,173,172,1,7,11
6.81E+02,-4831,5664,-1969,-136,173,373,1,7,11
6.99E+02,-4827,5666,-1964,-140,176,322,1,7,11
7.18E+02,-4822,5668,-1957,-145,177,272,1,7,11
7.36E+02,-4823,5667,-1945,-149,173,-36,1,7,11
7.52E+02,-4845,5665,-1938,-151,155,-98,1,7,11
7.62E+02,-4864,5668,-1925,-150,373,93,1,7,11
7.64E+02,-5131,5655,-2170,-158,322,28,1,7,11
7.57E+02,-5142,5647,-2162,-144,271,-326,1,7,11
7.44E+02,-5160,5647,-2160,-361,-63,-134,1,7,11
7.25E+02,-5178,5640,-2166,-337,-121,-194,1,7,11
7.05E+02,-5206,5371,-2152,-310,79,-253,1,7,11
6.86E+02,-5235,5357,-2147,-273,18,-568,1,7,11
6.73E+02,-5003,5339,-2151,24,-304,-623,1,7,11
6.67E+02,-5025,5331,-2150,64,-360,-405,1,7,11
6.69E+02,-5048,5327,-2155,98,-140,-426,1,7,11
6.76E+02,-5065,5318,-2157,124,-164,-429,1,7,11
6.76E+02,-5086,5323,-2169,-115,-176,-412,1,7,11
6.57E+02,-5117,5324,-2171,-118,-171,-629,1,7,11
6.24E+02,-5398,5318,-2166,-127,-155,-580,1,7,11
5.97E+02,-5411,5308,-2170,116,-147,-527,1,7,11
5.90E+02,-5424,5306,-2160,105,-133,-218,1,7,11
5.92E+02,-5430,5297,-2169,94,-379,-168,1,7,11
5.90E+02,-5423,5285,-2158,87,-367,-371,1,7,11
5.87E+02,-5424,5299,-2159,92,-355,-318,1,7,11
5.91E+02,-5417,5310,-2156,83,-346,-265,1,7,11
6.06E+02,-5407,5305,-2154,67,-340,39,1,7,11
6.23E+02,-5398,5298,-2140,51,-339,74,1,7,11
6.35E+02,-5386,5292,-2142,45,-348,98,1,7,11
6.42E+02,-5386,5291,-2134,43,-350,104,1,7,11
6.43E+02,-5399,5297,-2120,33,-357,96,1,7,11
6.44E+02,-5414,5295,-2104,12,-375,85,1,7,11
6.48E+02,-5400,5280,-2090,-263,-144,79,1,7,11
6.56E+02,-5120,5266,-2090,-269,-151,85,1,7,11
6.65E+02,-5092,5259,-2088,1,-129,96,1,7,11
6.69E+02,-5072,5272,-2098,36,-301,-124,1,7,11
6.64E+02,-5058,5283,-2099,61,21,-97,1,7,11
6.50E+02,-5049,5286,-2102,82,92,-77,1,7,11
6.40E+02,-5043,5295,-2117,98,-99,-71,1,7,11
6.35E+02,-5035,5296,-2140,104,-44,-75,1,7,11
6.34E+02,-5031,5291,-2154,111,-3,-92,1,7,11
6.34E+02,-5029,5303,-2173,118,285,-120,1,7,11
6.36E+02,-5039,5312,-1930,109,298,103,1,7,11
6.41E+02,-5042,5323,-1948,95,297,72,1,7,11
6.49E+02,-5046,5326,-1972,70,284,42,1,7,11
6.59E+02,-5045,5318,-1974,41,262,18,1,7,11
6.70E+02,-5046,5310,-1978,11,-11,-261,1,7,11
6.82E+02,-5059,5303,-1984,-278,-28,-290,1,7,11
6.93E+02,-5071,5308,-1982,-309,-58,-316,1,7,11
6.98E+02,-5083,5311,-1980,-348,-89,-335,1,7,11
6.92E+02,-5108,5300,-1969,-139,-112,-349,1,7,11
6.76E+02,-5119,5284,-1951,-181,121,-359,1,7,11
6.53E+02,-5383,5269,-1942,-212,104,-357,1,7,11
6.29E+02,-5120,5256,-1929,-227,93,-354,1,7,11
6.12E+02,-5116,5499,-1921,-231,94,-344,1,7,11
6.13E+02,-5114,5497,-2169,-223,107,-336,1,7,11
6.27E+02,-5380,5256,-2156,-219,122,-328,1,7,11
6.32E+02,-5389,5274,-2147,-222,-125,-320,1,7,11
6.17E+02,-5396,5282,-2137,-236,-127,-312,1,7,11
5.99E+02,-5393,5282,-2138,-250,125,-306,1,7,11
5.93E+02,-5394,5286,-2138,-519,115,-304,1,7,11
6.01E+02,-5397,5291,-2130,-529,112,-309,1,7,11
6.23E+02,-5398,5287,-2108,-537,103,-312,1,7,11
6.55E+02,-5392,5304,-2102,-531,98,-316,1,7,11
6.90E+02,-5390,5313,-2095,-545,98,-313,1,7,11
7.14E+02,-5393,5306,-2085,-568,107,-306,1,7,11
7.09E+02,-5395,5307,-2080,-585,116,-305,1,7,11
6.57E+02,-5406,5309,-2065,-606,-128,-305,1,7,11
5.85E+02,-5400,5303,-1769,-624,-128,-306,1,7,11
5.42E+02,-5403,5310,-1763,-631,-122,-310,1,7,11
5.48E+02,-5405,5314,-1743,-391,-113,-307,1,7,11
5.87E+02,-5401,5317,-1744,-398,-105,-300,1,7,11
6.42E+02,-5404,5314,-1719,-405,-87,-288,1,7,11
6.98E+02,-5412,5304,-1706,-403,-68,-276,1,7,11
7.47E+02,-5419,5297,-1691,-396,-60,-272,1,7,11
7.79E+02,-5419,5296,-1679,-626,-62,-273,1,7,11
7.91E+02,-5428,5296,-1666,-598,-69,-279,1,7,11
7.90E+02,-5431,5290,-1909,-564,-79,-284,1,7,11
7.86E+02,-5437,5286,-1901,-530,-85,-290,1,7,11
7.86E+02,-5446,5286,-1895,-241,-94,-299,1,7,11
7.90E+02,-5464,5287,-1892,-202,-112,-307,1,7,11
7.96E+02,-5472,5287,-1886,-173,123,-310,1,7,11
8.03E+02,-5480,5282,-1887,-139,106,-306,1,7,11
8.07E+02,-5487,5279,-1884,-358,94,-297,1,7,11
8.06E+02,-5490,5261,-1874,-328,91,-279,1,7,11
7.98E+02,-5494,5501,-1866,-283,87,-260,1,7,11
7.83E+02,-5496,5254,-1866,30,87,22,1,7,11
7.65E+02,-5252,5280,-1870,80,86,55,1,7,11
7.48E+02,-5504,5287,-1887,114,78,95,1,7,11
7.32E+02,-5503,5284,-1901,-110,80,-123,1,7,11
7.15E+02,-5251,5281,-1900,-79,86,-93,1,7,11
6.94E+02,-5500,5278,-1914,-53,91,-70,1,7,11
6.75E+02,-5490,5278,-1670,-30,100,-59,1,7,11
6.64E+02,-5474,5279,-1680,-19,114,-57,1,7,11
6.66E+02,-5470,5269,-1697,-23,-110,-59,1,7,11
6.79E+02,-5470,5266,-1703,-32,-71,-62,1,7,11
7.02E+02,-5463,5270,-1713,-42,-25,-63,1,7,11
7.26E+02,-5460,5276,-1715,-52,284,-59,1,7,11
7.46E+02,-5455,5277,-1727,-60,339,-44,1,7,11
7.61E+02,-5454,5281,-1735,-73,170,-30,1,7,11
7.74E+02,-5451,5270,-1738,-94,227,-12,1,7,11
7.83E+02,-5445,5280,-1744,-89,526,267,1,7,11
7.83E+02,-5433,5301,-1765,-80,547,293,1,7,11
7.69E+02,-5421,5299,-1781,-95,571,319,1,7,11
7.43E+02,-5407,5301,-1792,-98,587,347,1,7,11
7.06E+02,-5403,5312,-2061,-101,597,363,1,7,11
6.66E+02,-5388,5320,-2068,-102,600,370,1,7,11
6.46E+02,-5378,5330,-2073,-111,597,366,1,7,11
6.67E+02,-5108,5332,-2086,-123,587,353,1,7,11
7.23E+02,-5103,5326,-2092,118,572,328,1,7,11
7.96E+02,-5098,5320,-2095,105,545,298,1,7,11
8.65E+02,-5081,5314,-2105,98,253,267,1,7,11
9.22E+02,-5067,5297,-2129,103,220,-14,1,7,11
9.65E+02,-5056,5301,-2144,127,192,-35,1,7,11
9.95E+02,-5038,5318,-2174,-98,168,-46,1,7,11
1.01E+03,-5028,5324,-1929,-83,164,-45,1,7,11
1.02E+03,-5021,5341,-1939,-72,161,-40,1,7,11
1.02E+03,-5015,5355,-1950,-86,160,-39,1,7,11
1.00E+03,-5009,5362,-1965,-121,151,-45,1,7,11
9.83E+02,-4996,5365,-1981,97,131,-53,1,7,11
9.57E+02,-5236,5374,-1995,69,371,-62,1,7,11
9.25E+02,-5212,5632,-2002,43,366,-62,1,7,11
8.88E+02,-5208,5373,-1997,18,373,-57,1,7,11
8.45E+02,-5203,5643,-1995,-260,134,-39,1,7,11
7.96E+02,-5201,5651,-1996,-292,158,-26,1,7,11
7.42E+02,-5203,5654,-1990,-309,174,-16,1,7,11
6.89E+02,-5193,5645,-1994,-326,185,-4,1,7,11
6.44E+02,-5172,5646,-2001,-318,196,272,1,7,11
6.12E+02,-5168,5661,-2000,-312,229,287,1,7,11
6.03E+02,-5172,5672,-2001,-305,255,296,1,7,11
6.28E+02,-5175,5669,-1996,-306,528,301,1,7,11
6.87E+02,-5172,5674,-2002,-290,525,309,1,7,11
7.61E+02,-5172,5688,-2007,4,513,329,1,7,11
8.26E+02,-5183,5685,-1998,27,513,362,1,7,11
8.64E+02,-5193,5673,-1982,34,504,140,1,7,11
8.73E+02,-5191,5667,-1969,58,209,165,1,7,11
8.58E+02,-5172,5669,-1976,102,151,176,1,7,11
8.26E+02,-5136,5680,-1997,-120,351,178,1,7,11
7.83E+02,-4843,5685,-2027,-94,324,178,1,7,11
7.40E+02,-4806,5688,-2306,-76,316,179,1,7,11
7.06E+02,-4773,5692,-2335,-59,327,177,1,7,11
6.86E+02,-4747,5693,-2359,-40,341,168,1,7,11
6.78E+02,-4982,5701,-2377,-23,349,148,1,7,11
6.79E+02,-4964,5724,-2400,-6,352,131,1,7,11
6.86E+02,-4949,5723,-2425,-21,359,364,1,7,11
6.97E+02,-4935,5714,-2193,-31,362,333,1,7,11
7.08E+02,-4925,5722,-2210,-31,357,293,1,7,11
7.17E+02,-4932,5738,-2224,-38,351,256,1,7,11
7.24E+02,-4940,5750,-2228,-56,344,-27,1,7,11
7.28E+02,-4953,5756,-2229,-75,329,-39,1,7,11
7.21E+02,-4958,5504,-2229,-95,322,-43,1,7,11
6.93E+02,-4973,5753,-2224,-119,324,-42,1,7,11
6.46E+02,-4975,5742,-2211,124,315,-38,1,7,11
6.04E+02,-4976,5744,-2206,126,306,-32,1,7,11
5.69E+02,-4973,5747,-2224,118,294,-32,1,7,11
5.33E+02,-4967,5755,-2241,94,268,-55,1,7,11
4.93E+02,-4950,5509,-2268,50,-16,-69,1,7,11
4.57E+02,-4918,5743,-2561,3,-21,-70,1,7,11
4.31E+02,-4884,5747,-2586,-281,-11,-80,1,7,11
4.12E+02,-4605,5744,-2596,-314,273,-84,1,7,11
3.99E+02,-4593,5740,-2594,-351,343,-82,1,7,11
3.88E+02,-4596,5751,-2585,-360,131,-83,1,7,11
3.77E+02,-4603,5748,-2571,-378,160,-82,1,7,11
3.68E+02,-4591,5743,-2561,-378,173,-82,1,7,11
3.61E+02,-4600,5751,-2302,-369,192,-81,1,7,11
3.58E+02,-4865,5508,-2287,-362,206,-76,1,7,11
3.61E+02,-4870,5519,-2280,-355,201,-66,1,7,11
3.67E+02,-4870,5524,-2267,-350,189,-57,1,7,11
3.77E+02,-4865,5531,-2257,-345,171,-52,1,7,11
3.89E+02,-4599,5530,-2239,-339,144,-48,1,7,11
4.03E+02,-4592,5528,-2223,-319,368,-47,1,7,11
4.23E+02,-4583,5534,-2224,-291,334,-52,1,7,11
4.54E+02,-4556,5527,-2223,-261,304,-63,1,7,11
5.02E+02,-4542,5536,-2241,40,292,-81,1,7,11
5.68E+02,-4542,5531,-2245,71,298,-99,1,7,11
6.46E+02,-4546,5520,-2254,101,306,-118,1,7,11
7.28E+02,-4555,5519,-2270,-127,307,119,1,7,11
8.07E+02,-4562,5511,-2278,-107,298,110,1,7,11
8.76E+02,-4563,5514,-2290,-87,282,109,1,7,11
9.27E+02,-4556,5529,-2571,-70,264,114,1,7,11
9.54E+02,-4543,5529,-2597,-76,-5,-128,1,7,11
9.57E+02,-4526,5530,-2621,-78,-5,-111,1,7,11
9.46E+02,-4518,5527,-2641,-83,264,-97,1,7,11
9.29E+02,-4516,5525,-2650,-92,282,-90,1,7,11
9.14E+02,-4514,5527,-2662,-107,298,-87,1,7,11
9.03E+02,-4507,5528,-2668,127,316,-80,1,7,11
8.94E+02,-4503,5521,-2674,96,333,-79,1,7,11
8.84E+02,-4497,5519,-2683,85,347,-84,1,7,11
8.72E+02,-4495,5527,-2442,75,359,-85,1,7,11
8.58E+02,-4488,5527,-2448,64,361,-78,1,7,11
8.42E+02,-4494,5528,-2439,55,366,-77,1,7,11
8.24E+02,-4491,5535,-2440,49,362,-75,1,7,11
8.08E+02,-4483,5542,-2438,44,347,-74,1,7,11
7.97E+02,-4717,5535,-2448,28,322,-80,1,7,11
7.96E+02,-4699,5536,-2450,14,298,-88,1,7,11
8.03E+02,-4681,5542,-2467,22,285,-100,1,7,11
8.12E+02,-4675,5540,-2470,26,291,-113,1,7,11
8.17E+02,-4679,5530,-2466,25,294,125,1,7,11
8.16E+02,-4689,5528,-2472,30,285,104,1,7,11
8.12E+02,-4695,5532,-2486,30,265,87,1,7,11
8.07E+02,-4694,5537,-2491,16,-13,74,1,7,11
8.03E+02,-4695,5544,-2499,-265,-33,68,1,7,11
8.03E+02,-4686,5542,-2502,-292,-54,70,1,7,11
8.12E+02,-4676,5542,-2511,-309,-70,73,1,7,11
8.31E+02,-4675,5550,-2519,-333,-70,77,1,7,11
8.51E+02,-4669,5551,-2513,-362,-65,86,1,7,11
8.62E+02,-4671,5545,-2500,-136,-59,89,1,7,11
8.53E+02,-4674,5548,-2490,-154,-55,88,1,7,11
8.24E+02,-4672,5559,-2487,-170,-50,79,1,7,11
7.91E+02,-4671,5564,-2479,-187,-46,71,1,7,11
7.68E+02,-4672,5567,-2471,-195,-39,68,1,7,11
7.62E+02,-4672,5566,-2456,-194,-33,77,1,7,11
7.69E+02,-4678,5570,-2443,-181,-29,99,1,7,11
7.82E+02,-4700,5576,-2683,-161,-43,-125,1,7,11
7.97E+02,-4703,5575,-2672,-140,-62,-111,1,7,11
8.12E+02,-4693,5578,-2658,-372,-91,-107,1,7,11
8.22E+02,-4668,5575,-2650,-349,-122,-105,1,7,11
8.27E+02,-4641,5580,-2655,-336,116,-109,1,7,11
8.28E+02,-4625,5587,-2672,-299,114,-120,1,7,11
8.31E+02,-4623,5593,-2685,-288,-126,117,1,7,11
8.39E+02,-4620,5596,-2449,-294,-109,97,1,7,11
8.53E+02,-4623,5593,-2447,-311,-88,79,1,7,11
8.69E+02,-4633,5592,-2457,-321,-75,61,1,7,11
8.85E+02,-4646,5589,-2454,-337,-58,49,1,7,11
8.97E+02,-4666,5579,-2442,-346,-45,43,1,7,11
9.02E+02,-4677,5566,-2688,-345,-47,41,1,7,11
8.97E+02,-4667,5578,-2683,-330,-49,56,1,7,11
8.78E+02,-4679,5565,-2673,-337,-34,66,1,7,11
8.50E+02,-4662,5555,-2673,-331,-32,71,1,7,11
8.22E+02,-4648,5569,-2686,-319,-19,59,1,7,11
8.05E+02,-4637,5582,-2443,-323,270,47,1,7,11
8.03E+02,-4643,5571,-2685,-338,308,42,1,7,11
8.10E+02,-4631,5585,-2445,-339,336,30,1,7,11
8.18E+02,-4640,5577,-2445,-367,374,19,1,7,11
8.23E+02,-4647,5553,-2681,-134,136,6,1,7,11
8.25E+02,-4636,5577,-2457,-373,382,-258,1,7,11
8.23E+02,-4636,5566,-2453,-147,137,-272,1,7,11
8.20E+02,-4633,5591,-2464,-152,145,-286,1,7,11
8.14E+02,-4635,5603,-2468,-173,156,-291,1,7,11
8.06E+02,-4644,5599,-2449,-201,160,-293,1,7,11
7.95E+02,-4628,5613,-2469,-194,383,-292,1,7,11
7.82E+02,-4622,5605,-2452,-207,367,-293,1,7,11
7.70E+02,-4633,5600,-2459,-202,338,-299,1,7,11
7.61E+02,-4640,5597,-2443,-182,298,-312,1,7,11
7.56E+02,-4697,5593,-2644,-193,264,-338,1,7,11
7.55E+02,-4729,5598,-2626,-183,-90,-353,1,7,11
7.58E+02,-4483,5593,-2612,-165,43,-350,1,7,11
7.63E+02,-4483,5588,-2583,-362,-344,-333,1,7,11
7.69E+02,-4720,5596,-2581,-265,-217,-299,1,7,11
7.75E+02,-4715,5583,-2579,98,-583,1,1,7,11
7.81E+02,-4705,5581,-2607,-55,-430,19,1,7,11
7.86E+02,-4711,5589,-2626,-23,-481,11,1,7,11
7.90E+02,-4699,5584,-2647,-35,-769,0,1,7,11
7.90E+02,-4692,5574,-2666,-73,-769,-278,1,7,11
7.85E+02,-4689,5570,-2683,124,-472,-308,1,7,11
7.79E+02,-4708,5570,-2674,55,-408,-340,1,7,11
7.74E+02,-4735,5569,-2656,-268,-617,-374,1,7,11
7.73E+02,-4500,5562,-2642,-336,-571,-153,1,7,11
7.75E+02,-4560,5558,-2567,-200,-233,-231,1,7,11
7.77E+02,-4581,5558,-2286,-203,-234,-207,1,7,11
7.77E+02,-4876,5532,-2200,-175,-236,-135,1,7,11
7.76E+02,-4886,5516,-2188,-362,-527,-315,1,7,11
7.79E+02,-4907,5508,-2415,-298,-543,-266,1,7,11
7.89E+02,-4887,5519,-2179,5,-530,1,1,7,11
8.04E+02,-4873,5508,-2426,22,-204,16,1,7,11
8.20E+02,-4597,5744,-2181,56,-368,35,1,7,11
8.32E+02,-4871,5504,-2189,101,3,72,1,7,11
8.37E+02,-4895,5506,-2430,-124,108,94,1,7,11
8.37E+02,-4910,5511,-2431,-108,-81,111,1,7,11
8.31E+02,-4902,5505,-2194,-82,-88,123,1,7,11
8.23E+02,-4893,5753,-2199,-43,-115,-124,1,7,11
8.12E+02,-4896,5518,-2211,265,91,-118,1,7,11
8.00E+02,-4892,5536,-2231,293,17,-102,1,7,11
7.91E+02,-4898,5530,-2208,306,-321,-93,1,7,11
7.88E+02,-4902,5540,-2214,348,-183,-106,1,7,11
7.94E+02,-4909,5541,-2218,383,-570,114,1,7,11
8.09E+02,-4879,5554,-2283,153,-437,74,1,7,11
8.27E+02,-4608,5523,-2279,374,-462,57,1,7,11
8.42E+02,-4870,5517,-2299,332,-436,36,1,7,11
8.50E+02,-4920,5748,-2247,278,-407,7,1,7,11
8.50E+02,-4925,5739,-2249,283,-444,-276,1,7,11
8.39E+02,-4962,5695,-2234,-30,-443,-328,1,7,11
8.17E+02,-4957,5708,-2247,-51,-453,-374,1,7,11
7.91E+02,-4755,5674,-2206,-101,-441,-155,1,7,11
7.71E+02,-4809,5650,-2412,-103,-490,-184,1,7,11
7.64E+02,-4749,5660,-2239,-21,-878,-167,1,7,11
7.66E+02,-4796,5358,-2178,-82,-861,-185,1,7,11
7.73E+02,-4785,5319,-2182,-48,-657,-189,1,7,11
7.78E+02,-4753,5345,-2422,257,-677,-202,1,7,11
7.84E+02,-4987,5687,-2179,300,-658,-176,1,7,11
7.92E+02,-4739,5717,-2392,281,-854,-354,1,7,11
8.06E+02,-4974,5752,-2356,266,-841,-316,1,7,11
8.23E+02,-4948,5538,-2343,257,-822,-316,1,7,11
8.36E+02,-4913,5549,-2308,-11,-778,-344,1,7,11
8.37E+02,-4906,5573,-2040,-1,-484,-141,1,7,11
8.25E+02,-4925,5533,-2009,-58,-445,-219,1,7,11
8.11E+02,-4991,5722,-1959,-108,-465,-596,1,7,11
8.04E+02,-4799,5650,-2158,-114,-846,-485,1,7,11
8.11E+02,-5123,5347,-2146,-83,-757,-675,1,7,11
8.27E+02,-5186,5290,-2135,-54,-930,-1136,1,7,11
8.45E+02,-5235,5499,-2149,257,-1336,-1341,1,7,11
8.57E+02,-5060,5448,-2160,315,-1178,-1266,1,7,11
8.62E+02,-5405,5400,-1925,380,-1248,-1640,1,7,11
8.63E+02,-5459,5091,-1926,209,-1556,-1425,1,7,11
8.62E+02,-5283,5035,-2171,554,-1561,-1416,1,7,11
8.62E+02,-5353,5010,-2167,404,-1542,-1627,1,7,11
8.59E+02,-5685,5238,-2156,463,-1263,-1547,1,7,11
8.50E+02,-5729,5203,-2154,495,-1273,-1183,1,7,11
8.33E+02,-5718,5199,-1960,801,-1276,-1299,1,7,11
8.13E+02,-5742,5156,-1984,776,-1206,-1140,1,7,11
7.98E+02,-5742,5139,-2022,496,-1354,-732,1,7,11
7.94E+02,-5735,5169,-2358,432,-917,-853,1,7,11
8.02E+02,-5693,5185,-2410,523,-647,-466,1,7,11
8.15E+02,-5686,5193,-2191,288,-514,-626,1,7,11
8.25E+02,-5697,5160,-2392,55,-89,-526,1,7,11
8.31E+02,-5722,5123,-2340,-294,231,-209,1,7,11
8.32E+02,-5525,5133,-2326,-321,461,-194,1,7,11
8.30E+02,-5606,5124,-1997,-374,836,-172,1,7,11
8.28E+02,-5901,4812,-1939,-344,486,-148,1,7,11
8.23E+02,-5903,4807,-1970,12,548,-162,1,7,11
8.17E+02,-5900,4785,-1988,78,378,-172,1,7,11
8.08E+02,-5906,4781,-1983,125,-8,-190,1,7,11
7.98E+02,-5931,4769,-1973,-117,-113,-212,1,7,11
7.90E+02,-5950,4749,-1966,124,44,-249,1,7,11
7.87E+02,-5958,4974,-1950,99,-301,-526,1,7,11
7.88E+02,-5955,4956,-1936,83,-158,-537,1,7,11
7.92E+02,-5944,4937,-1934,98,-200,-531,1,7,11
7.96E+02,-5909,4918,-1939,113,-205,-243,1,7,11
8.01E+02,-5612,4933,-1969,-92,-165,-192,1,7,11
8.07E+02,-5586,4956,-2004,-60,-327,-129,1,7,11
8.18E+02,-5578,4978,-2008,-65,54,-325,1,7,11
8.32E+02,-5585,4988,-1992,-78,-101,-280,1,7,11
8.48E+02,-5550,4958,-1970,-95,-43,36,1,7,11
8.61E+02,-5543,4942,-1961,-70,272,58,1,7,11
8.68E+02,-5536,4910,-1939,-69,308,51,1,7,11
8.69E+02,-5526,4915,-1935,-28,310,-260,1,7,11
8.68E+02,-5547,4943,-2174,-21,307,-353,1,7,11
8.65E+02,-5592,4949,-2125,-42,256,-195,1,7,11
8.62E+02,-5626,4955,-2096,-37,111,-554,1,7,11
8.57E+02,-5924,4952,-2071,-36,-334,-414,1,7,11
8.47E+02,-5982,4944,-1773,-12,-565,-502,1,7,11
8.31E+02,-5766,4902,-1778,311,-842,-822,1,7,11
8.15E+02,-5819,4599,-1777,141,-1065,-873,1,7,11
8.04E+02,-5877,4560,-1772,514,-1002,-641,1,7,11
8.07E+02,-6201,4530,-2064,591,-1379,-659,1,7,11
8.20E+02,-6245,4488,-2057,557,-1406,-686,1,7,11
8.35E+02,-6046,4715,-1774,222,-1377,-728,1,7,11
8.41E+02,-6113,4674,-1707,147,-1368,-754,1,7,11
8.37E+02,-6408,4654,-1691,349,-1400,-750,1,7,11
8.29E+02,-6414,4345,-1681,265,-1404,-711,1,7,11
8.26E+02,-6428,4293,-1915,-93,-1339,-672,1,7,11
8.33E+02,-6445,4255,-1898,65,-979,-870,1,7,11
8.46E+02,-6485,4474,-1870,-310,-1093,-804,1,7,11
8.56E+02,-6514,4461,-1854,-174,-683,-480,1,7,11
8.56E+02,-6283,4430,-1797,-547,-788,-389,1,7,11
8.46E+02,-6286,4433,-1512,-601,-412,-537,1,7,11
8.29E+02,-6526,4426,-1492,-636,-561,-149,1,7,11
8.10E+02,-6503,4426,-1495,-442,-159,-296,1,7,11
7.95E+02,-6514,4371,-1415,-794,17,16,1,7,11
7.87E+02,-6504,4065,-1593,-790,79,-259,1,7,11
7.91E+02,-6460,4386,-1617,-481,-107,-138,1,7,11
8.08E+02,-6436,4432,-1620,-776,-4,-224,1,7,11
8.32E+02,-6413,4469,-1610,-841,368,-547,1,7,11
8.53E+02,-6136,4472,-1579,-674,210,-591,1,7,11
8.65E+02,-6115,4445,-1543,-736,523,-616,1,7,11
8.69E+02,-6096,4404,-1246,-745,539,-622,1,7,11
8.68E+02,-6101,4406,-1227,-681,250,-613,1,7,11
8.69E+02,-6095,4392,-1215,-893,188,-587,1,7,11
8.72E+02,-6415,4409,-1164,-848,382,-586,1,7,11
8.73E+02,-6472,4417,-1374,-818,-22,-588,1,7,11
8.67E+02,-6456,4389,-1355,-502,34,-572,1,7,11
8.47E+02,-6415,4391,-1388,-411,-373,-544,1,7,11
8.21E+02,-6112,4387,-1163,-590,-187,-227,1,7,11
7.97E+02,-6055,4380,-1195,-251,-183,-145,1,7,11
7.85E+02,-6027,4361,-1205,-171,-380,-325,1,7,11
7.85E+02,-6028,4368,-1215,-327,-339,-286,1,7,11
7.91E+02,-6247,4388,-1250,6,-334,-258,1,7,11
7.94E+02,-6245,4418,-1277,58,-295,2,1,7,11
7.94E+02,-6046,4414,-1243,36,5,-287,1,7,11
7.95E+02,-6053,4447,-1275,11,-262,-354,1,7,11
8.01E+02,-6031,4457,-1555,-321,-257,-175,1,7,11
8.12E+02,-6260,4417,-1557,-383,34,-230,1,7,11
8.26E+02,-6066,4425,-1364,-138,72,-254,1,7,11
8.35E+02,-6239,4444,-1461,-271,-265,-162,1,7,11
8.37E+02,-6129,4073,-1584,-554,-19,-206,1,7,11
8.32E+02,-6492,4042,-1266,-606,261,-573,1,7,11
8.21E+02,-6332,4022,-1213,-440,-57,-469,1,7,11
8.08E+02,-6374,4064,-1222,-477,101,-825,1,7,11
7.94E+02,-6376,4073,-1233,-805,43,-846,1,7,11
7.81E+02,-6358,4026,-1226,-874,16,-787,1,7,11
7.71E+02,-6331,4006,-1218,-865,22,-415,1,7,11
7.66E+02,-6310,4008,-1196,-845,19,-528,1,7,11
7.70E+02,-6276,3998,-1170,-817,-279,-131,1,7,11
7.83E+02,-6516,4007,-1407,-777,-352,-294,1,7,11
8.01E+02,-6506,4044,-1389,-504,-214,-266,1,7,11
8.21E+02,-6493,4077,-1379,-775,-635,-280,1,7,11
8.40E+02,-6481,4381,-1373,-812,-809,-331,1,7,11
8.54E+02,-6498,4464,-1386,-856,-721,-144,1,7,11
8.60E+02,-6296,4297,-1383,-692,-1117,-212,1,7,11
8.54E+02,-6657,4734,-1393,-1074,-951,-592,1,7,11
8.37E+02,-6775,4589,-1325,-1308,-956,-622,1,7,11
8.16E+02,-6628,4926,-970,-1390,-939,-393,1,7,11
7.96E+02,-6979,4950,-1104,-1862,-1149,-411,1,7,11
7.81E+02,-6994,4582,-737,-1760,-1090,-395,1,7,11
7.74E+02,-6963,4719,-678,-1722,-664,-627,1,7,11
7.76E+02,-6964,4676,-686,-1515,-385,-576,1,7,11
7.87E+02,-7003,4511,-747,-1191,-294,-229,1,7,11
7.99E+02,-6817,4948,-1104,-1152,324,-346,1,7,11
8.08E+02,-6880,4856,-946,-694,630,106,1,7,11
8.10E+02,-7176,5008,-1285,-808,852,332,1,7,11
8.08E+02,-6897,5066,-1349,-492,719,581,1,7,11
8.10E+02,-6818,5038,-1373,-431,1040,823,1,7,11
8.18E+02,-6977,4994,-1397,-578,1063,1036,1,7,11
8.28E+02,-6595,5167,-1398,-218,1057,958,1,7,11
8.36E+02,-6716,4819,-1368,-339,1051,1341,1,7,11
8.34E+02,-6345,4983,-1335,77,1028,1161,1,7,11
8.23E+02,-6475,4892,-1318,268,713,1202,1,7,11
8.10E+02,-6106,4583,-1322,240,643,1204,1,7,11
8.02E+02,-6259,4572,-1355,474,813,1189,1,7,11
8.02E+02,-6171,4574,-1391,698,457,1167,1,7,11
8.08E+02,-5805,4560,-1176,1139,591,1390,1,7,11
8.17E+02,-5931,4504,-1210,1007,220,1311,1,7,11
8.26E+02,-5563,4709,-1213,1315,134,1146,1,7,11
8.35E+02,-5747,4646,-1197,1321,294,888,1,7,11
8.42E+02,-5689,4613,-1246,1304,-87,543,1,7,11
8.47E+02,-5658,4329,-1540,934,93,-118,1,7,11
8.50E+02,-5714,4333,-1539,757,91,-535,1,7,11
8.51E+02,-5600,4295,-1204,507,117,-667,1,7,11
8.49E+02,-5797,4253,-1364,613,53,-995,1,7,11
8.45E+02,-6271,4272,-1305,554,-344,-1242,1,7,11
8.37E+02,-6504,4293,-1013,235,-224,-1638,1,7,11
8.24E+02,-6703,4243,-1001,160,-588,-1410,1,7,11
8.05E+02,-6617,4439,-986,352,-387,-1608,1,7,11
7.84E+02,-6841,4427,-969,350,-387,-1231,1,7,11
7.65E+02,-7212,4237,-982,157,-633,-1226,1,7,11
7.53E+02,-7270,4304,-1018,191,-627,-766,1,7,11
7.49E+02,-7263,4350,-1023,144,-572,-814,1,7,11
7.51E+02,-7202,4625,-1298,272,-515,-608,1,7,11
7.59E+02,-6877,4329,-993,-103,-179,-177,1,7,11
7.71E+02,-7010,4300,-983,124,-152,-283,1,7,11
7.85E+02,-6616,4273,-1002,97,-377,87,1,7,11
7.96E+02,-6721,4458,-990,53,-306,-89,1,7,11
8.02E+02,-6346,4417,-979,64,26,-57,1,7,11
8.03E+02,-6479,4409,-1000,87,90,-49,1,7,11
7.97E+02,-6424,4363,-974,58,-78,-87,1,7,11
7.85E+02,-6136,4068,-977,52,-21,93,1,7,11
7.70E+02,-6408,4064,-1001,47,272,-269,1,7,11
7.56E+02,-6461,4052,-994,41,289,-367,1,7,11
7.47E+02,-6524,4053,-1004,62,268,-182,1,7,11
7.45E+02,-6375,4087,-1290,103,-40,-225,1,7,11
7.53E+02,-6727,4355,-1290,106,-89,-224,1,7,11
7.69E+02,-6543,4382,-1304,106,82,-211,1,7,11
7.87E+02,-6597,4403,-1320,100,-266,-181,1,7,11
8.02E+02,-6623,4449,-1372,96,-336,-133,1,7,11
8.09E+02,-6630,4264,-1162,49,-346,-312,1,7,11
8.12E+02,-6626,4319,-1186,-316,-312,36,1,7,11
8.14E+02,-6599,4345,-1186,-201,-261,126,1,7,11
8.15E+02,-6553,4348,-1164,-604,64,-62,1,7,11
8.14E+02,-6748,4349,-1372,-483,-113,-18,1,7,11
8.06E+02,-6677,4340,-1353,-860,-18,261,1,7,11
7.88E+02,-6356,4317,-1302,-703,339,266,1,7,11
7.67E+02,-6289,4272,-995,-766,178,-7,1,7,11
7.52E+02,-6494,4233,-936,-1029,513,-42,1,7,11
7.52E+02,-6466,4472,-1114,-729,570,-90,1,7,11
7.64E+02,-6445,4447,-1084,-654,585,115,1,7,11
7.79E+02,-6441,4452,-1087,-781,564,58,1,7,11
7.93E+02,-6466,4441,-1076,-395,516,3,1,7,11
8.03E+02,-6494,4421,-1082,-521,185,-307,1,7,11
8.07E+02,-6274,4435,-1121,-355,341,-147,1,7,11
8.06E+02,-6317,4432,-1137,30,-65,-206,1,7,11
8.00E+02,-6355,4415,-1151,-89,77,-516,1,7,11
7.86E+02,-6392,4399,-922,-8,-287,-563,1,7,11
7.66E+02,-6693,4367,-943,299,-357,-600,1,7,11
7.43E+02,-6750,4354,-980,359,-147,-622,1,7,11
7.26E+02,-6559,4376,-1018,140,-148,-620,1,7,11
7.25E+02,-6619,4384,-1301,135,-378,-580,1,7,11
7.39E+02,-6647,4384,-1334,360,-339,-253,1,7,11
7.55E+02,-6925,4374,-1343,306,-269,-156,1,7,11
7.60E+02,-6918,4352,-1334,270,44,-305,1,7,11
7.53E+02,-6641,4353,-1335,-11,87,56,1,7,11
7.47E+02,-6604,4367,-1339,-46,119,-97,1,7,11
7.54E+02,-6560,4360,-1336,-100,-101,-17,1,7,11
7.74E+02,-6771,4370,-1353,120,-76,290,1,7,11
7.99E+02,-6732,4394,-1356,64,-57,312,1,7,11
8.17E+02,-6693,4417,-1348,6,-46,310,1,7,11
8.24E+02,-6394,4430,-1350,-322,-36,295,1,7,11
8.19E+02,-6352,4427,-1338,-130,-26,269,1,7,11
8.05E+02,-6328,4418,-1321,-170,-26,-25,1,7,11
7.86E+02,-6308,4408,-1302,-199,-24,-70,1,7,11
7.66E+02,-6296,4394,-1024,-225,-10,124,1,7,11
7.53E+02,-6297,4378,-991,-232,259,67,1,7,11
7.52E+02,-6323,4390,-964,-215,265,14,1,7,11
7.58E+02,-6345,4374,-930,-199,-18,-287,1,7,11
7.67E+02,-6364,4352,-925,-172,-44,-334,1,7,11
7.73E+02,-6391,4042,-928,-382,-57,-382,1,7,11
7.77E+02,-6688,4025,-928,-311,-58,-170,1,7,11
7.82E+02,-6761,4026,-948,21,-62,-197,1,7,11
7.89E+02,-6553,4032,-959,90,-79,-209,1,7,11
7.95E+02,-6587,4046,-994,-106,-91,-205,1,7,11
7.96E+02,-6603,4058,-1018,-65,-113,-157,1,7,11
7.88E+02,-6629,4069,-1020,-37,-127,-352,1,7,11
7.73E+02,-6598,4087,-1348,257,67,4,1,7,11
7.57E+02,-6580,4095,-1364,267,97,83,1,7,11
7.48E+02,-6570,4087,-1366,-54,-127,-96,1,7,11
7.46E+02,-6538,4081,-1384,-91,-104,-51,1,7,11
7.46E+02,-6739,4357,-1153,-118,-68,-22,1,7,11
7.47E+02,-6711,4373,-1168,88,-17,-16,1,7,11
7.49E+02,-6697,4360,-1405,19,295,-12,1,7,11
7.58E+02,-6678,4375,-1406,-262,334,-13,1,7,11
7.76E+02,-6676,4368,-1387,-309,373,-18,1,7,11
8.01E+02,-6660,4362,-1370,-342,134,-36,1,7,11
8.21E+02,-6396,4366,-1353,-366,133,-70,1,7,11
8.26E+02,-6390,4358,-1329,-142,372,-103,1,7,11
8.12E+02,-6388,4091,-1302,-162,344,116,1,7,11
7.89E+02,-6385,4095,-1289,-158,308,77,1,7,11
7.69E+02,-6389,4367,-1290,-149,281,41,1,7,11
7.60E+02,-6659,4382,-1286,-137,259,9,1,7,11
7.58E+02,-6671,4374,-1019,-130,-19,-269,1,7,11
7.60E+02,-6689,4366,-1283,-362,-32,-287,1,7,11
7.63E+02,-6705,4353,-1024,-325,-46,-291,1,7,11
7.67E+02,-6717,4092,-1286,-267,-65,-277,1,7,11
7.69E+02,-6734,4358,-1306,43,-83,12,1,7,11
7.70E+02,-6734,4354,-1310,82,-80,40,1,7,11
7.71E+02,-6742,4361,-1326,-99,-68,59,1,7,11
7.75E+02,-6741,4376,-1348,-85,-54,77,1,7,11
7.84E+02,-6739,4385,-1358,-88,-43,86,1,7,11
7.95E+02,-6732,4395,-1379,-111,-34,100,1,7,11
8.09E+02,-6710,4394,-1385,108,-10,117,1,7,11
8.24E+02,-6684,4385,-1394,80,293,125,1,7,11
8.38E+02,-6683,4386,-1400,61,337,-126,1,7,11
8.51E+02,-6677,4383,-1391,33,363,-117,1,7,11
8.63E+02,-6666,4379,-1387,14,367,-105,1,7,11
8.71E+02,-6658,4378,-1382,-258,355,-102,1,7,11
8.74E+02,-6389,4371,-1385,-272,329,-101,1,7,11
8.68E+02,-6395,4363,-1375,-288,305,-108,1,7,11
8.51E+02,-6392,4354,-1355,-280,265,-116,1,7,11
8.26E+02,-6380,4362,-1365,10,-37,112,1,7,11
8.00E+02,-6375,4386,-1385,39,-73,87,1,7,11
7.78E+02,-6384,4395,-1401,52,-92,78,1,7,11
7.59E+02,-6399,4392,-1408,47,-118,74,1,7,11
7.41E+02,-6390,4380,-1160,38,104,62,1,7,11
7.20E+02,-6364,4380,-1175,37,81,35,1,7,11
7.02E+02,-6353,4391,-1187,37,93,13,1,7,11
6.94E+02,-6362,4388,-1192,26,-103,-262,1,7,11
7.02E+02,-6659,4391,-1176,23,-66,-302,1,7,11
7.20E+02,-6684,4422,-1198,27,-59,-327,1,7,11
7.38E+02,-6692,4433,-1197,-271,-42,-329,1,7,11
7.50E+02,-6693,4418,-1181,-320,-25,-339,1,7,11
7.58E+02,-6700,4407,-1163,-363,-15,-351,1,7,11
7.67E+02,-6695,4389,-1408,-143,-7,-359,1,7,11
7.82E+02,-6683,4371,-1396,-166,261,-361,1,7,11
8.00E+02,-6676,4095,-1388,-200,307,-371,1,7,11
8.19E+02,-6672,4055,-1369,-229,359,-365,1,7,11
8.33E+02,-6673,4038,-1378,-246,155,-358,1,7,11
8.43E+02,-6677,4032,-1383,-539,219,-345,1,7,11
8.47E+02,-6681,4049,-1379,-590,554,-323,1,7,11
8.46E+02,-6683,4047,-1383,-633,633,-294,1,7,11
8.41E+02,-6386,4042,-1402,-458,702,-303,1,7,11
8.30E+02,-6688,3998,-1334,-422,1082,-269,1,7,11
8.15E+02,-6730,4038,-1372,-220,721,16,1,7,11
7.95E+02,-6720,4364,-1201,-261,506,39,1,7,11
7.76E+02,-6695,4370,-1249,77,490,39,1,7,11
7.65E+02,-6668,4360,-1544,84,364,19,1,7,11
7.67E+02,-6384,4361,-1593,74,283,-263,1,7,11
7.78E+02,-6376,4365,-1613,59,-21,-281,1,7,11
7.93E+02,-6381,4368,-1628,34,-43,-300,1,7,11
8.04E+02,-6394,4370,-1629,0,-53,-316,1,7,11
8.11E+02,-6663,4379,-1629,-301,-58,-326,1,7,11
8.16E+02,-6672,4362,-1619,-345,-60,-330,1,7,11
8.23E+02,-6681,4090,-1598,-380,-69,-330,1,7,11
8.30E+02,-6686,4083,-1576,-135,-89,-324,1,7,11
8.35E+02,-6694,4073,-1557,-138,-113,-315,1,7,11
8.35E+02,-6692,4055,-1280,-135,115,-304,1,7,11
8.26E+02,-6688,4038,-1276,-379,98,-291,1,7,11
8.12E+02,-6683,4032,-1267,-353,85,-275,1,7,11
7.95E+02,-6677,4032,-1246,43,-121,40,1,7,11
7.80E+02,-6680,4027,-1242,35,-102,41,1,7,11
7.66E+02,-6676,4019,-1251,37,-85,43,1,7,11
7.54E+02,-6673,4020,-1249,36,-76,39,1,7,11
7.45E+02,-6667,4026,-1249,41,-69,40,1,7,11
7.36E+02,-6670,4036,-1262,36,-62,41,1,7,11
7.26E+02,-6676,4034,-1271,27,-48,40,1,7,11
7.13E+02,-6676,4039,-1275,27,-30,33,1,7,11
7.06E+02,-6687,4058,-1280,29,-10,27,1,7,11
7.13E+02,-6693,4061,-1538,20,260,27,1,7,11
7.35E+02,-6693,4044,-1273,14,264,32,1,7,11
7.60E+02,-6689,4034,-1267,24,270,39,1,7,11
7.70E+02,-6692,4031,-1266,42,282,47,1,7,11
7.58E+02,-6689,4032,-1537,62,293,56,1,7,11
7.34E+02,-6684,4039,-1278,84,300,68,1,7,11
7.13E+02,-6683,4040,-1278,105,302,83,1,7,11
7.06E+02,-6684,4034,-1280,-126,300,97,1,7,11
7.08E+02,-6683,4020,-1276,-100,292,105,1,7,11
7.14E+02,-6681,3993,-1270,-58,282,108,1,7,11
7.20E+02,-6688,3978,-1269,-10,266,107,1,7,11
7.29E+02,-6687,3990,-1543,338,-41,111,1,7,11
7.42E+02,-6673,3999,-1566,130,-80,122,1,7,11
7.60E+02,-6389,3986,-1587,161,-101,-119,1,7,11
7.79E+02,-6367,3978,-1618,201,-100,-104,1,7,11
7.96E+02,-6364,3977,-1649,240,-80,-92,1,7,11
8.10E+02,-6368,3980,-1412,530,-60,-84,1,7,11
8.20E+02,-6374,3976,-1430,553,-46,-79,1,7,11
8.29E+02,-6372,3984,-1449,577,-42,-76,1,7,11
8.36E+02,-6368,3997,-1474,586,-29,-79,1,7,11
8.40E+02,-6372,4013,-1499,579,-3,-84,1,7,11
8.40E+02,-6377,4022,-1511,554,282,-90,1,7,11
8.32E+02,-6392,4033,-1793,525,303,-92,1,7,11
8.19E+02,-6397,4034,-1800,233,318,-82,1,7,11
8.09E+02,-6394,4019,-1820,193,331,-62,1,7,11
8.06E+02,-6387,3990,-1822,162,340,-41,1,7,11
8.13E+02,-6389,4221,-1819,145,339,-28,1,7,11
8.20E+02,-6661,4215,-1815,143,322,-22,1,7,11
8.19E+02,-6672,4215,-1822,143,286,-15,1,7,11
8.04E+02,-6669,4211,-1833,138,-17,-4,1,7,11
7.79E+02,-6668,4204,-1838,134,-57,266,1,7,11
7.51E+02,-6659,4190,-1846,129,-90,280,1,7,11
7.24E+02,-6399,4182,-1856,139,-116,292,1,7,11
7.04E+02,-6393,4179,-1866,140,124,304,1,7,11
6.94E+02,-6381,4190,-1884,146,114,321,1,7,11
6.94E+02,-6386,4219,-1896,141,121,331,1,7,11
6.98E+02,-6386,3986,-1911,367,-128,352,1,7,11
6.99E+02,-6370,3996,-1915,324,-122,131,1,7,11
6.97E+02,-6344,3997,-1669,289,-103,182,1,7,11
6.97E+02,-6310,3983,-1678,274,-70,252,1,7,11
7.03E+02,-6273,3976,-1688,290,-19,586,1,7,11
7.17E+02,-6500,3978,-1709,326,315,389,1,7,11
7.36E+02,-6493,4017,-1723,368,146,420,1,7,11
7.57E+02,-6505,4088,-1725,130,209,421,1,7,11
7.75E+02,-6508,4373,-1712,344,235,410,1,7,11
7.79E+02,-6495,4377,-1711,283,512,637,1,7,11
7.64E+02,-6499,4386,-1711,-31,536,593,1,7,11
7.34E+02,-6509,4413,-1717,-87,553,547,1,7,11
7.06E+02,-6499,4425,-1715,103,561,519,1,7,11
6.92E+02,-6457,4399,-1733,47,569,521,1,7,11
6.93E+02,-6407,4393,-1768,53,612,546,1,7,11
7.02E+02,-6134,4443,-2067,93,439,583,1,7,11
7.15E+02,-6114,4246,-2091,106,770,632,1,7,11
7.29E+02,-6089,4286,-2105,97,819,440,1,7,11
7.44E+02,-6074,4332,-2113,68,854,497,1,7,11
7.59E+02,-6062,4623,-2117,7,855,799,1,7,11
7.74E+02,-6047,4640,-2117,-324,823,825,1,7,11
7.86E+02,-6262,4646,-2115,-143,769,842,1,7,11
7.97E+02,-6200,4652,-2133,-202,467,855,1,7,11
8.05E+02,-5885,4658,-2155,-243,456,864,1,7,11
8.13E+02,-5825,4648,-2168,-531,476,875,1,7,11
8.20E+02,-5800,4651,-1934,-523,785,879,1,7,11
8.25E+02,-5799,4688,-1955,-238,850,875,1,7,11
8.20E+02,-5795,4485,-1970,-208,643,880,1,7,11
8.02E+02,-5772,4531,-1992,-207,683,893,1,7,11
7.72E+02,-6002,4556,-2012,-226,726,653,1,7,11
7.45E+02,-5980,4586,-2031,-250,1025,665,1,7,11
7.36E+02,-5961,4876,-2045,-545,1044,681,1,7,11
7.47E+02,-5927,4884,-2313,-591,1040,684,1,7,11
7.63E+02,-5892,4889,-2327,-388,758,672,1,7,11
7.70E+02,-5606,4918,-2342,-443,705,659,1,7,11
7.64E+02,-5573,4940,-2341,-498,665,648,1,7,11
7.56E+02,-5537,4933,-2337,-813,869,895,1,7,11
7.58E+02,-5752,4926,-2341,-847,816,876,1,7,11
7.73E+02,-5720,4936,-2351,-855,775,844,1,7,11
7.88E+02,-5713,4954,-2357,-846,498,796,1,7,11
7.92E+02,-5706,4986,-2373,-826,475,484,1,7,11
7.80E+02,-5701,4763,-2391,-799,448,431,1,7,11
7.60E+02,-5700,4795,-2421,-770,434,388,1,7,11
7.45E+02,-5716,4818,-2181,-496,435,609,1,7,11
7.42E+02,-5714,4813,-2426,-490,429,576,1,7,11
7.45E+02,-5717,4817,-2406,-477,419,530,1,7,11
7.44E+02,-5723,4829,-2385,-465,387,226,1,7,11
7.34E+02,-5720,4812,-2352,-479,600,183,1,7,11
7.21E+02,-5714,4801,-2333,-479,546,141,1,7,11
7.13E+02,-5692,4769,-2043,-488,232,355,1,7,11
7.12E+02,-5681,4988,-2030,-478,182,301,1,7,11
7.18E+02,-5675,4977,-2009,-439,145,-11,1,7,11
7.30E+02,-5679,4980,-1995,-394,368,-61,1,7,11
7.47E+02,-5678,4737,-1987,-597,331,-101,1,7,11
7.67E+02,-5687,4761,-1999,-536,305,-127,1,7,11
7.90E+02,-5704,4779,-2012,-229,287,120,1,7,11
8.11E+02,-5709,4781,-2007,-187,263,118,1,7,11
8.29E+02,-5725,4784,-2004,-384,-24,116,1,7,11
8.41E+02,-5734,4799,-2006,-313,-65,115,1,7,11
8.43E+02,-5748,4826,-2013,25,-119,118,1,7,11
8.33E+02,-5758,5138,-2037,101,70,-128,1,7,11
8.09E+02,-5505,5204,-2320,-120,12,-102,1,7,11
7.77E+02,-5512,4997,-2328,111,-283,-72,1,7,11
7.49E+02,-5505,5013,-2336,41,-320,-40,1,7,11
7.32E+02,-5733,5019,-2353,-277,-360,258,1,7,11
7.25E+02,-5684,5017,-2375,-319,-375,311,1,7,11
7.28E+02,-5637,5028,-2404,-348,-345,374,1,7,11
7.39E+02,-5351,5047,-2411,-133,-278,183,1,7,11
7.55E+02,-5322,5049,-2403,-197,55,246,1,7,11
7.73E+02,-5306,5054,-2368,-516,119,549,1,7,11
7.91E+02,-5286,5066,-2330,-569,-107,581,1,7,11
8.03E+02,-5269,5068,-2029,-629,-87,601,1,7,11
8.08E+02,-5487,5069,-1972,-414,-98,621,1,7,11
8.04E+02,-5454,5071,-1945,-422,126,393,1,7,11
7.93E+02,-5428,5084,-2168,-640,68,411,1,7,11
7.78E+02,-5405,5101,-2132,-558,4,428,1,7,11
7.60E+02,-5114,5392,-2138,-197,-337,438,1,7,11
7.38E+02,-5079,5423,-2155,-362,-150,443,1,7,11
7.12E+02,-5062,5448,-1922,-291,-184,428,1,7,11
6.83E+02,-5049,5479,-1961,23,-192,393,1,7,11
6.58E+02,-5031,5480,-1979,64,-171,598,1,7,11
6.43E+02,-5027,5502,-1985,117,-145,521,1,7,11
6.37E+02,-5015,5289,-1991,-95,-131,189,1,7,11
6.35E+02,-4994,5324,-1998,-101,-361,377,1,7,11
6.36E+02,-5241,5347,-1997,119,-312,319,1,7,11
6.39E+02,-5240,5368,-1996,61,-258,270,1,7,11
6.46E+02,-5244,5366,-1983,-269,56,-27,1,7,11
6.59E+02,-5001,5327,-1958,-341,114,-65,1,7,11
6.78E+02,-5024,5254,-1924,-369,-100,-110,1,7,11
7.03E+02,-5030,5492,-1925,-343,-67,94,1,7,11
7.33E+02,-5055,5443,-1933,-278,-23,21,1,7,11
7.69E+02,-5066,5436,-1953,43,263,-273,1,7,11
8.08E+02,-5078,5435,-1979,103,307,-286,1,7,11
8.43E+02,-5092,5439,-2008,-105,345,-274,1,7,11
8.66E+02,-5096,5425,-2027,-68,376,16,1,7,11
8.67E+02,-5105,5413,-2306,-22,140,60,1,7,11
8.48E+02,-5093,5411,-2339,265,148,95,1,7,11
8.22E+02,-5094,5418,-2354,276,161,111,1,7,11
8.02E+02,-5092,5445,-2376,270,161,124,1,7,11
7.95E+02,-5099,5468,-2383,-32,159,-123,1,7,11
7.99E+02,-5087,5480,-2404,-87,145,-109,1,7,11
8.11E+02,-5086,5470,-2405,88,156,-101,1,7,11
8.28E+02,-5095,5453,-2405,14,174,-102,1,7,11
8.45E+02,-5106,5440,-2381,-310,194,-114,1,7,11
8.60E+02,-5388,5443,-2370,-361,214,120,1,7,11
8.68E+02,-5411,5448,-2355,-162,226,99,1,7,11
8.69E+02,-5420,5466,-2352,-216,241,82,1,7,11
8.65E+02,-5431,5483,-2343,-526,532,78,1,7,11
8.57E+02,-5421,5489,-2355,-585,580,88,1,7,11
8.48E+02,-5408,5491,-2355,-386,404,115,1,7,11
8.36E+02,-5383,5489,-2034,-449,511,-98,1,7,11
8.21E+02,-5414,5482,-1993,-456,844,-41,1,7,11
8.03E+02,-5120,5264,-2030,-622,810,288,1,7,11
7.84E+02,-5070,5277,-2033,-600,819,354,1,7,11
7.69E+02,-5019,5268,-2044,-589,862,157,1,7,11
7.59E+02,-5194,5248,-2306,-544,683,219,1,7,11
7.55E+02,-5154,5250,-2314,-244,732,236,1,7,11
7.55E+02,-5127,5249,-2318,-181,743,227,1,7,11
7.57E+02,-4851,5267,-2339,-346,708,194,1,7,11
7.61E+02,-4820,5308,-2387,-264,653,149,1,7,11
7.65E+02,-4799,5327,-2425,31,864,361,1,7,11
7.70E+02,-4786,5341,-2214,44,848,314,1,7,11
7.77E+02,-4788,5346,-2251,31,850,266,1,7,11
7.87E+02,-4809,5353,-2277,3,873,-30,1,7,11
8.03E+02,-4853,5354,-2280,-280,889,-54,1,7,11
8.23E+02,-5148,5632,-2282,-305,889,-66,1,7,11
8.41E+02,-5180,5649,-2286,-348,882,-69,1,7,11
8.50E+02,-5195,5658,-2277,-132,852,-58,1,7,11
8.46E+02,-5173,5657,-2290,-158,804,-35,1,7,11
8.35E+02,-5143,5644,-2296,-181,776,256,1,7,11
8.21E+02,-4836,5656,-2304,-164,497,303,1,7,11
8.11E+02,-4786,5659,-2566,-151,491,368,1,7,11
8.04E+02,-4750,5661,-2567,-382,499,179,1,7,11
8.00E+02,-4972,5662,-2570,-353,508,228,1,7,11
7.98E+02,-4939,5684,-2577,-316,500,518,1,7,11
7.99E+02,-4896,5696,-2594,-296,482,538,1,7,11
8.03E+02,-4593,5694,-2600,-297,479,549,1,7,11
8.12E+02,-4552,5690,-2619,-282,480,549,1,7,11
8.24E+02,-4518,5696,-2653,-258,486,538,1,7,11
8.36E+02,-4490,5717,-2658,18,485,529,1,7,11
8.44E+02,-4715,5738,-2676,27,486,519,1,7,11
8.44E+02,-4702,5748,-2684,14,505,248,1,7,11
8.38E+02,-4711,5509,-2444,5,768,205,1,7,11
8.27E+02,-4723,5518,-2445,-266,502,158,1,7,11
8.11E+02,-4712,5517,-2436,-292,431,370,1,7,11
7.96E+02,-4683,5533,-2458,-297,619,334,1,7,11
7.85E+02,-4657,5559,-2481,-300,575,303,1,7,11
7.82E+02,-4626,5575,-2496,-317,548,285,1,7,11
7.88E+02,-4611,5578,-2510,-336,538,276,1,7,11
7.97E+02,-4337,5578,-2519,-348,536,265,1,7,11
8.05E+02,-4326,5579,-2514,-351,540,-18,1,7,11
8.12E+02,-4314,5583,-2529,-344,543,-60,1,7,11
8.20E+02,-4312,5599,-2533,-339,551,-109,1,7,11
8.32E+02,-4306,5613,-2536,-335,544,99,1,7,11
8.50E+02,-4298,5610,-2534,-341,543,65,1,7,11
8.67E+02,-4297,5601,-2543,-345,541,40,1,7,11
8.76E+02,-4297,5594,-2546,-352,536,27,1,7,11
8.72E+02,-4303,5601,-2544,-350,531,19,1,7,11
8.55E+02,-4308,5604,-2552,-348,516,15,1,7,11
8.37E+02,-4311,5587,-2549,-353,243,10,1,7,11
8.25E+02,-4312,5592,-2543,-346,220,-257,1,7,11
8.26E+02,-4301,5587,-2545,-357,193,-263,1,7,11
8.34E+02,-4276,5577,-2550,-360,167,-265,1,7,11
8.43E+02,-4258,5573,-2824,-355,159,-266,1,7,11
8.49E+02,-4256,5561,-2823,-352,164,-261,1,7,11
8.52E+02,-4258,5570,-2833,-330,164,3,1,7,11
8.54E+02,-4259,5579,-2836,-314,163,16,1,7,11
8.55E+02,-4271,5579,-2835,-307,159,27,1,7,11
8.57E+02,-4279,5576,-2839,-302,141,32,1,7,11
8.57E+02,-4274,5567,-2842,-291,377,36,1,7,11
8.53E+02,-4270,5569,-2861,-278,362,42,1,7,11
8.45E+02,-4273,5570,-2874,-276,357,47,1,7,11
8.33E+02,-4269,5577,-2876,-273,341,58,1,7,11
8.18E+02,-4259,5583,-2898,-271,327,77,1,7,11
8.02E+02,-4264,5580,-2897,-281,336,92,1,7,11
7.86E+02,-4279,5589,-2894,-280,339,99,1,7,11
7.76E+02,-4285,5595,-2886,-290,331,108,1,7,11
7.74E+02,-4283,5597,-2895,-298,312,112,1,7,11
7.80E+02,-4271,5598,-2901,-304,291,106,1,7,11
7.90E+02,-4245,5607,-2910,-322,272,86,1,7,11
8.01E+02,-4227,5592,-2909,-345,272,69,1,7,11
8.09E+02,-4469,5593,-2908,-353,282,53,1,7,11
8.16E+02,-4466,5591,-2910,-367,303,44,1,7,11
8.20E+02,-4474,5587,-2909,-376,320,40,1,7,11
8.22E+02,-4226,5579,-2903,-380,331,36,1,7,11
8.23E+02,-4241,5580,-2884,-377,328,31,1,7,11
8.26E+02,-4242,5574,-2886,-380,308,30,1,7,11
8.32E+02,-4239,5566,-2878,-378,283,26,1,7,11
8.37E+02,-4239,5561,-2891,-367,261,22,1,7,11
8.35E+02,-4227,5556,-2894,-360,-31,14,1,7,11
8.23E+02,-4477,5556,-2903,-350,-48,2,1,7,11
8.03E+02,-4476,5555,-2908,-335,-65,-266,1,7,11
7.85E+02,-4478,5560,-2906,-333,-81,-278,1,7,11
7.76E+02,-4236,5560,-2899,-334,-94,-291,1,7,11
7.80E+02,-4244,5557,-2887,-332,-125,-307,1,7,11
7.88E+02,-4252,5550,-2880,-321,96,-320,1,7,11
7.96E+02,-4250,5555,-2890,-311,75,-334,1,7,11
8.00E+02,-4257,5565,-2903,-307,65,-355,1,7,11
8.04E+02,-4261,5568,-2904,-316,60,-376,1,7,11
8.09E+02,-4266,5570,-2901,-333,65,-135,1,7,11
8.18E+02,-4279,5570,-2887,-352,71,-147,1,7,11
8.27E+02,-4286,5567,-2885,-373,75,-154,1,7,11
8.32E+02,-4290,5551,-2873,-134,90,-154,1,7,11
8.30E+02,-4314,5543,-2852,-139,107,-153,1,7,11
8.21E+02,-4322,5540,-2845,-383,105,-143,1,7,11
8.07E+02,-4335,5558,-2843,-369,104,-134,1,7,11
7.92E+02,-4347,5562,-2838,-355,102,-365,1,7,11
7.78E+02,-4611,5561,-2838,-349,98,-348,1,7,11
7.72E+02,-4617,5544,-2825,-353,102,-335,1,7,11
7.78E+02,-4627,5539,-2824,-339,113,-332,1,7,11
7.96E+02,-4640,5537,-2544,-328,109,-326,1,7,11
8.16E+02,-4646,5547,-2522,-305,73,-318,1,7,11
8.30E+02,-4633,5552,-2551,-286,17,-307,1,7,11
8.34E+02,-4616,5533,-2818,-297,3,-294,1,7,11
8.33E+02,-4615,5537,-2826,-302,24,-289,1,7,11
8.32E+02,-4637,5531,-2528,-315,44,-288,1,7,11
8.38E+02,-4645,5528,-2530,-293,23,-282,1,7,11
8.45E+02,-4659,5527,-2519,-283,7,-277,1,7,11
8.47E+02,-4653,5537,-2516,-262,-269,-268,1,7,11
8.35E+02,-4639,5537,-2533,-271,-263,-260,1,7,11
8.12E+02,-4627,5519,-2533,-288,21,2,1,7,11
7.87E+02,-4622,5517,-2545,-289,63,-262,1,7,11
7.75E+02,-4620,5527,-2559,-300,112,-269,1,7,11
7.78E+02,-4642,5522,-2551,-322,-83,-276,1,7,11
7.89E+02,-4666,5519,-2522,-328,-49,-274,1,7,11
7.99E+02,-4666,5519,-2522,-319,-54,-262,1,7,11
8.01E+02,-4666,5514,-2519,-316,-55,0,1,7,11
7.99E+02,-4658,5517,-2526,-306,-46,2,1,7,11
7.96E+02,-4665,5523,-2528,-299,-44,5,1,7,11
7.96E+02,-4673,5536,-2538,-307,-49,4,1,7,11
8.00E+02,-4683,5537,-2527,-329,-58,-259,1,7,11
8.07E+02,-4666,5532,-2538,-343,-79,-262,1,7,11
8.19E+02,-4658,5525,-2535,-362,-81,-268,1,7,11
8.30E+02,-4658,5529,-2536,-363,-71,-272,1,7,11
8.34E+02,-4662,5525,-2524,-367,-58,-270,1,7,11
8.26E+02,-4658,5524,-2519,-355,-49,-261,1,7,11
8.05E+02,-4662,5518,-2519,-349,-29,10,1,7,11
7.82E+02,-4661,5516,-2530,-336,-12,24,1,7,11
7.65E+02,-4658,5531,-2544,-342,280,35,1,7,11
7.59E+02,-4651,5524,-2820,-375,345,37,1,7,11
7.60E+02,-4634,5509,-2854,-177,193,22,1,7,11
7.62E+02,-4640,5758,-2828,-517,606,-264,1,7,11
7.63E+02,-4666,5505,-2526,-535,440,-281,1,7,11
7.62E+02,-4682,5514,-2511,-529,445,-276,1,7,11
7.60E+02,-4655,5514,-2550,-517,428,-259,1,7,11
7.59E+02,-4638,5757,-2557,-563,477,-259,1,7,11
7.62E+02,-4635,5511,-2555,-590,804,10,1,7,11
7.71E+02,-4644,5759,-2521,-609,841,36,1,7,11
7.89E+02,-4625,5505,-2523,-563,797,60,1,7,11
8.09E+02,-4348,5520,-2555,-239,487,68,1,7,11
8.27E+02,-4337,5542,-2553,-193,419,75,1,7,11
8.37E+02,-4340,5565,-2830,-159,603,93,1,7,11
8.37E+02,-4325,5562,-2837,-137,517,112,1,7,11
8.26E+02,-4313,5568,-2832,-357,175,-125,1,7,11
8.03E+02,-4295,5572,-2824,-309,333,-97,1,7,11
7.74E+02,-4276,5557,-2819,0,-17,-81,1,7,11
7.49E+02,-4272,5568,-2826,75,-99,-80,1,7,11
7.39E+02,-4270,5581,-2825,-109,68,-86,1,7,11
7.44E+02,-4268,5574,-2827,-38,-290,-94,1,7,11
7.56E+02,-4290,5572,-2823,304,-140,-120,1,7,11
7.71E+02,-4317,5557,-2818,381,-235,111,1,7,11
7.85E+02,-4325,5531,-2826,174,-577,93,1,7,11
7.95E+02,-4335,5530,-2848,238,-397,89,1,7,11
8.00E+02,-4333,5529,-2892,534,-448,85,1,7,11
8.06E+02,-4337,5758,-2901,212,-418,72,1,7,11
8.17E+02,-4302,5754,-2921,175,-398,46,1,7,11
8.33E+02,-4288,5505,-2943,358,-568,-325,1,7,11
8.47E+02,-4295,5518,-2715,296,-517,-377,1,7,11
8.49E+02,-4342,5508,-2692,-65,-189,-166,1,7,11
8.32E+02,-4668,5742,-2912,111,-145,-174,1,7,11
8.02E+02,-4697,5715,-2889,67,-153,-144,1,7,11
7.77E+02,-4731,5714,-2879,75,-221,-373,1,7,11
7.68E+02,-4506,5711,-2853,68,-526,-346,1,7,11
7.76E+02,-4517,5702,-2826,66,-584,-322,1,7,11
7.90E+02,-4511,5690,-2553,61,-629,-306,1,7,11
8.01E+02,-4513,5671,-2537,51,-390,-306,1,7,11
8.06E+02,-4519,5668,-2501,66,-411,-315,1,7,11
8.06E+02,-4528,5665,-2460,97,-443,-322,1,7,11
8.03E+02,-4521,5685,-2471,-96,-492,-316,1,7,11
7.99E+02,-4526,5679,-2463,-81,-500,-324,1,7,11
7.96E+02,-4544,5659,-2443,-63,-495,-343,1,7,11
7.94E+02,-4553,5652,-2687,-12,-511,-372,1,7,11
7.94E+02,-4558,5648,-2443,295,-785,-136,1,7,11
7.93E+02,-4556,5368,-2459,330,-785,-140,1,7,11
7.85E+02,-4561,5340,-2463,371,-508,-144,1,7,11
7.69E+02,-4579,5341,-2472,150,-482,-168,1,7,11
7.49E+02,-4878,5355,-2467,152,-468,-205,1,7,11
7.34E+02,-4901,5351,-2465,155,-508,-242,1,7,11
7.29E+02,-4911,5356,-2485,163,-824,-540,1,7,11
7.31E+02,-4914,5356,-2503,157,-877,-567,1,7,11
7.34E+02,-4932,5349,-2515,140,-656,-593,1,7,11
7.36E+02,-4949,5334,-2508,374,-694,-618,1,7,11
7.37E+02,-4987,5315,-2486,366,-744,-390,1,7,11
7.39E+02,-4772,5310,-2462,129,-1089,-398,1,7,11
7.41E+02,-4789,5298,-2458,158,-956,-637,1,7,11
7.46E+02,-4803,5262,-2466,174,-1321,-614,1,7,11
7.52E+02,-4808,5493,-2472,189,-1396,-592,1,7,11
7.59E+02,-4832,5481,-2456,201,-1171,-570,1,7,11
7.69E+02,-4852,5459,-2433,203,-1155,-556,1,7,11
7.80E+02,-5136,5452,-2665,218,-1387,-553,1,7,11
7.91E+02,-5169,5451,-2642,214,-1354,-551,1,7,11
8.00E+02,-5186,5413,-2619,201,-1324,-537,1,7,11
8.05E+02,-5210,5386,-2601,210,-1281,-543,1,7,11
8.05E+02,-5246,5118,-2571,214,-964,-559,1,7,11
8.05E+02,-5016,5382,-2565,223,-916,-565,1,7,11
8.07E+02,-5041,5376,-2295,225,-1129,-559,1,7,11
8.13E+02,-5068,5094,-2285,214,-1069,-538,1,7,11
8.19E+02,-5097,5062,-2259,205,-740,-517,1,7,11
8.23E+02,-5391,5037,-2226,205,-691,-514,1,7,11
8.24E+02,-5438,5028,-2208,214,-671,-539,1,7,11
8.22E+02,-5462,5025,-2207,207,-668,-567,1,7,11
8.20E+02,-5469,5004,-2218,152,-876,-591,1,7,11
8.20E+02,-5465,5235,-2235,338,-775,-614,1,7,11
8.19E+02,-5484,5204,-2202,275,-637,-635,1,7,11
8.11E+02,-5278,5209,-2429,-5,-532,-405,1,7,11
7.92E+02,-5310,5208,-2393,-22,-217,-410,1,7,11
7.66E+02,-5340,5186,-2356,-27,-202,-638,1,7,11
7.39E+02,-5655,5171,-2353,293,-513,-612,1,7,11
7.20E+02,-5670,5149,-2368,346,-595,-574,1,7,11
7.12E+02,-5659,5141,-2395,367,-397,-524,1,7,11
7.12E+02,-5658,4861,-2405,373,-406,-229,1,7,11
7.18E+02,-5649,4834,-2410,381,-625,-191,1,7,11
7.29E+02,-5665,4813,-2411,129,-568,-160,1,7,11
7.42E+02,-5681,4794,-2415,378,-516,-131,1,7,11
7.55E+02,-5684,4787,-2178,370,-201,-361,1,7,11
7.65E+02,-5716,4766,-2430,347,-134,-339,1,7,11
7.69E+02,-5740,4760,-2432,335,-351,-338,1,7,11
7.67E+02,-5506,4762,-2418,322,-343,-341,1,7,11
7.60E+02,-5531,4776,-2402,333,-384,-329,1,7,11
7.47E+02,-5538,4793,-2407,334,-200,-298,1,7,11
7.32E+02,-5561,4759,-2339,290,-537,-259,1,7,11
7.15E+02,-5523,4758,-2391,331,-441,-261,1,7,11
7.00E+02,-5711,4750,-2193,270,-475,-308,1,7,11
6.88E+02,-5694,4988,-2194,-40,-389,-331,1,7,11
6.78E+02,-5675,4752,-2215,-59,-524,-330,1,7,11
6.71E+02,-5678,4758,-2193,-105,-369,-306,1,7,11
6.66E+02,-5693,4756,-2426,125,10,-281,1,7,11
6.64E+02,-5715,4749,-2396,-126,76,-265,1,7,11
6.65E+02,-5717,4739,-2392,-102,99,-259,1,7,11
6.68E+02,-5730,4984,-2398,-71,113,-266,1,7,11
6.73E+02,-5746,4982,-2403,-30,115,-275,1,7,11
6.80E+02,-5740,4980,-2422,266,94,-278,1,7,11
6.88E+02,-5733,4966,-2181,310,55,-274,1,7,11
6.96E+02,-5743,4969,-2427,364,7,-268,1,7,11
7.03E+02,-5524,4958,-2199,145,-323,-262,1,7,11
7.10E+02,-5536,4954,-2205,186,-163,-252,1,7,11
7.17E+02,-5562,4918,-2212,193,-229,20,1,7,11
7.25E+02,-5586,4898,-2196,202,-559,27,1,7,11
7.34E+02,-5574,4888,-2266,195,-603,18,1,7,11
7.46E+02,-5572,4872,-2276,372,-561,-264,1,7,11
7.59E+02,-5595,4867,-2286,297,-224,-278,1,7,11
7.71E+02,-5900,4587,-2225,-75,-133,-303,1,7,11
7.83E+02,-5914,4888,-2229,-107,-372,-308,1,7,11
7.94E+02,-5962,4929,-2199,-68,-200,73,1,7,11
8.05E+02,-5604,4737,-2300,53,-164,-118,1,7,11
8.16E+02,-5590,4920,-2223,-367,-258,-35,1,7,11
8.28E+02,-5577,4867,-2410,-216,113,-60,1,7,11
8.40E+02,-5558,4581,-2373,-210,-67,-93,1,7,11
8.51E+02,-5546,4868,-2380,-168,291,121,1,7,11
8.61E+02,-5539,4886,-2376,-159,138,103,1,7,11
8.71E+02,-5546,4884,-2371,-150,192,79,1,7,11
8.79E+02,-5548,4867,-2376,-139,194,60,1,7,11
8.86E+02,-5573,4869,-2386,-354,166,41,1,7,11
8.91E+02,-5553,4602,-2410,-328,364,53,1,7,11
8.95E+02,-5573,4573,-2396,-289,329,48,1,7,11
8.96E+02,-5903,4875,-2421,2,-9,7,1,7,11
8.94E+02,-5908,4868,-2421,-290,110,-270,1,7,11
8.90E+02,-5910,4870,-2179,-305,-278,-299,1,7,11
8.83E+02,-5911,4884,-2193,-339,-140,-328,1,7,11
8.71E+02,-5630,4875,-2204,-135,-231,-353,1,7,11
8.55E+02,-5608,4899,-2238,-167,-529,-369,1,7,11
8.38E+02,-5587,4919,-2248,-216,-248,-373,1,7,11
8.22E+02,-5586,4935,-2250,-525,-184,-361,1,7,11
8.11E+02,-5586,4947,-2227,-592,-361,-340,1,7,11
8.03E+02,-5595,4943,-2195,-415,-281,-339,1,7,11
7.94E+02,-5602,4910,-2411,-496,80,-361,1,7,11
7.79E+02,-5600,4604,-2379,-838,125,-142,1,7,11
7.58E+02,-5603,4571,-2324,-856,-98,-184,1,7,11
7.39E+02,-5632,4580,-2036,-859,-69,-240,1,7,11
7.28E+02,-5936,4590,-2017,-662,-36,-555,1,7,11
7.26E+02,-5955,4585,-2020,-756,259,-598,1,7,11
7.27E+02,-5964,4602,-2039,-1142,361,-625,1,7,11
7.23E+02,-6010,4598,-1998,-1342,555,-631,1,7,11
7.15E+02,-5790,4593,-1972,-1270,778,-630,1,7,11
7.07E+02,-5836,4576,-2137,-1439,751,-635,1,7,11
7.04E+02,-5856,4598,-2044,-1505,914,-638,1,7,11
7.05E+02,-5865,4883,-1764,-1798,1284,-625,1,7,11
7.04E+02,-5861,4921,-1712,-1804,1344,-574,1,7,11
6.99E+02,-5841,4931,-1912,-1801,1345,-238,1,7,11
6.89E+02,-5821,4899,-1844,-1496,1011,-175,1,7,11
6.77E+02,-5799,4912,-1822,-1630,1124,-144,1,7,11
6.65E+02,-5775,4917,-1808,-1269,721,-374,1,7,11
6.54E+02,-5988,4904,-1798,-1400,829,-347,1,7,11
6.47E+02,-5939,4888,-1537,-982,426,-319,1,7,11
6.45E+02,-5900,4873,-1815,-1042,547,-291,1,7,11
6.48E+02,-5615,4911,-1872,-817,159,-276,1,7,11
6.59E+02,-5571,4935,-1678,-626,289,-265,1,7,11
6.76E+02,-5571,4739,-1755,-187,-80,3,1,7,11
7.00E+02,-5596,4829,-2089,-305,56,4,1,7,11
7.28E+02,-5612,5139,-2149,-265,27,18,1,7,11
7.56E+02,-5598,5192,-1952,-292,14,43,1,7,11
7.80E+02,-5568,5181,-1983,-363,75,87,1,7,11
7.97E+02,-5559,5229,-2031,-176,-78,-124,1,7,11
8.12E+02,-5539,5003,-2309,-246,304,-57,1,7,11
8.28E+02,-5542,5025,-2308,-576,183,263,1,7,11
8.46E+02,-5539,5021,-2008,-398,539,317,1,7,11
8.62E+02,-5513,5026,-1980,-426,587,357,1,7,11
8.66E+02,-5507,5000,-2175,-457,606,129,1,7,11
8.52E+02,-5756,4992,-2119,-415,559,138,1,7,11
8.24E+02,-5739,5000,-2104,-601,191,143,1,7,11
7.96E+02,-5713,5239,-2068,-534,327,152,1,7,11
7.82E+02,-5692,5172,-1763,-197,-49,161,1,7,11
7.85E+02,-5644,5130,-1776,-311,100,146,1,7,11
7.98E+02,-5636,5133,-1784,81,52,364,1,7,11
8.11E+02,-5374,5120,-2057,-96,32,319,1,7,11
8.19E+02,-5354,4856,-2058,264,5,-37,1,7,11
8.24E+02,-5346,5124,-2060,357,-296,-80,1,7,11
8.27E+02,-5371,5125,-1773,198,-377,-112,1,7,11
8.30E+02,-5273,5189,-1921,225,-162,82,1,7,11
8.32E+02,-5352,4856,-2069,333,-310,-280,1,7,11
8.32E+02,-5369,4844,-2054,308,-352,-181,1,7,11
8.29E+02,-5668,4847,-2063,264,-135,-596,1,7,11
8.25E+02,-5690,4821,-2061,-82,-165,-473,1,7,11
8.22E+02,-5512,4815,-2055,108,-181,-851,1,7,11
8.23E+02,-5579,4801,-1780,37,-199,-699,1,7,11
8.28E+02,-5903,4795,-1786,-281,-227,-1047,1,7,11
8.32E+02,-5977,4781,-1770,-369,-251,-1069,1,7,11
8.28E+02,-5788,4749,-1762,-163,-517,-1066,1,7,11
8.13E+02,-5841,4988,-1750,-189,-530,-1039,1,7,11
7.93E+02,-5850,4972,-2065,-216,-525,-741,1,7,11
7.77E+02,-5857,4990,-2080,-549,-166,-700,1,7,11
7.73E+02,-6173,4962,-1746,-582,-330,-834,1,7,11
7.78E+02,-6175,4984,-1739,-546,-302,-424,1,7,11
7.83E+02,-6160,4980,-1728,-550,-260,-524,1,7,11
7.83E+02,-5880,4954,-1702,-548,47,-137,1,7,11
7.79E+02,-5858,4940,-1693,-520,112,-290,1,7,11
7.78E+02,-5830,4931,-1676,-236,-76,49,1,7,11
7.86E+02,-5801,4912,-1910,-201,-15,100,1,7,11
8.00E+02,-5780,4904,-1901,-156,284,117,1,7,11
8.08E+02,-5768,4912,-1903,-367,303,107,1,7,11
8.01E+02,-5761,4924,-1912,-342,318,81,1,7,11
7.76E+02,-6013,4925,-1917,-327,318,52,1,7,11
7.48E+02,-5767,4931,-1669,-308,296,26,1,7,11
7.30E+02,-5767,4938,-1690,-286,258,1,1,7,11
7.25E+02,-5763,4935,-1708,-272,-33,-273,1,7,11
7.29E+02,-6015,4944,-1717,-262,-63,-286,1,7,11
7.35E+02,-5764,4944,-1724,-261,-88,-291,1,7,11
7.39E+02,-5772,4933,-1719,-265,-112,-292,1,7,11
7.42E+02,-5776,4924,-1723,-266,116,-285,1,7,11
7.44E+02,-5775,4909,-1730,-276,109,-282,1,7,11
7.47E+02,-5767,4905,-1760,-333,-93,-279,1,7,11
7.50E+02,-6008,4925,-2067,-146,-2,-274,1,7,11
7.54E+02,-6011,4930,-2055,-537,159,-261,1,7,11
7.59E+02,-5769,4915,-1745,-632,548,8,1,7,11
7.60E+02,-5782,4915,-1722,-425,617,-262,1,7,11
7.54E+02,-5787,4900,-1702,-461,386,-290,1,7,11
7.41E+02,-5781,4917,-1713,-439,630,-338,1,7,11
7.27E+02,-5769,4936,-1738,-457,393,-383,1,7,11
7.18E+02,-5778,4920,-1702,-485,436,-141,1,7,11
7.14E+02,-5794,4920,-1680,-445,425,-146,1,7,11
7.14E+02,-5813,4935,-1918,-637,609,-150,1,7,11
7.15E+02,-5828,4910,-1880,-558,217,-136,1,7,11
7.19E+02,-5834,4896,-1879,-151,297,-375,1,7,11
7.24E+02,-5849,4915,-1887,0,-128,-363,1,7,11
7.31E+02,-5846,4894,-1880,111,-288,-343,1,7,11
7.40E+02,-5844,4882,-1907,-43,-169,-326,1,7,11
7.50E+02,-5828,4880,-1690,-15,-231,-299,1,7,11
7.62E+02,-5825,4602,-1690,-23,-232,-263,1,7,11
7.73E+02,-5815,4870,-1701,-10,-220,24,1,7,11
7.80E+02,-5823,4879,-1699,-28,-185,53,1,7,11
7.80E+02,-5833,4875,-1698,-49,-156,84,1,7,11
7.75E+02,-5827,4887,-1717,-52,-138,110,1,7,11
7.70E+02,-5826,4874,-1735,-102,-355,114,1,7,11
7.70E+02,-5820,4876,-1761,100,-302,99,1,7,11
7.73E+02,-5819,4884,-1757,20,38,55,1,7,11
7.77E+02,-5825,4897,-1745,-302,114,48,1,7,11
7.77E+02,-5821,4886,-1727,-370,-58,57,1,7,11
7.73E+02,-5827,4874,-1692,-158,-38,77,1,7,11
7.68E+02,-5837,4867,-1675,-151,-51,92,1,7,11
7.65E+02,-5859,4600,-1909,-153,-94,93,1,7,11
7.64E+02,-5865,4605,-1913,-141,98,66,1,7,11
7.65E+02,-5858,4867,-1914,-151,52,30,1,7,11
7.66E+02,-5843,4882,-1666,-164,44,-260,1,7,11
7.66E+02,-5843,4887,-1669,-194,68,-290,1,7,11
7.65E+02,-5837,4886,-1666,-229,111,-307,1,7,11
7.59E+02,-5843,4883,-1914,-514,-92,-316,1,7,11
7.51E+02,-5880,4887,-1883,-570,287,-290,1,7,11
7.38E+02,-5884,4889,-1867,-574,296,-259,1,7,11
7.24E+02,-5882,4893,-1854,-558,294,36,1,7,11
7.09E+02,-5861,4886,-1850,-526,284,78,1,7,11
6.96E+02,-5843,4894,-1853,-226,277,111,1,7,11
6.90E+02,-5823,4899,-1860,-186,271,-121,1,7,11
6.90E+02,-5805,4916,-1867,-144,264,-111,1,7,11
6.95E+02,-5789,4930,-1880,-366,257,-109,1,7,11
7.04E+02,-5784,4932,-1871,-340,-5,-118,1,7,11
7.13E+02,-5791,4939,-1885,-312,-17,120,1,7,11
7.19E+02,-5796,4937,-1894,-287,-36,104,1,7,11
7.22E+02,-5796,4948,-1910,-275,-53,89,1,7,11
7.23E+02,-5796,4953,-1916,-272,-72,84,1,7,11
7.30E+02,-5804,4973,-1918,3,-93,93,1,7,11
7.44E+02,-5820,4978,-1903,-268,-114,102,1,7,11
7.58E+02,-5806,4977,-1896,-278,86,114,1,7,11
7.60E+02,-5787,4955,-1878,-272,18,-123,1,7,11
7.47E+02,-5769,4939,-1874,3,8,-116,1,7,11
7.30E+02,-5766,4913,-1870,4,20,-118,1,7,11
7.24E+02,-5762,4912,-1891,26,40,108,1,7,11
7.38E+02,-5776,4910,-1874,24,101,82,1,7,11
7.62E+02,-5795,4923,-1867,45,125,68,1,7,11
7.84E+02,-5859,4932,-1843,42,-125,65,1,7,11
7.95E+02,-5817,4741,-1883,-57,-272,-95,1,7,11
7.99E+02,-5802,4968,-1902,80,0,-66,1,7,11
8.01E+02,-5806,4925,-1867,5,67,-64,1,7,11
8.07E+02,-5801,4940,-1870,-291,107,-103,1,7,11
8.15E+02,-5787,4935,-1873,-350,-105,119,1,7,11
8.22E+02,-5788,4941,-1861,-143,-65,87,1,7,11
8.22E+02,-5799,4936,-1855,-193,-28,62,1,7,11
8.14E+02,-5807,4941,-1851,-213,-9,40,1,7,11
8.00E+02,-5826,4944,-1829,-228,257,20,1,7,11
7.85E+02,-5838,4944,-1820,-223,-19,11,1,7,11
7.70E+02,-5840,4954,-1830,-200,-51,15,1,7,11
7.61E+02,-5836,4944,-1812,-188,-78,23,1,7,11
7.62E+02,-5826,4944,-1815,-166,-104,24,1,7,11
7.72E+02,-5824,4953,-1818,-143,-126,18,1,7,11
7.87E+02,-5824,4953,-1805,-137,109,5,1,7,11
7.99E+02,-5821,4955,-1809,-131,88,-270,1,7,11
8.05E+02,-5819,4955,-1807,-131,76,-288,1,7,11
8.06E+02,-5802,4951,-1823,-148,81,-308,1,7,11
8.04E+02,-6009,4955,-1883,-209,-103,-348,1,7,11
8.02E+02,-5814,4916,-1533,-561,289,-367,1,7,11
7.97E+02,-5835,4935,-1524,-536,316,-359,1,7,11
7.86E+02,-5856,4952,-1514,-540,319,-335,1,7,11
7.65E+02,-5865,4947,-1513,-548,316,-294,1,7,11
7.42E+02,-5880,4933,-1492,-557,329,8,1,7,11
7.27E+02,-6151,4928,-1470,-523,307,37,1,7,11
7.30E+02,-5862,4940,-1506,-225,264,48,1,7,11
7.43E+02,-5827,4929,-1516,-211,278,61,1,7,11
7.54E+02,-5832,4935,-1507,-173,307,63,1,7,11
7.52E+02,-5829,4957,-1530,-151,322,45,1,7,11
7.41E+02,-5830,4973,-1793,-130,321,26,1,7,11
7.31E+02,-5843,4972,-1793,-140,330,16,1,7,11
7.31E+02,-5844,4984,-1796,-134,334,14,1,7,11
7.34E+02,-5842,4738,-1803,-130,331,25,1,7,11
7.33E+02,-5834,4989,-1797,-377,315,41,1,7,11
7.22E+02,-5819,4976,-1532,-364,296,57,1,7,11
7.08E+02,-5809,4987,-1805,-326,271,66,1,7,11
7.00E+02,-5795,4985,-1815,-302,-5,69,1,7,11
7.03E+02,-5775,4984,-1821,-283,-17,67,1,7,11
7.13E+02,-5775,4736,-1822,-259,-12,61,1,7,11
7.23E+02,-5782,4736,-1821,13,-19,53,1,7,11
7.32E+02,-5792,4978,-1819,34,-32,34,1,7,11
7.42E+02,-5808,4982,-1819,66,-49,10,1,7,11
7.54E+02,-5832,4984,-1814,91,-81,1,1,7,11
7.69E+02,-5834,4971,-1819,105,-127,4,1,7,11
7.83E+02,-5827,4951,-1826,101,102,11,1,7,11
7.92E+02,-5828,4933,-1831,100,91,19,1,7,11
7.92E+02,-5829,4946,-1830,111,79,25,1,7,11
7.83E+02,-5825,4951,-1831,96,76,35,1,7,11
7.68E+02,-5833,4931,-1807,77,62,38,1,7,11
7.49E+02,-5828,4938,-1820,76,30,24,1,7,11
7.31E+02,-5826,4922,-1817,56,18,6,1,7,11
7.23E+02,-5837,4897,-1805,47,17,-280,1,7,11
7.26E+02,-5853,4900,-1799,68,8,-315,1,7,11
7.34E+02,-5865,4914,-1814,85,0,-331,1,7,11
7.37E+02,-5877,4909,-1809,87,11,-322,1,7,11
7.31E+02,-5883,4899,-1809,98,24,-307,1,7,11
7.23E+02,-6152,4898,-1806,111,36,-291,1,7,11
7.23E+02,-6148,4902,-1817,108,35,-286,1,7,11
7.30E+02,-5886,4906,-1820,92,40,-287,1,7,11
7.39E+02,-6170,4908,-1501,122,4,18,1,7,11
7.41E+02,-5855,4964,-1880,-82,-296,81,1,7,11
7.35E+02,-5867,4893,-1845,58,63,119,1,7,11
7.26E+02,-5860,4904,-1847,31,106,113,1,7,11
7.22E+02,-5854,4917,-1859,13,-117,103,1,7,11
7.21E+02,-5857,4917,-1849,-268,-78,101,1,7,11
7.19E+02,-5866,4911,-1830,-295,-37,115,1,7,11
7.11E+02,-5860,4912,-1835,-311,-13,118,1,7,11
7.00E+02,-5863,4911,-1829,-309,-15,125,1,7,11
6.96E+02,-5860,4907,-1822,-305,-14,127,1,7,11
7.05E+02,-5846,4907,-1815,-295,-20,126,1,7,11
7.23E+02,-5841,4912,-1810,-280,-36,121,1,7,11
7.37E+02,-5832,4920,-1811,-274,-52,114,1,7,11
7.38E+02,-5827,4919,-1825,-278,-69,106,1,7,11
7.28E+02,-5820,4913,-1830,-282,-79,96,1,7,11
7.12E+02,-5820,4917,-1837,-284,-88,84,1,7,11
6.96E+02,-5823,4919,-1835,-285,-87,74,1,7,11
6.82E+02,-5823,4919,-1840,-289,-87,70,1,7,11
6.73E+02,-5818,4914,-1837,-292,-87,65,1,7,11
6.68E+02,-5814,4921,-1835,-291,-84,61,1,7,11
6.68E+02,-5824,4923,-1832,-300,-75,55,1,7,11
6.71E+02,-5831,4918,-1831,-301,-69,48,1,7,11
6.78E+02,-5842,4926,-1832,-302,-67,44,1,7,11
6.93E+02,-5846,4921,-1819,-319,-70,37,1,7,11
7.14E+02,-5857,4911,-1816,-326,-76,22,1,7,11
7.36E+02,-5868,4923,-1817,-322,-81,5,1,7,11
7.46E+02,-5882,4929,-1817,-328,-89,-258,1,7,11
7.37E+02,-5878,4926,-1806,-338,-102,-258,1,7,11
7.17E+02,-5874,4910,-1807,-344,-107,6,1,7,11
7.01E+02,-5875,4906,-1798,-341,-102,18,1,7,11
6.99E+02,-5880,4906,-1534,-327,-98,31,1,7,11
7.07E+02,-5868,4917,-1794,-306,-96,50,1,7,11
7.22E+02,-5862,4920,-1813,-297,-92,67,1,7,11
7.40E+02,-5856,4926,-1812,-299,-78,79,1,7,11
7.56E+02,-5848,4923,-1811,-302,-65,85,1,7,11
7.69E+02,-5841,4919,-1815,-303,-52,83,1,7,11
7.75E+02,-5841,4931,-1811,-297,-44,85,1,7,11
7.76E+02,-5836,4937,-1825,-297,-44,89,1,7,11
7.71E+02,-5835,4918,-1821,-307,-41,92,1,7,11
7.62E+02,-5832,4914,-1812,-293,-46,89,1,7,11
7.52E+02,-5839,4925,-1819,-276,-60,81,1,7,11
7.46E+02,-5841,4935,-1822,-271,-79,76,1,7,11
7.44E+02,-5835,4940,-1824,-278,-97,73,1,7,11
7.40E+02,-5836,4936,-1817,-291,-110,66,1,7,11
7.26E+02,-5834,4935,-1831,-306,-120,59,1,7,11
7.00E+02,-5833,4929,-1827,-327,-124,47,1,7,11
6.77E+02,-5835,4933,-1820,-333,126,37,1,7,11
6.75E+02,-5837,4931,-1823,-336,123,27,1,7,11
6.93E+02,-5837,4932,-1814,-332,-127,23,1,7,11
7.12E+02,-5845,4943,-1808,-326,-110,30,1,7,11
7.12E+02,-5851,4938,-1803,-331,-91,46,1,7,11
6.97E+02,-5854,4926,-1794,-334,-71,52,1,7,11
6.89E+02,-5863,4922,-1527,-328,-63,49,1,7,11
7.02E+02,-5872,4927,-1525,-302,-66,51,1,7,11
7.27E+02,-5862,4926,-1527,-295,-72,54,1,7,11
7.40E+02,-5856,4922,-1532,-293,-75,48,1,7,11
7.25E+02,-5855,4922,-1532,-289,-75,39,1,7,11
6.96E+02,-5857,4924,-1535,-280,-78,33,1,7,11
6.75E+02,-5847,4926,-1793,-276,-77,29,1,7,11
6.77E+02,-5846,4927,-1794,-272,-75,33,1,7,11
6.89E+02,-5847,4925,-1533,-273,-69,41,1,7,11
6.96E+02,-5843,4927,-1532,-267,-67,50,1,7,11
6.94E+02,-5848,4934,-1531,-269,-64,56,1,7,11
6.93E+02,-5848,4915,-1520,-270,-75,63,1,7,11
7.03E+02,-5848,4920,-1521,13,-99,69,1,7,11
7.25E+02,-5845,4925,-1800,23,-121,62,1,7,11
7.51E+02,-5848,4924,-1802,26,-127,51,1,7,11
7.73E+02,-5848,4934,-1808,32,-122,37,1,7,11
7.86E+02,-5858,4946,-1817,31,-110,31,1,7,11
7.88E+02,-5847,4938,-1816,23,-101,29,1,7,11
7.76E+02,-5847,4931,-1816,14,-83,34,1,7,11
7.56E+02,-5854,4921,-1819,4,-60,44,1,7,11
7.38E+02,-5868,4922,-1817,-261,-48,52,1,7,11
7.34E+02,-5871,4930,-1819,-267,-41,64,1,7,11
7.44E+02,-5869,4936,-1824,-277,-32,80,1,7,11
7.60E+02,-5857,4935,-1831,-283,-23,103,1,7,11
7.70E+02,-5841,4930,-1845,-290,-2,127,1,7,11
7.75E+02,-5838,4919,-1838,-290,281,-106,1,7,11
7.77E+02,-5836,4906,-1826,-281,296,-91,1,7,11
7.85E+02,-5835,4910,-1830,7,288,-88,1,7,11
7.98E+02,-5828,4918,-1840,25,265,-94,1,7,11
8.11E+02,-5814,4908,-1841,27,-8,-105,1,7,11
8.18E+02,-5812,4938,-1856,49,-23,126,1,7,11
8.15E+02,-5797,4928,-1852,47,-45,93,1,7,11
8.02E+02,-5814,4933,-1852,24,-65,60,1,7,11
7.79E+02,-5811,4934,-1849,1,-93,34,1,7,11
7.54E+02,-5810,4931,-1855,-273,-114,9,1,7,11
7.38E+02,-5810,4932,-1862,-288,-121,-266,1,7,11
7.39E+02,-5822,4926,-1865,-304,-110,-276,1,7,11
7.51E+02,-5824,4922,-1860,-316,-99,-278,1,7,11
7.62E+02,-5833,4925,-1856,-330,-81,-272,1,7,11
7.65E+02,-5837,4922,-1855,-340,-59,-261,1,7,11
7.62E+02,-5833,4916,-1855,-344,-33,12,1,7,11
7.58E+02,-5837,4912,-1851,-344,-4,22,1,7,11
7.58E+02,-5850,4913,-1835,-334,268,32,1,7,11
7.60E+02,-5855,4916,-1835,-315,272,45,1,7,11
7.60E+02,-5861,4919,-1829,-304,274,52,1,7,11
7.57E+02,-5869,4920,-1824,-288,261,58,1,7,11
7.51E+02,-5873,4921,-1831,-273,-14,65,1,7,11
7.46E+02,-5867,4922,-1846,-264,-39,71,1,7,11
7.46E+02,-5860,4923,-1846,-267,-57,74,1,7,11
7.50E+02,-5848,4923,-1848,-273,-69,74,1,7,11
7.57E+02,-5829,4920,-1857,-278,-77,74,1,7,11
7.66E+02,-5819,4931,-1857,-285,-75,67,1,7,11
7.78E+02,-5808,4929,-1861,-303,-68,65,1,7,11
7.89E+02,-5799,4932,-1862,-314,-56,62,1,7,11
7.98E+02,-5795,4941,-1866,-315,-42,62,1,7,11
7.98E+02,-5808,4936,-1862,-328,-26,62,1,7,11
7.85E+02,-5814,4920,-1850,-337,-13,57,1,7,11
7.64E+02,-5827,4920,-1848,-326,-10,42,1,7,11
7.45E+02,-5842,4926,-1843,-309,-34,35,1,7,11
7.38E+02,-5849,4935,-1845,-293,-62,39,1,7,11
7.42E+02,-5838,4926,-1842,-278,-86,46,1,7,11
7.50E+02,-5823,4920,-1846,-272,-96,53,1,7,11
7.57E+02,-5819,4928,-1856,-259,-96,58,1,7,11
7.60E+02,-5814,4940,-1866,9,-93,62,1,7,11
7.61E+02,-5811,4941,-1875,7,-83,62,1,7,11
7.60E+02,-5812,4935,-1880,4,-73,61,1,7,11
7.61E+02,-5813,4932,-1885,9,-66,60,1,7,11
7.64E+02,-5817,4927,-1880,9,-62,59,1,7,11
7.74E+02,-5819,4921,-1869,11,-65,56,1,7,11
7.85E+02,-5819,4934,-1876,23,-72,55,1,7,11
7.92E+02,-5817,4931,-1884,21,-85,57,1,7,11
7.87E+02,-5807,4914,-1881,13,-92,57,1,7,11
7.68E+02,-5806,4909,-1881,18,-97,51,1,7,11
7.49E+02,-5813,4915,-1884,20,-101,36,1,7,11
7.40E+02,-5815,4922,-1885,11,-107,21,1,7,11
7.44E+02,-5816,4937,-1894,-260,-112,7,1,7,11
7.56E+02,-5823,4939,-1895,-292,-111,-260,1,7,11
7.65E+02,-5825,4932,-1881,-330,-104,-271,1,7,11
7.70E+02,-5828,4922,-1872,-358,-94,-276,1,7,11
7.72E+02,-5831,4908,-1857,-371,-83,-275,1,7,11
7.76E+02,-5839,4895,-1847,-374,-69,-274,1,7,11
7.82E+02,-5850,4892,-1839,-366,-57,-267,1,7,11
7.85E+02,-5855,4891,-1837,-345,-56,2,1,7,11
7.77E+02,-5858,4895,-1834,-323,-59,18,1,7,11
7.57E+02,-5863,4894,-1837,-302,-70,36,1,7,11
7.37E+02,-5861,4893,-1842,-279,-84,52,1,7,11
7.28E+02,-5859,4899,-1857,-260,-98,64,1,7,11
7.36E+02,-5853,4905,-1866,4,-106,69,1,7,11
7.52E+02,-5840,4918,-1877,7,-113,68,1,7,11
7.63E+02,-5830,4924,-1884,1,-107,61,1,7,11
7.61E+02,-5831,4925,-1884,-278,-96,58,1,7,11
7.56E+02,-5824,4920,-1891,-298,-85,54,1,7,11
7.56E+02,-5820,4918,-1889,-312,-68,50,1,7,11
7.67E+02,-5814,4919,-1884,-321,-62,50,1,7,11
7.78E+02,-5813,4915,-1882,-330,-59,51,1,7,11
7.77E+02,-5810,4921,-1881,-325,-58,52,1,7,11
7.59E+02,-5820,4923,-1880,-325,-54,58,1,7,11
7.33E+02,-5820,4913,-1877,-329,-56,60,1,7,11
7.17E+02,-5829,4907,-1864,-314,-61,55,1,7,11
7.18E+02,-5834,4909,-1868,-295,-78,46,1,7,11
7.31E+02,-5841,4914,-1856,-288,-102,41,1,7,11
7.47E+02,-5838,4910,-1857,-284,-125,37,1,7,11
7.60E+02,-5832,4906,-1855,-283,116,31,1,7,11
7.70E+02,-5836,4897,-1854,-286,109,20,1,7,11
7.77E+02,-5836,4901,-1853,-287,105,8,1,7,11
7.84E+02,-5837,4902,-1857,-298,105,-259,1,7,11
7.90E+02,-5841,4888,-1857,-314,114,-266,1,7,11
7.95E+02,-5840,4882,-1865,-322,126,-271,1,7,11
7.98E+02,-5844,4870,-1866,-323,-115,-273,1,7,11
7.96E+02,-5857,4869,-1862,-314,-104,-272,1,7,11
7.88E+02,-5874,4883,-1866,-307,-103,-269,1,7,11
7.69E+02,-5877,4896,-1877,-306,-114,0,1,7,11
7.48E+02,-5873,4898,-1879,-320,-125,17,1,7,11
7.35E+02,-5855,4904,-1876,-340,-123,31,1,7,11
7.39E+02,-5847,4910,-1865,-354,-114,35,1,7,11
7.55E+02,-5844,4910,-1847,-368,-103,32,1,7,11
7.74E+02,-5844,4913,-1826,-380,-90,22,1,7,11
7.85E+02,-5845,4912,-1809,-139,-80,20,1,7,11
7.88E+02,-5856,4904,-1532,-151,-73,22,1,7,11
7.88E+02,-5858,4882,-1513,-138,-73,27,1,7,11
7.90E+02,-5861,4864,-1513,-359,-79,38,1,7,11
7.92E+02,-5868,4603,-1509,-313,-93,48,1,7,11
7.91E+02,-5877,4873,-1528,-259,-109,60,1,7,11
7.81E+02,-6147,4896,-1536,32,-126,71,1,7,11
7.64E+02,-5882,4917,-1817,45,107,80,1,7,11
7.45E+02,-5864,4929,-1833,36,97,85,1,7,11
7.34E+02,-5850,4929,-1847,12,105,82,1,7,11
7.31E+02,-5843,4922,-1841,-271,124,71,1,7,11
7.33E+02,-5841,4916,-1838,-295,-106,54,1,7,11
7.37E+02,-5847,4921,-1834,-312,-84,36,1,7,11
7.40E+02,-5861,4922,-1822,-337,-67,22,1,7,11
7.46E+02,-5866,4917,-1806,-355,-63,17,1,7,11
7.57E+02,-5870,4903,-1536,-371,-63,17,1,7,11
7.71E+02,-5869,4891,-1534,-370,-62,23,1,7,11
7.86E+02,-5872,4886,-1529,-357,-56,31,1,7,11
7.99E+02,-5875,4877,-1521,-343,-55,43,1,7,11
8.06E+02,-5872,4873,-1525,-323,-56,51,1,7,11
8.03E+02,-5869,4887,-1531,-301,-53,56,1,7,11
7.85E+02,-5880,4910,-1533,-295,-51,71,1,7,11
7.55E+02,-5884,4918,-1535,-300,-51,75,1,7,11
7.27E+02,-6149,4929,-1795,-300,-55,81,1,7,11
7.19E+02,-6145,4927,-1531,-300,-61,92,1,7,11
7.35E+02,-5878,4921,-1530,-298,-68,116,1,7,11
7.58E+02,-5870,4915,-1536,-284,-70,-123,1,7,11
7.71E+02,-5861,4908,-1535,-263,-64,-108,1,7,11
7.67E+02,-5856,4898,-1536,35,-61,-93,1,7,11
7.58E+02,-5843,4892,-1796,73,-67,-84,1,7,11
7.60E+02,-5839,4893,-1803,106,-73,-80,1,7,11
7.80E+02,-5828,4893,-1814,-119,-79,-81,1,7,11
8.07E+02,-5828,4894,-1829,-87,-89,-84,1,7,11
8.28E+02,-5825,4884,-1850,-65,-95,-90,1,7,11
8.32E+02,-5813,4875,-1867,-48,-107,-98,1,7,11
8.20E+02,-5805,4887,-1888,-21,-118,-106,1,7,11
8.03E+02,-5811,4914,-1905,-15,-126,-117,1,7,11
7.85E+02,-5813,4934,-1669,-31,127,124,1,7,11
7.73E+02,-5815,4951,-1668,-73,122,107,1,7,11
7.66E+02,-5813,4945,-1915,122,116,89,1,7,11
7.68E+02,-5812,4925,-1908,72,111,71,1,7,11
7.77E+02,-5816,4915,-1906,39,114,53,1,7,11
7.89E+02,-5828,4905,-1893,15,118,40,1,7,11
8.01E+02,-5834,4904,-1886,3,115,34,1,7,11
8.12E+02,-5843,4894,-1865,-261,107,40,1,7,11
8.21E+02,-5852,4890,-1862,6,97,52,1,7,11
8.25E+02,-5853,4894,-1861,21,86,63,1,7,11
8.25E+02,-5851,4897,-1868,30,76,76,1,7,11
8.22E+02,-5844,4901,-1871,37,69,80,1,7,11
8.14E+02,-5838,4902,-1875,39,70,76,1,7,11
8.05E+02,-5838,4909,-1874,41,75,64,1,7,11
7.95E+02,-5840,4918,-1879,24,87,47,1,7,11
7.87E+02,-5850,4913,-1868,0,97,32,1,7,11
7.85E+02,-5863,4909,-1852,-289,102,14,1,7,11
7.88E+02,-5870,4891,-1833,-311,103,0,1,7,11
7.94E+02,-6145,4891,-1813,-321,98,-257,1,7,11
8.02E+02,-6149,4893,-1801,-326,93,8,1,7,11
8.11E+02,-6149,4895,-1535,-322,84,26,1,7,11
8.21E+02,-5881,4897,-1530,-307,82,51,1,7,11
8.32E+02,-5873,4900,-1535,-294,90,73,1,7,11
8.43E+02,-5864,4900,-1798,-283,106,89,1,7,11
8.46E+02,-5852,4906,-1806,-269,122,100,1,7,11
8.33E+02,-5850,4910,-1813,-261,-119,110,1,7,11
8.01E+02,-5847,4917,-1817,2,-107,117,1,7,11
7.61E+02,-5849,4924,-1821,7,-100,120,1,7,11
7.33E+02,-5854,4919,-1827,4,-98,119,1,7,11
7.29E+02,-5861,4911,-1823,14,-100,110,1,7,11
7.40E+02,-5874,4923,-1826,20,-110,93,1,7,11
7.53E+02,-5877,4930,-1826,10,127,79,1,7,11
7.57E+02,-5872,4924,-1828,-268,112,68,1,7,11
7.53E+02,-5864,4914,-1828,-294,109,52,1,7,11
7.49E+02,-5856,4908,-1825,-320,123,35,1,7,11
7.49E+02,-5853,4910,-1812,-346,-110,15,1,7,11
7.55E+02,-5849,4904,-1810,-371,-79,0,1,7,11
7.67E+02,-5856,4901,-1797,-138,-36,-266,1,7,11
7.83E+02,-5865,4906,-1532,-163,265,-268,1,7,11
7.99E+02,-5878,4896,-1523,-181,303,-261,1,7,11
8.10E+02,-6148,4881,-1517,-183,335,14,1,7,11
8.09E+02,-6164,4878,-1516,-156,356,43,1,7,11
7.99E+02,-6156,4880,-1524,-358,357,91,1,7,11
7.84E+02,-6147,4867,-1536,-300,352,-75,1,7,11
7.71E+02,-6145,4607,-1802,42,343,-26,1,7,11
7.62E+02,-6148,4604,-1816,-123,308,262,1,7,11
7.57E+02,-6150,4868,-1829,-44,259,275,1,7,11
7.56E+02,-6147,4881,-1842,275,-57,271,1,7,11
7.59E+02,-5880,4891,-1869,330,-108,259,1,7,11
7.65E+02,-5871,4904,-1891,334,113,-9,1,7,11
7.73E+02,-5848,4944,-1683,323,95,-12,1,7,11
7.82E+02,-5821,4971,-1709,268,106,-3,1,7,11
7.92E+02,-5802,4984,-1716,-52,-111,280,1,7,11
8.01E+02,-5790,4739,-1725,-112,-42,325,1,7,11
8.09E+02,-5773,4753,-1736,72,303,383,1,7,11
8.14E+02,-5761,4744,-1719,-263,149,180,1,7,11
8.14E+02,-5997,4988,-1701,-307,230,222,1,7,11
8.07E+02,-5986,4985,-1682,-327,547,250,1,7,11
7.98E+02,-5968,4990,-1677,-336,588,522,1,7,11
7.88E+02,-5946,4742,-1684,-339,613,523,1,7,11
7.80E+02,-5927,4746,-1676,-344,637,514,1,7,11
7.74E+02,-5907,4749,-1670,-328,629,244,1,7,11
7.71E+02,-5628,4763,-1685,-295,607,225,1,7,11
7.68E+02,-5614,4779,-1691,-265,582,202,1,7,11
7.68E+02,-5602,4800,-1702,11,553,176,1,7,11
7.70E+02,-5600,4819,-1722,25,523,140,1,7,11
7.76E+02,-5609,4837,-1727,25,232,350,1,7,11
7.84E+02,-5615,4855,-1727,23,195,305,1,7,11
7.91E+02,-5622,5138,-1737,10,160,269,1,7,11
7.91E+02,-5628,5139,-1731,-268,128,-13,1,7,11
7.85E+02,-5624,5139,-1737,-281,354,-34,1,7,11
7.74E+02,-5626,5138,-1732,-285,339,-46,1,7,11
7.60E+02,-5629,5139,-1736,-280,336,-46,1,7,11
7.45E+02,-5625,5137,-1726,-278,326,-29,1,7,11
7.34E+02,-5612,5122,-1724,-262,318,-1,1,7,11
7.31E+02,-5601,4855,-1721,24,317,282,1,7,11
7.35E+02,-5584,4860,-1737,67,327,309,1,7,11
7.42E+02,-5568,5150,-1772,120,349,342,1,7,11
7.50E+02,-5545,5221,-2070,-96,373,383,1,7,11
7.56E+02,-5724,5006,-2125,-76,146,192,1,7,11
7.64E+02,-5702,5046,-1934,-51,203,528,1,7,11
7.76E+02,-5718,5042,-1955,-49,574,639,1,7,11
7.92E+02,-5753,5018,-1936,-32,581,429,1,7,11
8.08E+02,-5744,5215,-1930,258,237,461,1,7,11
8.21E+02,-5699,5150,-1937,330,361,473,1,7,11
8.28E+02,-5647,5121,-1967,166,-21,460,1,7,11
8.29E+02,-5334,4855,-1999,225,-126,415,1,7,11
8.23E+02,-5281,4843,-2032,235,45,597,1,7,11
8.10E+02,-5493,4850,-2326,232,-270,236,1,7,11
7.90E+02,-5476,5140,-2357,190,-299,370,1,7,11
7.69E+02,-5477,5175,-2382,346,-302,-8,1,7,11
7.55E+02,-5492,5205,-2390,-32,-295,-123,1,7,11
7.53E+02,-5266,5228,-2370,81,-283,32,1,7,11
7.61E+02,-5323,5214,-2307,-305,-294,-302,1,7,11
7.71E+02,-5658,5184,-1946,-371,-381,-359,1,7,11
7.77E+02,-5712,5151,-2151,-347,-558,-136,1,7,11
7.78E+02,-5708,5160,-1928,-332,-455,-154,1,7,11
7.81E+02,-5718,5124,-2149,-137,-503,-153,1,7,11
7.88E+02,-5719,4836,-2110,-159,-770,-160,1,7,11
8.00E+02,-5728,4847,-2078,-165,-499,-200,1,7,11
8.15E+02,-5731,4842,-1792,-195,-460,-518,1,7,11
8.32E+02,-5742,4846,-1779,-209,-402,-587,1,7,11
8.49E+02,-5529,4856,-1759,-220,-559,-402,1,7,11
8.63E+02,-5572,5124,-1743,-216,-206,-443,1,7,11
8.71E+02,-5614,5140,-1747,-213,-361,-455,1,7,11
8.71E+02,-5915,5135,-1726,-209,-264,-435,1,7,11
8.61E+02,-5945,5124,-1717,-175,58,-385,1,7,11
8.44E+02,-5951,4844,-1724,-374,99,-577,1,7,11
8.20E+02,-5958,4841,-1728,-308,123,-524,1,7,11
7.92E+02,-5934,4841,-1748,3,118,-201,1,7,11
7.69E+02,-5910,4841,-1753,37,89,-171,1,7,11
7.58E+02,-5612,4853,-1783,70,70,-152,1,7,11
7.61E+02,-5582,4823,-2059,31,78,-140,1,7,11
7.72E+02,-5567,4802,-2077,1,109,-153,1,7,11
7.88E+02,-5579,4807,-2081,-281,-106,-188,1,7,11
8.04E+02,-5609,4830,-2073,-321,-81,-227,1,7,11
8.18E+02,-5891,4851,-2066,-132,-81,-247,1,7,11
8.26E+02,-5903,4862,-2044,-212,-86,-240,1,7,11
8.27E+02,-5922,5128,-1766,-546,-86,-188,1,7,11
8.26E+02,-5930,5130,-1746,-604,-102,-141,1,7,11
8.27E+02,-5928,5126,-1719,-412,-124,-349,1,7,11
8.34E+02,-5930,5123,-1676,-431,97,-311,1,7,11
8.42E+02,-5952,5133,-1897,-429,64,-296,1,7,11
8.43E+02,-5986,5134,-1864,-438,0,-265,1,7,11
8.27E+02,-5997,5133,-1847,-422,-342,22,1,7,11
7.95E+02,-6008,5125,-1822,-402,-172,52,1,7,11
7.64E+02,-5989,5124,-1814,-617,-253,86,1,7,11
7.50E+02,-5974,5135,-1809,-570,-560,124,1,7,11
7.59E+02,-5967,5140,-1810,-527,-593,-91,1,7,11
7.73E+02,-5951,5151,-1818,-244,-595,-60,1,7,11
7.77E+02,-5931,5160,-1816,-235,-572,-41,1,7,11
7.62E+02,-5925,5152,-1805,-230,-538,-42,1,7,11
7.42E+02,-5898,5160,-1828,-223,-242,-56,1,7,11
7.33E+02,-5625,5157,-1831,-247,-166,-79,1,7,11
7.40E+02,-5608,5138,-1816,-525,-334,-104,1,7,11
7.51E+02,-5596,5130,-1828,-532,10,124,1,7,11
7.53E+02,-5597,4852,-1812,-557,126,93,1,7,11
7.39E+02,-5600,4851,-1801,-558,-22,59,1,7,11
7.17E+02,-5590,4846,-1802,-573,339,20,1,7,11
6.95E+02,-5598,4845,-1794,-590,198,-269,1,7,11
6.79E+02,-5616,4843,-1798,-611,553,-300,1,7,11
6.70E+02,-5906,4833,-1521,-638,632,-328,1,7,11
6.71E+02,-5931,4827,-1521,-638,405,-330,1,7,11
6.78E+02,-5961,4819,-1504,-628,411,-315,1,7,11
6.89E+02,-5972,4824,-1518,-591,385,-283,1,7,11
7.01E+02,-5979,4820,-1513,-546,606,30,1,7,11
7.14E+02,-5969,4829,-1530,-242,586,79,1,7,11
7.32E+02,-5976,4825,-1526,-214,588,117,1,7,11
7.56E+02,-5981,4843,-1531,-166,571,-119,1,7,11
7.81E+02,-5979,4854,-1805,-381,551,-111,1,7,11
8.03E+02,-5985,5121,-1807,-357,560,-118,1,7,11
8.16E+02,-5973,5128,-1820,-359,568,-119,1,7,11
8.20E+02,-5962,5134,-1832,-358,585,-115,1,7,11
8.16E+02,-5949,5144,-1838,-363,611,-104,1,7,11
8.05E+02,-5936,5149,-1852,-362,386,-90,1,7,11
7.92E+02,-5915,5157,-1857,-360,411,-70,1,7,11
7.82E+02,-5898,5180,-1876,-359,434,-51,1,7,11
7.83E+02,-5893,5183,-1880,-378,447,-38,1,7,11
7.94E+02,-5616,5200,-1900,-134,445,-31,1,7,11
8.08E+02,-5604,5221,-1670,-149,437,-23,1,7,11
8.19E+02,-5613,5224,-1904,-182,430,259,1,7,11
8.24E+02,-5612,5231,-1918,-209,398,286,1,7,11
8.25E+02,-5573,5228,-1679,-524,626,296,1,7,11
8.27E+02,-5535,5231,-1707,-577,634,301,1,7,11
8.33E+02,-5752,5001,-1751,-387,438,306,1,7,11
8.41E+02,-5738,5029,-1757,-491,805,326,1,7,11
8.48E+02,-5750,5028,-1675,-845,643,355,1,7,11
8.52E+02,-5729,5037,-1685,-802,858,132,1,7,11
8.48E+02,-5675,5089,-1743,-798,853,135,1,7,11
8.37E+02,-5641,5080,-1759,-869,666,141,1,7,11
8.17E+02,-5367,5059,-1752,-655,745,135,1,7,11
7.90E+02,-5359,5054,-1722,-665,1053,370,1,7,11
7.63E+02,-5363,5043,-1708,-891,1050,342,1,7,11
7.47E+02,-5374,5049,-1708,-840,761,296,1,7,11
7.44E+02,-5372,5051,-1707,-796,714,256,1,7,11
7.50E+02,-5634,5054,-1697,-493,669,-45,1,7,11
7.58E+02,-5657,5049,-1684,-456,876,-93,1,7,11
7.62E+02,-5658,5061,-1683,-403,803,120,1,7,11
7.59E+02,-5642,5079,-1700,-584,441,71,1,7,11
7.47E+02,-5640,5078,-1696,-536,597,58,1,7,11
7.25E+02,-5373,5096,-1702,-225,247,37,1,7,11
7.00E+02,-5349,5106,-1723,-169,142,25,1,7,11
6.78E+02,-5320,5114,-1760,-376,311,38,1,7,11
6.63E+02,-5303,5392,-1777,-328,258,53,1,7,11
6.53E+02,-5305,5409,-1781,-303,266,65,1,7,11
6.45E+02,-5298,5423,-1782,-299,275,77,1,7,11
6.40E+02,-5275,5438,-2052,-291,284,79,1,7,11
6.40E+02,-5266,5431,-2060,-312,306,75,1,7,11
6.43E+02,-5256,5425,-2067,-318,340,72,1,7,11
6.48E+02,-5256,5426,-2070,-326,382,67,1,7,11
6.56E+02,-5260,5426,-2065,-340,163,61,1,7,11
6.65E+02,-5265,5425,-2056,-347,182,53,1,7,11
6.76E+02,-5271,5429,-2059,-338,179,52,1,7,11
6.87E+02,-5260,5430,-2070,-326,166,62,1,7,11
6.98E+02,-5259,5421,-2081,-324,170,73,1,7,11
7.09E+02,-5260,5433,-2089,-333,169,87,1,7,11
7.21E+02,-5268,5435,-2094,-366,166,97,1,7,11
7.33E+02,-5274,5441,-2099,-134,155,113,1,7,11
7.45E+02,-5289,5458,-2102,-163,130,123,1,7,11
7.55E+02,-5298,5472,-2115,-231,353,-122,1,7,11
7.64E+02,-5443,5423,-2106,-475,379,82,1,7,11
7.72E+02,-5405,5425,-2107,-506,519,0,1,7,11
7.79E+02,-5398,5415,-2087,-796,631,-320,1,7,11
7.86E+02,-5415,5423,-2066,-792,473,-374,1,7,11
7.93E+02,-5442,5431,-1789,-510,798,-153,1,7,11
8.00E+02,-5484,5430,-1757,-467,825,-177,1,7,11
8.06E+02,-5259,5440,-1743,-399,794,-189,1,7,11
8.11E+02,-5279,5436,-1744,-588,490,-174,1,7,11
8.16E+02,-5305,5440,-1754,-516,442,-136,1,7,11
8.21E+02,-5319,5448,-1761,-188,384,-328,1,7,11
8.24E+02,-5319,5451,-1767,-375,578,16,1,7,11
8.27E+02,-5320,5477,-2059,-299,522,113,1,7,11
8.29E+02,-5298,5467,-2090,-269,224,-38,1,7,11
8.31E+02,-5283,5449,-2098,8,206,299,1,7,11
8.31E+02,-5264,5455,-2115,27,199,357,1,7,11
8.31E+02,-5478,5458,-2130,40,188,140,1,7,11
8.29E+02,-5429,5467,-2167,58,182,159,1,7,11
8.27E+02,-5390,5491,-1927,54,203,157,1,7,11
8.23E+02,-5115,5494,-1939,34,239,148,1,7,11
8.18E+02,-5110,5495,-1941,10,527,132,1,7,11
8.12E+02,-5106,5499,-1953,-262,547,379,1,7,11
8.04E+02,-5111,5501,-1932,-271,585,378,1,7,11
7.95E+02,-5385,5502,-2171,-262,582,381,1,7,11
7.86E+02,-5392,5261,-2163,7,553,135,1,7,11
7.79E+02,-5388,5259,-2161,24,248,151,1,7,11
7.72E+02,-5111,5259,-2166,53,190,165,1,7,11
7.64E+02,-5071,5281,-1944,90,137,176,1,7,11
7.55E+02,-5041,5300,-1976,108,373,184,1,7,11
7.45E+02,-5007,5306,-1995,102,378,191,1,7,11
7.35E+02,-5235,5297,-2005,98,145,189,1,7,11
7.26E+02,-5224,5297,-2027,107,177,175,1,7,11
7.19E+02,-5233,5311,-2027,121,214,161,1,7,11
7.13E+02,-5243,5316,-2031,-118,240,155,1,7,11
7.09E+02,-5246,5332,-2038,-99,250,161,1,7,11
7.05E+02,-4995,5344,-2042,-90,254,178,1,7,11
7.04E+02,-5237,5353,-2308,-82,248,207,1,7,11
7.03E+02,-5218,5360,-2312,-76,233,241,1,7,11
7.03E+02,-5181,5363,-2331,-65,214,529,1,7,11
7.03E+02,-5151,5640,-2354,-57,195,548,1,7,11
7.02E+02,-4852,5657,-2380,-71,179,555,1,7,11
7.02E+02,-4817,5677,-2395,-98,176,553,1,7,11
7.05E+02,-4792,5698,-2421,122,181,543,1,7,11
7.12E+02,-4772,5704,-2187,83,187,532,1,7,11
7.19E+02,-4752,5710,-2177,47,208,518,1,7,11
7.25E+02,-4744,5714,-2423,24,226,244,1,7,11
7.30E+02,-4983,5706,-2422,-260,236,228,1,7,11
7.35E+02,-4960,5695,-2414,-284,251,209,1,7,11
7.43E+02,-4951,5702,-2420,-280,521,180,1,7,11
7.50E+02,-4940,5711,-2432,-268,528,149,1,7,11
7.49E+02,-4934,5716,-2191,3,529,358,1,7,11
7.32E+02,-4928,5706,-2193,6,529,324,1,7,11
7.05E+02,-4925,5712,-2201,6,523,296,1,7,11
6.84E+02,-4930,5723,-2227,21,255,275,1,7,11
6.82E+02,-4942,5741,-2229,26,233,260,1,7,11
6.93E+02,-4934,5744,-2243,23,205,257,1,7,11
7.04E+02,-4919,5743,-2249,18,181,260,1,7,11
7.05E+02,-4908,5746,-2261,21,163,265,1,7,11
7.02E+02,-4887,5737,-2276,13,151,273,1,7,11
7.01E+02,-4869,5750,-2289,32,156,275,1,7,11
7.08E+02,-4874,5515,-2301,31,162,276,1,7,11
7.23E+02,-4865,5524,-2566,8,154,306,1,7,11
7.43E+02,-4605,5523,-2567,4,154,319,1,7,11
7.68E+02,-4605,5525,-2565,-261,148,341,1,7,11
7.92E+02,-4601,5525,-2562,-268,134,358,1,7,11
8.11E+02,-4589,5527,-2567,-267,369,371,1,7,11
8.24E+02,-4575,5514,-2572,-263,350,374,1,7,11
8.30E+02,-4573,5517,-2579,18,333,372,1,7,11
8.32E+02,-4582,5526,-2578,37,316,369,1,7,11
8.32E+02,-4583,5532,-2572,47,290,366,1,7,11
8.29E+02,-4867,5536,-2304,64,-7,361,1,7,11
8.22E+02,-4590,5527,-2303,85,-97,381,1,7,11
8.11E+02,-4536,5536,-2574,124,86,137,1,7,11
7.97E+02,-4488,5571,-2608,-107,50,133,1,7,11
7.84E+02,-4700,5585,-2625,-124,62,372,1,7,11
7.76E+02,-4680,5587,-2629,103,102,338,1,7,11
7.75E+02,-4669,5593,-2618,66,-104,293,1,7,11
7.77E+02,-4666,5598,-2621,36,-64,-7,1,7,11
7.79E+02,-4672,5593,-2610,0,-19,-48,1,7,11
7.78E+02,-4697,5596,-2599,-275,277,-76,1,7,11
7.78E+02,-4701,5608,-2597,-279,301,-91,1,7,11
7.79E+02,-4693,5615,-2600,-283,314,-69,1,7,11
7.83E+02,-4698,5627,-2605,-291,346,-36,1,7,11
7.87E+02,-4703,5631,-2604,-307,361,256,1,7,11
7.88E+02,-4699,5891,-2597,-324,368,289,1,7,11
7.82E+02,-4706,5628,-2608,-340,370,312,1,7,11
7.69E+02,-4697,5606,-2609,-353,358,317,1,7,11
7.49E+02,-4690,5604,-2610,-344,342,301,1,7,11
7.21E+02,-4672,5605,-2619,-335,318,277,1,7,11
6.96E+02,-4645,5611,-2629,-322,300,-8,1,7,11
6.84E+02,-4615,5612,-2639,-320,299,-32,1,7,11
6.89E+02,-4350,5614,-2649,-319,315,-61,1,7,11
7.02E+02,-4612,5624,-2652,-321,333,-89,1,7,11
7.12E+02,-4629,5893,-2646,-330,336,-116,1,7,11
7.13E+02,-4638,5895,-2631,-346,326,124,1,7,11
7.13E+02,-4631,5893,-2621,-350,310,119,1,7,11
7.19E+02,-4625,5888,-2618,-341,303,111,1,7,11
7.31E+02,-4623,5895,-2610,-320,296,112,1,7,11
7.43E+02,-4619,5900,-2613,-307,290,117,1,7,11
7.50E+02,-4609,5889,-2606,-297,282,123,1,7,11
7.50E+02,-4345,5893,-2615,-270,271,-124,1,7,11
7.47E+02,-4329,5891,-2633,13,265,-116,1,7,11
7.42E+02,-4323,5889,-2638,37,268,-113,1,7,11
7.39E+02,-4325,5905,-2650,64,272,-118,1,7,11
7.39E+02,-4326,5909,-2659,73,270,-120,1,7,11
7.45E+02,-4327,5912,-2670,79,260,122,1,7,11
7.56E+02,-4336,5918,-2677,75,-8,104,1,7,11
7.67E+02,-4334,5923,-2688,64,-29,88,1,7,11
7.75E+02,-4327,5920,-2441,49,-48,83,1,7,11
7.79E+02,-4321,5915,-2447,38,-56,80,1,7,11
7.85E+02,-4331,5914,-2434,27,-57,82,1,7,11
7.98E+02,-4341,5910,-2434,13,-63,90,1,7,11
8.18E+02,-4331,5908,-2439,4,-75,91,1,7,11
8.39E+02,-4305,5908,-2444,-260,-89,91,1,7,11
8.55E+02,-4299,5908,-2441,-282,-72,89,1,7,11
8.60E+02,-4299,5902,-2681,-291,-54,82,1,7,11
8.56E+02,-4313,5899,-2666,-289,-42,74,1,7,11
8.43E+02,-4318,5893,-2655,-277,-51,80,1,7,11
8.26E+02,-4307,5890,-2669,16,-70,93,1,7,11
8.06E+02,-4305,5895,-2688,45,-68,100,1,7,11
7.89E+02,-4315,5907,-2685,59,-59,109,1,7,11
7.76E+02,-4325,5916,-2677,63,-52,110,1,7,11
7.71E+02,-4323,5909,-2679,57,-63,107,1,7,11
7.70E+02,-4304,5901,-2436,57,-75,94,1,7,11
7.72E+02,-4292,5894,-2451,66,-85,73,1,7,11
7.77E+02,-4279,5893,-2467,72,-79,53,1,7,11
7.84E+02,-4283,5905,-2467,69,-62,40,1,7,11
7.92E+02,-4298,5909,-2468,48,-52,38,1,7,11
8.00E+02,-4295,5903,-2478,36,-58,49,1,7,11
8.07E+02,-4296,5891,-2484,22,-54,62,1,7,11
8.10E+02,-4300,5890,-2486,19,-40,75,1,7,11
8.07E+02,-4320,5626,-2482,14,-17,79,1,7,11
8.00E+02,-4306,5624,-2496,29,-9,84,1,7,11
7.94E+02,-4321,5904,-2477,36,271,84,1,7,11
7.89E+02,-4337,5928,-2465,38,263,104,1,7,11
7.86E+02,-4325,5910,-2475,11,-4,-118,1,7,11
7.84E+02,-4304,5620,-2497,-266,275,-102,1,7,11
7.84E+02,-4251,5622,-2525,-269,317,-111,1,7,11
7.83E+02,-4229,5626,-2526,-330,175,114,1,7,11
7.82E+02,-4237,5896,-2498,-357,529,80,1,7,11
7.81E+02,-4468,5951,-2551,-331,573,97,1,7,11
7.80E+02,-4234,5907,-2505,-378,616,-127,1,7,11
7.80E+02,-4245,5913,-2518,-329,595,-108,1,7,11
7.85E+02,-4257,5927,-2518,-313,548,-107,1,7,11
7.92E+02,-4249,5947,-2547,-290,228,-113,1,7,11
7.96E+02,-4248,5953,-2535,-295,168,-113,1,7,11
7.90E+02,-4229,5954,-2536,-290,350,-95,1,7,11
7.74E+02,-4236,5939,-2525,-288,285,-79,1,7,11
7.54E+02,-4281,5924,-2466,-271,-35,-65,1,7,11
7.40E+02,-4307,5922,-2677,55,86,-50,1,7,11
7.34E+02,-4285,5910,-2672,-116,-345,-39,1,7,11
7.35E+02,-4234,5912,-2447,-2,-245,-42,1,7,11
7.38E+02,-4448,5936,-2504,349,-578,-33,1,7,11
7.41E+02,-4432,5937,-2539,365,-558,-8,1,7,11
7.44E+02,-4437,5909,-2523,359,-252,275,1,7,11
7.50E+02,-4455,5909,-2541,373,-235,271,1,7,11
7.57E+02,-4456,5629,-2824,339,-223,258,1,7,11
7.65E+02,-4449,5616,-2839,284,-174,-46,1,7,11
7.74E+02,-4465,5630,-2844,-26,-377,-110,1,7,11
7.81E+02,-4470,5892,-2846,-94,-343,92,1,7,11
7.83E+02,-4480,5898,-2866,81,-304,44,1,7,11
7.79E+02,-4471,5901,-2858,-266,-265,4,1,7,11
7.66E+02,-4226,5625,-2828,-339,33,-286,1,7,11
7.52E+02,-4230,5897,-2825,-370,54,-326,1,7,11
7.45E+02,-4242,5909,-2551,-162,79,-352,1,7,11
7.48E+02,-4263,5910,-2494,-196,77,-365,1,7,11
7.59E+02,-4289,5898,-2433,-182,15,-371,1,7,11
7.72E+02,-4299,5912,-2665,-355,-365,-370,1,7,11
7.84E+02,-4309,5900,-2606,-264,-244,-362,1,7,11
7.94E+02,-4330,5897,-2597,111,-638,-362,1,7,11
8.02E+02,-4317,5621,-2595,-34,-778,-364,1,7,11
8.09E+02,-4285,5626,-2617,343,-880,-359,1,7,11
8.14E+02,-4271,5614,-2648,209,-683,-337,1,7,11
8.15E+02,-4269,5583,-2656,528,-676,-314,1,7,11
8.10E+02,-4287,5577,-2673,589,-894,-319,1,7,11
8.01E+02,-4314,5574,-2446,637,-833,-338,1,7,11
7.93E+02,-4335,5555,-2467,391,-791,-367,1,7,11
7.88E+02,-4351,5529,-2473,395,-499,-149,1,7,11
7.88E+02,-4618,5759,-2488,419,-478,-195,1,7,11
7.93E+02,-4645,5744,-2493,436,-458,-243,1,7,11
8.01E+02,-4674,5725,-2503,453,-459,-541,1,7,11
8.11E+02,-4690,5690,-2514,487,-486,-576,1,7,11
8.19E+02,-4717,5675,-2536,796,-779,-613,1,7,11
8.24E+02,-4500,5670,-2537,851,-830,-632,1,7,11
8.23E+02,-4530,5664,-2828,876,-889,-390,1,7,11
8.16E+02,-4568,5374,-2830,859,-665,-400,1,7,11
8.03E+02,-4607,5347,-2831,849,-704,-420,1,7,11
7.83E+02,-4885,5343,-2870,813,-727,-445,1,7,11
7.63E+02,-4881,5308,-2920,463,-686,-469,1,7,11
7.49E+02,-4903,5266,-2925,604,-833,-491,1,7,11
7.46E+02,-4918,5266,-2698,170,-573,-488,1,7,11
7.52E+02,-4972,5282,-2941,-4,-321,-475,1,7,11
7.59E+02,-4773,5481,-2856,88,-108,-428,1,7,11
7.62E+02,-4809,5443,-2526,60,-36,-391,1,7,11
7.60E+02,-4800,5467,-2535,-102,-102,-622,1,7,11
7.59E+02,-4813,5497,-2547,-19,53,-603,1,7,11
7.63E+02,-4846,5264,-2550,288,-321,-577,1,7,11
7.68E+02,-5122,5264,-2550,332,-220,-523,1,7,11
7.69E+02,-5121,5493,-2557,359,-615,-230,1,7,11
7.61E+02,-4848,5498,-2846,358,-431,-212,1,7,11
7.47E+02,-4836,5443,-2830,300,-434,-188,1,7,11
7.34E+02,-4819,5419,-2836,261,-394,-184,1,7,11
7.32E+02,-4842,5412,-2820,-27,-594,-173,1,7,11
7.40E+02,-4850,5430,-2833,-32,-570,-145,1,7,11
7.52E+02,-5122,5436,-2834,-70,-531,-372,1,7,11
7.63E+02,-5146,5414,-2550,-113,-237,-340,1,7,11
7.71E+02,-5145,5397,-2528,-121,-240,-311,1,7,11
7.78E+02,-5161,5099,-2475,-121,-521,-295,1,7,11
7.85E+02,-5162,5055,-2505,-81,-599,-303,1,7,11
7.91E+02,-5139,5066,-2536,-36,-418,-343,1,7,11
7.92E+02,-5142,5071,-2538,-47,-440,-137,1,7,11
7.84E+02,-5159,5077,-2524,-85,-426,-186,1,7,11
7.69E+02,-5175,5091,-2516,-125,-418,-231,1,7,11
7.55E+02,-5204,5069,-2485,67,-410,-519,1,7,11
7.51E+02,-5016,5021,-2661,-281,-396,-588,1,7,11
7.59E+02,-5064,5051,-2641,-288,-460,-403,1,7,11
7.74E+02,-5083,5058,-2632,-290,-864,-459,1,7,11
7.91E+02,-5100,5043,-2615,-323,-643,-485,1,7,11
8.06E+02,-5382,5016,-2581,-360,-892,-498,1,7,11
8.15E+02,-5417,5238,-2259,-375,-887,-499,1,7,11
8.17E+02,-5442,5208,-2231,-351,-657,-496,1,7,11
8.11E+02,-5463,5197,-2201,-310,-691,-498,1,7,11
7.99E+02,-5477,5178,-2429,2,-737,-492,1,7,11
7.85E+02,-5458,5136,-2188,85,-1039,-486,1,7,11
7.72E+02,-5454,4840,-2183,-53,-1046,-502,1,7,11
7.62E+02,-5490,4842,-2185,361,-1051,-780,1,7,11
7.57E+02,-5253,4858,-2215,245,-1065,-793,1,7,11
7.58E+02,-5504,5124,-2224,591,-1054,-785,1,7,11
7.63E+02,-5356,4811,-2421,403,-1039,-796,1,7,11
7.68E+02,-5652,4802,-2215,503,-1134,-813,1,7,11
7.69E+02,-5656,4820,-2294,768,-912,-846,1,7,11
7.67E+02,-5720,4790,-2272,459,-1121,-838,1,7,11
7.67E+02,-5524,4743,-2269,633,-1082,-814,1,7,11
7.71E+02,-5571,4984,-2249,529,-1031,-820,1,7,11
7.76E+02,-5611,4970,-2225,206,-761,-796,1,7,11
7.75E+02,-5938,4747,-2395,369,-720,-771,1,7,11
7.61E+02,-5699,4756,-2444,164,-740,-606,1,7,11
7.38E+02,-5574,4580,-2246,56,-600,-591,1,7,11
7.20E+02,-5587,4551,-2185,44,-238,-587,1,7,11
7.18E+02,-5624,4595,-2416,22,-183,-398,1,7,11
7.31E+02,-5906,4592,-2413,-307,-130,-395,1,7,11
7.47E+02,-5909,4604,-2404,-368,-323,-634,1,7,11
7.58E+02,-5938,4577,-2356,-202,-265,-612,1,7,11
7.63E+02,-5962,4542,-2336,-236,-283,-597,1,7,11
7.65E+02,-5988,4503,-2313,-232,-318,-580,1,7,11
7.68E+02,-5998,4518,-2321,-186,-378,-551,1,7,11
7.68E+02,-5992,4509,-2048,-176,-162,-251,1,7,11
7.63E+02,-5997,4544,-2309,-147,-180,-212,1,7,11
7.48E+02,-6002,4555,-2046,-139,-184,-177,1,7,11
7.26E+02,-5998,4546,-2037,-159,-173,-147,1,7,11
7.09E+02,-5995,4558,-2028,-161,-153,-130,1,7,11
7.04E+02,-5996,4572,-2021,-167,-380,-132,1,7,11
7.11E+02,-5996,4581,-2012,-176,-356,-151,1,7,11
7.21E+02,-5995,4568,-1996,-210,-335,-199,1,7,11
7.30E+02,-5996,4552,-1975,-243,-293,-241,1,7,11
7.36E+02,-5988,4534,-1967,-254,-267,-534,1,7,11
7.41E+02,-5994,4499,-1937,-518,31,-569,1,7,11
7.47E+02,-5777,4495,-2157,-239,75,-621,1,7,11
7.52E+02,-5809,4500,-2150,-226,79,-395,1,7,11
7.55E+02,-5842,4733,-2152,-221,76,-395,1,7,11
7.53E+02,-5852,4717,-2170,-216,76,-620,1,7,11
7.50E+02,-5863,4706,-1923,-226,114,-562,1,7,11
7.47E+02,-5878,4684,-1926,-244,-92,-247,1,7,11
7.48E+02,-5888,4680,-1936,-517,-44,-191,1,7,11
7.51E+02,-6145,4674,-1945,-544,272,-138,1,7,11
7.55E+02,-5888,4688,-1963,-608,356,-355,1,7,11
7.60E+02,-5887,4691,-1969,-442,215,-336,1,7,11
7.65E+02,-6153,4687,-1937,-798,597,-340,1,7,11
7.70E+02,-6165,4695,-2164,-873,444,-373,1,7,11
7.76E+02,-6177,4675,-2126,-695,775,-178,1,7,11
7.81E+02,-6181,4652,-2096,-749,810,-242,1,7,11
7.83E+02,-6226,4663,-2091,-724,804,-547,1,7,11
7.80E+02,-6252,4660,-2080,-680,460,-550,1,7,11
7.72E+02,-6253,4671,-2115,-651,629,-247,1,7,11
7.59E+02,-6224,4664,-2160,-685,622,-174,1,7,11
7.44E+02,-6208,4641,-2147,-764,454,-344,1,7,11
7.30E+02,-6195,4624,-2104,-1029,505,-259,1,7,11
7.21E+02,-6149,4658,-2137,-700,470,42,1,7,11
7.21E+02,-5836,4498,-1954,-647,442,79,1,7,11
7.27E+02,-5782,4496,-1941,-708,469,117,1,7,11
7.34E+02,-5779,4527,-1951,-703,485,-121,1,7,11
7.36E+02,-5792,4530,-1924,-745,481,-109,1,7,11
7.36E+02,-5796,4546,-2157,-747,414,-116,1,7,11
7.37E+02,-5788,4565,-2155,-742,572,108,1,7,11
7.41E+02,-5790,4591,-2135,-746,218,51,1,7,11
7.46E+02,-5780,4590,-2119,-763,358,-283,1,7,11
7.46E+02,-5796,4568,-2088,-1043,-27,-173,1,7,11
7.40E+02,-5799,4607,-2085,-1029,44,-630,1,7,11
7.29E+02,-5761,4952,-2150,-1025,-144,-781,1,7,11
7.21E+02,-5776,4910,-2079,-1102,-235,-845,1,7,11
7.18E+02,-5811,4909,-1791,-1061,-583,-858,1,7,11
7.20E+02,-5824,4882,-1736,-1041,-416,-843,1,7,11
7.25E+02,-5837,4591,-1670,-745,-499,-846,1,7,11
7.30E+02,-5811,4868,-1687,-671,-819,-821,1,7,11
7.36E+02,-5816,4564,-1881,-664,-813,-777,1,7,11
7.42E+02,-5826,4563,-1860,-860,-796,-478,1,7,11
7.49E+02,-5855,4584,-1827,-830,-496,-447,1,7,11
7.56E+02,-5876,4589,-1801,-827,-444,-411,1,7,11
7.64E+02,-6146,4593,-1534,-828,-639,-387,1,7,11
7.74E+02,-6155,4600,-1528,-837,-554,-623,1,7,11
7.81E+02,-6157,4585,-1510,-850,-207,-593,1,7,11
7.83E+02,-6151,4566,-1494,-838,-369,-552,1,7,11
7.76E+02,-6181,4524,-1436,-831,-268,-524,1,7,11
7.67E+02,-6208,4507,-1658,-769,31,-244,1,7,11
7.61E+02,-6231,4493,-1596,-438,33,-206,1,7,11
7.64E+02,-6034,4483,-1569,-605,17,-175,1,7,11
7.72E+02,-6055,4725,-1566,-256,-317,-142,1,7,11
7.81E+02,-6045,4735,-1575,-169,-184,-368,1,7,11
7.86E+02,-6030,4490,-1589,-304,-221,-325,1,7,11
7.87E+02,-6020,4510,-1598,22,-235,-278,1,7,11
7.87E+02,-6270,4534,-1598,83,-247,20,1,7,11
7.88E+02,-6031,4549,-1576,-111,-529,54,1,7,11
7.88E+02,-6271,4565,-1593,-53,-563,70,1,7,11
7.84E+02,-6253,4583,-1599,-39,-526,91,1,7,11
7.73E+02,-6236,4575,-1596,-79,-153,114,1,7,11
7.56E+02,-6255,4535,-1566,-121,17,-127,1,7,11
7.39E+02,-6032,4501,-1545,124,-86,123,1,7,11
7.29E+02,-6037,4722,-1558,-122,277,102,1,7,11
7.26E+02,-6268,4696,-1568,-88,361,72,1,7,11
7.26E+02,-6031,4705,-1595,-51,204,21,1,7,11
7.24E+02,-6100,4695,-1576,-56,540,-284,1,7,11
7.21E+02,-6134,4667,-1568,-34,526,-323,1,7,11
7.21E+02,-6429,4658,-1597,-1,237,-366,1,7,11
7.26E+02,-6445,4617,-1602,-1,213,-379,1,7,11
7.34E+02,-6452,4342,-1635,267,200,-148,1,7,11
7.42E+02,-6462,4341,-1655,269,190,-143,1,7,11
7.47E+02,-6461,4349,-1662,290,166,-344,1,7,11
7.48E+02,-6494,4615,-1657,297,139,-280,1,7,11
7.45E+02,-6501,4616,-1413,293,323,35,1,7,11
7.40E+02,-6488,4621,-1422,272,-20,69,1,7,11
7.36E+02,-6457,4622,-1434,-25,-102,84,1,7,11
7.38E+02,-6432,4624,-1451,-49,87,90,1,7,11
7.49E+02,-6414,4638,-1460,-88,49,97,1,7,11
7.66E+02,-6403,4647,-1467,-123,21,104,1,7,11
7.82E+02,-6407,4645,-1461,105,0,108,1,7,11
7.93E+02,-6410,4649,-1451,88,-285,113,1,7,11
7.96E+02,-6404,4643,-1443,85,-323,112,1,7,11
7.93E+02,-6140,4647,-1428,96,-356,117,1,7,11
7.83E+02,-6133,4641,-1413,122,-378,-125,1,7,11
7.67E+02,-6132,4653,-1413,-112,-136,-106,1,7,11
7.46E+02,-6126,4649,-1658,-108,-145,-82,1,7,11
7.21E+02,-6103,4644,-1428,-84,-152,-70,1,7,11
6.97E+02,-6099,4662,-1444,-61,-133,-64,1,7,11
6.83E+02,-6087,4682,-1486,-62,-353,-67,1,7,11
6.84E+02,-6057,4690,-1495,-112,-277,-85,1,7,11
7.01E+02,-6017,4704,-1498,99,79,-102,1,7,11
7.28E+02,-6257,4721,-1506,71,-81,-120,1,7,11
7.62E+02,-6241,4732,-1509,47,298,127,1,7,11
7.96E+02,-6243,4728,-1506,16,370,112,1,7,11
8.26E+02,-6266,4719,-1485,-260,148,86,1,7,11
8.43E+02,-6027,4705,-1473,12,363,53,1,7,11
8.44E+02,-6271,4708,-1490,49,279,28,1,7,11
8.33E+02,-6263,4716,-1500,82,-34,24,1,7,11
8.14E+02,-6271,4708,-1512,88,-64,25,1,7,11
7.82E+02,-6017,4715,-1529,92,-87,28,1,7,11
7.29E+02,-6031,4692,-1504,71,-96,36,1,7,11
6.52E+02,-6048,4711,-1509,92,-118,41,1,7,11
5.85E+02,-6073,4707,-1509,66,116,51,1,7,11
5.66E+02,-6114,4685,-1487,46,76,61,1,7,11
5.92E+02,-6128,4685,-1473,40,42,72,1,7,11
6.32E+02,-6403,4671,-1455,46,1,90,1,7,11
6.73E+02,-6144,4646,-1447,54,-297,123,1,7,11
7.08E+02,-6405,4612,-1419,57,-318,-104,1,7,11
7.33E+02,-6407,4342,-1417,76,-347,-96,1,7,11
7.33E+02,-6134,4333,-1422,91,-376,-107,1,7,11
7.00E+02,-6111,4342,-1440,99,-383,122,1,7,11
6.63E+02,-6094,4609,-1441,79,-359,86,1,7,11
6.35E+02,-6084,4348,-1445,52,-325,36,1,7,11
6.06E+02,-6084,4609,-1441,30,-283,-272,1,7,11
5.72E+02,-6111,4617,-1447,2,17,-331,1,7,11
5.57E+02,-6403,4618,-1425,-285,46,-382,1,7,11
5.57E+02,-6424,4644,-1420,-289,43,-150,1,7,11
5.59E+02,-6436,4639,-1418,-304,39,-133,1,7,11
5.56E+02,-6447,4348,-1650,-293,42,-355,1,7,11
5.47E+02,-6448,4340,-1643,30,47,-306,1,7,11
5.37E+02,-6459,4339,-1638,118,46,7,1,7,11
5.34E+02,-6459,4306,-1620,-75,19,58,1,7,11
5.43E+02,-6447,4298,-1637,275,-274,106,1,7,11
5.57E+02,-6439,4323,-1413,346,-302,-116,1,7,11
5.69E+02,-6403,4321,-1457,355,-316,-92,1,7,11
5.81E+02,-6126,4317,-1474,365,-296,-85,1,7,11
5.96E+02,-6116,4351,-1514,363,-260,-91,1,7,11
6.09E+02,-6112,4638,-1794,321,48,-99,1,7,11
6.14E+02,-6135,4648,-1528,-20,109,-118,1,7,11
6.06E+02,-6133,4654,-1531,-101,-108,117,1,7,11
5.88E+02,-6130,4659,-1526,71,-67,96,1,7,11
5.63E+02,-6123,4651,-1520,1,-21,84,1,7,11
5.35E+02,-6122,4644,-1513,-307,275,99,1,7,11
5.05E+02,-6123,4637,-1500,-343,318,109,1,7,11
4.75E+02,-6110,4646,-1497,-361,324,122,1,7,11
4.48E+02,-6096,4632,-1478,-381,334,-111,1,7,11
4.22E+02,-6081,4629,-1476,-380,343,-96,1,7,11
3.99E+02,-6062,4629,-1474,-129,345,-98,1,7,11
3.79E+02,-6052,4639,-1471,-374,350,-107,1,7,11
3.71E+02,-6033,4664,-1481,-380,351,-125,1,7,11
3.86E+02,-6044,4679,-1461,-142,366,108,1,7,11
4.29E+02,-6240,4719,-1802,-331,316,-118,1,7,11
4.95E+02,-6048,4704,-1507,-147,380,-121,1,7,11
5.72E+02,-6071,4712,-1488,-169,128,-125,1,7,11
6.46E+02,-6088,4726,-1480,-189,366,118,1,7,11
7.03E+02,-6088,4481,-1485,-219,349,112,1,7,11
7.32E+02,-6077,4717,-1464,-252,366,117,1,7,11
7.39E+02,-6087,4713,-1443,-514,136,126,1,7,11
7.27E+02,-6085,4708,-1432,-519,153,-113,1,7,11
7.01E+02,-6079,4680,-1416,-517,168,-101,1,7,11
6.67E+02,-6079,4661,-1660,-236,179,-99,1,7,11
6.35E+02,-6089,4642,-1652,-202,178,-105,1,7,11
6.14E+02,-6090,4644,-1662,-144,148,-114,1,7,11
6.05E+02,-6078,4653,-1424,-348,367,-122,1,7,11
5.99E+02,-6077,4662,-1447,-305,337,122,1,7,11
5.91E+02,-6064,4652,-1472,-266,305,119,1,7,11
5.84E+02,-6057,4657,-1495,12,287,104,1,7,11
5.81E+02,-6268,4649,-1848,6,288,78,1,7,11
5.81E+02,-6186,4674,-1712,-354,165,1,1,7,11
5.82E+02,-6261,4677,-1832,-247,406,-274,1,7,11
5.84E+02,-6069,4704,-1495,-170,384,37,1,7,11
5.88E+02,-6057,4512,-1820,-361,247,81,1,7,11
5.95E+02,-6083,4485,-1516,-144,161,-127,1,7,11
5.98E+02,-6075,4494,-1521,-142,295,-112,1,7,11
5.93E+02,-6047,4724,-1799,-152,-57,-117,1,7,11
5.89E+02,-6248,4725,-1884,-174,-77,107,1,7,11
5.98E+02,-6195,4488,-1702,-565,339,65,1,7,11
6.20E+02,-6196,4480,-1878,-459,574,32,1,7,11
6.37E+02,-6206,4496,-1803,-480,434,1,1,7,11
6.33E+02,-6229,4500,-1536,-452,446,-279,1,7,11
6.17E+02,-6239,4505,-1520,-406,400,-291,1,7,11
6.06E+02,-6245,4496,-1515,-604,587,-303,1,7,11
6.04E+02,-6249,4484,-1510,-545,249,-312,1,7,11
5.99E+02,-6255,4730,-1504,-223,156,-312,1,7,11
5.83E+02,-6255,4723,-1501,-140,303,-305,1,7,11
5.74E+02,-6244,4720,-1525,-309,-58,-290,1,7,11
5.93E+02,-6237,4713,-1801,16,114,-274,1,7,11
6.24E+02,-6231,4716,-1831,69,65,-259,1,7,11
6.28E+02,-6235,4716,-1860,93,41,3,1,7,11
5.93E+02,-6247,4726,-1878,79,47,3,1,7,11
5.62E+02,-6256,4729,-1880,51,62,8,1,7,11
5.72E+02,-6265,4493,-1893,38,70,27,1,7,11
6.03E+02,-6270,4513,-1911,20,78,76,1,7,11
6.21E+02,-6246,4523,-1702,7,87,-102,1,7,11
6.16E+02,-6218,4535,-1789,-327,-77,-40,1,7,11
6.03E+02,-6206,4531,-2052,-542,133,-36,1,7,11
5.92E+02,-6208,4493,-1742,-508,605,-74,1,7,11
5.84E+02,-6212,4502,-1712,-675,771,119,1,7,11
5.75E+02,-6236,4504,-1916,-1070,877,78,1,7,11
5.68E+02,-6226,4506,-1880,-906,653,55,1,7,11
5.64E+02,-6205,4507,-1846,-954,653,11,1,7,11
5.68E+02,-6196,4495,-1809,-971,888,-306,1,7,11
5.86E+02,-6182,4481,-1798,-956,867,-372,1,7,11
6.19E+02,-6176,4734,-1794,-924,854,-183,1,7,11
6.49E+02,-6160,4485,-1794,-1141,859,-234,1,7,11
6.59E+02,-6168,4485,-1510,-1111,894,-514,1,7,11
6.50E+02,-6187,4723,-1483,-1026,881,-256,1,7,11
6.41E+02,-6203,4713,-1472,-665,839,-244,1,7,11
6.44E+02,-6196,4701,-1481,-808,788,-236,1,7,11
6.51E+02,-6198,4697,-1485,-443,479,-243,1,7,11
6.43E+02,-6215,4689,-1478,-617,437,-524,1,7,11
6.23E+02,-6204,4721,-1505,-239,611,-541,1,7,11
6.12E+02,-6208,4490,-1524,-165,562,-557,1,7,11
6.28E+02,-6214,4480,-1534,-357,518,-556,1,7,11
6.52E+02,-6221,4735,-1806,-283,205,-565,1,7,11
6.55E+02,-6235,4494,-1827,50,143,-568,1,7,11
6.30E+02,-6245,4486,-1847,114,332,-566,1,7,11
6.07E+02,-6268,4498,-1863,-70,270,-551,1,7,11
6.16E+02,-6030,4520,-1895,-12,-57,-255,1,7,11
6.41E+02,-6050,4505,-1670,-12,-96,-203,1,7,11
6.53E+02,-6096,4720,-1665,-58,-97,-155,1,7,11
6.37E+02,-6082,4698,-1920,-92,-124,-337,1,7,11
6.10E+02,-6072,4711,-1667,-74,71,-280,1,7,11
5.92E+02,-6067,4710,-1665,-65,38,35,1,7,11
5.87E+02,-6053,4700,-1672,-86,-260,99,1,7,11
5.94E+02,-6035,4689,-1673,-95,-311,-102,1,7,11
6.05E+02,-6258,4668,-1665,-118,-348,-71,1,7,11
6.13E+02,-6209,4680,-1699,-122,-358,-66,1,7,11
6.17E+02,-6192,4672,-1697,80,-308,-78,1,7,11
6.19E+02,-6185,4652,-1682,28,6,-110,1,7,11
6.21E+02,-6177,4659,-1695,-268,61,89,1,7,11
6.24E+02,-6190,4652,-1674,-320,-127,36,1,7,11
6.23E+02,-6213,4660,-1913,-353,-71,-262,1,7,11
6.20E+02,-6240,4669,-1912,-371,-35,-276,1,7,11
6.15E+02,-6269,4663,-1887,-131,-13,-271,1,7,11
6.11E+02,-6054,4657,-1886,-376,-16,16,1,7,11
6.06E+02,-6070,4684,-1901,-357,-38,52,1,7,11
5.99E+02,-6075,4649,-1862,-143,-19,96,1,7,11
5.88E+02,-6069,4666,-1860,-373,-30,-126,1,7,11
5.72E+02,-6043,4689,-1885,-309,-79,-89,1,7,11
5.50E+02,-6027,4685,-1877,-277,-108,-60,1,7,11
5.24E+02,-6243,4708,-1920,12,-110,-59,1,7,11
5.04E+02,-6222,4723,-1674,-264,-67,-65,1,7,11
4.93E+02,-6210,4714,-1673,-291,-26,-75,1,7,11
4.89E+02,-6210,4723,-1681,-313,281,-96,1,7,11
4.88E+02,-6217,4728,-1669,-353,328,-128,1,7,11
4.88E+02,-6230,4728,-1908,-133,348,90,1,7,11
4.89E+02,-6220,4718,-1903,-159,344,45,1,7,11
4.92E+02,-6219,4691,-1886,-180,342,7,1,7,11
4.96E+02,-6215,4686,-1886,-171,337,-283,1,7,11
5.02E+02,-6211,4693,-1893,-155,323,-318,1,7,11
5.09E+02,-6208,4687,-1894,-148,311,-348,1,7,11
5.15E+02,-6194,4677,-1897,-379,292,-374,1,7,11
5.21E+02,-6191,4695,-1912,-348,283,-151,1,7,11
5.26E+02,-6194,4699,-1672,-335,278,-166,1,7,11
5.30E+02,-6210,4697,-1684,-319,273,-167,1,7,11
5.34E+02,-6241,4689,-1696,-307,259,-155,1,7,11
5.38E+02,-6269,4687,-1695,-293,-35,-135,1,7,11
5.42E+02,-6044,4698,-1699,-292,-93,-357,1,7,11
5.46E+02,-6042,4685,-1701,-308,98,-319,1,7,11
5.50E+02,-6039,4685,-1693,-317,51,-288,1,7,11
5.53E+02,-6039,4686,-1689,-346,20,-262,1,7,11
5.55E+02,-6045,4662,-1913,-370,-264,7,1,7,11
5.56E+02,-6031,4658,-1906,-356,-313,1,1,7,11
5.54E+02,-6019,4662,-1896,-342,-355,-269,1,7,11
5.50E+02,-6266,4658,-1889,-337,-374,-284,1,7,11
5.42E+02,-6265,4656,-1877,-344,-134,-303,1,7,11
5.32E+02,-6017,4656,-1848,-336,-161,-326,1,7,11
5.21E+02,-6025,4651,-1838,-300,-189,-327,1,7,11
5.09E+02,-6024,4649,-1844,-280,-194,-328,1,7,11
4.95E+02,-6050,4635,-1805,-267,-189,-326,1,7,11
4.78E+02,-6067,4643,-1809,35,-214,-319,1,7,11
4.54E+02,-6076,4638,-1811,43,-222,-308,1,7,11
4.24E+02,-6086,4627,-1533,58,-219,-295,1,7,11
3.92E+02,-6086,4626,-1531,84,-220,-282,1,7,11
3.61E+02,-6085,4617,-1531,98,-203,-278,1,7,11
3.31E+02,-6091,4622,-1525,114,-177,-277,1,7,11
3.04E+02,-6103,4637,-1804,121,-147,-269,1,7,11
2.81E+02,-6116,4657,-1520,-83,-146,55,1,7,11
2.62E+02,-6089,4673,-1837,-127,-350,111,1,7,11
2.52E+02,-6115,4623,-1532,58,20,-95,1,7,11
2.53E+02,-6105,4643,-1808,54,81,-79,1,7,11
2.58E+02,-6099,4654,-1826,21,-88,-58,1,7,11
2.60E+02,-6096,4650,-1817,-283,269,-41,1,7,11
2.93E+02,-6102,4646,-1526,-332,371,-24,1,7,11
3.87E+02,-6098,4639,-1506,-348,141,-24,1,7,11
4.83E+02,-6089,4637,-1492,-350,141,-29,1,7,11
5.54E+02,-6076,4653,-1496,-326,376,-29,1,7,11
6.19E+02,-6072,4659,-1501,-313,360,-36,1,7,11
6.90E+02,-6062,4649,-1497,-299,338,-47,1,7,11
7.52E+02,-6055,4662,-1501,-267,311,-66,1,7,11
7.91E+02,-6056,4668,-1496,17,283,-75,1,7,11
7.99E+02,-6043,4671,-1502,50,-5,-72,1,7,11
7.84E+02,-6027,4671,-1516,79,-31,-71,1,7,11
7.59E+02,-6269,4667,-1518,96,-43,-76,1,7,11
7.31E+02,-6267,4666,-1527,115,-46,-89,1,7,11
7.04E+02,-6271,4675,-1532,-120,-62,-103,1,7,11
6.77E+02,-6269,4678,-1802,-108,-81,-121,1,7,11
6.51E+02,-6268,4683,-1820,-105,-85,106,1,7,11
6.29E+02,-6258,4688,-1846,-108,-87,90,1,7,11
6.18E+02,-6252,4673,-1854,-120,-76,70,1,7,11
6.21E+02,-6266,4677,-1860,-122,-57,38,1,7,11
6.36E+02,-6019,4687,-1860,127,-54,11,1,7,11
6.58E+02,-6030,4710,-1882,120,-73,-257,1,7,11
6.83E+02,-6026,4694,-1889,80,-82,-262,1,7,11
7.10E+02,-6023,4675,-1883,63,-85,-262,1,7,11
7.36E+02,-6034,4678,-1875,60,-83,-273,1,7,11
7.60E+02,-6045,4671,-1873,52,-88,-285,1,7,11
7.80E+02,-6041,4672,-1868,50,-101,-299,1,7,11
7.94E+02,-6049,4677,-1863,58,-104,-308,1,7,11
7.97E+02,-6047,4670,-1858,57,-97,-302,1,7,11
7.90E+02,-6039,4648,-1853,55,-90,-263,1,7,11
7.76E+02,-6036,4633,-1850,66,-74,6,1,7,11
7.62E+02,-6053,4629,-1848,90,-56,32,1,7,11
7.51E+02,-6057,4631,-1849,117,-52,50,1,7,11
7.39E+02,-6069,4630,-1857,-115,-60,63,1,7,11
7.26E+02,-6065,4351,-1860,-111,-93,65,1,7,11
7.09E+02,-6055,4608,-1874,-82,-115,52,1,7,11
6.90E+02,-6044,4351,-1881,-63,-128,40,1,7,11
6.73E+02,-6040,4620,-1904,-52,127,33,1,7,11
6.59E+02,-6043,4631,-1908,-74,-119,31,1,7,11
6.47E+02,-6044,4621,-1905,-111,-110,26,1,7,11
6.37E+02,-6042,4617,-1917,120,-108,16,1,7,11
6.31E+02,-6040,4608,-1676,89,-99,9,1,7,11
6.30E+02,-6048,4611,-1682,57,-85,7,1,7,11
6.34E+02,-6057,4615,-1686,26,-73,12,1,7,11
6.43E+02,-6054,4621,-1691,-259,-63,24,1,7,11
6.54E+02,-6042,4625,-1701,-288,-46,42,1,7,11
6.65E+02,-6037,4625,-1706,-308,-20,66,1,7,11
6.76E+02,-6038,4636,-1704,-314,268,91,1,7,11
6.84E+02,-6035,4632,-1698,-333,292,111,1,7,11
6.91E+02,-6037,4613,-1684,-345,310,114,1,7,11
6.98E+02,-6037,4351,-1668,-324,307,105,1,7,11
7.05E+02,-6039,4612,-1670,-300,288,89,1,7,11
7.12E+02,-6047,4612,-1920,-287,264,75,1,7,11
7.22E+02,-6041,4612,-1674,-278,-24,66,1,7,11
7.33E+02,-6022,4341,-1691,-280,-47,50,1,7,11
7.46E+02,-6020,4346,-1686,-278,-52,37,1,7,11
7.58E+02,-6026,4346,-1686,-262,-56,30,1,7,11
7.69E+02,-6035,4616,-1694,-263,-60,24,1,7,11
7.79E+02,-6035,4345,-1678,-284,-63,20,1,7,11
7.88E+02,-6039,4343,-1687,-291,-64,11,1,7,11
7.96E+02,-6036,4339,-1688,-305,-64,5,1,7,11
8.07E+02,-6042,4326,-1919,-312,-54,-257,1,7,11
8.21E+02,-6048,4334,-1915,-294,-54,5,1,7,11
8.33E+02,-6060,4610,-1670,-278,-60,20,1,7,11
8.35E+02,-6063,4337,-1669,-273,-68,39,1,7,11
8.23E+02,-6047,4331,-1667,2,-72,54,1,7,11
8.00E+02,-6053,4344,-1665,24,-60,64,1,7,11
7.76E+02,-6069,4350,-1916,41,-53,85,1,7,11
7.64E+02,-6068,4612,-1918,48,-63,106,1,7,11
7.65E+02,-6065,4610,-1668,52,-68,-120,1,7,11
7.70E+02,-6061,4349,-1918,68,-72,-79,1,7,11
7.73E+02,-6048,4347,-1913,101,-78,-33,1,7,11
7.69E+02,-6032,4332,-1914,-103,-88,277,1,7,11
7.65E+02,-6030,4322,-1670,-27,-104,334,1,7,11
7.62E+02,-6025,4303,-1673,314,126,136,1,7,11
7.65E+02,-6029,4237,-1897,153,89,184,1,7,11
7.70E+02,-6053,4429,-1859,580,15,232,1,7,11
7.76E+02,-6068,4405,-1857,848,-366,557,1,7,11
7.79E+02,-6056,4421,-1895,1151,-255,398,1,7,11
7.77E+02,-6030,4465,-1701,1184,-392,510,1,7,11
7.64E+02,-6253,4255,-1771,1416,-506,862,1,7,11
7.41E+02,-6224,4317,-2108,1832,-854,668,1,7,11
7.17E+02,-6253,4670,-1921,1906,-656,693,1,7,11
7.02E+02,-6032,4732,-1973,1863,-735,715,1,7,11
6.99E+02,-6042,4501,-2007,1495,-1086,726,1,7,11
7.02E+02,-6040,4507,-2032,1610,-922,722,1,7,11
7.06E+02,-6019,4502,-2044,1206,-1004,713,1,7,11
7.08E+02,-6250,4727,-2046,1311,-1320,693,1,7,11
7.10E+02,-6218,4708,-2021,928,-1357,661,1,7,11
7.14E+02,-6204,4701,-1991,1082,-1380,881,1,7,11
7.19E+02,-6202,4731,-1938,744,-1398,845,1,7,11
7.19E+02,-6195,4500,-2130,644,-1405,820,1,7,11
7.12E+02,-6185,4505,-2081,779,-1402,783,1,7,11
7.02E+02,-6156,4501,-1783,457,-1392,506,1,7,11
6.96E+02,-5870,4735,-1736,408,-1357,482,1,7,11
6.99E+02,-5847,4710,-1692,394,-1308,444,1,7,11
7.13E+02,-5827,4707,-1916,394,-985,400,1,7,11
7.39E+02,-5820,4711,-1884,392,-914,598,1,7,11
7.73E+02,-5818,4703,-1842,639,-1104,528,1,7,11
8.06E+02,-5821,4689,-1810,631,-1047,154,1,7,11
8.28E+02,-5829,4687,-1795,628,-736,322,1,7,11
8.34E+02,-5854,4698,-1524,634,-654,-23,1,7,11
8.22E+02,-6146,4723,-1510,633,-856,-105,1,7,11
7.90E+02,-6184,4485,-1512,599,-811,80,1,7,11
7.49E+02,-6215,4495,-1507,545,-509,22,1,7,11
7.19E+02,-6251,4517,-1514,218,-455,-281,1,7,11
7.18E+02,-6018,4508,-1516,129,-404,-308,1,7,11
7.43E+02,-6040,4499,-1514,309,-595,-320,1,7,11
7.76E+02,-6066,4493,-1509,-18,-514,-321,1,7,11
8.00E+02,-6079,4483,-1511,-84,-177,-307,1,7,11
8.11E+02,-6094,4484,-1517,120,-350,-288,1,7,11
8.12E+02,-6095,4490,-1515,73,-260,3,1,7,11
8.10E+02,-6087,4493,-1532,37,85,50,1,7,11
8.06E+02,-6078,4491,-1536,-258,-72,103,1,7,11
8.00E+02,-6072,4486,-1793,-284,283,-98,1,7,11
7.93E+02,-6067,4482,-1802,-305,376,-53,1,7,11
7.84E+02,-6060,4735,-1807,-316,197,-13,1,7,11
7.78E+02,-6051,4484,-1813,-310,514,279,1,7,11
7.77E+02,-6044,4503,-1845,-298,563,318,1,7,11
7.86E+02,-6033,4526,-1862,-294,599,367,1,7,11
7.98E+02,-6259,4548,-1871,-296,624,173,1,7,11
8.09E+02,-6221,4576,-1910,-299,388,240,1,7,11
8.13E+02,-6172,4606,-1694,-326,417,571,1,7,11
8.12E+02,-5871,4930,-1746,-368,459,402,1,7,11
8.11E+02,-5813,4969,-2059,-191,781,499,1,7,11
8.13E+02,-5781,4742,-2117,-568,868,647,1,7,11
8.17E+02,-5764,4756,-2169,-474,790,731,1,7,11
8.16E+02,-5993,4798,-1958,-708,914,1069,1,7,11
8.03E+02,-5948,4837,-1971,-1046,977,1142,1,7,11
7.78E+02,-5913,4862,-1937,-960,1159,948,1,7,11
7.51E+02,-5607,4863,-2139,-1174,1239,994,1,7,11
7.34E+02,-5550,4855,-2079,-1219,1289,1011,1,7,11
7.29E+02,-5511,5123,-1761,-1260,1562,990,1,7,11
7.30E+02,-5735,5143,-1723,-1239,1541,931,1,7,11
7.31E+02,-5715,5173,-1682,-1188,1225,1096,1,7,11
7.28E+02,-5702,5200,-1918,-1368,1385,728,1,7,11
7.24E+02,-5685,5210,-1892,-1292,1012,863,1,7,11
7.24E+02,-5663,5207,-1879,-946,1136,482,1,7,11
7.29E+02,-5633,5179,-1881,-1094,742,617,1,7,11
7.39E+02,-5352,5166,-1896,-707,874,245,1,7,11
7.57E+02,-5348,5180,-1917,-818,505,136,1,7,11
7.79E+02,-5345,5195,-1695,-445,404,296,1,7,11
8.01E+02,-5349,5208,-1730,-607,565,-45,1,7,11
8.19E+02,-5358,5238,-1765,-538,224,126,1,7,11
8.28E+02,-5367,5245,-2056,-253,151,39,1,7,11
8.30E+02,-5364,5247,-2087,-242,343,-303,1,7,11
8.24E+02,-5362,5235,-2098,-248,289,-132,1,7,11
8.12E+02,-5361,5214,-2110,-251,-10,-198,1,7,11
7.96E+02,-5373,5223,-2128,-235,-29,-248,1,7,11
7.81E+02,-5657,5239,-2146,-238,-24,-537,1,7,11
7.71E+02,-5692,5240,-2138,-517,-7,-555,1,7,11
7.67E+02,-5721,5230,-2134,-543,267,-567,1,7,11
7.67E+02,-5734,4993,-2135,-550,298,-573,1,7,11
7.71E+02,-5725,5044,-2161,-554,340,-560,1,7,11
7.78E+02,-5687,5069,-1929,-598,168,-520,1,7,11
7.82E+02,-5665,5054,-1925,-416,581,-240,1,7,11
7.83E+02,-5657,5029,-2162,-510,504,-254,1,7,11
7.82E+02,-5651,4999,-2154,-854,677,-554,1,7,11
7.82E+02,-5649,5231,-2161,-675,1099,-619,1,7,11
7.90E+02,-5673,5211,-2165,-753,1004,-437,1,7,11
8.02E+02,-5713,5193,-2167,-1074,1394,-499,1,7,11
8.11E+02,-5752,5175,-2173,-1145,1231,-786,1,7,11
8.10E+02,-5537,5153,-2169,-949,1538,-789,1,7,11
7.95E+02,-5576,5136,-2170,-1010,1563,-486,1,7,11
7.75E+02,-5614,5136,-2165,-1290,1279,-433,1,7,11
7.55E+02,-5908,5159,-2150,-1314,1213,-626,1,7,11
7.40E+02,-5938,5181,-2138,-1349,1358,-558,1,7,11
7.31E+02,-5965,5215,-2109,-1384,948,-237,1,7,11
7.26E+02,-5983,5007,-2086,-1159,757,-173,1,7,11
7.26E+02,-5940,5065,-2070,-1196,791,-349,1,7,11
7.29E+02,-5597,5379,-2066,-1243,600,-263,1,7,11
7.35E+02,-5755,5416,-2054,-1564,232,89,1,7,11
7.44E+02,-5646,5431,-1776,-1620,205,-62,1,7,11
7.56E+02,-5307,5433,-1733,-1657,516,286,1,7,11
7.68E+02,-5504,5437,-1691,-1660,611,357,1,7,11
7.80E+02,-5454,5442,-1904,-1635,466,147,1,7,11
7.88E+02,-5418,5470,-1873,-1580,835,172,1,7,11
7.90E+02,-5401,5253,-1873,-1264,690,180,1,7,11
7.87E+02,-5386,5281,-1871,-1207,1047,180,1,7,11
7.76E+02,-5116,5293,-1865,-1393,1129,172,1,7,11
7.59E+02,-5105,5291,-1866,-1313,928,160,1,7,11
7.43E+02,-5092,5298,-1870,-950,961,139,1,7,11
7.37E+02,-5089,5320,-1889,-1095,967,370,1,7,11
7.46E+02,-5093,5339,-1906,-745,945,349,1,7,11
7.63E+02,-5102,5356,-1917,-646,901,328,1,7,11
7.77E+02,-5110,5642,-1682,-810,1098,308,1,7,11
7.82E+02,-5380,5670,-1704,-475,1028,288,1,7,11
7.82E+02,-5116,5698,-1724,-396,646,260,1,7,11
7.82E+02,-5093,5705,-1736,-617,836,-10,1,7,11
7.88E+02,-5078,5705,-1751,-597,793,-19,1,7,11
7.96E+02,-5044,5702,-1769,-582,511,-15,1,7,11
7.98E+02,-5014,5696,-1777,-569,511,261,1,7,11
7.88E+02,-5242,5696,-1786,-557,791,288,1,7,11
7.67E+02,-5225,5703,-2056,-551,828,318,1,7,11
7.44E+02,-5195,5709,-2062,-551,857,354,1,7,11
7.26E+02,-5163,5713,-2082,-553,887,140,1,7,11
7.16E+02,-5131,5725,-2089,-562,679,174,1,7,11
7.12E+02,-4863,5733,-2077,-583,726,203,1,7,11
7.14E+02,-4838,5741,-2064,-585,742,234,1,7,11
7.18E+02,-4815,5514,-2063,-561,727,517,1,7,11
7.22E+02,-4791,5533,-2072,-547,697,539,1,7,11
7.24E+02,-4765,5546,-2069,-531,667,554,1,7,11
7.27E+02,-4738,5550,-2062,-520,887,550,1,7,11
7.34E+02,-4975,5561,-2059,-248,838,530,1,7,11
7.47E+02,-4971,5592,-2069,-217,790,219,1,7,11
7.60E+02,-4974,5611,-2066,-204,497,180,1,7,11
7.67E+02,-4978,5624,-2057,-208,439,146,1,7,11
7.60E+02,-4977,5898,-2069,-171,386,377,1,7,11
7.47E+02,-4974,5904,-2067,-158,615,358,1,7,11
7.36E+02,-4977,5905,-2057,-379,587,347,1,7,11
7.33E+02,-4977,5918,-2070,-338,561,345,1,7,11
7.36E+02,-4968,5924,-2082,-302,542,345,1,7,11
7.40E+02,-4951,5936,-2100,-272,532,344,1,7,11
7.42E+02,-4926,5928,-2103,9,523,345,1,7,11
7.43E+02,-4899,5927,-2134,35,519,343,1,7,11
7.44E+02,-4872,5928,-2152,49,527,334,1,7,11
7.45E+02,-4600,5932,-2161,54,538,320,1,7,11
7.50E+02,-4583,5947,-1933,58,533,301,1,7,11
7.59E+02,-4571,5944,-1959,50,517,272,1,7,11
7.75E+02,-4548,5939,-1974,46,241,-24,1,7,11
7.88E+02,-4533,5932,-1981,41,224,-71,1,7,11
7.89E+02,-4513,5930,-1987,36,208,-124,1,7,11
7.72E+02,-4510,5922,-1985,18,199,74,1,7,11
7.45E+02,-4513,5914,-1991,0,184,17,1,7,11
7.23E+02,-4524,5923,-1999,-266,162,-289,1,7,11
7.17E+02,-4535,5913,-1991,-291,154,-326,1,7,11
7.25E+02,-4551,5904,-1988,-292,144,-347,1,7,11
7.40E+02,-4563,5899,-1989,-272,134,-353,1,7,11
7.58E+02,-4576,5895,-2004,14,136,-339,1,7,11
7.75E+02,-4586,5889,-2012,48,154,-310,1,7,11
7.89E+02,-4601,5619,-2021,88,180,-269,1,7,11
7.97E+02,-4604,5612,-2025,-110,195,37,1,7,11
8.01E+02,-4877,5623,-2308,-55,199,89,1,7,11
8.03E+02,-4599,5610,-2348,-12,181,-114,1,7,11
8.05E+02,-4558,5612,-2409,298,174,-75,1,7,11
8.05E+02,-4540,5903,-2215,323,199,-60,1,7,11
7.97E+02,-4533,5916,-2230,311,221,-56,1,7,11
7.75E+02,-4516,5916,-2269,271,225,-68,1,7,11
7.44E+02,-4508,5902,-2288,-38,215,-101,1,7,11
7.19E+02,-4733,5896,-2571,-76,200,116,1,7,11
7.12E+02,-4719,5900,-2573,-110,209,60,1,7,11
7.24E+02,-4716,5899,-2277,102,224,-259,1,7,11
7.43E+02,-4720,5889,-2258,63,216,-327,1,7,11
7.64E+02,-4732,5898,-2234,48,187,-146,1,7,11
7.83E+02,-4496,5914,-2219,39,143,-213,1,7,11
7.96E+02,-4525,5918,-2207,45,344,-242,1,7,11
8.02E+02,-4559,5893,-2181,38,306,-224,1,7,11
8.03E+02,-4590,5604,-2421,49,270,-205,1,7,11
8.03E+02,-4606,5576,-2415,78,-47,-382,1,7,11
8.02E+02,-4878,5567,-2427,-128,-67,-331,1,7,11
8.01E+02,-4879,5561,-2188,-78,-76,-288,1,7,11
7.99E+02,-4870,5558,-2207,-72,-75,0,1,7,11
7.94E+02,-4602,5554,-2233,-78,-69,28,1,7,11
7.86E+02,-4588,5554,-2251,-99,-46,45,1,7,11
7.75E+02,-4584,5542,-2263,116,-22,51,1,7,11
7.61E+02,-4572,5539,-2271,84,-7,52,1,7,11
7.46E+02,-4584,5537,-2277,61,257,45,1,7,11
7.36E+02,-4587,5539,-2278,36,-8,43,1,7,11
7.35E+02,-4591,5538,-2283,20,-15,45,1,7,11
7.41E+02,-4591,5539,-2281,15,-20,50,1,7,11
7.51E+02,-4596,5544,-2276,12,-21,63,1,7,11
7.61E+02,-4602,5555,-2270,9,-18,74,1,7,11
7.65E+02,-4607,5568,-2279,-274,258,83,1,7,11
7.56E+02,-4602,5557,-2277,-287,258,87,1,7,11
7.31E+02,-4594,5549,-2259,-286,264,91,1,7,11
6.96E+02,-4572,5551,-2268,-269,273,101,1,7,11
6.63E+02,-4562,5566,-2281,-257,306,116,1,7,11
6.42E+02,-4571,5560,-2252,-260,341,-123,1,7,11
6.39E+02,-4568,5556,-2248,1,337,-114,1,7,11
6.58E+02,-4556,5548,-2261,9,319,-114,1,7,11
7.01E+02,-4541,5542,-2248,27,302,-126,1,7,11
7.67E+02,-4523,5530,-2258,46,281,111,1,7,11
8.33E+02,-4510,5511,-2261,72,-5,83,1,7,11
8.63E+02,-4485,5512,-2292,-127,-45,50,1,7,11
8.23E+02,-4705,5541,-2584,-68,-70,32,1,7,11
7.18E+02,-4696,5571,-2610,-31,-64,28,1,7,11
6.03E+02,-4696,5597,-2634,-17,-55,32,1,7,11
5.27E+02,-4706,5595,-2634,-38,-44,39,1,7,11
4.91E+02,-4716,5583,-2630,-65,-48,33,1,7,11
4.82E+02,-4721,5584,-2645,-85,-64,20,1,7,11
4.94E+02,-4723,5583,-2663,-105,-86,0,1,7,11
5.22E+02,-4715,5575,-2679,118,-95,-268,1,7,11
5.59E+02,-4709,5574,-2444,88,-80,-267,1,7,11
6.00E+02,-4727,5563,-2458,-259,-4,6,1,7,11
6.37E+02,-4484,5559,-2454,-297,292,16,1,7,11
6.59E+02,-4510,5551,-2684,-338,321,23,1,7,11
6.66E+02,-4513,5545,-2671,-366,322,47,1,7,11
6.62E+02,-4506,5532,-2665,-135,316,64,1,7,11
6.52E+02,-4500,5526,-2662,-138,317,80,1,7,11
6.39E+02,-4490,5530,-2664,-131,315,99,1,7,11
6.28E+02,-4728,5524,-2666,-383,321,114,1,7,11
6.20E+02,-4725,5517,-2667,-374,336,108,1,7,11
6.15E+02,-4729,5518,-2661,-374,343,88,1,7,11
6.13E+02,-4729,5529,-2655,-375,338,59,1,7,11
6.18E+02,-4725,5524,-2648,-382,322,29,1,7,11
