timestamp,ax,ay,az,gx,gy,gz,Label1,Label2,Label3
6.15E+02,-6753,4485,145,12,-76,30,1,7,11
6.17E+02,-6766,4501,166,-261,-74,14,1,7,11
6.35E+02,-6776,4500,383,10,-124,0,1,7,11
6.74E+02,-6533,4731,142,-292,126,-273,1,7,11
7.34E+02,-6777,4709,142,-297,-123,-275,1,7,11
8.05E+02,-6533,4716,152,-297,-110,-282,1,7,11
8.65E+02,-6531,4720,152,-313,-83,-257,1,7,11
8.93E+02,-6547,4724,154,-321,-42,12,1,7,11
8.77E+02,-6545,4723,162,-322,-13,49,1,7,11
8.36E+02,-6546,4721,170,-320,259,65,1,7,11
7.95E+02,-6536,4730,165,-304,-13,78,1,7,11
7.74E+02,-6782,4735,156,-295,-23,92,1,7,11
7.70E+02,-6781,4724,155,-280,-35,99,1,7,11
7.74E+02,-6535,4703,200,-274,-62,101,1,7,11
7.75E+02,-6530,4490,148,37,127,87,1,7,11
7.67E+02,-6765,4728,153,16,102,90,1,7,11
7.48E+02,-6759,4718,161,26,98,91,1,7,11
7.15E+02,-6766,4732,163,45,83,95,1,7,11
6.91E+02,-6754,4485,160,54,78,107,1,7,11
7.05E+02,-6757,4494,161,51,86,115,1,7,11
7.71E+02,-6758,4496,149,56,85,122,1,7,11
8.52E+02,-6771,4500,163,60,75,122,1,7,11
9.09E+02,-6767,4512,140,75,53,121,1,7,11
9.32E+02,-6771,4517,141,59,58,125,1,7,11
9.13E+02,-6767,4497,153,38,82,-119,1,7,11
8.50E+02,-6765,4488,167,24,107,-112,1,7,11
7.58E+02,-6755,4487,160,22,126,-105,1,7,11
6.78E+02,-6748,4732,169,18,-94,-78,1,7,11
6.41E+02,-6734,4733,172,30,-69,-59,1,7,11
6.48E+02,-6731,4487,170,47,-38,-32,1,7,11
6.88E+02,-6725,4484,167,67,258,262,1,7,11
7.46E+02,-6742,4489,189,92,306,307,1,7,11
8.04E+02,-6775,4732,208,-120,321,351,1,7,11
8.46E+02,-6532,4504,181,-59,317,136,1,7,11
8.67E+02,-6781,4522,163,-38,333,174,1,7,11
8.70E+02,-6769,4536,157,-21,348,200,1,7,11
8.53E+02,-6744,4547,144,-3,353,222,1,7,11
8.24E+02,-6710,4566,380,272,353,246,1,7,11
7.98E+02,-6682,4586,353,290,365,527,1,7,11
7.88E+02,-6399,4597,341,300,132,558,1,7,11
7.99E+02,-6381,4592,314,313,164,584,1,7,11
8.17E+02,-6368,4600,309,329,201,602,1,7,11
8.26E+02,-6368,4867,290,344,244,613,1,7,11
8.13E+02,-6376,4882,281,356,530,620,1,7,11
7.87E+02,-6375,4892,308,381,542,386,1,7,11
7.60E+02,-6384,4914,314,173,521,424,1,7,11
7.41E+02,-6400,4940,311,252,200,463,1,7,11
7.31E+02,-6664,4957,322,557,373,509,1,7,11
7.28E+02,-6658,4757,-20,412,-24,799,1,7,11
7.30E+02,-6327,4794,-124,479,115,829,1,7,11
7.37E+02,-6510,4807,99,432,-88,866,1,7,11
7.50E+02,-6483,4841,42,425,-8,876,1,7,11
7.69E+02,-6441,5133,-265,622,337,648,1,7,11
7.94E+02,-6404,4852,-268,535,198,656,1,7,11
8.23E+02,-6114,5122,-316,209,550,870,1,7,11
8.54E+02,-6038,5145,-189,336,424,795,1,7,11
8.80E+02,-6212,5172,-219,77,714,443,1,7,11
8.92E+02,-6022,5156,-366,-138,983,588,1,7,11
8.95E+02,-6067,5143,-289,-196,924,220,1,7,11
8.94E+02,-6051,5136,-290,-177,724,344,1,7,11
8.92E+02,-6026,5201,-347,-140,510,-76,1,7,11
8.90E+02,-6226,5240,-160,-154,591,54,1,7,11
8.87E+02,-6201,5009,-210,-169,524,-271,1,7,11
8.84E+02,-6209,5228,-208,-214,515,-276,1,7,11
8.82E+02,-6261,5191,-155,-218,221,-284,1,7,11
8.80E+02,-6035,5190,-133,-185,343,-313,1,7,11
8.80E+02,-6041,5190,-142,-181,-34,-352,1,7,11
8.81E+02,-6034,5193,-155,-196,-97,-381,1,7,11
8.85E+02,-6020,5186,-158,-223,-114,-378,1,7,11
8.91E+02,-6070,5145,-346,-519,-101,-147,1,7,11
9.01E+02,-6060,5175,-378,-232,88,-161,1,7,11
9.12E+02,-6069,5137,-349,-514,92,-193,1,7,11
9.20E+02,-6087,5171,-368,-233,91,-217,1,7,11
9.20E+02,-6091,5155,-347,-250,125,-206,1,7,11
9.07E+02,-6134,5149,-323,-234,-94,-188,1,7,11
8.84E+02,-6406,5161,-308,-191,-91,-149,1,7,11
8.55E+02,-6429,5137,-283,-165,-75,-369,1,7,11
8.26E+02,-6457,5137,-281,-366,-110,-335,1,7,11
8.02E+02,-6452,5123,-277,-354,123,-304,1,7,11
7.86E+02,-6432,4846,-278,-343,-117,-259,1,7,11
7.82E+02,-6429,4837,-287,-327,-77,33,1,7,11
7.89E+02,-6469,4808,36,-330,-48,41,1,7,11
7.98E+02,-6476,5157,-296,-265,-95,20,1,7,11
8.00E+02,-6455,5129,-283,-327,-93,40,1,7,11
7.87E+02,-6446,4860,-273,-344,-74,42,1,7,11
7.66E+02,-6437,4861,-285,-355,-67,39,1,7,11
7.46E+02,-6428,4859,-286,-379,-53,44,1,7,11
7.34E+02,-6418,5132,-293,-132,-40,41,1,7,11
7.28E+02,-6141,4845,1,-156,-39,51,1,7,11
7.27E+02,-6126,5145,-299,-368,-70,42,1,7,11
7.29E+02,-6101,5132,-309,-144,-70,53,1,7,11
7.33E+02,-6113,4859,-281,-161,-42,53,1,7,11
7.40E+02,-6130,5126,-275,-146,-63,42,1,7,11
7.50E+02,-6130,5123,-276,-141,-95,37,1,7,11
7.61E+02,-6132,4854,0,-133,-125,27,1,7,11
7.73E+02,-6125,5124,-266,-358,93,21,1,7,11
7.86E+02,-6116,5141,-272,-346,75,19,1,7,11
7.97E+02,-6102,5120,-262,-343,77,26,1,7,11
8.05E+02,-6115,5125,-259,-313,84,24,1,7,11
8.11E+02,-6118,5141,-278,-296,84,21,1,7,11
8.14E+02,-6128,4861,-257,-320,117,22,1,7,11
8.16E+02,-6403,4850,18,-311,119,11,1,7,11
8.20E+02,-6407,4862,8,-305,86,-268,1,7,11
8.28E+02,-6406,5121,11,-302,82,-283,1,7,11
8.46E+02,-6414,4858,36,-297,72,-295,1,7,11
8.76E+02,-6409,5123,10,-277,50,-306,1,7,11
9.22E+02,-6410,4851,6,-284,53,-309,1,7,11
9.76E+02,-6414,4849,-266,-289,81,-312,1,7,11
1.03E+03,-6416,4845,-269,-305,123,-310,1,7,11
1.08E+03,-6430,4845,-258,-311,-86,-307,1,7,11
1.11E+03,-6453,4853,25,-312,-65,-296,1,7,11
1.13E+03,-6460,4847,26,-319,-66,-281,1,7,11
1.13E+03,-6468,4842,26,-320,-77,-270,1,7,11
1.11E+03,-6462,4842,25,-320,-90,-267,1,7,11
1.08E+03,-6453,4825,47,-319,-112,-263,1,7,11
1.04E+03,-6448,4828,19,-307,124,-264,1,7,11
1.00E+03,-6444,4814,11,-320,116,-262,1,7,11
9.70E+02,-6450,4837,2,-318,115,-277,1,7,11
9.56E+02,-6453,4840,2,-327,121,-286,1,7,11
9.62E+02,-6437,4833,9,-340,126,-288,1,7,11
9.82E+02,-6440,4825,13,-339,-122,-288,1,7,11
1.01E+03,-6444,4818,16,-334,-113,-271,1,7,11
1.04E+03,-6453,4816,18,-330,-105,-258,1,7,11
1.07E+03,-6454,4817,29,-326,-97,10,1,7,11
1.08E+03,-6458,4823,33,-318,-95,18,1,7,11
1.09E+03,-6464,4814,34,-319,-88,23,1,7,11
1.08E+03,-6457,4800,46,-320,-86,26,1,7,11
1.05E+03,-6453,4802,54,-311,-91,23,1,7,11
1.02E+03,-6452,4810,45,-302,-98,23,1,7,11
9.94E+02,-6459,4817,38,-300,-109,16,1,7,11
9.85E+02,-6460,4824,37,-301,-124,3,1,7,11
1.00E+03,-6459,4825,31,-305,116,-270,1,7,11
1.03E+03,-6466,4815,28,-313,114,-289,1,7,11
1.07E+03,-6472,4803,32,-320,119,-306,1,7,11
1.11E+03,-6473,4798,42,-322,120,-322,1,7,11
1.13E+03,-6479,4790,47,-324,121,-343,1,7,11
1.15E+03,-6489,4789,58,-331,114,-366,1,7,11
1.15E+03,-6491,4783,74,-342,92,-131,1,7,11
1.14E+03,-6489,4781,88,-357,70,-154,1,7,11
1.13E+03,-6480,4762,82,-373,46,-180,1,7,11
1.11E+03,-6467,4749,88,-384,25,-224,1,7,11
1.10E+03,-6453,4761,78,-381,2,-532,1,7,11
1.08E+03,-6437,4748,76,-140,-267,-578,1,7,11
1.07E+03,-6427,4748,78,-154,-260,-621,1,7,11
1.07E+03,-6441,4738,85,-187,36,-623,1,7,11
1.07E+03,-6457,4979,95,-203,67,-613,1,7,11
1.08E+03,-6488,4974,106,-203,94,-599,1,7,11
1.08E+03,-6521,4955,119,-198,111,-573,1,7,11
1.09E+03,-6302,4946,-124,-188,125,-541,1,7,11
1.10E+03,-6344,4941,-108,-180,-126,-251,1,7,11
1.10E+03,-6381,4936,-90,-168,116,-218,1,7,11
1.11E+03,-6659,4935,-86,-150,90,-181,1,7,11
1.11E+03,-6667,4931,-74,-135,68,-147,1,7,11
1.12E+03,-6677,4920,-71,-374,53,-372,1,7,11
1.12E+03,-6675,4910,-61,-353,41,-346,1,7,11
1.12E+03,-6665,4906,-61,-330,36,-331,1,7,11
1.12E+03,-6391,4909,-61,-314,33,-322,1,7,11
1.12E+03,-6386,4910,-74,-303,41,-313,1,7,11
1.12E+03,-6375,4907,-65,-302,57,-303,1,7,11
1.12E+03,-6371,4909,-63,-300,76,-289,1,7,11
1.11E+03,-6370,4901,-66,-298,99,-276,1,7,11
1.10E+03,-6363,4900,-67,-295,109,-269,1,7,11
1.09E+03,-6360,4898,-64,-298,116,-262,1,7,11
1.08E+03,-6358,4888,-50,-294,123,0,1,7,11
1.07E+03,-6347,4874,-44,-286,123,5,1,7,11
1.06E+03,-6350,4868,-39,-277,118,4,1,7,11
1.06E+03,-6347,4866,-40,-259,104,-257,1,7,11
1.06E+03,-6350,4865,-41,16,92,-273,1,7,11
1.07E+03,-6356,4865,-45,29,77,-305,1,7,11
1.06E+03,-6362,4865,-43,36,58,-327,1,7,11
1.05E+03,-6370,4606,-42,44,32,-348,1,7,11
1.02E+03,-6375,4603,-45,51,17,-363,1,7,11
9.94E+02,-6385,4599,-43,56,6,-377,1,7,11
9.65E+02,-6391,4595,-43,55,-257,-129,1,7,11
9.42E+02,-6394,4588,-36,59,-265,-136,1,7,11
9.27E+02,-6396,4578,-39,58,-273,-154,1,7,11
9.19E+02,-6394,4574,-43,62,-285,-179,1,7,11
9.17E+02,-6394,4581,-50,59,-291,-213,1,7,11
9.18E+02,-6398,4587,-56,41,-297,-256,1,7,11
9.23E+02,-6666,4597,-71,21,-295,-556,1,7,11
9.31E+02,-6673,4589,-73,-269,-288,-602,1,7,11
9.42E+02,-6682,4568,-65,-309,-286,-396,1,7,11
9.56E+02,-6684,4533,-52,-348,-297,-451,1,7,11
9.72E+02,-6678,4505,-53,-381,-319,-781,1,7,11
9.88E+02,-6678,4500,-52,-162,-351,-870,1,7,11
1.01E+03,-6659,4494,-60,-201,-129,-692,1,7,11
1.02E+03,-6392,4726,-65,-243,-383,-744,1,7,11
1.04E+03,-6400,4696,-43,-536,-339,-760,1,7,11
1.05E+03,-6682,4671,-32,-549,-280,-745,1,7,11
1.06E+03,-6722,4662,-21,-547,44,-709,1,7,11
1.06E+03,-6775,4636,-3,-571,118,-675,1,7,11
1.07E+03,-6589,4349,284,-589,-86,-644,1,7,11
1.06E+03,-6624,4328,311,-596,-53,-868,1,7,11
1.06E+03,-6918,4297,340,-614,-30,-819,1,7,11
1.05E+03,-6953,4277,357,-612,-20,-779,1,7,11
1.04E+03,-7000,4265,145,-596,-19,-482,1,7,11
1.02E+03,-7038,4252,182,-572,-64,-435,1,7,11
1.01E+03,-6798,4235,198,-512,119,-633,1,7,11
9.91E+02,-6809,4479,208,-207,49,-567,1,7,11
9.77E+02,-6810,4466,214,-156,-267,-238,1,7,11
9.66E+02,-6799,4463,201,-362,-300,-177,1,7,11
9.58E+02,-6793,4453,202,-324,-298,-383,1,7,11
9.54E+02,-7026,4438,200,-294,-285,-348,1,7,11
9.54E+02,-7007,4412,230,-264,-263,-323,1,7,11
9.59E+02,-6981,4400,225,45,-257,-304,1,7,11
9.67E+02,-6950,4382,216,94,4,-279,1,7,11
9.76E+02,-6919,4379,205,-116,16,-258,1,7,11
9.85E+02,-6642,4378,180,-80,36,6,1,7,11
9.92E+02,-6652,4377,172,-59,80,4,1,7,11
9.98E+02,-6919,4387,167,-42,114,-263,1,7,11
1.00E+03,-6924,4384,168,-19,119,-274,1,7,11
1.01E+03,-6935,4401,163,263,102,-294,1,7,11
1.01E+03,-6951,4420,154,274,68,-314,1,7,11
1.02E+03,-6960,4449,137,258,35,-324,1,7,11
1.02E+03,-6965,4479,357,-30,-257,-333,1,7,11
1.03E+03,-6960,4231,329,-92,-274,-347,1,7,11
1.04E+03,-6963,4234,326,84,-279,-379,1,7,11
1.04E+03,-6982,4462,359,-261,-317,-179,1,7,11
1.05E+03,-6980,4462,341,-330,-369,-251,1,7,11
1.05E+03,-6980,4413,352,-178,-129,-559,1,7,11
1.05E+03,-6994,4364,369,-522,-375,-601,1,7,11
1.05E+03,-7016,4053,160,-591,-346,-611,1,7,11
1.04E+03,-6802,4036,200,-620,-298,-596,1,7,11
1.03E+03,-6863,4016,241,-639,4,-561,1,7,11
1.03E+03,-6908,4004,518,-624,35,-256,1,7,11
1.02E+03,-7202,4012,548,-588,63,-197,1,7,11
1.02E+03,-7217,4030,576,-551,74,-131,1,7,11
1.04E+03,-7212,4034,597,-516,76,-319,1,7,11
1.06E+03,-7190,4015,605,-219,67,1,1,7,11
1.09E+03,-6896,4017,591,-141,58,67,1,7,11
1.11E+03,-6837,4012,614,-307,51,126,1,7,11
1.13E+03,-6821,4041,601,43,32,-75,1,7,11
1.14E+03,-6795,4094,570,-116,-272,-8,1,7,11
1.14E+03,-7019,4386,541,-66,-315,278,1,7,11
1.12E+03,-7005,4415,519,-50,-330,282,1,7,11
1.10E+03,-7000,4441,254,-71,-325,271,1,7,11
1.08E+03,-6993,4444,513,112,-330,258,1,7,11
1.06E+03,-6985,4449,528,73,-346,-7,1,7,11
1.05E+03,-6993,4441,550,25,-371,-22,1,7,11
1.05E+03,-6994,4420,570,0,-151,-34,1,7,11
1.06E+03,-7006,4408,583,7,-179,-58,1,7,11
1.09E+03,-7017,4396,610,20,-200,-86,1,7,11
1.13E+03,-7023,4356,403,43,-206,-103,1,7,11
1.17E+03,-6787,4081,446,103,-216,-115,1,7,11
1.20E+03,-6794,4073,471,-91,-241,123,1,7,11
1.22E+03,-6791,4083,450,-20,-517,112,1,7,11
1.23E+03,-7026,4077,446,285,-249,113,1,7,11
1.22E+03,-7017,4357,428,372,-244,118,1,7,11
1.21E+03,-7006,4388,390,186,-251,-119,1,7,11
1.18E+03,-6968,4398,626,229,-215,-85,1,7,11
1.16E+03,-6938,4417,606,518,-136,-44,1,7,11
1.14E+03,-6917,4449,566,536,-289,-5,1,7,11
1.12E+03,-6656,4447,556,221,112,287,1,7,11
1.11E+03,-6916,4431,555,161,265,300,1,7,11
1.11E+03,-6944,4447,573,344,372,285,1,7,11
1.11E+03,-6944,4437,595,267,162,269,1,7,11
1.12E+03,-6956,4443,605,-30,166,-24,1,7,11
1.13E+03,-6981,4437,621,-82,131,-70,1,7,11
1.13E+03,-7000,4457,609,-110,315,-111,1,7,11
1.13E+03,-7016,4470,585,121,-5,126,1,7,11
1.11E+03,-7018,4479,564,111,-47,-114,1,7,11
1.10E+03,-6788,4225,571,101,-60,-94,1,7,11
1.09E+03,-6795,4225,592,95,-80,-70,1,7,11
1.09E+03,-7034,4476,581,101,-93,-42,1,7,11
1.11E+03,-7018,4469,564,105,-71,-20,1,7,11
1.13E+03,-6995,4462,560,118,-36,263,1,7,11
1.16E+03,-6968,4446,577,124,-3,290,1,7,11
1.18E+03,-6947,4428,589,-117,275,306,1,7,11
1.21E+03,-6917,4450,512,-96,257,291,1,7,11
1.22E+03,-6591,4233,163,-91,284,-4,1,7,11
1.23E+03,-6718,4267,359,111,167,-20,1,7,11
1.23E+03,-6309,4333,274,67,634,271,1,7,11
1.22E+03,-6465,4283,-23,-332,700,342,1,7,11
1.19E+03,-6072,4706,9,-307,1360,356,1,7,11
1.16E+03,-6261,4654,-320,-574,1687,363,1,7,11
1.12E+03,-6081,4495,-188,-701,3139,-52,1,7,11
1.09E+03,-6447,4515,-554,-1293,3914,-119,1,7,11
1.07E+03,-6363,4654,-554,-1640,4335,63,1,7,11
1.07E+03,-6568,4643,-608,-1873,4798,-287,1,7,11
1.09E+03,-6948,4312,-421,-2097,5060,-330,1,7,11
1.11E+03,-6826,4266,-486,-2007,5442,-362,1,7,11
1.14E+03,-7227,4427,-471,-2380,5395,-384,1,7,11
1.16E+03,-7081,4080,-423,-2397,5125,-378,1,7,11
1.19E+03,-7134,4038,-401,-1994,4644,-357,1,7,11
1.20E+03,-7138,4069,-438,-1764,3803,-299,1,7,11
1.20E+03,-7286,4353,-481,-1529,3220,97,1,7,11
1.18E+03,-7222,4371,-512,-1268,2713,271,1,7,11
1.15E+03,-6900,4418,-800,-993,2207,205,1,7,11
1.10E+03,-6837,4439,-771,-1041,1703,622,1,7,11
1.05E+03,-6972,4289,-853,-849,1167,466,1,7,11
1.02E+03,-6580,4348,-665,-512,716,809,1,7,11
1.01E+03,-6700,4656,-723,-486,389,864,1,7,11
1.03E+03,-6325,4681,-736,-488,154,875,1,7,11
1.06E+03,-6492,4709,-733,-488,-41,831,1,7,11
1.09E+03,-6432,4497,-754,-481,40,469,1,7,11
1.13E+03,-6075,4544,-1056,-769,-354,587,1,7,11
1.17E+03,-6208,4866,-1148,-783,-139,206,1,7,11
1.19E+03,-5876,4882,-922,-839,-278,132,1,7,11
1.21E+03,-5872,4883,-1105,-862,-115,321,1,7,11
1.20E+03,-6156,4906,-1063,-847,260,-13,1,7,11
1.18E+03,-6200,4911,-726,-842,337,-87,1,7,11
1.15E+03,-6239,4934,-751,-782,366,93,1,7,11
1.11E+03,-6260,4937,-703,-774,200,53,1,7,11
1.07E+03,-6067,4923,-851,-497,587,32,1,7,11
1.04E+03,-6401,4894,-776,-401,614,33,1,7,11
1.04E+03,-6443,4912,-779,-228,229,31,1,7,11
1.04E+03,-6437,4918,-812,-325,333,52,1,7,11
1.06E+03,-6424,4920,-823,56,-22,94,1,7,11
1.09E+03,-6456,4902,-817,-100,-86,-114,1,7,11
1.12E+03,-6487,4895,-801,-36,97,-93,1,7,11
1.16E+03,-6484,4913,-810,283,-356,-123,1,7,11
1.19E+03,-6510,4938,-784,279,-218,86,1,7,11
1.21E+03,-6500,4749,-819,271,-616,72,1,7,11
1.21E+03,-6452,4780,-866,-33,-449,117,1,7,11
1.20E+03,-6143,4982,-642,-105,-452,-47,1,7,11
1.18E+03,-6428,4924,-850,-123,-398,256,1,7,11
1.15E+03,-6405,4940,-884,-80,-394,273,1,7,11
1.13E+03,-6116,4919,-650,-71,-592,292,1,7,11
1.13E+03,-6081,4907,-679,-67,-231,306,1,7,11
1.13E+03,-6059,4889,-713,-86,-333,310,1,7,11
1.15E+03,-6043,4885,-733,-116,92,299,1,7,11
1.17E+03,-6049,4904,-743,97,-14,-4,1,7,11
1.18E+03,-6074,4946,-1044,32,364,-83,1,7,11
1.18E+03,-6055,4943,-1053,-321,207,105,1,7,11
1.17E+03,-6044,4945,-1080,-358,558,53,1,7,11
1.16E+03,-6065,4927,-1073,-130,408,40,1,7,11
1.14E+03,-6120,4894,-1041,-129,481,30,1,7,11
1.12E+03,-6144,4901,-1026,-359,459,-265,1,7,11
1.11E+03,-6141,4908,-1037,-342,411,-305,1,7,11
1.09E+03,-6434,4881,-730,-346,627,-350,1,7,11
1.08E+03,-6465,4894,-725,-312,533,-383,1,7,11
1.08E+03,-6486,4886,-714,-295,179,-137,1,7,11
1.08E+03,-6494,4889,-728,5,312,-130,1,7,11
1.08E+03,-6470,4870,-729,61,-51,-342,1,7,11
1.08E+03,-6464,4603,-726,115,-126,-271,1,7,11
1.09E+03,-6451,4871,-699,-84,48,69,1,7,11
1.10E+03,-6389,4944,-749,-22,-325,-98,1,7,11
1.10E+03,-6077,4751,-1111,299,-193,278,1,7,11
1.12E+03,-6057,4769,-907,278,-243,283,1,7,11
1.13E+03,-6098,4741,-1124,114,-234,630,1,7,11
1.14E+03,-6074,4794,-1134,34,-616,616,1,7,11
1.15E+03,-6043,4792,-1071,-305,-488,590,1,7,11
1.16E+03,-6261,4737,-1042,-310,-875,527,1,7,11
1.17E+03,-6238,4960,-1047,-342,-655,383,1,7,11
1.18E+03,-6186,4954,-1031,-131,-831,-18,1,7,11
1.19E+03,-6167,4886,-707,-181,-635,127,1,7,11
1.19E+03,-6204,4864,-647,-166,-183,4,1,7,11
1.19E+03,-6231,4895,-646,-152,-284,-132,1,7,11
1.19E+03,-6020,4914,-882,-191,-123,-544,1,7,11
1.19E+03,-6061,4973,-890,-227,-7,-445,1,7,11
1.19E+03,-6108,4973,-851,-565,356,-826,1,7,11
1.18E+03,-6415,4742,-860,-578,136,-668,1,7,11
1.18E+03,-6460,4742,-876,-586,179,-696,1,7,11
1.17E+03,-6275,4935,-843,-601,523,-661,1,7,11
1.16E+03,-6349,4886,-803,-568,546,-874,1,7,11
1.15E+03,-6395,4868,-781,-249,240,-820,1,7,11
1.13E+03,-6679,4875,-771,-175,167,-483,1,7,11
1.10E+03,-6729,4868,-478,-360,335,-633,1,7,11
1.06E+03,-6746,4600,-467,12,121,-228,1,7,11
1.02E+03,-6739,4873,-481,101,-312,-150,1,7,11
9.71E+02,-6705,4870,-807,122,-371,-321,1,7,11
9.36E+02,-6380,4571,-814,90,-311,41,1,7,11
9.22E+02,-6296,4562,-809,123,34,119,1,7,11
9.28E+02,-6304,4523,-786,-54,58,-109,1,7,11
9.47E+02,-6277,4604,-847,-3,71,-83,1,7,11
9.70E+02,-6478,4551,-835,-10,-126,-26,1,7,11
9.90E+02,-6453,4574,-886,281,-51,-12,1,7,11
1.00E+03,-6411,4530,-894,258,324,292,1,7,11
1.01E+03,-6425,4544,-641,314,163,292,1,7,11
1.02E+03,-6417,4546,-678,325,207,273,1,7,11
1.02E+03,-6144,4550,-683,318,238,-21,1,7,11
1.02E+03,-6138,4548,-677,324,211,-48,1,7,11
1.01E+03,-6123,4533,-656,348,361,-91,1,7,11
9.99E+02,-6104,4540,-676,158,-94,78,1,7,11
9.71E+02,-6068,4543,-721,521,-340,-269,1,7,11
9.39E+02,-6123,4559,-702,604,-522,-354,1,7,11
9.15E+02,-6405,4598,-1029,449,-490,-143,1,7,11
9.13E+02,-6436,4871,-1099,421,-856,-180,1,7,11
9.44E+02,-6450,4595,-1139,583,-856,-194,1,7,11
1.00E+03,-6464,4569,-1131,231,-792,-215,1,7,11
1.07E+03,-6509,4597,-1138,159,-449,-234,1,7,11
1.13E+03,-6306,4591,-1095,284,-599,-210,1,7,11
1.18E+03,-6323,4588,-1091,-92,-517,-181,1,7,11
1.21E+03,-6350,4543,-1038,40,-171,-159,1,7,11
1.21E+03,-6370,4498,-728,-297,-354,-141,1,7,11
1.19E+03,-6381,4710,-662,-351,-304,-369,1,7,11
1.15E+03,-6391,4658,-836,-133,-294,-353,1,7,11
1.10E+03,-6390,4658,-819,-384,-336,-365,1,7,11
1.04E+03,-6368,4664,-840,-374,-371,-374,1,7,11
9.89E+02,-6346,4664,-840,-384,-341,-362,1,7,11
9.59E+02,-6349,4639,-790,-368,-300,-335,1,7,11
9.62E+02,-6348,4656,-775,-313,-339,-333,1,7,11
9.88E+02,-6303,4679,-824,-282,-130,-332,1,7,11
1.02E+03,-6527,4707,-866,1,-368,-306,1,7,11
1.03E+03,-6280,4669,-814,-261,-303,-272,1,7,11
1.02E+03,-6297,4700,-827,53,-314,-286,1,7,11
9.76E+02,-6291,4688,-852,50,-327,-311,1,7,11
9.34E+02,-6282,4685,-888,56,-306,-355,1,7,11
9.09E+02,-6325,4698,-893,59,12,-139,1,7,11
9.15E+02,-6363,4483,-665,57,66,-157,1,7,11
9.42E+02,-6700,4500,-641,28,116,-160,1,7,11
9.75E+02,-6774,4509,-883,0,95,-160,1,7,11
9.99E+02,-6554,4719,-877,-306,49,-147,1,7,11
1.00E+03,-6545,4616,-458,-351,-279,-136,1,7,11
9.95E+02,-6538,4334,-794,-299,-218,-369,1,7,11
9.81E+02,-6742,4617,-819,62,-386,-139,1,7,11
9.70E+02,-6667,4347,-844,47,-437,-372,1,7,11
9.67E+02,-6380,4345,-832,92,-392,-312,1,7,11
9.71E+02,-6396,4298,-493,113,-159,35,1,7,11
9.80E+02,-6691,4310,-442,-102,-339,93,1,7,11
9.94E+02,-6696,4339,-437,-22,-354,127,1,7,11
1.01E+03,-6679,4620,-445,14,-380,-103,1,7,11
1.03E+03,-6392,4616,-425,301,-139,-62,1,7,11
1.05E+03,-6368,4614,-400,365,-170,-30,1,7,11
1.07E+03,-6334,4616,-385,198,-243,-36,1,7,11
1.09E+03,-6309,4345,-619,553,-595,-75,1,7,11
1.11E+03,-6300,4611,-623,431,-456,102,1,7,11
1.13E+03,-6314,4644,-628,813,-866,6,1,7,11
1.15E+03,-6337,4695,-632,661,-1057,-326,1,7,11
1.17E+03,-6382,4544,-399,753,-1018,-325,1,7,11
1.18E+03,-6708,4919,-461,1039,-1231,70,1,7,11
1.19E+03,-6560,4982,-785,721,-1422,348,1,7,11
1.20E+03,-6924,4966,-844,848,-1854,446,1,7,11
1.20E+03,-6996,4876,-892,423,-1772,1027,1,7,11
1.20E+03,-7005,4487,-893,251,-1937,989,1,7,11
1.20E+03,-6952,4655,-844,339,-2345,1316,1,7,11
1.20E+03,-6615,4342,-489,-93,-2204,1286,1,7,11
1.20E+03,-6753,4341,-640,2,-2268,931,1,7,11
1.20E+03,-6366,4339,-253,-174,-2254,1044,1,7,11
1.19E+03,-6476,4304,-263,-619,-2375,481,1,7,11
1.18E+03,-6415,4326,125,-397,-2016,207,1,7,11
1.15E+03,-6116,4612,-23,-635,-2168,-91,1,7,11
1.12E+03,-6099,4660,326,-584,-2065,-131,1,7,11
1.09E+03,-6108,4713,149,-518,-1701,-397,1,7,11
1.07E+03,-6127,4504,209,-183,-1851,-861,1,7,11
1.07E+03,-6433,4539,248,-363,-1474,-742,1,7,11
1.09E+03,-6484,4548,550,-290,-1604,-1065,1,7,11
1.13E+03,-6300,4557,579,38,-1197,-1072,1,7,11
1.17E+03,-6386,4551,600,94,-1301,-1040,1,7,11
1.21E+03,-6715,4573,599,-98,-919,-724,1,7,11
1.23E+03,-6537,4600,610,-68,-1044,-642,1,7,11
1.24E+03,-6617,4872,597,-78,-676,-810,1,7,11
1.23E+03,-6913,4870,601,122,-830,-471,1,7,11
1.21E+03,-6918,4537,637,25,-471,-390,1,7,11
1.20E+03,-6649,4717,398,-299,-635,-598,1,7,11
1.18E+03,-6642,4348,446,-358,-539,-582,1,7,11
1.17E+03,-6642,4286,471,-145,-194,-590,1,7,11
1.17E+03,-6917,4253,477,-151,-377,-387,1,7,11
1.16E+03,-6938,4238,488,-152,-313,-431,1,7,11
1.16E+03,-6969,4237,489,-146,-248,-468,1,7,11
1.16E+03,-6997,4254,489,-380,34,-491,1,7,11
1.16E+03,-7035,4280,482,-320,69,-489,1,7,11
1.16E+03,-6818,4295,489,-266,113,-458,1,7,11
1.14E+03,-6842,4282,500,67,-98,-393,1,7,11
1.13E+03,-6824,4265,497,-73,-52,-550,1,7,11
1.10E+03,-6810,4243,490,325,263,-198,1,7,11
1.07E+03,-7015,4224,476,235,283,-367,1,7,11
1.04E+03,-6948,4446,436,407,290,-299,1,7,11
1.02E+03,-6642,4418,409,802,287,-290,1,7,11
1.01E+03,-6607,4383,399,650,-15,-329,1,7,11
9.99E+02,-6588,4078,388,701,-84,-129,1,7,11
9.94E+02,-6573,4002,394,724,87,-186,1,7,11
9.92E+02,-6584,4218,638,742,8,-228,1,7,11
9.90E+02,-6608,4202,589,753,-321,-253,1,7,11
9.94E+02,-6650,4211,539,726,-357,-246,1,7,11
1.00E+03,-6943,4217,249,697,-368,-202,1,7,11
1.03E+03,-7013,4007,211,658,-349,-141,1,7,11
1.05E+03,-6807,4027,202,851,-336,-311,1,7,11
1.08E+03,-6830,4077,160,806,-327,34,1,7,11
1.10E+03,-6868,4373,159,474,-276,-102,1,7,11
1.10E+03,-6884,4404,175,610,-265,-58,1,7,11
1.07E+03,-6898,4413,189,514,-286,-36,1,7,11
1.03E+03,-6884,4416,191,175,-333,-30,1,7,11
9.92E+02,-6872,4443,190,130,-380,-40,1,7,11
9.70E+02,-6859,4464,206,323,-156,-68,1,7,11
9.77E+02,-6845,4446,521,-23,-178,-84,1,7,11
1.00E+03,-6832,4423,567,-92,-218,-102,1,7,11
1.04E+03,-6794,4411,606,113,-515,-102,1,7,11
1.08E+03,-7008,4392,616,64,-525,-101,1,7,11
1.10E+03,-6962,4392,601,44,-240,-112,1,7,11
1.12E+03,-6950,4412,576,37,-156,113,1,7,11
1.13E+03,-6945,4445,555,18,-284,81,1,7,11
1.13E+03,-6952,4470,560,-274,-121,61,1,7,11
1.13E+03,-6961,4469,563,-314,285,43,1,7,11
1.12E+03,-6982,4255,535,-344,142,10,1,7,11
1.12E+03,-7006,4268,250,-173,515,-292,1,7,11
1.10E+03,-7028,4258,241,-251,565,-343,1,7,11
1.08E+03,-6793,4237,249,-587,569,-145,1,7,11
1.05E+03,-6817,4227,513,-392,529,-199,1,7,11
1.01E+03,-6815,4473,519,-460,212,-235,1,7,11
9.68E+02,-6807,4468,524,-797,143,-517,1,7,11
9.31E+02,-6813,4467,543,-644,321,-539,1,7,11
9.01E+02,-6831,4464,567,-761,-23,-546,1,7,11
8.79E+02,-6838,4433,600,-1113,-122,-517,1,7,11
8.65E+02,-6833,4415,639,-1145,55,-196,1,7,11
8.60E+02,-6839,4387,427,-1115,23,-354,1,7,11
8.61E+02,-6836,4092,482,-761,29,26,1,7,11
8.68E+02,-6823,4080,790,-845,60,-113,1,7,11
8.77E+02,-6795,4082,828,-632,104,-5,1,7,11
8.88E+02,-7008,4071,872,-153,-89,364,1,7,11
8.99E+02,-6960,4066,881,77,-19,196,1,7,11
9.07E+02,-6648,4064,871,297,307,249,1,7,11
9.14E+02,-6642,4352,851,231,371,235,1,7,11
9.17E+02,-6628,4377,790,615,134,188,1,7,11
9.19E+02,-6618,4381,478,437,139,368,1,7,11
9.17E+02,-6621,4382,409,487,141,275,1,7,11
9.13E+02,-6630,4395,583,778,145,-66,1,7,11
9.07E+02,-6633,4422,244,796,149,119,1,7,11
9.00E+02,-6648,4437,173,788,173,88,1,7,11
8.91E+02,-6951,4455,373,503,202,65,1,7,11
8.81E+02,-6997,4477,326,439,197,28,1,7,11
8.71E+02,-6789,4250,296,591,176,-275,1,7,11
8.60E+02,-6841,4263,292,191,139,-307,1,7,11
8.50E+02,-6870,4261,290,305,342,-312,1,7,11
8.40E+02,-6910,4437,322,-107,280,-264,1,7,11
8.32E+02,-6901,4385,354,10,-47,44,1,7,11
8.25E+02,-7189,4076,157,-308,-106,86,1,7,11
8.20E+02,-7250,4094,193,-313,47,84,1,7,11
8.18E+02,-7228,4075,208,-347,-335,90,1,7,11
8.20E+02,-7172,4044,243,-353,-166,97,1,7,11
8.25E+02,-6839,4048,250,-320,-226,120,1,7,11
8.39E+02,-7007,4067,215,-289,-224,-87,1,7,11
8.66E+02,-6930,4359,157,-273,-146,-28,1,7,11
9.08E+02,-6580,4366,144,-301,-257,303,1,7,11
9.62E+02,-6769,4457,307,-290,-87,328,1,7,11
1.02E+03,-6709,4234,262,-345,147,350,1,7,11
1.06E+03,-6675,4337,-77,-377,424,306,1,7,11
1.08E+03,-6364,4657,124,-230,751,276,1,7,11
1.09E+03,-6528,4625,51,-405,1401,294,1,7,11
1.08E+03,-6522,4660,-306,-656,2101,312,1,7,11
1.05E+03,-6302,4680,-130,-1098,2582,346,1,7,11
1.01E+03,-6375,4732,-209,-1005,2762,351,1,7,11
9.51E+02,-6722,4522,-516,-1187,3374,339,1,7,11
8.99E+02,-6559,4547,-568,-1630,3608,297,1,7,11
8.57E+02,-6620,4486,-590,-1846,3487,256,1,7,11
8.27E+02,-6651,4317,-576,-1777,3548,-61,1,7,11
8.09E+02,-6937,4451,-540,-2113,3523,90,1,7,11
8.01E+02,-6938,4060,-536,-2115,3686,-269,1,7,11
8.03E+02,-6950,4217,-516,-1782,3286,-368,1,7,11
8.12E+02,-6921,4166,-522,-1908,3354,-212,1,7,11
8.24E+02,-6599,4126,-556,-1533,3186,-557,1,7,11
8.38E+02,-6768,4141,-613,-1656,3072,-628,1,7,11
8.51E+02,-6662,4005,-472,-1267,2768,-420,1,7,11
8.62E+02,-6344,4087,-816,-1225,3101,-636,1,7,11
8.69E+02,-6346,4402,-644,-1194,2982,-255,1,7,11
8.72E+02,-6396,4448,-698,-1404,3360,-327,1,7,11
8.72E+02,-6717,4234,-750,-1321,3394,-123,1,7,11
8.70E+02,-6771,4271,-1042,-947,3041,295,1,7,11
8.67E+02,-6547,4328,-1084,-1068,3076,382,1,7,11
8.64E+02,-6782,4645,-1152,-691,2513,156,1,7,11
8.64E+02,-6752,4672,-956,-876,2187,143,1,7,11
8.66E+02,-6731,4660,-953,-838,2100,345,1,7,11
8.73E+02,-6729,4684,-940,-815,1458,-22,1,7,11
8.83E+02,-6691,4676,-938,-831,1285,122,1,7,11
8.98E+02,-6365,4658,-954,-828,863,14,1,7,11
9.17E+02,-6291,4640,-974,-813,252,-343,1,7,11
9.40E+02,-6506,4620,-965,-804,-7,-153,1,7,11
9.64E+02,-6489,4615,-932,-805,49,-186,1,7,11
9.89E+02,-6487,4331,-1136,-835,-372,-179,1,7,11
1.01E+03,-6467,4332,-1120,-843,-255,-153,1,7,11
1.03E+03,-6445,4617,-1117,-831,-600,-368,1,7,11
1.04E+03,-6447,4637,-1107,-807,-622,-318,1,7,11
1.05E+03,-6470,4655,-1097,-505,-615,-294,1,7,11
1.04E+03,-6286,4667,-1065,-445,-603,-314,1,7,11
1.03E+03,-6360,4702,-1030,-633,-631,-372,1,7,11
1.02E+03,-6717,4508,-706,-570,-450,-214,1,7,11
1.02E+03,-6754,4514,-669,-225,-888,-241,1,7,11
1.02E+03,-6766,4484,-864,-142,-1034,-225,1,7,11
1.02E+03,-6769,4665,-794,-277,-943,-165,1,7,11
1.03E+03,-6746,4283,-455,-96,-1382,-321,1,7,11
1.03E+03,-6717,4415,-635,147,-1583,28,1,7,11
1.03E+03,-6683,4367,-588,452,-1829,88,1,7,11
1.03E+03,-6672,4406,-600,1033,-2099,-116,1,7,11
1.04E+03,-6700,4477,-621,1326,-2360,-57,1,7,11
1.04E+03,-6730,4285,-634,1560,-2617,260,1,7,11
1.05E+03,-6754,4323,-639,1472,-2882,303,1,7,11
1.05E+03,-6753,4341,-634,1846,-3149,313,1,7,11
1.06E+03,-6735,4616,-639,1914,-3396,279,1,7,11
1.06E+03,-6702,4629,-397,1675,-3607,-39,1,7,11
1.06E+03,-6672,4643,-393,1917,-3501,-123,1,7,11
1.07E+03,-6400,4659,-637,1857,-3846,36,1,7,11
1.07E+03,-6384,4657,-620,1499,-3868,-318,1,7,11
1.07E+03,-6396,4656,-585,1633,-3551,-153,1,7,11
1.08E+03,-6670,4650,-517,1237,-3689,-236,1,7,11
1.09E+03,-6708,4640,-193,1321,-3249,-568,1,7,11
1.10E+03,-6749,4334,-372,1119,-3016,-620,1,7,11
1.10E+03,-6532,4285,-294,658,-2741,-408,1,7,11
1.09E+03,-6559,4253,35,466,-2448,-452,1,7,11
1.08E+03,-6596,4242,114,541,-2394,-470,1,7,11
1.06E+03,-6634,4242,-77,365,-1926,-488,1,7,11
1.04E+03,-6921,4237,-4,-68,-1620,-488,1,7,11
1.02E+03,-6971,4225,345,-71,-1319,-481,1,7,11
1.01E+03,-7019,4461,167,-201,-1067,-477,1,7,11
1.00E+03,-6808,4429,232,-544,-871,-483,1,7,11
1.00E+03,-6854,4430,549,-570,-483,-496,1,7,11
1.01E+03,-6890,4444,596,-561,-408,-774,1,7,11
1.02E+03,-7177,4441,638,-545,-625,-782,1,7,11
1.03E+03,-7181,4422,405,-241,-617,-507,1,7,11
1.05E+03,-7203,4369,457,-177,-615,-471,1,7,11
1.06E+03,-7194,4061,494,-331,-639,-419,1,7,11
1.08E+03,-6912,4010,508,38,-405,-615,1,7,11
1.09E+03,-6892,3970,783,-101,-418,-559,1,7,11
1.10E+03,-6857,4180,777,-2,-431,-237,1,7,11
1.11E+03,-6830,4153,769,331,-412,-177,1,7,11
1.12E+03,-6808,4141,509,137,-640,-130,1,7,11
1.13E+03,-6797,4138,478,182,-605,-356,1,7,11
1.14E+03,-6803,4154,448,204,-557,-345,1,7,11
1.15E+03,-6818,4168,426,189,-253,-352,1,7,11
1.16E+03,-6831,4161,410,161,-204,-371,1,7,11
1.15E+03,-6846,4127,401,129,-148,-156,1,7,11
1.14E+03,-6868,4101,639,371,-354,-216,1,7,11
1.12E+03,-6906,3832,616,363,-309,-539,1,7,11
1.09E+03,-7213,3833,617,353,-280,-607,1,7,11
1.04E+03,-7266,3833,610,322,-262,-402,1,7,11
9.86E+02,-7048,3821,611,281,10,-423,1,7,11
9.37E+02,-7078,3801,617,-15,12,-416,1,7,11
9.02E+02,-7092,3787,634,-61,16,-634,1,7,11
8.87E+02,-7095,3769,401,-113,27,-572,1,7,11
8.87E+02,-7083,3750,416,93,41,-234,1,7,11
8.95E+02,-7066,3747,428,48,59,-146,1,7,11
9.06E+02,-7284,3732,440,0,72,-316,1,7,11
9.16E+02,-7259,3741,445,-284,84,49,1,7,11
9.26E+02,-7250,3763,465,-309,111,77,1,7,11
9.36E+02,-7215,3792,462,-333,-121,-123,1,7,11
9.47E+02,-7200,3835,464,-359,-114,-107,1,7,11
9.56E+02,-7193,4126,462,-160,-103,-102,1,7,11
9.66E+02,-7184,4154,459,-207,-87,-113,1,7,11
9.74E+02,-7188,4169,466,-231,-75,123,1,7,11
9.81E+02,-7179,4166,473,-572,-10,110,1,7,11
9.89E+02,-7183,4162,496,-614,319,106,1,7,11
9.97E+02,-7169,4144,776,-639,151,121,1,7,11
1.01E+03,-6909,4128,792,-634,245,-116,1,7,11
1.02E+03,-6898,4121,799,-618,578,-95,1,7,11
1.03E+03,-6899,4128,820,-574,616,-72,1,7,11
1.05E+03,-6895,4128,815,-248,619,-46,1,7,11
1.07E+03,-6901,4140,816,-166,613,-27,1,7,11
1.09E+03,-6889,4149,798,-314,581,-2,1,7,11
1.11E+03,-6883,4149,785,4,562,-3,1,7,11
1.13E+03,-6880,4148,506,65,524,-18,1,7,11
1.14E+03,-6881,4153,482,-122,231,-27,1,7,11
1.16E+03,-6881,4151,458,-65,201,-18,1,7,11
1.17E+03,-6883,4135,442,-27,172,-5,1,7,11
1.17E+03,-6870,4114,421,268,378,-13,1,7,11
1.17E+03,-6863,4118,387,312,300,-53,1,7,11
1.16E+03,-6847,4124,595,352,-52,-108,1,7,11
1.14E+03,-6836,4105,558,359,-103,88,1,7,11
1.12E+03,-6841,4115,515,364,-123,19,1,7,11
1.09E+03,-6851,4151,229,349,-115,-291,1,7,11
1.06E+03,-6906,4160,241,293,-94,-331,1,7,11
1.03E+03,-7223,4173,524,-16,117,-370,1,7,11
1.01E+03,-7267,4186,522,-70,12,-156,1,7,11
9.82E+02,-7267,4196,219,101,-332,-179,1,7,11
9.67E+02,-7215,4207,181,7,-338,-163,1,7,11
9.66E+02,-7191,4214,139,-337,17,-364,1,7,11
9.80E+02,-7190,4150,239,-200,-86,-273,1,7,11
1.01E+03,-7195,4131,525,-239,261,51,1,7,11
1.04E+03,-7176,4131,544,-548,350,105,1,7,11
1.07E+03,-7177,3818,636,-600,166,-120,1,7,11
1.10E+03,-6902,4096,627,-583,193,-120,1,7,11
1.13E+03,-6888,3816,422,-561,228,-112,1,7,11
1.14E+03,-6911,4100,436,-248,229,121,1,7,11
1.15E+03,-6907,3838,413,-195,210,118,1,7,11
1.14E+03,-6899,3831,394,-374,207,115,1,7,11
1.11E+03,-7172,3828,387,-293,198,121,1,7,11
1.08E+03,-7183,3838,627,55,167,124,1,7,11
1.05E+03,-7198,4100,604,122,131,125,1,7,11
1.03E+03,-7210,3838,595,-84,354,124,1,7,11
1.03E+03,-7221,4100,574,-39,310,112,1,7,11
1.04E+03,-7210,4105,557,-17,-1,97,1,7,11
1.06E+03,-7204,4098,556,-18,-44,72,1,7,11
1.08E+03,-7192,4099,537,-27,-81,44,1,7,11
1.11E+03,-7174,3824,526,-46,-114,21,1,7,11
1.14E+03,-7173,3833,253,-57,-125,4,1,7,11
1.16E+03,-7169,3830,254,-71,-122,2,1,7,11
1.16E+03,-7184,3817,245,-84,-98,3,1,7,11
1.14E+03,-7197,3803,241,-99,-55,11,1,7,11
1.09E+03,-7222,3798,249,-104,-9,18,1,7,11
1.03E+03,-7262,3785,255,-93,272,24,1,7,11
9.87E+02,-7046,3773,516,-64,277,42,1,7,11
9.66E+02,-7075,3762,519,-22,266,72,1,7,11
9.81E+02,-7087,3748,535,286,-23,109,1,7,11
1.02E+03,-7084,3726,523,344,-68,-95,1,7,11
1.07E+03,-7082,3714,253,361,-84,-34,1,7,11
1.12E+03,-7043,3942,241,358,-78,279,1,7,11
1.14E+03,-7070,3957,240,339,-35,310,1,7,11
1.15E+03,-7085,3954,230,317,-23,345,1,7,11
1.14E+03,-7115,3965,212,315,-22,360,1,7,11
1.12E+03,-7135,3763,164,339,-47,369,1,7,11
1.10E+03,-7131,4114,366,360,-72,132,1,7,11
1.08E+03,-7104,3981,303,355,-65,178,1,7,11
1.06E+03,-7096,4033,-9,352,-33,231,1,7,11
1.05E+03,-7049,4424,-56,327,279,556,1,7,11
1.05E+03,-7201,4467,-86,290,347,395,1,7,11
1.05E+03,-6845,4248,-106,267,157,495,1,7,11
1.06E+03,-6963,4238,-122,264,211,642,1,7,11
1.07E+03,-6542,4457,-121,277,523,738,1,7,11
1.08E+03,-6384,4397,-103,321,602,1063,1,7,11
1.09E+03,-6504,4356,-98,130,631,1091,1,7,11
1.11E+03,-6406,4377,-106,265,628,1057,1,7,11
1.11E+03,-6100,4432,123,578,606,714,1,7,11
1.11E+03,-6099,4227,118,584,563,851,1,7,11
1.10E+03,-6142,4279,105,565,238,460,1,7,11
1.08E+03,-6468,4326,110,254,155,575,1,7,11
1.05E+03,-6285,4629,103,184,319,188,1,7,11
1.03E+03,-6374,4640,115,348,-15,321,1,7,11
1.02E+03,-6734,4619,-119,-2,-88,-53,1,7,11
1.03E+03,-6596,4608,-92,-56,89,83,1,7,11
1.05E+03,-6962,4323,-52,-84,0,-282,1,7,11
1.07E+03,-7037,4294,-22,-87,-361,-371,1,7,11
1.09E+03,-6836,4267,267,-75,-201,-184,1,7,11
1.11E+03,-6869,4243,286,-54,-530,-216,1,7,11
1.13E+03,-6863,4241,269,-37,-559,-200,1,7,11
1.14E+03,-6835,4468,273,-45,-519,-129,1,7,11
1.14E+03,-6813,4455,268,-54,-176,-291,1,7,11
1.15E+03,-7032,4448,273,-75,-329,72,1,7,11
1.16E+03,-6977,4458,267,-102,34,-83,1,7,11
1.16E+03,-6913,4459,-4,109,-106,265,1,7,11
1.16E+03,-6602,4462,-33,82,259,331,1,7,11
1.17E+03,-6544,4477,-41,68,354,366,1,7,11
1.17E+03,-6766,4240,-63,66,176,368,1,7,11
1.16E+03,-6755,4232,-45,61,228,343,1,7,11
1.16E+03,-6772,4226,-36,66,253,286,1,7,11
1.16E+03,-6767,4452,-46,87,232,-25,1,7,11
1.16E+03,-6783,4466,-53,-121,198,-100,1,7,11
1.16E+03,-6578,4236,-63,-76,151,72,1,7,11
1.16E+03,-6624,4248,-70,-75,355,-274,1,7,11
1.15E+03,-6913,4238,-72,-102,-9,-162,1,7,11
1.13E+03,-6926,4478,-93,123,-83,-513,1,7,11
1.08E+03,-6929,4451,-98,110,126,-588,1,7,11
1.02E+03,-6953,4421,-102,-128,98,-636,1,7,11
9.55E+02,-6995,4408,-107,-102,86,-394,1,7,11
9.00E+02,-6785,4407,-109,-83,97,-630,1,7,11
8.67E+02,-6834,4400,-116,-79,123,-580,1,7,11
8.51E+02,-6873,4387,-121,-69,-103,-513,1,7,11
8.44E+02,-6892,4393,100,-40,-72,-178,1,7,11
8.40E+02,-6874,4401,62,-26,-25,-342,1,7,11
8.37E+02,-6840,4393,22,-13,289,1,1,7,11
8.36E+02,-6795,4376,-261,-12,351,76,1,7,11
8.41E+02,-6987,4361,-292,-1,151,-123,1,7,11
8.52E+02,-6923,4094,-314,270,203,-83,1,7,11
8.67E+02,-6611,4082,-340,291,253,-56,1,7,11
8.79E+02,-6565,4072,-370,309,549,-38,1,7,11
8.87E+02,-6777,4057,-141,336,574,-30,1,7,11
8.87E+02,-6757,4045,-139,372,596,-28,1,7,11
8.82E+02,-6769,4041,-149,162,578,-55,1,7,11
8.71E+02,-6529,4052,-165,208,249,-102,1,7,11
8.55E+02,-6534,4375,-217,242,161,84,1,7,11
8.38E+02,-6557,4425,-245,227,337,20,1,7,11
8.23E+02,-6613,4450,-515,166,-29,-300,1,7,11
8.11E+02,-6654,4427,-254,291,-90,-338,1,7,11
8.02E+02,-6949,4417,-517,-29,102,-379,1,7,11
7.93E+02,-6953,4426,-568,-89,89,-148,1,7,11
7.82E+02,-6960,4091,-255,68,-102,-136,1,7,11
7.70E+02,-7028,4362,-223,93,-47,-132,1,7,11
7.59E+02,-6800,4092,-204,120,-41,-356,1,7,11
7.52E+02,-6801,4092,-208,-101,-8,-309,1,7,11
7.47E+02,-6806,4095,-207,-74,301,4,1,7,11
7.46E+02,-7036,4086,-169,-57,344,76,1,7,11
7.46E+02,-7017,4073,-193,258,338,-115,1,7,11
7.49E+02,-6995,4082,-249,266,349,-74,1,7,11
7.54E+02,-6940,4079,-555,-15,375,-50,1,7,11
7.61E+02,-6644,4366,-596,-35,142,-47,1,7,11
7.67E+02,-6597,4379,-618,-85,161,-47,1,7,11
7.69E+02,-6572,4388,-628,102,171,-66,1,7,11
7.65E+02,-6554,4389,-396,23,155,-128,1,7,11
7.57E+02,-6538,4381,-640,-317,130,76,1,7,11
7.49E+02,-6542,4087,-592,-150,368,32,1,7,11
7.48E+02,-6568,4078,-571,-200,324,-270,1,7,11
7.52E+02,-6597,4067,-547,-232,288,-304,1,7,11
7.52E+02,-6629,4047,-514,-528,280,-337,1,7,11
7.43E+02,-6936,4035,-210,-560,282,-374,1,7,11
7.27E+02,-6986,4031,-164,-575,-3,-160,1,7,11
7.12E+02,-7015,4038,-156,-559,-80,-194,1,7,11
7.07E+02,-6987,4077,-189,-238,95,-181,1,7,11
7.08E+02,-6967,4091,-205,-189,84,-135,1,7,11
7.10E+02,-6965,4361,-204,-144,104,-328,1,7,11
7.07E+02,-6964,4360,-208,-369,121,-275,1,7,11
7.02E+02,-6957,4362,-221,-325,117,10,1,7,11
6.99E+02,-6959,4389,-242,-286,120,13,1,7,11
7.02E+02,-6959,4381,-240,-275,122,29,1,7,11
7.07E+02,-6945,4365,-240,-264,121,49,1,7,11
7.12E+02,-6947,4093,-229,-260,118,58,1,7,11
7.14E+02,-6942,4074,-211,-258,83,68,1,7,11
7.15E+02,-6643,4066,-219,15,36,73,1,7,11
7.13E+02,-6615,4061,-226,11,31,76,1,7,11
7.09E+02,-6609,4061,-226,-261,48,75,1,7,11
7.04E+02,-6595,4079,-233,-272,55,67,1,7,11
6.98E+02,-6596,4095,-228,-291,75,60,1,7,11
6.92E+02,-6603,4364,-250,-303,102,54,1,7,11
6.88E+02,-6624,4372,-238,-333,-96,49,1,7,11
6.89E+02,-6918,4366,-222,-351,-43,41,1,7,11
6.94E+02,-6956,4358,-205,-351,-5,47,1,7,11
7.05E+02,-6986,4086,-198,-337,272,60,1,7,11
7.22E+02,-7013,4060,-163,-319,281,74,1,7,11
7.41E+02,-6811,4055,-163,2,-13,79,1,7,11
7.60E+02,-6861,4072,-188,42,-71,77,1,7,11
7.77E+02,-6863,4049,-188,51,-113,95,1,7,11
7.94E+02,-6865,4039,-196,74,101,106,1,7,11
8.14E+02,-6828,4025,-207,98,61,-119,1,7,11
8.39E+02,-7028,4023,-225,126,57,-72,1,7,11
8.69E+02,-6952,4033,-239,-110,88,-24,1,7,11
9.05E+02,-6650,4042,-523,-104,-120,270,1,7,11
9.45E+02,-6609,4055,-539,-108,-66,296,1,7,11
9.87E+02,-6584,4068,-545,-126,-6,295,1,7,11
1.03E+03,-6561,4086,-561,112,296,281,1,7,11
1.06E+03,-6545,4357,-574,89,345,257,1,7,11
1.08E+03,-6535,4376,-600,49,366,-26,1,7,11
1.08E+03,-6537,4385,-596,11,383,-57,1,7,11
1.06E+03,-6545,4378,-577,-280,379,-89,1,7,11
1.05E+03,-6569,4373,-558,-297,355,124,1,7,11
1.03E+03,-6585,4372,-544,-304,298,72,1,7,11
1.03E+03,-6594,4379,-561,-308,-28,19,1,7,11
1.03E+03,-6593,4401,-566,-316,-73,-287,1,7,11
1.04E+03,-6592,4395,-559,-336,-101,-322,1,7,11
1.06E+03,-6596,4403,-535,-347,-126,-353,1,7,11
1.07E+03,-6613,4411,-513,-352,95,-371,1,7,11
1.08E+03,-6622,4423,-530,-369,64,-384,1,7,11
1.09E+03,-6629,4383,-250,-167,72,-138,1,7,11
1.10E+03,-6641,4374,-244,-195,92,-156,1,7,11
1.10E+03,-6915,4353,-233,-200,107,-170,1,7,11
1.09E+03,-6928,4078,-212,-183,116,-169,1,7,11
1.08E+03,-6941,4082,-216,-151,117,-161,1,7,11
1.08E+03,-6958,4089,-212,-373,110,-152,1,7,11
1.08E+03,-6981,4360,-208,-349,106,-141,1,7,11
1.08E+03,-6981,4092,-196,-338,96,-356,1,7,11
1.09E+03,-6959,4060,-191,-324,99,-315,1,7,11
1.10E+03,-6953,4028,-178,-301,124,-277,1,7,11
1.11E+03,-6944,4013,-176,-259,-118,7,1,7,11
1.12E+03,-6935,4021,-184,40,-110,21,1,7,11
1.12E+03,-6932,4031,-201,71,-109,27,1,7,11
1.12E+03,-6941,4049,-221,86,-106,20,1,7,11
1.12E+03,-6955,4052,-234,75,-108,8,1,7,11
1.12E+03,-6959,4058,-252,58,-110,-263,1,7,11
1.11E+03,-6974,4059,-530,31,-105,-279,1,7,11
1.11E+03,-6983,4061,-526,0,-98,-286,1,7,11
1.10E+03,-6984,4068,-526,-284,-99,-286,1,7,11
1.09E+03,-6979,4057,-520,-318,-97,-273,1,7,11
1.09E+03,-6974,4039,-518,-342,-80,-258,1,7,11
1.08E+03,-6978,4030,-514,-340,-58,9,1,7,11
1.08E+03,-6993,4044,-249,-331,-41,14,1,7,11
1.08E+03,-6999,4055,-255,-329,-37,22,1,7,11
1.08E+03,-6992,4049,-247,-335,-34,33,1,7,11
1.08E+03,-6983,4046,-238,-324,-36,44,1,7,11
1.08E+03,-6972,4039,-244,-314,-28,51,1,7,11
1.09E+03,-6969,4033,-513,-300,-6,59,1,7,11
1.09E+03,-6968,4033,-519,-291,260,60,1,7,11
1.09E+03,-6962,4026,-518,-277,267,59,1,7,11
1.09E+03,-6963,4022,-523,-265,275,55,1,7,11
1.09E+03,-6963,4025,-529,2,273,52,1,7,11
1.08E+03,-6966,4024,-535,11,266,53,1,7,11
1.06E+03,-6964,4017,-549,16,256,55,1,7,11
1.03E+03,-6961,4020,-554,24,-13,53,1,7,11
1.01E+03,-6948,4016,-559,32,-29,58,1,7,11
9.90E+02,-6944,4017,-568,40,-38,58,1,7,11
9.83E+02,-6940,4030,-576,38,-47,57,1,7,11
9.91E+02,-6935,4039,-585,20,-54,53,1,7,11
1.01E+03,-6931,4040,-586,3,-53,53,1,7,11
1.04E+03,-6932,4039,-570,-272,-46,52,1,7,11
1.08E+03,-6932,4028,-564,-282,-41,54,1,7,11
1.11E+03,-6935,4019,-556,-287,-35,50,1,7,11
1.15E+03,-6932,4018,-558,-279,-37,43,1,7,11
1.17E+03,-6938,4018,-560,-274,-43,31,1,7,11
1.17E+03,-6953,4017,-553,-280,-52,14,1,7,11
1.14E+03,-6960,4015,-556,-284,-82,5,1,7,11
1.08E+03,-6963,4025,-555,-295,-100,2,1,7,11
1.01E+03,-6961,4024,-552,-316,-109,4,1,7,11
9.23E+02,-6957,4022,-550,-334,-113,0,1,7,11
8.41E+02,-6955,4018,-550,-345,-103,-267,1,7,11
7.64E+02,-6965,4019,-536,-354,-96,-274,1,7,11
6.97E+02,-6965,4018,-531,-358,-91,-270,1,7,11
6.40E+02,-6968,4015,-525,-362,-77,-258,1,7,11
5.96E+02,-6974,4005,-254,-361,-64,16,1,7,11
5.66E+02,-6973,4001,-514,-349,-63,31,1,7,11
5.49E+02,-6978,4009,-243,-333,-63,42,1,7,11
5.47E+02,-6977,4014,-255,-322,-74,55,1,7,11
5.60E+02,-6966,4017,-252,-313,-84,67,1,7,11
5.91E+02,-6959,4023,-514,-307,-91,73,1,7,11
6.40E+02,-6953,4025,-523,-300,-93,76,1,7,11
7.07E+02,-6940,4034,-538,-300,-90,71,1,7,11
7.88E+02,-6931,4047,-538,-306,-79,62,1,7,11
8.81E+02,-6934,4048,-541,-323,-64,56,1,7,11
9.78E+02,-6936,4029,-546,-339,-51,49,1,7,11
1.06E+03,-6935,4041,-572,-334,-30,33,1,7,11
1.12E+03,-6945,4062,-571,-343,259,19,1,7,11
1.12E+03,-6963,4061,-560,-352,279,11,1,7,11
1.07E+03,-6972,4046,-547,-364,272,16,1,7,11
9.77E+02,-6976,4017,-535,-361,-5,27,1,7,11
8.83E+02,-6991,3998,-252,-342,-47,41,1,7,11
8.26E+02,-6981,4008,-521,-311,-116,50,1,7,11
8.19E+02,-6943,4023,-568,-315,106,57,1,7,11
8.44E+02,-6936,4009,-568,-363,-112,46,1,7,11
8.80E+02,-6928,4000,-549,-132,-97,22,1,7,11
9.11E+02,-6915,4000,-547,-132,-104,-270,1,7,11
9.30E+02,-6918,4014,-553,-380,-95,-297,1,7,11
9.40E+02,-6926,4022,-546,-134,-52,-295,1,7,11
9.40E+02,-6950,4013,-535,-144,-4,-272,1,7,11
9.32E+02,-6981,4000,-513,-138,278,0,1,7,11
9.23E+02,-7018,4006,-251,-377,269,10,1,7,11
9.19E+02,-7036,4004,-244,-368,-8,16,1,7,11
9.27E+02,-7037,4003,-239,-362,-36,30,1,7,11
9.48E+02,-7030,4009,-234,-358,-60,45,1,7,11
9.77E+02,-7019,4004,-233,-350,-83,56,1,7,11
1.01E+03,-7005,3995,-231,-338,-119,71,1,7,11
1.03E+03,-6982,4000,-243,-321,-126,81,1,7,11
1.05E+03,-6963,4009,-252,-306,-114,84,1,7,11
1.06E+03,-6948,4006,-514,-308,-79,83,1,7,11
1.06E+03,-6945,4005,-239,-309,-57,73,1,7,11
1.05E+03,-6937,4024,-520,-294,-58,67,1,7,11
1.03E+03,-6929,4041,-536,-306,-43,68,1,7,11
1.01E+03,-6938,4029,-544,-322,-15,73,1,7,11
9.77E+02,-6948,4040,-556,-318,256,75,1,7,11
9.49E+02,-6950,4041,-572,-319,276,89,1,7,11
9.27E+02,-6949,4036,-562,-331,307,109,1,7,11
9.12E+02,-6931,4020,-562,-343,334,120,1,7,11
9.08E+02,-6926,4015,-570,-361,367,106,1,7,11
9.15E+02,-6924,4030,-578,-136,135,74,1,7,11
9.30E+02,-6926,4036,-579,-185,158,30,1,7,11
9.44E+02,-6939,4037,-590,-240,181,-276,1,7,11
9.46E+02,-6951,4026,-593,-557,192,-324,1,7,11
9.30E+02,-6967,4006,-585,-604,184,-370,1,7,11
9.01E+02,-6974,3993,-581,-625,150,-162,1,7,11
8.69E+02,-6989,3971,-574,-390,368,-206,1,7,11
8.44E+02,-6996,4218,-562,-397,326,-239,1,7,11
8.32E+02,-7006,4211,-530,-399,281,-526,1,7,11
8.32E+02,-7001,4222,-533,-636,-47,-544,1,7,11
8.44E+02,-6989,4221,-532,-623,-99,-535,1,7,11
8.67E+02,-6994,4213,-526,-591,-120,-239,1,7,11
8.95E+02,-7005,4208,-241,-549,-126,-178,1,7,11
9.25E+02,-7018,4208,-232,-227,100,-370,1,7,11
9.52E+02,-7017,4207,-237,-182,82,-312,1,7,11
9.78E+02,-7019,3974,-246,-151,94,-275,1,7,11
1.00E+03,-7027,3977,-233,-155,-121,3,1,7,11
1.02E+03,-6996,4217,-233,-170,-89,25,1,7,11
1.05E+03,-6982,4215,-245,-152,-62,28,1,7,11
1.07E+03,-6977,4221,-250,-137,-22,32,1,7,11
1.09E+03,-6981,4220,-248,-373,288,42,1,7,11
1.10E+03,-6996,4217,-241,-361,329,56,1,7,11
1.12E+03,-7023,4214,-229,-354,354,69,1,7,11
1.13E+03,-7031,4206,-229,-344,359,85,1,7,11
1.14E+03,-7034,4207,-230,-332,346,88,1,7,11
1.14E+03,-7021,4205,-243,-319,310,88,1,7,11
1.14E+03,-7008,4212,-256,-316,297,91,1,7,11
1.12E+03,-7001,4221,-524,-310,286,100,1,7,11
1.10E+03,-6998,3975,-538,-299,277,117,1,7,11
1.08E+03,-6996,3978,-549,-290,276,-107,1,7,11
1.05E+03,-7013,3984,-540,-281,270,-74,1,7,11
1.02E+03,-7013,3981,-549,-270,-18,-50,1,7,11
9.88E+02,-7015,3986,-551,1,-51,-27,1,7,11
9.64E+02,-7036,3971,-543,2,-78,-3,1,7,11
9.44E+02,-7032,4014,-593,28,-105,258,1,7,11
9.29E+02,-7022,4020,-622,-269,-72,282,1,7,11
9.21E+02,-7036,4018,-615,-314,259,317,1,7,11
9.19E+02,-7031,4031,-630,-350,308,358,1,7,11
9.25E+02,-7011,4042,-421,-151,362,132,1,7,11
9.38E+02,-6988,4061,-465,-235,181,143,1,7,11
9.57E+02,-6977,4371,-501,-600,516,128,1,7,11
9.82E+02,-6961,4411,-779,-770,594,367,1,7,11
1.01E+03,-6940,4391,-769,-724,434,354,1,7,11
1.04E+03,-6923,4083,-495,-916,783,321,1,7,11
1.07E+03,-6650,4032,-455,-1290,853,269,1,7,11
1.10E+03,-6624,4056,-450,-1329,653,-38,1,7,11
1.13E+03,-6633,4022,-601,-1365,706,-53,1,7,11
1.16E+03,-6918,4020,-531,-1289,649,-46,1,7,11
1.18E+03,-6653,4058,-254,-927,779,-16,1,7,11
1.19E+03,-6647,4352,-248,-1074,406,299,1,7,11
1.19E+03,-6650,4374,-238,-719,561,367,1,7,11
1.20E+03,-6649,4389,-208,-876,206,171,1,7,11
1.20E+03,-6647,4408,-188,-505,348,217,1,7,11
1.20E+03,-6630,4437,-152,-403,-29,249,1,7,11
1.20E+03,-6609,4475,-151,-574,98,514,1,7,11
1.20E+03,-6567,4242,-182,-523,2,514,1,7,11
1.20E+03,-6776,4230,-175,-239,-296,244,1,7,11
1.20E+03,-6753,4248,-169,-198,-314,196,1,7,11
1.19E+03,-6734,4272,-182,-160,-338,139,1,7,11
1.19E+03,-6696,4313,-194,-383,-338,352,1,7,11
1.19E+03,-6677,4338,-183,-364,-283,328,1,7,11
1.18E+03,-6690,4325,-145,-338,19,315,1,7,11
1.17E+03,-6703,4331,-139,-274,11,281,1,7,11
1.16E+03,-6701,4316,-381,30,-264,-18,1,7,11
1.14E+03,-6719,4309,-373,70,-277,-71,1,7,11
1.13E+03,-6716,4306,-143,107,-307,118,1,7,11
1.12E+03,-6703,4314,-185,-123,-332,45,1,7,11
1.11E+03,-6714,4319,-206,-119,-312,-276,1,7,11
1.10E+03,-6725,4314,-209,119,-257,-318,1,7,11
1.09E+03,-6753,4320,-212,110,53,-338,1,7,11
1.09E+03,-6780,4318,-217,95,-124,-324,1,7,11
1.09E+03,-6558,4309,-210,75,-89,-306,1,7,11
1.08E+03,-6582,4306,-210,57,-80,-287,1,7,11
1.08E+03,-6602,4298,-204,49,-87,-271,1,7,11
1.08E+03,-6605,4293,-209,46,-105,0,1,7,11
1.08E+03,-6609,4289,-204,50,-120,21,1,7,11
1.09E+03,-6610,4287,-190,57,116,51,1,7,11
1.09E+03,-6605,4282,-197,72,92,81,1,7,11
1.09E+03,-6595,4284,-198,89,65,105,1,7,11
1.09E+03,-6572,4276,-208,92,54,111,1,7,11
1.08E+03,-6551,4270,-210,84,62,103,1,7,11
1.08E+03,-6781,4272,-232,85,84,92,1,7,11
1.08E+03,-6759,4271,-246,67,-112,84,1,7,11
1.07E+03,-6761,4281,-513,35,-16,59,1,7,11
1.06E+03,-6772,4273,-235,-265,333,29,1,7,11
1.06E+03,-6544,4318,-243,-279,148,-264,1,7,11
1.05E+03,-6568,4297,-208,-309,144,-278,1,7,11
1.05E+03,-6601,4300,-182,-303,335,-276,1,7,11
1.05E+03,-6613,4297,-177,-273,-45,-265,1,7,11
1.05E+03,-6608,4312,-199,16,94,-269,1,7,11
1.05E+03,-6593,4320,-228,49,-259,2,1,7,11
1.04E+03,-6552,4313,-515,71,-313,46,1,7,11
1.04E+03,-6557,4273,-219,68,-310,81,1,7,11
1.04E+03,-6566,4284,-219,114,-364,107,1,7,11
1.04E+03,-6535,4271,-226,-103,-164,-115,1,7,11
1.04E+03,-6752,4260,-242,-53,-186,-89,1,7,11
1.05E+03,-6724,4256,-527,-8,-169,-83,1,7,11
1.06E+03,-6718,4273,-550,-4,-360,-95,1,7,11
1.08E+03,-6730,4260,-531,-39,-264,-106,1,7,11
1.09E+03,-6746,4237,-520,-74,75,-122,1,7,11
1.09E+03,-6756,4233,-519,-76,-128,117,1,7,11
1.07E+03,-6532,4249,-246,-68,-81,106,1,7,11
1.05E+03,-6574,4258,-212,-63,-58,120,1,7,11
1.03E+03,-6603,4274,-203,-44,-88,-111,1,7,11
1.02E+03,-6615,4276,-190,-22,107,-103,1,7,11
1.03E+03,-6620,4288,-198,-4,2,-111,1,7,11
1.04E+03,-6603,4288,-198,258,-311,-112,1,7,11
1.06E+03,-6606,4289,-171,276,-355,-113,1,7,11
1.08E+03,-6606,4300,-185,324,-164,-115,1,7,11
1.09E+03,-6555,4328,-242,347,-188,-111,1,7,11
1.10E+03,-6534,4319,-233,304,-357,-86,1,7,11
1.09E+03,-6534,4303,-213,275,-262,-60,1,7,11
1.08E+03,-6535,4300,-219,265,40,-50,1,7,11
1.07E+03,-6779,4294,-199,-14,75,-43,1,7,11
1.07E+03,-6539,4274,-173,-25,84,-45,1,7,11
1.06E+03,-6759,4306,-254,-2,55,-56,1,7,11
1.05E+03,-6752,4301,-245,-50,105,-73,1,7,11
1.03E+03,-6765,4301,-231,-56,114,-102,1,7,11
9.99E+02,-6754,4315,-248,-47,97,-117,1,7,11
9.70E+02,-6748,4325,-256,-53,111,-118,1,7,11
9.49E+02,-6762,4307,-222,-52,119,-106,1,7,11
9.46E+02,-6759,4309,-232,-2,72,-105,1,7,11
9.66E+02,-6769,4327,-229,294,17,-125,1,7,11
9.96E+02,-6735,4337,-528,318,-311,99,1,7,11
1.02E+03,-6692,4339,-580,296,-323,58,1,7,11
1.03E+03,-6683,4331,-579,-45,7,4,1,7,11
1.01E+03,-6690,4335,-594,-100,67,-280,1,7,11
9.87E+02,-6714,4345,-585,102,123,-301,1,7,11
9.64E+02,-6751,4348,-584,48,-90,-316,1,7,11
9.61E+02,-6533,4343,-555,-259,-70,-321,1,7,11
9.84E+02,-6556,4339,-558,-288,-80,-320,1,7,11
1.02E+03,-6570,4314,-540,-326,-74,-308,1,7,11
1.04E+03,-6592,4298,-517,-341,-68,-293,1,7,11
1.03E+03,-6613,4286,-247,-343,-73,-277,1,7,11
9.89E+02,-6596,4281,-522,-330,-81,5,1,7,11
9.26E+02,-6581,4272,-234,-339,-48,34,1,7,11
8.67E+02,-6582,4253,-201,-312,-48,61,1,7,11
8.32E+02,-6561,4278,-231,4,-80,85,1,7,11
8.22E+02,-6543,4273,-235,32,-96,117,1,7,11
8.27E+02,-6548,4260,-227,60,-92,126,1,7,11
8.35E+02,-6774,4273,-542,94,-116,109,1,7,11
8.39E+02,-6728,4300,-617,93,-56,81,1,7,11
8.40E+02,-6731,4261,-566,-258,333,59,1,7,11
8.38E+02,-6758,4248,-525,-297,361,24,1,7,11
8.36E+02,-6769,4290,-559,-268,313,-265,1,7,11
8.34E+02,-6782,4298,-570,-281,290,-265,1,7,11
8.35E+02,-6548,4289,-549,-298,272,7,1,7,11
8.41E+02,-6562,4285,-549,-296,-24,24,1,7,11
8.51E+02,-6550,4296,-555,-291,-55,36,1,7,11
8.65E+02,-6551,4295,-547,-308,-73,43,1,7,11
8.83E+02,-6542,4284,-555,-311,-93,51,1,7,11
9.03E+02,-6539,4277,-554,-311,-94,55,1,7,11
9.21E+02,-6542,4270,-547,-317,-81,49,1,7,11
9.31E+02,-6536,4273,-547,-317,-64,44,1,7,11
9.28E+02,-6544,4283,-559,-320,-34,37,1,7,11
9.13E+02,-6543,4293,-575,-329,-2,48,1,7,11
8.91E+02,-6538,4295,-587,-341,299,69,1,7,11
8.68E+02,-6544,4282,-567,-369,363,90,1,7,11
8.47E+02,-6557,4278,-542,-363,370,104,1,7,11
8.30E+02,-6540,4302,-561,-337,330,109,1,7,11
8.15E+02,-6529,4306,-576,-332,311,119,1,7,11
8.00E+02,-6536,4293,-580,-330,311,121,1,7,11
7.86E+02,-6760,4299,-594,-323,309,112,1,7,11
7.74E+02,-6744,4294,-567,-331,337,103,1,7,11
7.64E+02,-6758,4271,-533,-337,318,75,1,7,11
7.55E+02,-6741,4309,-569,-298,-6,34,1,7,11
7.49E+02,-6396,4292,-605,-317,-62,-263,1,7,11
7.46E+02,-6313,4292,-638,-341,-30,-339,1,7,11
7.46E+02,-6312,4300,-633,-132,328,-176,1,7,11
7.49E+02,-6338,4292,-628,-191,173,-522,1,7,11
7.56E+02,-6387,4298,-629,-234,514,-615,1,7,11
7.67E+02,-6715,4295,-636,-540,577,-443,1,7,11
7.81E+02,-6544,4276,-605,-595,621,-505,1,7,11
7.98E+02,-6623,4462,-570,-632,626,-797,1,7,11
8.16E+02,-6925,4436,-562,-616,587,-811,1,7,11
8.26E+02,-6960,4417,-544,-597,543,-798,1,7,11
8.22E+02,-6985,4408,-546,-560,227,-500,1,7,11
8.05E+02,-6996,4412,-550,-518,162,-436,1,7,11
7.88E+02,-6989,4410,-572,-232,361,-611,1,7,11
7.85E+02,-6981,4387,-589,-221,325,-516,1,7,11
8.03E+02,-6978,4369,-587,-189,293,-171,1,7,11
8.33E+02,-6992,4370,-576,-149,-8,-355,1,7,11
8.62E+02,-6969,4387,-607,-358,-71,-292,1,7,11
8.80E+02,-6950,4378,-588,-326,-107,25,1,7,11
8.85E+02,-6923,4399,-597,-264,105,88,1,7,11
8.88E+02,-6649,4381,-599,26,83,-94,1,7,11
8.94E+02,-6619,4372,-612,63,76,-33,1,7,11
9.08E+02,-6611,4375,-555,90,78,264,1,7,11
9.26E+02,-6603,4423,-633,-94,20,276,1,7,11
9.40E+02,-6591,4435,-629,-118,11,276,1,7,11
9.44E+02,-6568,4443,-626,-128,-262,-4,1,7,11
9.37E+02,-6553,4466,-391,115,-277,-36,1,7,11
9.27E+02,-6536,4225,-399,80,-259,-56,1,7,11
9.23E+02,-6537,4464,-640,28,42,-71,1,7,11
9.31E+02,-6542,4448,-626,0,71,-94,1,7,11
9.53E+02,-6562,4444,-615,-266,80,121,1,7,11
9.83E+02,-6580,4446,-611,-270,75,79,1,7,11
1.01E+03,-6597,4439,-604,-284,77,45,1,7,11
1.04E+03,-6610,4426,-593,-290,73,27,1,7,11
1.06E+03,-6616,4418,-595,-296,80,25,1,7,11
1.08E+03,-6619,4405,-602,-298,98,36,1,7,11
1.08E+03,-6616,4398,-608,-296,-121,53,1,7,11
1.08E+03,-6620,4397,-608,-294,-84,76,1,7,11
1.07E+03,-6612,4400,-601,-292,-55,94,1,7,11
1.05E+03,-6588,4411,-613,-286,-35,109,1,7,11
1.04E+03,-6589,4427,-617,-284,-11,120,1,7,11
1.03E+03,-6579,4441,-623,-287,257,-128,1,7,11
1.03E+03,-6563,4452,-638,-300,272,-124,1,7,11
1.04E+03,-6551,4456,-387,-322,293,-128,1,7,11
1.05E+03,-6540,4463,-396,-348,317,118,1,7,11
1.06E+03,-6534,4463,-389,-378,348,102,1,7,11
1.07E+03,-6534,4460,-630,-152,374,83,1,7,11
1.07E+03,-6536,4455,-618,-161,379,66,1,7,11
1.07E+03,-6537,4227,-628,-150,361,50,1,7,11
1.08E+03,-6758,4243,-396,-148,336,36,1,7,11
1.09E+03,-6713,4266,-448,-172,343,19,1,7,11
1.11E+03,-6725,4245,-430,-542,241,-305,1,7,11
1.12E+03,-6764,4464,-395,-608,585,-363,1,7,11
1.13E+03,-6779,4451,-416,-395,389,-168,1,7,11
1.12E+03,-6549,4416,-407,-446,462,-214,1,7,11
1.10E+03,-6598,4408,-394,-457,768,-234,1,7,11
1.08E+03,-6642,4383,-393,-459,796,-217,1,7,11
1.05E+03,-6936,4368,-623,-424,787,-173,1,7,11
1.03E+03,-6978,4363,-611,-610,470,-377,1,7,11
1.03E+03,-7001,4366,-602,-530,622,-317,1,7,11
1.05E+03,-6991,4387,-620,-190,233,3,1,7,11
1.07E+03,-6942,4406,-388,-352,309,96,1,7,11
1.10E+03,-6923,4375,-609,-335,-46,-124,1,7,11
1.13E+03,-6617,4436,-431,-273,94,-126,1,7,11
1.15E+03,-6538,4430,-451,-284,41,-108,1,7,11
1.16E+03,-6784,4437,-444,-280,69,-112,1,7,11
1.15E+03,-6784,4442,-430,-275,62,-124,1,7,11
1.14E+03,-6777,4464,-444,-272,57,114,1,7,11
1.11E+03,-6778,4466,-431,-289,84,101,1,7,11
1.07E+03,-6535,4457,-416,-301,113,90,1,7,11
1.04E+03,-6554,4453,-404,-305,-125,76,1,7,11
1.02E+03,-6562,4457,-400,-309,-120,62,1,7,11
1.03E+03,-6572,4446,-395,-313,-122,52,1,7,11
1.06E+03,-6581,4439,-634,-303,122,42,1,7,11
1.11E+03,-6584,4438,-629,-273,88,34,1,7,11
1.15E+03,-6594,4442,-627,23,40,36,1,7,11
1.19E+03,-6580,4444,-405,53,6,41,1,7,11
1.21E+03,-6575,4438,-411,52,30,47,1,7,11
1.22E+03,-6566,4435,-417,34,72,62,1,7,11
1.21E+03,-6579,4445,-413,38,106,61,1,7,11
1.20E+03,-6577,4432,-404,29,122,63,1,7,11
1.17E+03,-6572,4433,-413,28,122,59,1,7,11
1.13E+03,-6574,4427,-404,31,125,55,1,7,11
1.10E+03,-6580,4428,-409,41,121,57,1,7,11
1.07E+03,-6577,4433,-413,46,115,61,1,7,11
1.06E+03,-6572,4437,-420,51,108,69,1,7,11
1.07E+03,-6560,4445,-462,51,112,70,1,7,11
1.09E+03,-6561,4437,-441,5,-92,76,1,7,11
1.11E+03,-6554,4435,-447,-271,-55,75,1,7,11
1.14E+03,-6554,4424,-443,-301,-16,63,1,7,11
1.16E+03,-6533,4429,-459,-334,300,56,1,7,11
1.16E+03,-6543,4425,-436,-377,383,50,1,7,11
1.16E+03,-6569,4414,-632,-378,144,47,1,7,11
1.15E+03,-6588,4447,-412,-317,329,26,1,7,11
1.13E+03,-6604,4442,-403,-324,273,16,1,7,11
1.11E+03,-6599,4431,-413,-315,-28,20,1,7,11
1.08E+03,-6592,4420,-422,-298,-52,31,1,7,11
1.06E+03,-6589,4411,-419,-285,-54,57,1,7,11
1.04E+03,-6581,4404,-419,-262,-49,86,1,7,11
1.02E+03,-6595,4423,-413,20,-35,116,1,7,11
1.02E+03,-6611,4413,-409,45,-40,-109,1,7,11
1.02E+03,-6628,4423,-395,87,-76,-90,1,7,11
1.03E+03,-6634,4426,-405,120,120,-82,1,7,11
1.05E+03,-6629,4438,-425,-113,65,-80,1,7,11
1.07E+03,-6598,4448,-446,-114,39,-87,1,7,11
1.11E+03,-6578,4448,-445,126,42,-98,1,7,11
1.14E+03,-6545,4468,-458,104,62,-105,1,7,11
1.17E+03,-6781,4455,-463,73,97,-114,1,7,11
1.19E+03,-6773,4462,-472,64,-124,-128,1,7,11
1.20E+03,-6776,4468,-465,55,-92,115,1,7,11
1.20E+03,-6776,4471,-465,53,-87,105,1,7,11
1.19E+03,-6763,4468,-470,50,-93,94,1,7,11
1.16E+03,-6751,4468,-487,42,-80,79,1,7,11
1.11E+03,-6761,4450,-460,18,-64,60,1,7,11
1.07E+03,-6767,4456,-455,31,-106,25,1,7,11
1.03E+03,-6747,4456,-475,41,95,-263,1,7,11
1.02E+03,-6746,4452,-468,46,91,-271,1,7,11
1.02E+03,-6776,4430,-458,53,102,-269,1,7,11
1.05E+03,-6554,4440,-456,70,99,-280,1,7,11
1.08E+03,-6575,4445,-457,53,99,-295,1,7,11
1.11E+03,-6603,4452,-473,39,96,-304,1,7,11
1.14E+03,-6637,4444,-446,-281,-122,-320,1,7,11
1.16E+03,-6625,4461,-453,-305,115,-336,1,7,11
1.17E+03,-6615,4444,-452,-352,113,-343,1,7,11
1.16E+03,-6604,4429,-438,-135,-117,-332,1,7,11
1.14E+03,-6608,4428,-439,-137,-100,-314,1,7,11
1.11E+03,-6607,4422,-425,-133,-90,-282,1,7,11
1.07E+03,-6595,4411,-412,-375,-86,12,1,7,11
1.04E+03,-6583,4401,-404,-347,-75,46,1,7,11
1.03E+03,-6569,4404,-402,-319,-61,82,1,7,11
1.04E+03,-6565,4406,-399,-300,-34,115,1,7,11
1.07E+03,-6564,4399,-392,-276,-14,-117,1,7,11
1.11E+03,-6580,4382,-595,27,-54,-88,1,7,11
1.15E+03,-6586,4458,-422,102,-111,-87,1,7,11
1.19E+03,-6572,4424,-422,69,-116,-67,1,7,11
1.21E+03,-6569,4460,-434,72,-104,-77,1,7,11
1.21E+03,-6585,4473,-432,54,-93,-78,1,7,11
1.21E+03,-6590,4224,-414,31,-93,-66,1,7,11
1.19E+03,-6595,4229,-421,25,-113,-51,1,7,11
1.16E+03,-6604,4462,-405,-268,-121,-38,1,7,11
1.13E+03,-6591,4448,-396,-286,105,-43,1,7,11
1.09E+03,-6578,4451,-396,-297,82,-62,1,7,11
1.05E+03,-6573,4458,-387,-309,69,-79,1,7,11
1.01E+03,-6555,4471,-388,-316,47,-89,1,7,11
9.83E+02,-6545,4224,-391,-320,34,-102,1,7,11
9.64E+02,-6538,4232,-398,-326,31,-117,1,7,11
9.59E+02,-6549,4477,-609,-338,25,122,1,7,11
9.68E+02,-6549,4234,-612,-298,-286,103,1,7,11
9.90E+02,-6539,4478,-625,-282,-304,101,1,7,11
1.02E+03,-6534,4461,-616,-262,-295,109,1,7,11
1.05E+03,-6767,4457,-635,59,-278,127,1,7,11
1.07E+03,-6770,4472,-637,104,42,-112,1,7,11
1.08E+03,-6539,4471,-628,-108,102,-102,1,7,11
1.09E+03,-6550,4471,-637,-57,-126,-105,1,7,11
1.09E+03,-6557,4473,-391,-21,-111,-117,1,7,11
1.09E+03,-6572,4470,-401,-3,-109,120,1,7,11
1.08E+03,-6573,4230,-449,258,-106,105,1,7,11
1.07E+03,-6564,4470,-471,-35,-72,110,1,7,11
1.06E+03,-6570,4441,-462,-63,-47,119,1,7,11
1.06E+03,-6574,4442,-463,-62,-65,122,1,7,11
1.05E+03,-6563,4470,-435,-67,-104,-126,1,7,11
1.04E+03,-6566,4462,-455,-48,54,-120,1,7,11
1.04E+03,-6555,4266,-493,-83,12,-113,1,7,11
1.04E+03,-6777,4245,-485,93,7,-94,1,7,11
1.04E+03,-6775,4259,-480,48,17,-91,1,7,11
1.05E+03,-6760,4273,-484,7,29,-82,1,7,11
1.05E+03,-6756,4277,-465,-297,66,-65,1,7,11
1.05E+03,-6756,4287,-453,-336,97,-50,1,7,11
1.03E+03,-6753,4284,-433,-366,-128,-41,1,7,11
1.01E+03,-6755,4278,-411,-383,-99,-48,1,7,11
9.87E+02,-6760,4277,-638,-136,-79,-70,1,7,11
9.70E+02,-6773,4290,-610,-138,-72,-92,1,7,11
9.66E+02,-6769,4298,-600,-141,-65,-99,1,7,11
9.72E+02,-6775,4286,-576,-141,-50,-95,1,7,11
9.81E+02,-6780,4264,-556,-370,-44,-79,1,7,11
9.84E+02,-6775,4247,-548,-317,-54,-64,1,7,11
9.73E+02,-6767,4249,-580,7,-68,-48,1,7,11
9.53E+02,-6749,4261,-604,66,-67,-36,1,7,11
9.31E+02,-6745,4277,-634,114,-50,-31,1,7,11
9.15E+02,-6753,4289,-393,-106,-22,-34,1,7,11
9.10E+02,-6762,4299,-400,-86,257,-41,1,7,11
9.12E+02,-6758,4289,-413,-71,261,-49,1,7,11
9.15E+02,-6760,4276,-426,-60,274,-61,1,7,11
9.16E+02,-6759,4269,-432,-45,280,-64,1,7,11
9.14E+02,-6762,4270,-461,-16,282,-63,1,7,11
9.09E+02,-6762,4287,-501,-10,284,-59,1,7,11
9.06E+02,-6753,4300,-785,-29,295,-55,1,7,11
9.05E+02,-6738,4310,-810,-56,319,-50,1,7,11
9.06E+02,-6728,4324,-825,-91,344,-45,1,7,11
9.07E+02,-6713,4326,-858,122,372,-37,1,7,11
9.06E+02,-6688,4312,-864,68,156,-28,1,7,11
9.01E+02,-6678,4315,-873,37,208,-18,1,7,11
8.94E+02,-6678,4313,-872,19,249,268,1,7,11
8.84E+02,-6671,4316,-874,39,517,315,1,7,11
8.74E+02,-6400,4340,-851,85,252,371,1,7,11
8.63E+02,-6679,4319,-852,-100,195,147,1,7,11
8.49E+02,-6657,4617,-891,-62,147,158,1,7,11
8.31E+02,-6380,4609,-882,-53,134,153,1,7,11
8.11E+02,-6387,4631,-880,-36,364,381,1,7,11
7.91E+02,-6384,4629,-895,-45,324,343,1,7,11
7.74E+02,-6398,4625,-893,-66,306,326,1,7,11
7.63E+02,-6397,4615,-641,-76,278,253,1,7,11
7.58E+02,-6397,4624,-641,-85,-11,-72,1,7,11
7.60E+02,-6662,4631,-653,-110,-43,106,1,7,11
7.67E+02,-6657,4656,-667,108,-56,28,1,7,11
7.72E+02,-6389,4668,-689,43,-55,-289,1,7,11
7.69E+02,-6373,4668,-721,-357,-23,-320,1,7,11
7.54E+02,-6380,4631,-715,-210,309,-324,1,7,11
7.37E+02,-6664,4341,-681,-540,377,-311,1,7,11
7.28E+02,-6692,4319,-650,-580,152,-287,1,7,11
7.30E+02,-6715,4302,-642,-607,171,-259,1,7,11
7.34E+02,-6729,4280,-880,-630,175,25,1,7,11
7.29E+02,-6734,4270,-864,-635,170,48,1,7,11
7.13E+02,-6722,4270,-874,-632,156,65,1,7,11
6.96E+02,-6701,4287,-886,-629,149,69,1,7,11
6.93E+02,-6686,4312,-896,-618,145,58,1,7,11
7.01E+02,-6667,4335,-894,-599,131,47,1,7,11
7.10E+02,-6659,4614,-895,-570,370,19,1,7,11
7.07E+02,-6390,4610,-879,-557,337,-275,1,7,11
6.95E+02,-6680,4306,-809,-520,268,-315,1,7,11
6.85E+02,-6657,4665,-886,-381,-96,-344,1,7,11
6.87E+02,-6389,4660,-876,-310,-125,-347,1,7,11
7.00E+02,-6392,4648,-653,64,127,-350,1,7,11
7.21E+02,-6352,4683,-691,-83,-70,-311,1,7,11
7.44E+02,-6367,4647,-679,-3,302,19,1,7,11
7.62E+02,-6349,4640,-696,365,362,114,1,7,11
7.67E+02,-6350,4638,-721,216,147,-44,1,7,11
7.54E+02,-6422,4347,-670,545,154,303,1,7,11
7.33E+02,-6378,4667,-1032,394,291,140,1,7,11
7.16E+02,-6373,4648,-753,400,-59,176,1,7,11
7.10E+02,-6385,4643,-721,632,26,193,1,7,11
7.12E+02,-6389,4649,-696,622,-134,210,1,7,11
7.15E+02,-6675,4666,-676,596,-557,208,1,7,11
7.14E+02,-6699,4685,-662,571,-471,182,1,7,11
7.12E+02,-6707,4726,-646,538,-876,140,1,7,11
7.10E+02,-6703,4503,-641,216,-730,353,1,7,11
7.07E+02,-6667,4524,-884,373,-1045,324,1,7,11
7.04E+02,-6355,4551,-642,263,-1036,311,1,7,11
6.99E+02,-6300,4581,-657,-124,-682,317,1,7,11
6.94E+02,-6508,4601,-672,-271,-771,340,1,7,11
6.90E+02,-6468,4883,-685,-152,-578,350,1,7,11
6.87E+02,-6453,4903,-687,-537,-366,340,1,7,11
6.85E+02,-6442,4908,-671,-387,87,317,1,7,11
6.81E+02,-6441,4901,-644,-456,260,293,1,7,11
6.76E+02,-6442,4874,-869,-481,143,275,1,7,11
6.68E+02,-6449,4587,-843,-447,242,274,1,7,11
6.61E+02,-6446,4547,-830,-615,557,300,1,7,11
6.55E+02,-6439,4518,-818,-228,585,345,1,7,11
6.50E+02,-6412,4520,-852,-302,582,150,1,7,11
6.47E+02,-6133,4517,-858,118,592,222,1,7,11
6.46E+02,-6106,4506,-858,264,583,556,1,7,11
6.45E+02,-6084,4486,-864,128,565,385,1,7,11
6.43E+02,-6100,4502,-865,228,547,476,1,7,11
6.42E+02,-6128,4527,-882,554,523,867,1,7,11
6.43E+02,-6440,4526,-877,554,518,754,1,7,11
6.47E+02,-6502,4511,-880,534,225,1138,1,7,11
6.60E+02,-6281,4605,-676,544,378,987,1,7,11
6.83E+02,-6527,4963,-745,249,-30,1013,1,7,11
7.08E+02,-6472,4807,-1082,358,80,925,1,7,11
7.26E+02,-6413,5128,-1113,99,-283,744,1,7,11
7.30E+02,-6067,5184,-1150,-194,-372,676,1,7,11
7.29E+02,-6223,5216,-924,-478,-145,251,1,7,11
7.30E+02,-5860,5226,-970,-1143,-307,131,1,7,11
7.38E+02,-5811,5235,-982,-1361,-94,294,1,7,11
7.54E+02,-5850,4992,-920,-1539,169,-58,1,7,11
7.74E+02,-6171,5004,-1089,-1638,623,106,1,7,11
7.98E+02,-6211,5028,-1035,-1415,482,36,1,7,11
8.21E+02,-6252,5004,-708,-1413,820,-269,1,7,11
8.41E+02,-6028,5217,-893,-1595,845,-306,1,7,11
8.54E+02,-6040,5169,-847,-1206,813,-340,1,7,11
8.62E+02,-6047,5122,-813,-1307,497,-368,1,7,11
8.68E+02,-6037,4818,-800,-1139,416,-140,1,7,11
8.76E+02,-6267,4786,-786,-718,581,-167,1,7,11
8.87E+02,-6225,4780,-780,-841,244,-183,1,7,11
9.00E+02,-6187,4783,-775,-493,174,-186,1,7,11
9.13E+02,-6146,4791,-778,-429,355,-177,1,7,11
9.24E+02,-5843,4826,-787,-630,285,-162,1,7,11
9.33E+02,-5840,4850,-773,-624,-14,-168,1,7,11
9.44E+02,-5874,5137,-495,-406,-68,-243,1,7,11
9.58E+02,-6168,5181,-463,-464,99,-625,1,7,11
9.79E+02,-6240,5220,-415,-801,-257,-504,1,7,11
1.00E+03,-6042,5191,-625,-880,-345,-819,1,7,11
1.03E+03,-6105,5127,-589,-649,-134,-810,1,7,11
1.05E+03,-6433,4814,-552,-855,-135,-499,1,7,11
1.05E+03,-6499,4769,-517,-497,-363,-395,1,7,11
1.05E+03,-6300,4756,-244,-618,-327,-522,1,7,11
1.04E+03,-6335,4751,-239,-234,-303,-150,1,7,11
1.04E+03,-6334,4748,-243,-381,-290,-317,1,7,11
1.04E+03,-6302,4978,-535,-287,-286,-264,1,7,11
1.04E+03,-6509,4969,-599,53,-305,22,1,7,11
1.05E+03,-6433,4961,-411,-111,-270,44,1,7,11
1.06E+03,-6106,4948,-441,-67,50,66,1,7,11
1.07E+03,-6056,4956,-476,-18,108,91,1,7,11
1.08E+03,-6267,4976,-511,267,-91,116,1,7,11
1.08E+03,-6248,4769,-779,261,-35,-120,1,7,11
1.08E+03,-6248,4805,-506,-37,-20,-111,1,7,11
1.08E+03,-6248,4856,-502,-109,-47,-112,1,7,11
1.08E+03,-6221,5123,-500,43,-82,-117,1,7,11
1.08E+03,-6194,4854,-465,-308,-105,114,1,7,11
1.08E+03,-6175,4824,-432,-377,113,63,1,7,11
1.08E+03,-6155,4807,-429,-144,56,-269,1,7,11
1.09E+03,-6159,4791,-430,-147,28,-356,1,7,11
1.10E+03,-6193,4780,-420,-140,25,-186,1,7,11
1.12E+03,-6255,4775,-423,-130,34,-530,1,7,11
1.13E+03,-6131,4770,-422,-359,8,-400,1,7,11
1.13E+03,-6466,4752,-401,-319,-274,-464,1,7,11
1.13E+03,-6281,4743,-399,-299,-313,-511,1,7,11
1.12E+03,-6329,4747,-408,-288,-333,-783,1,7,11
1.11E+03,-6385,4749,-388,-294,-328,-496,1,7,11
1.09E+03,-6683,4756,-560,-298,-331,-419,1,7,11
1.08E+03,-6726,4738,-587,34,-187,-579,1,7,11
1.06E+03,-6723,4974,-587,11,-230,-204,1,7,11
1.06E+03,-6704,4939,-565,31,-223,-350,1,7,11
1.06E+03,-6706,4958,-563,90,-224,-265,1,7,11
1.07E+03,-6657,4977,-570,94,-203,81,1,7,11
1.09E+03,-6366,4975,-547,89,-161,-100,1,7,11
1.12E+03,-6331,4960,-513,82,-158,-66,1,7,11
1.14E+03,-6280,4976,-530,68,-161,-59,1,7,11
1.16E+03,-6484,4942,-250,28,-146,-75,1,7,11
1.15E+03,-6443,4919,-238,12,-142,-119,1,7,11
1.12E+03,-6416,4883,-215,17,-164,80,1,7,11
1.08E+03,-6118,4606,-213,58,-203,19,1,7,11
1.04E+03,-6093,4602,-253,114,-219,-289,1,7,11
1.01E+03,-6067,4604,-537,-116,-165,-321,1,7,11
1.01E+03,-6092,4603,-527,-101,-334,-344,1,7,11
1.03E+03,-6143,4892,-540,-89,-271,-369,1,7,11
1.06E+03,-6438,4882,-533,-126,52,-382,1,7,11
1.09E+03,-6479,4874,-521,100,99,-146,1,7,11
1.13E+03,-6520,4605,-241,76,-117,-161,1,7,11
1.16E+03,-6324,4585,-216,58,-93,-166,1,7,11
1.18E+03,-6357,4575,-221,69,-124,-157,1,7,11
1.19E+03,-6660,4581,-239,93,93,-145,1,7,11
1.17E+03,-6676,4587,-518,106,71,-372,1,7,11
1.14E+03,-6696,4602,-521,101,89,-346,1,7,11
1.10E+03,-6705,4594,-254,80,-119,-319,1,7,11
1.06E+03,-6676,4601,-539,63,-104,-296,1,7,11
1.03E+03,-6388,4578,-525,10,-65,-273,1,7,11
1.02E+03,-6369,4579,-540,-258,-29,-259,1,7,11
1.03E+03,-6344,4580,-554,-265,259,17,1,7,11
1.06E+03,-6347,4578,-557,-268,285,38,1,7,11
1.09E+03,-6357,4583,-559,-256,277,60,1,7,11
1.13E+03,-6363,4566,-541,5,-13,73,1,7,11
1.16E+03,-6374,4550,-547,21,-74,65,1,7,11
1.18E+03,-6372,4566,-548,40,115,55,1,7,11
1.19E+03,-6347,4574,-556,47,60,61,1,7,11
1.18E+03,-6338,4561,-556,48,23,73,1,7,11
1.17E+03,-6329,4549,-555,55,-264,69,1,7,11
1.14E+03,-6316,4563,-576,68,-285,44,1,7,11
1.11E+03,-6300,4596,-595,69,-277,25,1,7,11
1.09E+03,-6286,4871,-594,43,19,28,1,7,11
1.08E+03,-6280,4867,-573,8,64,36,1,7,11
1.09E+03,-6284,4872,-556,-267,87,39,1,7,11
1.12E+03,-6287,4875,-557,-284,115,39,1,7,11
1.15E+03,-6286,4879,-580,-303,-100,43,1,7,11
1.17E+03,-6526,4885,-587,-346,-16,68,1,7,11
1.19E+03,-6298,4560,-245,-378,321,95,1,7,11
1.19E+03,-6330,4561,-244,-316,303,89,1,7,11
1.18E+03,-6336,4553,-225,-273,257,87,1,7,11
1.17E+03,-6344,4569,-228,26,-51,86,1,7,11
1.16E+03,-6342,4582,-226,53,-101,88,1,7,11
1.15E+03,-6321,4605,-250,61,-119,101,1,7,11
1.15E+03,-6314,4591,-242,57,-112,116,1,7,11
1.14E+03,-6311,4576,-246,74,-97,-128,1,7,11
1.14E+03,-6303,4565,-245,69,-68,123,1,7,11
1.14E+03,-6294,4537,-243,54,-23,106,1,7,11
1.15E+03,-6278,4507,-245,47,293,82,1,7,11
1.15E+03,-6281,4506,-244,60,352,51,1,7,11
1.15E+03,-6289,4516,-236,95,378,28,1,7,11
1.15E+03,-6310,4552,-255,-106,374,7,1,7,11
1.13E+03,-6321,4577,-540,-75,361,-266,1,7,11
1.10E+03,-6329,4579,-575,-58,358,-282,1,7,11
1.08E+03,-6322,4589,-620,-23,352,-296,1,7,11
1.06E+03,-6314,4885,-426,264,358,-294,1,7,11
1.06E+03,-6300,4894,-463,-6,137,-259,1,7,11
1.07E+03,-6295,4891,-477,-54,194,35,1,7,11
1.10E+03,-6280,4880,-505,-116,221,70,1,7,11
1.12E+03,-6509,4943,-785,96,250,99,1,7,11
1.15E+03,-6479,4961,-785,-307,537,-116,1,7,11
1.18E+03,-6425,4977,-822,-159,588,-67,1,7,11
1.20E+03,-6081,4751,-884,-531,440,-26,1,7,11
1.21E+03,-6165,4825,-744,-408,651,282,1,7,11
1.22E+03,-5957,5190,-901,-860,1324,341,1,7,11
1.21E+03,-5580,5027,-1298,-928,1722,348,1,7,11
1.19E+03,-5577,5030,-1389,-1419,2523,262,1,7,11
1.17E+03,-5618,5229,-1182,-1958,3306,83,1,7,11
1.15E+03,-5932,5168,-1245,-2458,3991,-145,1,7,11
1.13E+03,-5772,4812,-1573,-3198,4885,-632,1,7,11
1.12E+03,-6190,4932,-1576,-3631,5445,-840,1,7,11
1.12E+03,-6115,4553,-1545,-3915,5601,-729,1,7,11
1.13E+03,-6314,4716,-1209,-3793,5807,-1070,1,7,11
1.15E+03,-6717,4668,-1401,-3790,5790,-1081,1,7,11
1.17E+03,-6588,4629,-1316,-3935,5589,-763,1,7,11
1.19E+03,-6933,4619,-1008,-3475,5480,-886,1,7,11
1.20E+03,-6989,4616,-962,-3452,4743,-442,1,7,11
1.21E+03,-6980,4663,-965,-3111,4409,-222,1,7,11
1.21E+03,-6920,4697,-932,-2485,3508,20,1,7,11
1.20E+03,-6582,4482,-925,-2320,2791,-6,1,7,11
1.17E+03,-6693,4569,-993,-1895,2320,194,1,7,11
1.14E+03,-6506,4893,-1290,-1271,1651,625,1,7,11
1.11E+03,-6053,4944,-1331,-935,1036,484,1,7,11
1.08E+03,-5822,4755,-1408,-885,250,801,1,7,11
1.08E+03,-5604,4822,-1207,-385,122,829,1,7,11
1.08E+03,-5704,5164,-1246,-200,-368,835,1,7,11
1.10E+03,-5342,5236,-1274,-360,-225,827,1,7,11
1.12E+03,-5317,5016,-1254,-351,-240,787,1,7,11
1.13E+03,-5319,5047,-1238,-373,-235,447,1,7,11
1.15E+03,-5352,5092,-1234,-168,-203,585,1,7,11
1.15E+03,-5655,5386,-1232,-235,-153,197,1,7,11
1.15E+03,-5718,5424,-1218,-554,-355,330,1,7,11
1.14E+03,-5536,5442,-1196,-613,-301,-37,1,7,11
1.11E+03,-5615,5427,-1406,-411,-267,124,1,7,11
1.08E+03,-5940,5398,-1351,-441,-269,38,1,7,11
1.05E+03,-5997,5102,-1302,-427,-316,-304,1,7,11
1.03E+03,-5785,5079,-1008,-635,-152,-131,1,7,11
1.03E+03,-5843,5037,-945,-565,-535,-205,1,7,11
1.05E+03,-5868,4996,-1141,-153,-813,-572,1,7,11
1.08E+03,-5882,5236,-1096,0,-1066,-394,1,7,11
1.11E+03,-5868,5220,-1067,-97,-1351,-466,1,7,11
1.13E+03,-5837,5194,-1041,302,-1624,-772,1,7,11
1.15E+03,-5792,5183,-1032,189,-1865,-798,1,7,11
1.15E+03,-5976,5199,-1075,579,-1775,-774,1,7,11
1.15E+03,-5941,5228,-1115,397,-2049,-445,1,7,11
1.14E+03,-5950,5244,-1135,400,-1683,-600,1,7,11
1.13E+03,-5981,5019,-1136,608,-1503,-521,1,7,11
1.11E+03,-5767,5035,-1121,513,-1544,-224,1,7,11
1.10E+03,-5809,5024,-1100,382,-1312,-211,1,7,11
1.09E+03,-5834,5232,-1071,257,-1077,-218,1,7,11
1.10E+03,-5861,5155,-1047,-99,-837,-240,1,7,11
1.11E+03,-6150,4819,-766,108,-617,-527,1,7,11
1.12E+03,-6194,4785,-750,112,-170,-569,1,7,11
1.14E+03,-6253,4795,-757,-117,-283,-602,1,7,11
1.16E+03,-6046,4820,-1037,-96,65,-605,1,7,11
1.17E+03,-6101,4847,-1055,-91,-128,-578,1,7,11
1.17E+03,-6421,4858,-1058,-119,-95,-521,1,7,11
1.16E+03,-6450,4835,-1061,104,-114,-195,1,7,11
1.14E+03,-6453,4820,-1076,80,104,-379,1,7,11
1.12E+03,-6436,4824,-1100,71,54,-298,1,7,11
1.09E+03,-6421,4818,-1087,52,9,42,1,7,11
1.06E+03,-6403,4813,-1079,39,-300,120,1,7,11
1.02E+03,-6101,4830,-1085,41,-363,-48,1,7,11
9.91E+02,-6079,4845,-1089,49,-188,-9,1,7,11
9.61E+02,-6028,4850,-1113,62,-229,290,1,7,11
9.35E+02,-6254,4849,-1109,45,-213,325,1,7,11
9.13E+02,-6215,4862,-1112,22,-176,343,1,7,11
8.95E+02,-6168,5142,-1131,-268,-361,353,1,7,11
8.81E+02,-5876,5144,-1111,-351,3,363,1,7,11
8.70E+02,-5856,5135,-1081,-168,116,358,1,7,11
8.64E+02,-5844,5144,-1061,-218,-31,333,1,7,11
8.61E+02,-5836,5147,-1050,-523,314,297,1,7,11
8.60E+02,-5850,5150,-1027,-564,146,-8,1,7,11
8.63E+02,-5879,5157,-748,-586,212,-51,1,7,11
8.68E+02,-6166,5178,-727,-608,251,-86,1,7,11
8.75E+02,-6204,5191,-703,-628,515,-98,1,7,11
8.83E+02,-6232,5219,-700,-385,241,-84,1,7,11
8.93E+02,-6252,5004,-710,-410,205,-55,1,7,11
9.04E+02,-6251,5047,-719,-462,155,-14,1,7,11
9.15E+02,-6235,5087,-757,-815,135,288,1,7,11
9.26E+02,-6231,5099,-761,-694,160,359,1,7,11
9.35E+02,-6224,5075,-763,-1069,183,173,1,7,11
9.44E+02,-6200,5023,-747,-921,216,216,1,7,11
9.49E+02,-6166,5225,-706,-963,243,231,1,7,11
9.53E+02,-5884,5207,-666,-940,527,209,1,7,11
9.54E+02,-5861,5214,-888,-1137,554,178,1,7,11
9.53E+02,-5837,5231,-866,-1079,581,151,1,7,11
9.49E+02,-5818,5244,-832,-760,582,382,1,7,11
9.43E+02,-5802,5005,-809,-681,565,356,1,7,11
9.33E+02,-5785,5008,-787,-867,540,332,1,7,11
9.22E+02,-5770,5006,-773,-790,247,303,1,7,11
9.12E+02,-6004,5012,-781,-433,185,261,1,7,11
9.08E+02,-6011,5028,-792,-588,383,-46,1,7,11
9.11E+02,-5766,5037,-789,-228,316,-121,1,7,11
9.25E+02,-5779,5055,-788,-171,269,91,1,7,11
9.47E+02,-5811,5077,-795,-131,-38,50,1,7,11
9.79E+02,-5829,5108,-808,-358,-101,20,1,7,11
1.02E+03,-5835,5383,-823,-344,113,-257,1,7,11
1.06E+03,-5840,5383,-820,-347,91,-266,1,7,11
1.09E+03,-5834,5379,-814,-359,84,-266,1,7,11
1.11E+03,-5813,5111,-822,-364,91,-263,1,7,11
1.11E+03,-5796,5089,-811,-374,121,-257,1,7,11
1.08E+03,-5781,5073,-804,-355,-99,-261,1,7,11
1.04E+03,-5762,5071,-812,-303,-72,-265,1,7,11
9.97E+02,-5777,5068,-795,11,-38,-268,1,7,11
9.73E+02,-5784,5078,-787,80,-29,-268,1,7,11
9.69E+02,-5787,5111,-797,-121,-18,-266,1,7,11
9.81E+02,-5778,5379,-812,-68,-19,15,1,7,11
1.00E+03,-5772,5407,-841,-2,273,54,1,7,11
1.02E+03,-5777,5396,-838,300,349,120,1,7,11
1.04E+03,-5773,5377,-842,362,153,-84,1,7,11
1.05E+03,-5996,5090,-868,162,196,-58,1,7,11
1.05E+03,-5949,5036,-646,236,525,-57,1,7,11
1.05E+03,-5935,4999,-647,583,617,-99,1,7,11
1.03E+03,-5913,5001,-722,418,448,68,1,7,11
1.02E+03,-5921,4993,-1051,447,818,-290,1,7,11
1.01E+03,-5951,5226,-1075,456,664,-147,1,7,11
9.98E+02,-6003,5196,-1078,447,727,-520,1,7,11
1.00E+03,-5859,5204,-1097,443,712,-385,1,7,11
1.01E+03,-6194,5215,-1106,454,868,-482,1,7,11
1.02E+03,-6259,5001,-1145,472,444,-783,1,7,11
1.03E+03,-6042,5048,-953,488,230,-472,1,7,11
1.04E+03,-6077,5064,-998,462,207,-597,1,7,11
1.05E+03,-6085,5037,-1295,631,38,-177,1,7,11
1.05E+03,-6066,5038,-1333,231,-368,-298,1,7,11
1.05E+03,-6033,5025,-1353,353,-234,70,1,7,11
1.05E+03,-6222,5025,-1377,-21,-571,-80,1,7,11
1.05E+03,-6164,4999,-1370,-127,-575,290,1,7,11
1.05E+03,-5876,5227,-1323,45,-526,190,1,7,11
1.05E+03,-5873,5179,-952,-276,-214,228,1,7,11
1.04E+03,-5851,5198,-987,-311,-224,512,1,7,11
1.04E+03,-5804,5210,-979,-304,-246,223,1,7,11
1.03E+03,-5781,5222,-961,-343,-206,168,1,7,11
1.04E+03,-5785,5213,-913,-338,-161,132,1,7,11
1.05E+03,-5799,5208,-1134,-315,-140,344,1,7,11
1.07E+03,-5806,5210,-1108,-273,-170,289,1,7,11
1.09E+03,-5830,5230,-1090,25,-222,-30,1,7,11
1.11E+03,-5881,5221,-1044,47,-557,-94,1,7,11
1.12E+03,-6202,5234,-751,82,-445,86,1,7,11
1.11E+03,-6250,5245,-721,121,-666,7,1,7,11
1.09E+03,-6260,5004,-727,-95,-903,-296,1,7,11
1.07E+03,-6269,5231,-686,-72,-1333,-274,1,7,11
1.04E+03,-6030,5191,-870,-1,-1254,35,1,7,11
1.02E+03,-6028,5166,-819,130,-1481,85,1,7,11
9.99E+02,-6246,5158,-789,554,-1741,122,1,7,11
9.91E+02,-6167,5191,-835,487,-1983,-101,1,7,11
9.94E+02,-5834,5211,-882,851,-2348,-81,1,7,11
1.01E+03,-5768,5231,-663,853,-2309,-93,1,7,11
1.04E+03,-5992,5014,-656,828,-1946,110,1,7,11
1.07E+03,-6000,5032,-878,798,-2124,49,1,7,11
1.09E+03,-5767,5050,-860,501,-2061,-288,1,7,11
1.11E+03,-5795,5078,-850,426,-1719,-380,1,7,11
1.12E+03,-5837,5107,-864,566,-1861,-191,1,7,11
1.11E+03,-5864,5096,-859,166,-1465,-222,1,7,11
1.10E+03,-6161,5080,-831,300,-1545,-220,1,7,11
1.08E+03,-6205,5043,-787,-67,-1346,-178,1,7,11
1.07E+03,-6272,5208,-412,90,-1152,-382,1,7,11
1.05E+03,-6066,5147,-635,90,-1036,-318,1,7,11
1.04E+03,-6091,4841,-594,-99,-710,23,1,7,11
1.04E+03,-6114,4812,-582,274,-649,106,1,7,11
1.05E+03,-6100,4814,-561,353,-823,-82,1,7,11
1.06E+03,-6097,4830,-564,156,-496,-61,1,7,11
1.08E+03,-6093,4869,-561,171,-452,-70,1,7,11
1.10E+03,-6078,5127,-555,172,-419,-73,1,7,11
1.12E+03,-6260,5138,-581,162,-400,-77,1,7,11
1.13E+03,-6200,5166,-597,155,-626,-89,1,7,11
1.14E+03,-6174,5185,-587,369,-546,-92,1,7,11
1.13E+03,-6178,5210,-566,322,-200,-95,1,7,11
1.13E+03,-6194,5226,-553,267,-142,-108,1,7,11
1.11E+03,-6208,5239,-539,-53,-375,117,1,7,11
1.09E+03,-6226,5236,-515,125,-346,72,1,7,11
1.07E+03,-6245,5240,-239,58,-332,20,1,7,11
1.06E+03,-6266,5217,-218,-288,-316,-282,1,7,11
1.06E+03,-6049,5209,-183,-329,-298,-327,1,7,11
1.07E+03,-6075,5188,-168,-360,-292,-368,1,7,11
1.09E+03,-6101,5178,-152,-360,-298,-144,1,7,11
1.11E+03,-6120,5183,-142,-366,-306,-165,1,7,11
1.13E+03,-6111,5165,-139,-366,-312,-169,1,7,11
1.14E+03,-6098,5150,-130,-378,-304,-175,1,7,11
1.16E+03,-6117,5149,-376,-373,-318,-209,1,7,11
1.16E+03,-6140,5182,-133,-382,-369,-521,1,7,11
1.15E+03,-6138,5182,-135,-173,-185,-575,1,7,11
1.13E+03,-6117,5168,-139,-213,-538,-634,1,7,11
1.10E+03,-6086,5136,-144,-246,-596,-410,1,7,11
1.07E+03,-6089,4823,-363,-537,-555,-398,1,7,11
1.05E+03,-6097,4780,-323,-519,-219,-595,1,7,11
1.04E+03,-6132,4773,-287,-199,-375,-516,1,7,11
1.06E+03,-6420,4799,-275,-137,-285,-172,1,7,11
1.08E+03,-6453,4813,14,-361,53,-345,1,7,11
1.10E+03,-6473,4811,43,-337,106,-281,1,7,11
1.12E+03,-6498,4838,25,-307,-120,6,1,7,11
1.13E+03,-6503,4801,30,-337,-79,29,1,7,11
1.14E+03,-6506,4798,28,-337,-37,23,1,7,11
1.13E+03,-6498,4808,1,-353,-5,21,1,7,11
1.12E+03,-6481,4823,-278,-380,325,39,1,7,11
1.10E+03,-6466,4798,-278,-196,131,55,1,7,11
1.07E+03,-6479,4786,-268,-213,187,50,1,7,11
1.04E+03,-6494,4805,29,-211,202,41,1,7,11
1.02E+03,-6528,4771,50,-161,366,32,1,7,11
1.02E+03,-6508,4811,-270,-135,269,27,1,7,11
1.02E+03,-6478,4819,-288,-144,-16,41,1,7,11
1.03E+03,-6482,4834,-309,-158,-22,65,1,7,11
1.05E+03,-6467,4806,-294,-188,-2,109,1,7,11
1.06E+03,-6470,4788,-277,-185,264,-117,1,7,11
1.08E+03,-6457,4777,-281,-165,266,-96,1,7,11
1.09E+03,-6440,4784,-294,-144,285,-70,1,7,11
1.09E+03,-6426,4802,-291,-375,315,-49,1,7,11
1.09E+03,-6428,4828,-269,-339,331,-31,1,7,11
1.08E+03,-6446,4825,-281,-341,333,-5,1,7,11
1.06E+03,-6453,4846,-300,-310,293,-11,1,7,11
1.05E+03,-6423,4834,-308,-349,290,-12,1,7,11
1.04E+03,-6411,4846,-321,-373,332,-19,1,7,11
1.03E+03,-6405,4855,-319,-381,377,-10,1,7,11
1.04E+03,-6414,4855,-295,-377,159,269,1,7,11
1.05E+03,-6406,5131,-305,-363,168,291,1,7,11
1.06E+03,-6127,5148,-334,-349,153,296,1,7,11
1.07E+03,-6114,5163,-352,-355,194,299,1,7,11
1.09E+03,-6096,5172,-354,-135,513,306,1,7,11
1.09E+03,-6096,5162,-336,-154,572,312,1,7,11
1.09E+03,-6094,5153,-307,-146,593,309,1,7,11
1.08E+03,-6084,5152,-302,-384,554,280,1,7,11
1.06E+03,-6073,5152,-300,-338,242,-1,1,7,11
1.03E+03,-6071,5173,-331,-283,171,-41,1,7,11
1.01E+03,-6073,5188,-350,-269,134,-87,1,7,11
1.01E+03,-6069,5192,-366,-265,357,125,1,7,11
1.02E+03,-6059,5199,-377,1,318,85,1,7,11
1.04E+03,-6048,5196,-129,11,279,53,1,7,11
1.06E+03,-6038,5208,-144,21,-12,28,1,7,11
1.08E+03,-6032,5207,-159,11,-40,8,1,7,11
1.09E+03,-6036,5204,-160,-265,-60,-265,1,7,11
1.08E+03,-6040,5197,-162,-284,-81,-283,1,7,11
1.07E+03,-6042,5181,-151,-305,-96,-306,1,7,11
1.05E+03,-6041,5178,-152,-307,-117,-334,1,7,11
1.04E+03,-6035,5185,-171,-301,-124,-355,1,7,11
1.03E+03,-6052,5194,-175,-318,-104,-370,1,7,11
1.03E+03,-6065,5194,-159,-342,-84,-375,1,7,11
1.02E+03,-6068,5187,-134,-366,-65,-363,1,7,11
1.01E+03,-6080,5152,-131,-376,-50,-342,1,7,11
1.01E+03,-6091,5133,-384,-355,-38,-316,1,7,11
1.00E+03,-6110,5137,-130,-322,-33,-289,1,7,11
1.00E+03,-6115,5159,-136,-297,-39,-264,1,7,11
1.01E+03,-6121,5170,-147,-286,-41,10,1,7,11
1.03E+03,-6121,5177,-148,-291,-40,21,1,7,11
1.04E+03,-6110,5187,-149,-307,-39,22,1,7,11
1.06E+03,-6095,5183,-135,-334,-34,21,1,7,11
1.06E+03,-6058,5181,-136,-349,-24,24,1,7,11
1.06E+03,-6038,5183,-132,-366,270,27,1,7,11
1.06E+03,-6032,5188,-374,-133,322,28,1,7,11
1.05E+03,-6044,5188,-347,-157,361,29,1,7,11
1.04E+03,-6049,5178,-320,-164,378,29,1,7,11
1.02E+03,-6054,5166,-295,-144,131,30,1,7,11
1.01E+03,-6060,5181,-295,-368,134,33,1,7,11
1.00E+03,-6071,5175,-287,-338,129,35,1,7,11
1.00E+03,-6125,5154,-284,-323,372,27,1,7,11
1.01E+03,-6433,5135,-295,-289,339,0,1,7,11
1.01E+03,-6465,5125,-319,31,277,-305,1,7,11
1.02E+03,-6470,5125,-354,105,-50,-316,1,7,11
1.03E+03,-6466,4849,-382,-86,-115,-303,1,7,11
1.04E+03,-6466,4833,-157,-45,99,-268,1,7,11
1.04E+03,-6457,4815,-190,-16,91,33,1,7,11
1.04E+03,-6445,4795,-228,278,92,78,1,7,11
1.02E+03,-6434,4795,-517,309,101,120,1,7,11
9.98E+02,-6425,4799,-554,327,124,-94,1,7,11
9.65E+02,-6419,4802,-573,323,-103,-52,1,7,11
9.35E+02,-6402,4801,-586,311,-75,-13,1,7,11
9.15E+02,-6140,4816,-599,294,-50,273,1,7,11
9.10E+02,-6123,4834,-624,268,-26,299,1,7,11
9.17E+02,-6104,4863,-399,-19,267,317,1,7,11
9.30E+02,-6104,5144,-414,-68,317,326,1,7,11
9.46E+02,-6100,5150,-416,123,363,326,1,7,11
9.62E+02,-6086,5151,-417,57,146,321,1,7,11
9.77E+02,-6082,5134,-416,-264,183,300,1,7,11
9.93E+02,-6085,4851,-393,-308,192,-5,1,7,11
1.01E+03,-6084,4842,-624,-326,175,-68,1,7,11
1.03E+03,-6080,4846,-605,-325,131,127,1,7,11
1.04E+03,-6072,5120,-592,-310,321,72,1,7,11
1.05E+03,-6054,5157,-586,-295,-10,40,1,7,11
1.05E+03,-6037,5166,-582,-286,-116,45,1,7,11
1.05E+03,-6031,5166,-580,-267,84,55,1,7,11
1.04E+03,-6272,5168,-577,6,33,58,1,7,11
1.03E+03,-6264,5183,-570,19,-259,51,1,7,11
1.02E+03,-6251,5198,-577,19,-286,50,1,7,11
1.02E+03,-6235,5210,-580,7,-280,51,1,7,11
1.03E+03,-6241,5225,-567,-271,1,46,1,7,11
1.04E+03,-6244,5222,-551,-306,26,36,1,7,11
1.04E+03,-6256,5215,-538,-334,54,20,1,7,11
1.03E+03,-6027,5208,-527,-354,82,4,1,7,11
1.02E+03,-6045,5208,-250,-373,108,-263,1,7,11
9.95E+02,-6067,5206,-234,-137,125,-275,1,7,11
9.72E+02,-6089,5195,-216,-152,126,-276,1,7,11
9.48E+02,-6105,5184,-197,-164,109,-273,1,7,11
9.28E+02,-6118,5166,-169,-159,82,-270,1,7,11
9.16E+02,-6135,5160,-158,-136,43,-268,1,7,11
9.15E+02,-6135,5151,-153,-352,-258,-264,1,7,11
9.25E+02,-6122,5149,-142,-301,-295,-260,1,7,11
9.44E+02,-6116,5156,-149,6,-323,1,1,7,11
9.65E+02,-6094,5162,-169,45,-338,12,1,7,11
9.86E+02,-6069,5165,-180,69,-329,28,1,7,11
1.00E+03,-6059,5169,-191,85,-299,41,1,7,11
1.02E+03,-6051,5173,-201,92,0,54,1,7,11
1.03E+03,-6049,5175,-204,90,73,72,1,7,11
1.05E+03,-6048,5167,-205,70,117,78,1,7,11
1.06E+03,-6050,5161,-208,69,-105,81,1,7,11
1.07E+03,-6047,5161,-210,66,-75,80,1,7,11
1.07E+03,-6044,5158,-200,57,-52,75,1,7,11
1.07E+03,-6037,5154,-213,55,-33,72,1,7,11
1.07E+03,-6019,5151,-216,63,-15,73,1,7,11
1.06E+03,-6256,5173,-246,83,266,86,1,7,11
1.06E+03,-6221,5199,-543,103,299,120,1,7,11
1.05E+03,-5854,5041,-392,-103,373,-60,1,7,11
1.04E+03,-5937,5440,-814,-126,599,299,1,7,11
1.04E+03,-5757,5265,-705,-306,1055,132,1,7,11
1.04E+03,-5643,5501,-1075,-629,1464,148,1,7,11
1.05E+03,-5366,5439,-899,-727,2240,326,1,7,11
1.07E+03,-5638,5401,-984,-1298,3008,-59,1,7,11
1.08E+03,-5714,5107,-1320,-1639,3736,-258,1,7,11
1.10E+03,-5576,5062,-1363,-1699,4612,-204,1,7,11
1.11E+03,-5969,5014,-1392,-1969,4847,-633,1,7,11
1.10E+03,-5854,5208,-1156,-2194,5443,-499,1,7,11
1.07E+03,-6266,5123,-1383,-2614,5371,-827,1,7,11
1.04E+03,-6415,4784,-1322,-2673,5370,-861,1,7,11
1.01E+03,-6282,4961,-987,-2608,5443,-849,1,7,11
9.97E+02,-6367,4963,-929,-2419,4827,-787,1,7,11
9.97E+02,-6375,4748,-911,-1927,4338,-400,1,7,11
1.01E+03,-6331,4780,-928,-1677,3794,-221,1,7,11
1.02E+03,-6278,4832,-957,-1425,3254,-276,1,7,11
1.04E+03,-6455,5135,-988,-1194,2726,-85,1,7,11
1.04E+03,-6101,5176,-1290,-989,2226,341,1,7,11
1.04E+03,-6247,5196,-1344,-1067,1772,217,1,7,11
1.03E+03,-5885,5215,-1385,-650,1623,552,1,7,11
1.02E+03,-5765,4995,-1181,-776,1021,591,1,7,11
1.00E+03,-5913,5028,-1240,-427,755,596,1,7,11
9.81E+02,-5577,5062,-1551,-619,811,567,1,7,11
9.62E+02,-5508,5085,-1591,-585,409,513,1,7,11
9.46E+02,-5726,5101,-1618,-561,552,190,1,7,11
9.33E+02,-5702,5388,-1631,-545,208,369,1,7,11
9.25E+02,-5700,5407,-1637,-546,136,300,1,7,11
9.25E+02,-5708,5422,-1632,-551,333,-6,1,7,11
9.34E+02,-5719,5432,-1636,-546,275,-47,1,7,11
9.51E+02,-5730,5448,-1635,-534,-40,-78,1,7,11
9.69E+02,-5730,5466,-1642,-513,-95,-105,1,7,11
9.83E+02,-5726,5478,-1637,-242,123,-118,1,7,11
9.88E+02,-5720,5490,-1629,-231,86,-117,1,7,11
9.85E+02,-5708,5502,-1612,-229,71,-110,1,7,11
9.79E+02,-5696,5494,-1601,-229,57,-99,1,7,11
9.75E+02,-5682,5488,-1595,-216,46,-92,1,7,11
9.77E+02,-5673,5491,-1588,-202,43,-87,1,7,11
9.84E+02,-5668,5491,-1570,-193,43,-79,1,7,11
9.89E+02,-5662,5497,-1561,-175,38,-74,1,7,11
9.88E+02,-5667,5261,-1558,-161,38,-71,1,7,11
9.74E+02,-5664,5279,-1558,-159,37,-67,1,7,11
9.50E+02,-5665,5288,-1560,-161,45,-62,1,7,11
9.24E+02,-5677,5300,-1545,-155,52,-65,1,7,11
9.01E+02,-5684,5294,-1271,-152,56,-64,1,7,11
8.86E+02,-5685,5279,-1265,-149,58,-62,1,7,11
8.76E+02,-5689,5279,-1249,-140,55,-60,1,7,11
8.70E+02,-5679,5271,-1233,-130,48,-56,1,7,11
8.64E+02,-5674,5263,-1228,-370,41,-51,1,7,11
8.57E+02,-5660,5263,-1208,-347,28,-49,1,7,11
8.50E+02,-5645,5271,-1205,-314,14,-39,1,7,11
8.43E+02,-5641,5275,-1211,-285,19,-28,1,7,11
8.35E+02,-5634,5284,-1216,-257,34,-16,1,7,11
8.27E+02,-5359,5276,-1222,29,61,265,1,7,11
8.19E+02,-5315,5272,-1223,88,78,301,1,7,11
8.13E+02,-5252,5500,-1222,-94,-128,358,1,7,11
8.12E+02,-5467,5492,-1232,261,-33,155,1,7,11
8.20E+02,-5380,5483,-1268,133,330,211,1,7,11
8.39E+02,-5241,5452,-1589,549,518,527,1,7,11
8.63E+02,-4813,5386,-1650,494,840,581,1,7,11
8.85E+02,-4921,5037,-1439,714,1363,574,1,7,11
8.96E+02,-4880,5236,-1475,984,1773,191,1,7,11
8.93E+02,-4974,5240,-1495,1242,2443,-61,1,7,11
8.83E+02,-5131,5025,-1532,1474,3192,-374,1,7,11
8.68E+02,-5051,5078,-1871,1892,3212,-441,1,7,11
8.53E+02,-5462,5384,-1825,1732,3270,-722,1,7,11
8.38E+02,-5297,5412,-2003,1759,3418,-910,1,7,11
8.24E+02,-5328,5410,-2230,1762,3197,-965,1,7,11
8.09E+02,-5319,5380,-2656,1717,2739,-897,1,7,11
7.96E+02,-5383,5042,-2491,1855,2843,-754,1,7,11
7.88E+02,-5362,5005,-2867,1479,2616,-775,1,7,11
7.86E+02,-5332,5000,-2730,1637,2335,-632,1,7,11
7.90E+02,-5289,5005,-3111,1244,1950,-225,1,7,11
7.95E+02,-5504,5012,-2950,1350,1494,-335,1,7,11
7.95E+02,-5470,4994,-2996,1074,1575,56,1,7,11
7.90E+02,-5435,5214,-3004,655,1388,-92,1,7,11
7.82E+02,-5117,5185,-3033,842,1290,-10,1,7,11
7.75E+02,-5038,5155,-3060,470,1044,310,1,7,11
7.73E+02,-5217,5138,-3343,634,679,354,1,7,11
7.74E+02,-5157,5126,-3364,516,875,372,1,7,11
7.79E+02,-4852,4849,-3386,191,841,372,1,7,11
7.85E+02,-4830,4847,-3384,379,828,354,1,7,11
7.92E+02,-4812,4857,-3388,314,812,319,1,7,11
7.97E+02,-4809,5122,-3399,-7,786,268,1,7,11
7.99E+02,-4828,5142,-3408,-77,493,-48,1,7,11
7.99E+02,-4839,5151,-3417,107,428,-98,1,7,11
7.99E+02,-4848,5155,-3411,17,606,121,1,7,11
8.00E+02,-4844,5148,-3408,-315,246,97,1,7,11
8.04E+02,-4836,5131,-3393,-377,149,96,1,7,11
8.12E+02,-4805,5121,-3395,-156,306,113,1,7,11
8.24E+02,-4754,5121,-3422,-194,262,-118,1,7,11
8.39E+02,-4756,4796,-3334,-526,272,-71,1,7,11
8.56E+02,-4756,4758,-3002,-539,-23,-57,1,7,11
8.73E+02,-4992,4767,-2973,-534,-115,-88,1,7,11
8.88E+02,-4960,4791,-2989,-530,58,116,1,7,11
9.00E+02,-4954,4789,-2990,-536,48,76,1,7,11
9.08E+02,-4983,4771,-2959,-518,79,44,1,7,11
9.13E+02,-4776,4785,-3184,-204,91,1,1,7,11
9.14E+02,-4806,4817,-3179,-157,77,-293,1,7,11
9.10E+02,-4827,4815,-3159,-375,72,-309,1,7,11
9.01E+02,-4855,4830,-3145,-315,66,-312,1,7,11
8.88E+02,-5149,4847,-3132,-268,48,-301,1,7,11
8.69E+02,-5151,5127,-3162,54,11,-269,1,7,11
8.46E+02,-5153,5154,-2963,116,7,34,1,7,11
8.18E+02,-5160,5159,-2965,-93,51,-106,1,7,11
7.89E+02,-5162,5159,-2972,-59,115,-19,1,7,11
7.68E+02,-5152,5162,-2996,-19,-74,323,1,7,11
7.61E+02,-5134,5154,-3006,267,-18,152,1,7,11
7.70E+02,-5125,5137,-3015,319,304,235,1,7,11
7.87E+02,-4840,5134,-3046,365,363,572,1,7,11
8.02E+02,-4791,5146,-3351,161,181,402,1,7,11
8.12E+02,-4754,5173,-3412,203,534,498,1,7,11
8.16E+02,-4988,5181,-3455,209,393,868,1,7,11
8.20E+02,-4945,5199,-3258,218,482,734,1,7,11
8.26E+02,-4922,5208,-3297,211,796,1097,1,7,11
8.34E+02,-4917,5184,-3289,179,821,934,1,7,11
8.43E+02,-4908,5161,-3289,180,489,976,1,7,11
8.54E+02,-4598,5164,-3317,189,605,986,1,7,11
8.67E+02,-4526,5174,-3617,144,249,980,1,7,11
8.80E+02,-4488,5173,-3635,317,190,965,1,7,11
8.94E+02,-4698,5182,-3649,-18,378,946,1,7,11
9.08E+02,-4678,5181,-3635,-105,319,907,1,7,11
9.22E+02,-4668,5205,-3622,72,-39,1098,1,7,11
9.36E+02,-4648,5231,-3608,6,79,754,1,7,11
9.49E+02,-4588,5018,-3617,-307,-335,659,1,7,11
9.62E+02,-4269,5054,-3652,-373,-223,778,1,7,11
9.74E+02,-4467,5098,-3669,-194,-555,451,1,7,11
9.84E+02,-4444,5377,-3641,-534,-545,398,1,7,11
9.91E+02,-4414,5423,-3622,-591,-545,617,1,7,11
9.96E+02,-4408,5466,-3602,-623,-529,589,1,7,11
9.98E+02,-4410,5494,-3318,-405,-251,571,1,7,11
9.95E+02,-4405,5258,-3272,-432,-227,569,1,7,11
9.87E+02,-4423,5481,-3446,-464,-233,569,1,7,11
9.73E+02,-4373,5266,-3216,-414,-252,564,1,7,11
9.53E+02,-4403,5472,-3375,-452,-187,578,1,7,11
9.32E+02,-4417,5434,-3064,-400,-219,561,1,7,11
9.16E+02,-4374,5455,-3354,-585,-519,248,1,7,11
9.11E+02,-4369,5432,-3335,-559,-228,212,1,7,11
9.18E+02,-4377,5393,-3052,-251,-168,179,1,7,11
9.33E+02,-4398,5388,-3028,-183,-130,375,1,7,11
9.50E+02,-4418,5424,-3022,-137,-135,295,1,7,11
9.63E+02,-4433,5443,-3012,-148,-147,-37,1,7,11
9.70E+02,-4469,5438,-2995,-175,-149,-121,1,7,11
9.72E+02,-4259,5433,-2985,-191,-169,13,1,7,11
9.69E+02,-4303,5447,-2992,-181,-194,-136,1,7,11
9.62E+02,-4616,5446,-2982,-172,-206,-539,1,7,11
9.53E+02,-4673,5428,-2955,-140,-211,-416,1,7,11
9.41E+02,-4719,5417,-3177,-317,-521,-775,1,7,11
9.27E+02,-4523,5381,-3132,39,-578,-850,1,7,11
9.12E+02,-4607,5074,-2804,-74,-394,-877,1,7,11
8.96E+02,-4896,5103,-2773,171,-781,-832,1,7,11
8.80E+02,-4895,5462,-3082,448,-675,-433,1,7,11
8.65E+02,-4882,5312,-3171,894,-1034,-213,1,7,11
8.51E+02,-4603,5354,-3009,704,-1047,57,1,7,11
8.39E+02,-4579,5329,-3072,685,-727,316,1,7,11
8.29E+02,-4541,5257,-3375,646,-891,518,1,7,11
8.22E+02,-4728,5481,-3436,659,-804,400,1,7,11
8.19E+02,-4484,5430,-3408,841,-410,460,1,7,11
8.20E+02,-4668,5442,-3455,815,-619,478,1,7,11
8.23E+02,-4617,5469,-3250,463,-528,456,1,7,11
8.30E+02,-4352,5487,-3272,566,-377,446,1,7,11
8.38E+02,-4628,5460,-3241,381,9,428,1,7,11
8.48E+02,-4626,5427,-3455,-20,44,638,1,7,11
8.59E+02,-4345,5399,-3422,109,24,564,1,7,11
8.71E+02,-4310,5113,-3395,0,-266,228,1,7,11
8.84E+02,-4283,5113,-3368,-340,-305,146,1,7,11
8.98E+02,-4264,5377,-3346,-176,-351,323,1,7,11
9.13E+02,-4250,5388,-3329,-524,-143,-7,1,7,11
9.29E+02,-4255,5405,-3063,-607,-182,-94,1,7,11
9.44E+02,-4271,5429,-3056,-412,-212,80,1,7,11
9.59E+02,-4317,5489,-3046,-453,-215,-29,1,7,11
9.72E+02,-4615,5263,-3018,-503,-179,-341,1,7,11
9.83E+02,-4670,5283,-2975,-820,-148,-130,1,7,11
9.90E+02,-4714,5324,-2951,-890,-378,-161,1,7,11
9.92E+02,-4498,5336,-3194,-678,-355,-164,1,7,11
9.89E+02,-4519,5335,-3167,-690,-327,-147,1,7,11
9.82E+02,-4552,5318,-3123,-675,-297,-138,1,7,11
9.72E+02,-4568,5292,-3075,-875,-301,-132,1,7,11
9.59E+02,-4561,5268,-2785,-794,-325,-132,1,7,11
9.44E+02,-4529,5258,-2769,-433,-343,-134,1,7,11
9.26E+02,-4497,5500,-2764,-598,-336,-131,1,7,11
9.07E+02,-4727,5501,-2755,-253,-311,-381,1,7,11
8.87E+02,-4700,5501,-2753,-191,-272,-378,1,7,11
8.66E+02,-4675,5497,-2734,-157,47,-383,1,7,11
8.46E+02,-4668,5473,-2709,-141,121,-157,1,7,11
8.25E+02,-4666,5456,-2696,-376,-78,-215,1,7,11
8.04E+02,-4689,5432,-2923,-362,-37,-538,1,7,11
7.84E+02,-4487,5413,-2915,-339,-42,-601,1,7,11
7.72E+02,-4527,5404,-2911,-318,-98,-395,1,7,11
7.72E+02,-4583,5417,-2909,-298,85,-436,1,7,11
7.86E+02,-4871,5441,-2937,-266,-288,-455,1,7,11
8.06E+02,-4909,5468,-2707,0,-133,-453,1,7,11
8.20E+02,-4941,5473,-2715,-259,-205,-441,1,7,11
8.23E+02,-4973,5491,-2749,-258,-515,-421,1,7,11
8.18E+02,-4738,5264,-2772,-262,-560,-624,1,7,11
8.15E+02,-4749,5281,-2786,-274,-606,-547,1,7,11
8.19E+02,-4755,5340,-3081,-275,-626,-213,1,7,11
8.30E+02,-4777,5647,-3105,-337,-618,-378,1,7,11
8.42E+02,-4790,5660,-3104,-204,-615,-299,1,7,11
8.46E+02,-4807,5656,-3094,-621,-621,-277,1,7,11
8.41E+02,-4813,5636,-3079,-804,-397,-277,1,7,11
8.34E+02,-4809,5375,-2815,-718,-456,-288,1,7,11
8.31E+02,-4808,5334,-2796,-923,-779,-287,1,7,11
8.39E+02,-4768,5480,-2728,-1353,-864,18,1,7,11
8.53E+02,-4740,5406,-2884,-1405,-660,72,1,7,11
8.69E+02,-4987,5378,-2550,-1378,-645,-121,1,7,11
8.79E+02,-4746,5118,-2475,-1313,-841,-49,1,7,11
8.85E+02,-4757,5388,-2654,-979,-771,270,1,7,11
8.90E+02,-4979,5438,-2612,-1115,-462,301,1,7,11
8.99E+02,-4950,5496,-2595,-735,-605,302,1,7,11
9.16E+02,-4934,5278,-2595,-866,-221,312,1,7,11
9.36E+02,-4937,5321,-2607,-780,-328,329,1,7,11
9.49E+02,-4920,5348,-2620,-493,103,338,1,7,11
9.49E+02,-4911,5306,-2587,-479,285,329,1,7,11
9.31E+02,-4584,5363,-2668,-386,151,284,1,7,11
9.08E+02,-4733,5671,-2516,-398,387,258,1,7,11
8.94E+02,-4348,5684,-2553,-457,731,258,1,7,11
9.05E+02,-4476,5513,-2915,-431,1330,-22,1,7,11
9.40E+02,-4386,5558,-2733,-463,1465,-42,1,7,11
9.84E+02,-4036,5555,-2791,-511,2118,-115,1,7,11
1.02E+03,-3994,5727,-3077,-860,2272,-313,1,7,11
1.03E+03,-4018,5352,-2806,-715,2916,-392,1,7,11
1.01E+03,-4434,5276,-2714,-1062,2966,-1067,1,7,11
9.70E+02,-4345,5263,-2876,-1118,3335,-1183,1,7,11
9.36E+02,-4552,5379,-2676,-936,2986,-1473,1,7,11
9.18E+02,-4884,5425,-2493,-1082,2688,-1677,1,7,11
9.18E+02,-4748,5114,-2666,-1139,2483,-2058,1,7,11
9.30E+02,-4836,5417,-2442,-1116,2207,-2117,1,7,11
9.49E+02,-5194,5408,-2442,-910,1966,-2120,1,7,11
9.70E+02,-5037,5397,-2434,-932,1713,-2074,1,7,11
9.89E+02,-5106,5383,-2685,-914,1435,-1732,1,7,11
1.01E+03,-5383,5390,-2648,-1083,1372,-1907,1,7,11
1.02E+03,-5086,5419,-2678,-722,1075,-1821,1,7,11
1.03E+03,-5090,5437,-2672,-663,874,-1462,1,7,11
1.03E+03,-5070,5436,-2671,-891,457,-1599,1,7,11
1.02E+03,-5032,5403,-2442,-875,599,-1245,1,7,11
1.01E+03,-5027,5376,-2436,-834,514,-1378,1,7,11
9.87E+02,-5019,5389,-2473,-772,224,-1014,1,7,11
9.58E+02,-5026,5422,-2489,-465,240,-1093,1,7,11
9.31E+02,-5083,5466,-2455,-426,530,-781,1,7,11
9.11E+02,-5441,5262,-2686,-619,224,-315,1,7,11
9.03E+02,-5645,5474,-2593,-402,342,217,1,7,11
9.01E+02,-5747,5438,-2582,-445,-264,693,1,7,11
9.01E+02,-5515,5462,-2613,-771,-439,1282,1,7,11
8.95E+02,-5714,5467,-2612,-876,-907,1231,1,7,11
8.85E+02,-5306,5254,-2666,-696,-1415,1278,1,7,11
8.77E+02,-5080,5279,-2462,-1069,-2077,1198,1,7,11
8.79E+02,-4846,5271,-2453,-955,-2033,1006,1,7,11
8.93E+02,-4873,5300,-2655,-1360,-2021,796,1,7,11
9.13E+02,-4531,5352,-2574,-1178,-2145,190,1,7,11
9.26E+02,-4511,5659,-2234,-1256,-1710,105,1,7,11
9.22E+02,-4541,5705,-2397,-1590,-1529,-180,1,7,11
8.99E+02,-4550,5704,-2326,-1653,-1606,-637,1,7,11
8.72E+02,-4586,5683,-1973,-1662,-1384,-501,1,7,11
8.58E+02,-4921,5677,-2127,-1603,-1133,-822,1,7,11
8.71E+02,-4756,5688,-1775,-1263,-877,-850,1,7,11
9.04E+02,-4831,5690,-1681,-1159,-400,-847,1,7,11
9.47E+02,-5138,5694,-1862,-1285,-212,-823,1,7,11
9.86E+02,-5194,5688,-1529,-1143,-284,-776,1,7,11
1.01E+03,-5246,5697,-1476,-720,123,-444,1,7,11
1.02E+03,-5028,5718,-1449,-805,265,-588,1,7,11
1.02E+03,-5062,5746,-1433,-385,375,-195,1,7,11
1.01E+03,-5091,5523,-1433,-213,165,-315,1,7,11
9.88E+02,-5386,5574,-1451,-301,162,87,1,7,11
9.65E+02,-5441,5610,-1469,107,358,-1,1,7,11
9.39E+02,-5479,5613,-1493,-28,-23,180,1,7,11
9.12E+02,-5253,5566,-1503,318,56,605,1,7,11
8.86E+02,-5251,5736,-1502,148,-173,481,1,7,11
8.65E+02,-5442,5659,-1534,229,-429,816,1,7,11
8.55E+02,-5059,5357,-1854,531,-642,830,1,7,11
8.61E+02,-5168,5345,-1689,525,-759,769,1,7,11
8.82E+02,-4772,5346,-1765,195,-738,394,1,7,11
9.07E+02,-4926,5353,-2068,339,-857,234,1,7,11
9.24E+02,-4876,5374,-2115,-29,-386,296,1,7,11
9.22E+02,-4905,5632,-2115,111,-372,96,1,7,11
9.00E+02,-4964,5645,-2101,48,122,-338,1,7,11
8.69E+02,-4842,5699,-2068,22,331,-223,1,7,11
8.39E+02,-5193,5742,-2053,11,577,-564,1,7,11
8.20E+02,-5035,5531,-1779,10,422,-538,1,7,11
8.08E+02,-5388,5594,-1769,27,462,-215,1,7,11
8.01E+02,-5463,5918,-1760,41,435,-381,1,7,11
7.96E+02,-5250,5941,-1729,41,617,-275,1,7,11
7.94E+02,-5261,5931,-1696,53,249,83,1,7,11
7.96E+02,-5488,5890,-1917,70,372,-75,1,7,11
8.04E+02,-5426,5581,-1894,102,-9,268,1,7,11
8.14E+02,-5090,5531,-1872,-120,-118,338,1,7,11
8.17E+02,-4999,5730,-1864,-82,51,128,1,7,11
8.07E+02,-5178,5690,-1859,-28,-266,151,1,7,11
7.86E+02,-4859,5680,-1875,283,-304,142,1,7,11
7.65E+02,-4796,5672,-1899,330,-315,368,1,7,11
7.55E+02,-4754,5669,-1681,373,-301,307,1,7,11
7.59E+02,-4973,5672,-1732,150,-270,-35,1,7,11
7.72E+02,-4956,5668,-1771,172,44,124,1,7,11
7.90E+02,-4961,5680,-2074,197,121,19,1,7,11
8.09E+02,-4984,5681,-2126,223,-52,-340,1,7,11
8.24E+02,-4808,5692,-1944,526,331,-222,1,7,11
8.32E+02,-4856,5711,-1987,556,142,-544,1,7,11
8.29E+02,-5161,5717,-2019,573,206,-578,1,7,11
8.17E+02,-5203,5709,-2311,571,522,-576,1,7,11
7.98E+02,-5236,5697,-2332,564,571,-551,1,7,11
7.76E+02,-5014,5678,-2347,549,609,-254,1,7,11
7.55E+02,-5036,5661,-2345,533,625,-203,1,7,11
7.41E+02,-5058,5647,-2363,512,621,-152,1,7,11
7.36E+02,-5067,5371,-2363,237,591,-353,1,7,11
7.39E+02,-5058,5354,-2377,217,546,-306,1,7,11
7.43E+02,-5052,5338,-2388,192,245,-267,1,7,11
7.44E+02,-5038,5328,-2393,160,195,19,1,7,11
7.42E+02,-5016,5327,-2401,369,145,45,1,7,11
7.40E+02,-5247,5320,-2400,296,356,76,1,7,11
7.40E+02,-5233,5320,-2396,-33,312,102,1,7,11
7.42E+02,-5215,5319,-2407,-105,271,126,1,7,11
7.45E+02,-5202,5320,-2411,94,-22,-117,1,7,11
7.47E+02,-5190,5321,-2414,40,-47,-122,1,7,11
7.51E+02,-5181,5317,-2407,2,-58,115,1,7,11
7.56E+02,-5158,5312,-2402,-285,-55,89,1,7,11
7.63E+02,-5149,5302,-2399,-304,-39,65,1,7,11
7.71E+02,-5140,5288,-2398,-311,-14,42,1,7,11
7.79E+02,-5145,5274,-2391,-302,272,20,1,7,11
7.85E+02,-5160,5262,-2389,-286,297,-257,1,7,11
7.89E+02,-5184,5257,-2393,-261,303,-274,1,7,11
7.94E+02,-5208,5263,-2396,21,293,-275,1,7,11
7.98E+02,-5226,5272,-2406,40,262,-266,1,7,11
8.02E+02,-5238,5293,-2424,59,-34,9,1,7,11
8.07E+02,-5241,5314,-2184,65,-68,28,1,7,11
8.14E+02,-4993,5343,-2196,61,-98,43,1,7,11
8.22E+02,-4993,5360,-2203,53,-120,65,1,7,11
8.32E+02,-5243,5370,-2192,36,114,83,1,7,11
8.44E+02,-5227,5635,-2192,31,96,105,1,7,11
8.58E+02,-5197,5633,-2431,20,101,127,1,7,11
8.72E+02,-5166,5356,-2423,15,123,-108,1,7,11
8.85E+02,-5134,5339,-2413,22,-92,-92,1,7,11
8.95E+02,-4858,5314,-2405,29,-36,-82,1,7,11
9.02E+02,-4842,5290,-2397,53,268,-85,1,7,11
9.06E+02,-4830,5263,-2388,84,303,-96,1,7,11
9.08E+02,-4824,5252,-2390,124,329,-111,1,7,11
9.07E+02,-4826,5249,-2409,-98,337,-122,1,7,11
9.04E+02,-4826,5498,-2184,-65,337,118,1,7,11
8.99E+02,-4839,5500,-2210,-35,337,102,1,7,11
8.92E+02,-4854,5491,-2224,-22,334,90,1,7,11
8.82E+02,-5121,5501,-2243,259,320,82,1,7,11
8.66E+02,-5128,5264,-2272,271,300,78,1,7,11
8.43E+02,-5123,5275,-2297,265,287,82,1,7,11
8.15E+02,-5121,5286,-2584,-5,290,99,1,7,11
7.91E+02,-5125,5298,-2589,-35,310,117,1,7,11
7.79E+02,-5129,5309,-2592,-85,341,123,1,7,11
7.81E+02,-5141,5317,-2580,111,370,109,1,7,11
7.90E+02,-5154,5331,-2570,46,375,78,1,7,11
8.01E+02,-5143,5352,-2564,-271,379,49,1,7,11
8.07E+02,-5161,5310,-2255,-352,162,25,1,7,11
8.10E+02,-5201,5262,-2219,-156,188,-263,1,7,11
8.08E+02,-5201,5496,-2189,-198,176,-321,1,7,11
8.04E+02,-5196,5474,-2188,-218,134,-146,1,7,11
7.98E+02,-5165,5481,-2190,-216,335,-214,1,7,11
7.93E+02,-5151,5487,-2180,-203,291,-250,1,7,11
7.90E+02,-5155,5496,-2194,-191,-16,-516,1,7,11
7.92E+02,-5135,5261,-2235,-142,-113,-236,1,7,11
8.03E+02,-4864,5264,-2273,-361,-115,-194,1,7,11
8.24E+02,-5136,5249,-2257,-312,-81,-151,1,7,11
8.54E+02,-5142,5503,-2267,-260,-76,-374,1,7,11
8.87E+02,-5144,5256,-2296,41,-83,-353,1,7,11
9.15E+02,-5151,5253,-2568,69,-76,-341,1,7,11
9.34E+02,-5171,5258,-2580,92,-76,-345,1,7,11
9.43E+02,-5180,5262,-2593,91,-87,-366,1,7,11
9.46E+02,-5179,5249,-2615,71,-87,-130,1,7,11
9.44E+02,-5187,5493,-2619,51,-76,-145,1,7,11
9.42E+02,-5197,5488,-2618,22,-54,-161,1,7,11
9.41E+02,-5211,5487,-2610,-267,-39,-176,1,7,11
9.43E+02,-5208,5496,-2605,-291,-43,-179,1,7,11
9.52E+02,-5202,5250,-2596,-318,-42,-181,1,7,11
9.67E+02,-5204,5482,-2574,-343,-56,-181,1,7,11
9.85E+02,-5216,5460,-2291,-344,-102,-187,1,7,11
1.00E+03,-5225,5440,-2253,-333,88,-184,1,7,11
1.01E+03,-5243,5420,-2228,-286,4,-158,1,7,11
1.00E+03,-4999,5419,-2237,32,-342,-373,1,7,11
9.87E+02,-5001,5419,-2252,73,-139,-335,1,7,11
9.60E+02,-5009,5412,-2262,79,-149,-306,1,7,11
9.26E+02,-5000,5407,-2292,80,-138,-290,1,7,11
8.90E+02,-5000,5440,-2290,62,-337,-278,1,7,11
8.59E+02,-5018,5404,-2267,14,-268,-262,1,7,11
8.42E+02,-5029,5401,-2284,2,20,-266,1,7,11
8.46E+02,-5041,5383,-2261,-272,32,-280,1,7,11
8.67E+02,-5056,5381,-2255,-260,5,-307,1,7,11
8.94E+02,-5046,5113,-2274,2,-281,-318,1,7,11
9.17E+02,-5033,5387,-2292,7,-283,-318,1,7,11
9.29E+02,-5032,5389,-2571,-278,47,-279,1,7,11
9.33E+02,-5032,5397,-2294,-278,100,11,1,7,11
9.33E+02,-5049,5404,-2261,-284,-125,34,1,7,11
9.33E+02,-5043,5407,-2247,-287,122,48,1,7,11
9.34E+02,-5034,5405,-2248,-281,120,61,1,7,11
9.37E+02,-5034,5393,-2238,-261,-110,83,1,7,11
9.41E+02,-5044,5387,-2219,23,-84,100,1,7,11
9.44E+02,-5054,5387,-2224,49,-79,101,1,7,11
9.47E+02,-5050,5390,-2228,66,-83,93,1,7,11
9.48E+02,-5039,5395,-2229,66,-81,76,1,7,11
9.45E+02,-5036,5389,-2244,54,-85,49,1,7,11
9.37E+02,-5030,5381,-2264,43,-90,19,1,7,11
9.24E+02,-5044,5378,-2267,30,-91,-263,1,7,11
9.10E+02,-5054,5385,-2276,21,-105,-282,1,7,11
9.00E+02,-5047,5397,-2288,3,-126,-295,1,7,11
8.97E+02,-5048,5400,-2296,-276,121,-300,1,7,11
9.04E+02,-5052,5402,-2280,-294,117,-301,1,7,11
9.15E+02,-5047,5403,-2272,-306,114,-292,1,7,11
9.24E+02,-5049,5397,-2271,-313,120,-276,1,7,11
9.26E+02,-5058,5392,-2268,-310,-127,2,1,7,11
9.21E+02,-5066,5389,-2261,-308,-108,36,1,7,11
9.08E+02,-5073,5391,-2250,-297,-86,86,1,7,11
8.87E+02,-5085,5400,-2251,-284,-59,-101,1,7,11
8.60E+02,-5112,5387,-2245,-290,-29,-16,1,7,11
8.35E+02,-5397,5389,-2229,-281,-23,310,1,7,11
8.17E+02,-5405,5392,-2231,-280,-44,355,1,7,11
8.13E+02,-5119,5398,-2233,-274,-86,364,1,7,11
8.20E+02,-5080,5417,-2244,-266,125,340,1,7,11
8.35E+02,-5029,5427,-2263,-273,91,286,1,7,11
8.51E+02,-5233,5440,-2273,-290,77,-40,1,7,11
8.68E+02,-5193,5424,-2274,-318,87,-124,1,7,11
8.84E+02,-5166,5407,-2265,-341,108,40,1,7,11
9.01E+02,-5175,5393,-2249,-350,-118,-293,1,7,11
9.18E+02,-5195,5383,-2235,-349,-82,-358,1,7,11
9.35E+02,-5222,5390,-2226,-334,-47,-368,1,7,11
9.52E+02,-5001,5395,-2219,-308,-6,-357,1,7,11
9.67E+02,-5039,5397,-2213,-292,270,-331,1,7,11
9.81E+02,-5066,5396,-2206,-267,271,-303,1,7,11
9.93E+02,-5086,5401,-2201,3,263,-270,1,7,11
1.00E+03,-5102,5409,-2204,16,-5,26,1,7,11
1.01E+03,-5114,5416,-2217,31,-19,62,1,7,11
1.00E+03,-5377,5424,-2247,51,-33,91,1,7,11
9.97E+02,-5377,5432,-2262,62,-45,110,1,7,11
9.86E+02,-5113,5427,-2262,68,-56,127,1,7,11
9.75E+02,-5102,5424,-2267,62,-64,-115,1,7,11
9.70E+02,-5087,5412,-2275,52,-68,-101,1,7,11
9.76E+02,-5066,5410,-2283,42,-66,-88,1,7,11
9.93E+02,-5050,5411,-2275,27,-56,-75,1,7,11
1.01E+03,-5035,5409,-2278,17,-48,-67,1,7,11
1.03E+03,-5015,5406,-2271,5,-44,-61,1,7,11
1.05E+03,-5248,5409,-2273,5,-44,-63,1,7,11
1.05E+03,-5230,5407,-2287,6,-44,-68,1,7,11
1.04E+03,-5224,5399,-2295,8,-43,-79,1,7,11
1.03E+03,-5209,5401,-2296,19,-45,-95,1,7,11
1.00E+03,-5205,5409,-2292,22,-42,-111,1,7,11
9.75E+02,-5201,5408,-2293,12,-42,-124,1,7,11
9.42E+02,-5193,5400,-2298,4,-45,123,1,7,11
9.13E+02,-5194,5400,-2300,11,-48,106,1,7,11
8.92E+02,-5198,5404,-2565,20,-49,91,1,7,11
8.78E+02,-5208,5404,-2570,23,-50,71,1,7,11
8.71E+02,-5222,5404,-2576,23,-56,48,1,7,11
8.70E+02,-5230,5415,-2578,21,-66,28,1,7,11
8.72E+02,-5239,5421,-2584,16,-72,5,1,7,11
8.76E+02,-5246,5420,-2591,4,-77,-268,1,7,11
8.83E+02,-5245,5415,-2590,-264,-81,-278,1,7,11
8.91E+02,-5004,5407,-2588,-268,-79,-279,1,7,11
9.02E+02,-5028,5407,-2598,-287,-50,65,1,7,11
9.15E+02,-5016,5411,-2608,-291,-41,77,1,7,11
9.29E+02,-5006,5414,-2594,-299,-32,82,1,7,11
9.43E+02,-5000,5408,-2588,-307,-20,88,1,7,11
9.55E+02,-4997,5414,-2582,-307,-8,93,1,7,11
9.65E+02,-5000,5414,-2568,-309,-1,94,1,7,11
9.72E+02,-4999,5413,-2562,-313,256,91,1,7,11
9.76E+02,-4997,5414,-2297,-310,-6,84,1,7,11
9.76E+02,-5004,5415,-2294,-304,-15,75,1,7,11
9.73E+02,-4999,5416,-2290,-299,-29,77,1,7,11
9.64E+02,-4994,5415,-2288,-293,-49,79,1,7,11
9.48E+02,-5243,5426,-2298,-286,-58,81,1,7,11
9.23E+02,-5232,5422,-2298,-295,-59,78,1,7,11
8.88E+02,-5230,5425,-2297,-300,-67,63,1,7,11
8.50E+02,-5222,5424,-2295,-303,-78,44,1,7,11
8.18E+02,-5199,5422,-2298,-294,-95,36,1,7,11
8.01E+02,-5194,5433,-2566,-272,-108,46,1,7,11
7.97E+02,-5190,5453,-2589,18,-114,95,1,7,11
8.01E+02,-5205,5442,-2600,37,-77,-75,1,7,11
8.06E+02,-5241,5431,-2594,68,-16,281,1,7,11
8.12E+02,-5025,5420,-2569,98,293,360,1,7,11
8.19E+02,-5046,5421,-2564,125,321,155,1,7,11
8.30E+02,-5047,5431,-2568,-115,329,170,1,7,11
8.45E+02,-5024,5446,-2578,-117,335,156,1,7,11
8.56E+02,-4996,5462,-2600,126,331,373,1,7,11
8.56E+02,-5227,5466,-2617,95,328,317,1,7,11
8.39E+02,-5201,5466,-2630,62,314,-3,1,7,11
8.13E+02,-5173,5467,-2639,36,289,-62,1,7,11
7.92E+02,-5149,5462,-2644,16,256,-113,1,7,11
7.87E+02,-5140,5459,-2642,-263,-35,98,1,7,11
7.98E+02,-5129,5461,-2648,-282,-73,61,1,7,11
8.11E+02,-4859,5462,-2641,-305,-109,38,1,7,11
8.17E+02,-4842,5454,-2639,-332,117,29,1,7,11
8.09E+02,-4826,5443,-2641,-344,99,29,1,7,11
7.93E+02,-4823,5440,-2648,-342,102,30,1,7,11
7.74E+02,-4823,5441,-2649,-338,116,27,1,7,11
7.58E+02,-4835,5436,-2643,-329,-126,14,1,7,11
7.48E+02,-4848,5441,-2638,-318,-111,-257,1,7,11
7.48E+02,-5125,5448,-2636,-305,-94,-271,1,7,11
7.57E+02,-5146,5452,-2638,-293,-81,-277,1,7,11
7.65E+02,-5174,5458,-2633,-284,-70,-278,1,7,11
7.65E+02,-5190,5459,-2634,-271,-66,-275,1,7,11
7.51E+02,-5210,5454,-2640,-267,-61,-268,1,7,11
7.33E+02,-5221,5459,-2650,-263,-62,-259,1,7,11
7.22E+02,-5227,5462,-2639,-267,-63,12,1,7,11
7.20E+02,-5227,5463,-2633,-277,-66,33,1,7,11
7.21E+02,-5218,5466,-2637,-292,-67,52,1,7,11
7.18E+02,-5205,5463,-2633,-307,-63,74,1,7,11
7.09E+02,-5195,5461,-2637,-317,-58,91,1,7,11
7.03E+02,-5182,5457,-2632,-331,-51,105,1,7,11
7.08E+02,-5171,5450,-2631,-333,-42,116,1,7,11
7.21E+02,-5156,5445,-2624,-334,-34,122,1,7,11
7.33E+02,-5152,5444,-2621,-326,-30,120,1,7,11
7.33E+02,-5147,5450,-2620,-317,-29,118,1,7,11
7.23E+02,-5148,5453,-2613,-308,-29,115,1,7,11
7.10E+02,-5145,5453,-2607,-302,-31,115,1,7,11
7.04E+02,-5137,5451,-2603,-297,-39,112,1,7,11
7.04E+02,-5131,5451,-2601,-291,-47,111,1,7,11
7.10E+02,-4863,5454,-2601,-284,-51,105,1,7,11
7.22E+02,-4852,5455,-2607,-283,-47,91,1,7,11
7.34E+02,-4856,5460,-2618,-285,-51,71,1,7,11
7.42E+02,-4859,5458,-2612,-294,-56,45,1,7,11
7.43E+02,-4864,5471,-2613,-298,-67,20,1,7,11
7.41E+02,-5135,5474,-2622,-306,-81,3,1,7,11
7.44E+02,-5153,5472,-2626,-310,-97,-267,1,7,11
7.54E+02,-5173,5474,-2621,-304,-112,-269,1,7,11
7.67E+02,-5178,5470,-2615,-299,-128,-259,1,7,11
7.75E+02,-5175,5452,-2603,-302,115,8,1,7,11
7.72E+02,-5173,5445,-2603,-306,115,22,1,7,11
7.65E+02,-5173,5445,-2602,-302,-128,31,1,7,11
7.62E+02,-5170,5444,-2601,-295,-115,38,1,7,11
7.70E+02,-5174,5451,-2604,-282,-103,43,1,7,11
7.86E+02,-5172,5462,-2617,-278,-94,44,1,7,11
8.06E+02,-5172,5467,-2618,-281,-88,39,1,7,11
8.23E+02,-5173,5473,-2622,-289,-89,28,1,7,11
8.36E+02,-5175,5482,-2624,-306,-97,7,1,7,11
8.43E+02,-5178,5482,-2623,-331,-122,-285,1,7,11
8.42E+02,-5178,5483,-2608,-367,89,-339,1,7,11
8.35E+02,-5199,5485,-2582,-177,27,-165,1,7,11
8.28E+02,-5004,5255,-2567,-547,-334,-567,1,7,11
8.29E+02,-5377,5293,-2295,-488,-524,-803,1,7,11
8.40E+02,-5495,5324,-2270,-1029,-844,-1135,1,7,11
8.60E+02,-5302,5304,-2233,-1369,-1299,-1547,1,7,11
8.83E+02,-5297,5493,-2179,-1436,-1849,-1745,1,7,11
9.03E+02,-5444,5074,-2372,-1905,-2428,-2386,1,7,11
9.19E+02,-5050,5225,-2344,-1864,-2863,-2604,1,7,11
9.30E+02,-5239,5187,-2310,-1443,-2755,-2594,1,7,11
9.40E+02,-5040,5159,-1954,-1248,-2857,-2362,1,7,11
9.48E+02,-5421,5145,-2106,-1281,-2296,-1727,1,7,11
9.53E+02,-5320,5166,-1737,-1056,-1935,-1561,1,7,11
9.53E+02,-5733,5178,-1901,-876,-1844,-911,1,7,11
9.44E+02,-5588,5191,-1847,-467,-1279,-840,1,7,11
9.23E+02,-5923,5201,-1803,-587,-989,-568,1,7,11
9.00E+02,-5963,5208,-1800,-219,-698,-335,1,7,11
8.83E+02,-5996,5225,-1531,-131,-638,-126,1,7,11
8.82E+02,-5763,5225,-1519,-318,-333,325,1,7,11
9.01E+02,-6012,5214,-1509,2,-44,522,1,7,11
9.29E+02,-5994,5198,-1501,70,226,440,1,7,11
9.56E+02,-5966,5219,-1502,-120,480,830,1,7,11
9.72E+02,-5941,5231,-1502,-78,715,676,1,7,11
9.73E+02,-5897,4992,-1506,-33,903,742,1,7,11
9.64E+02,-5577,5013,-1530,-6,1308,760,1,7,11
9.48E+02,-5758,5029,-1818,267,1171,732,1,7,11
9.31E+02,-5693,5064,-1838,266,1267,655,1,7,11
9.16E+02,-5344,5080,-1870,-14,1581,798,1,7,11
9.10E+02,-5291,5078,-1891,-55,1600,398,1,7,11
9.17E+02,-5264,5091,-1914,-111,1584,134,1,7,11
9.40E+02,-5273,5383,-1679,74,1255,-89,1,7,11
9.73E+02,-5283,5437,-1712,-292,1226,-342,1,7,11
1.01E+03,-5275,5453,-1756,-207,1084,-213,1,7,11
1.04E+03,-5263,5407,-2050,-507,583,-812,1,7,11
1.07E+03,-5252,5072,-2071,-873,256,-690,1,7,11
1.08E+03,-5282,5008,-2070,-870,-258,-722,1,7,11
1.09E+03,-5347,5231,-1781,-809,-186,-648,1,7,11
1.07E+03,-5673,5228,-1741,-457,-575,-769,1,7,11
1.05E+03,-5750,4998,-1725,-635,-420,-626,1,7,11
1.01E+03,-5545,5029,-1718,-585,-505,-238,1,7,11
9.79E+02,-5568,5059,-1709,-553,-816,-136,1,7,11
9.55E+02,-5573,5077,-1716,-549,-822,-324,1,7,11
9.49E+02,-5575,5079,-1701,-560,-778,-287,1,7,11
9.59E+02,-5564,5082,-1689,-572,-445,-277,1,7,11
9.76E+02,-5536,5076,-1668,-585,-597,-280,1,7,11
9.93E+02,-5517,5074,-1904,-581,-212,-286,1,7,11
1.00E+03,-5507,5085,-1886,-577,-316,-288,1,7,11
1.00E+03,-5511,5093,-1851,-583,103,-271,1,7,11
9.92E+02,-5521,5093,-1809,-583,-18,19,1,7,11
9.73E+02,-5522,5080,-1518,-569,333,63,1,7,11
9.47E+02,-5530,5073,-1483,-534,138,108,1,7,11
9.21E+02,-5536,5069,-1458,-232,165,-104,1,7,11
9.07E+02,-5524,5068,-1439,-183,163,-60,1,7,11
9.15E+02,-5512,5065,-1427,-135,143,-24,1,7,11
9.49E+02,-5745,5069,-1433,-339,358,256,1,7,11
9.97E+02,-5715,5065,-1453,-292,323,272,1,7,11
1.05E+03,-5678,5064,-1467,3,292,283,1,7,11
1.09E+03,-5655,5064,-1489,55,267,281,1,7,11
1.11E+03,-5654,5061,-1513,108,257,269,1,7,11
1.12E+03,-5655,5066,-1528,-99,-3,-8,1,7,11
1.11E+03,-5658,5076,-1809,-56,-10,-55,1,7,11
1.09E+03,-5656,5075,-1830,-30,-14,-83,1,7,11
1.06E+03,-5669,5073,-1853,-9,-16,-109,1,7,11
1.03E+03,-5687,5080,-1870,259,-19,126,1,7,11
1.00E+03,-5695,5083,-1883,266,-27,118,1,7,11
9.80E+02,-5703,5088,-1893,267,-36,109,1,7,11
9.66E+02,-5705,5095,-1916,-1,-53,96,1,7,11
9.62E+02,-5711,5097,-1681,-21,-77,75,1,7,11
9.64E+02,-5702,5100,-1688,-43,-108,54,1,7,11
9.69E+02,-5706,5095,-1699,-68,117,35,1,7,11
9.77E+02,-5704,5095,-1696,-87,87,28,1,7,11
9.83E+02,-5673,5099,-1711,-91,51,44,1,7,11
9.86E+02,-5374,5100,-1726,-79,41,86,1,7,11
9.82E+02,-5301,5104,-1778,-41,82,-103,1,7,11
9.68E+02,-5262,5111,-2055,-30,-30,-44,1,7,11
9.45E+02,-5278,5382,-2053,-64,163,-17,1,7,11
9.23E+02,-5326,5380,-1773,123,590,-28,1,7,11
9.12E+02,-5633,5104,-1744,49,440,-73,1,7,11
9.21E+02,-5670,5101,-1728,2,482,124,1,7,11
9.48E+02,-5710,5110,-1717,-295,476,67,1,7,11
9.83E+02,-5739,5108,-1713,-330,418,28,1,7,11
1.02E+03,-5507,5095,-1717,-344,578,12,1,7,11
1.04E+03,-5528,5087,-1713,-333,197,20,1,7,11
1.04E+03,-5532,5089,-1715,-308,312,51,1,7,11
1.02E+03,-5519,5090,-1720,-296,-81,95,1,7,11
9.96E+02,-5736,5090,-1729,-280,46,-117,1,7,11
9.57E+02,-5689,5086,-1755,-275,-296,-73,1,7,11
9.15E+02,-5647,5078,-1774,-268,-344,-35,1,7,11
8.85E+02,-5352,5081,-1781,-258,-349,-5,1,7,11
8.82E+02,-5325,5087,-1789,1,-323,265,1,7,11
9.15E+02,-5302,5095,-2050,0,-282,265,1,7,11
9.70E+02,-5287,5096,-2056,-259,32,-7,1,7,11
1.03E+03,-5277,5105,-2057,-262,96,-31,1,7,11
1.07E+03,-5271,5105,-2058,-264,-99,-66,1,7,11
1.09E+03,-5279,5109,-2057,-266,-42,-104,1,7,11
1.07E+03,-5294,5117,-2051,-273,267,120,1,7,11
1.05E+03,-5319,5117,-1781,-288,305,103,1,7,11
1.02E+03,-5332,5117,-1769,-302,324,100,1,7,11
1.01E+03,-5348,5119,-1755,-305,332,105,1,7,11
1.01E+03,-5359,5119,-1741,-307,318,108,1,7,11
1.02E+03,-5355,5378,-1745,-303,288,109,1,7,11
1.04E+03,-5354,5387,-1752,-299,261,110,1,7,11
1.06E+03,-5346,5397,-1740,-302,-22,108,1,7,11
1.08E+03,-5333,5397,-1737,-310,-38,102,1,7,11
1.10E+03,-5326,5397,-1734,-313,-48,96,1,7,11
1.12E+03,-5315,5401,-1736,-309,-53,88,1,7,11
1.12E+03,-5314,5393,-1736,-304,-49,79,1,7,11
1.12E+03,-5314,5395,-1732,-296,-38,76,1,7,11
1.12E+03,-5314,5399,-1728,-281,-24,79,1,7,11
1.11E+03,-5314,5399,-1729,-267,-7,80,1,7,11
1.08E+03,-5319,5399,-1726,1,-4,87,1,7,11
1.06E+03,-5322,5399,-1742,18,-2,93,1,7,11
1.03E+03,-5319,5402,-1741,27,-3,96,1,7,11
1.01E+03,-5308,5405,-1761,40,-7,100,1,7,11
1.00E+03,-5305,5403,-1762,45,-8,97,1,7,11
1.00E+03,-5307,5399,-1777,48,-8,90,1,7,11
1.01E+03,-5312,5396,-1787,52,-10,86,1,7,11
1.02E+03,-5316,5390,-1792,59,-11,84,1,7,11
1.04E+03,-5314,5396,-2060,63,-15,85,1,7,11
1.05E+03,-5311,5401,-2074,62,-19,87,1,7,11
1.06E+03,-5305,5407,-2079,54,-21,87,1,7,11
1.06E+03,-5298,5410,-2091,37,-26,85,1,7,11
1.05E+03,-5295,5413,-2095,8,-29,75,1,7,11
1.02E+03,-5288,5415,-2099,-285,-31,58,1,7,11
9.94E+02,-5290,5419,-2106,-327,-42,32,1,7,11
9.71E+02,-5293,5406,-2101,-375,-63,9,1,7,11
9.67E+02,-5295,5390,-2091,-157,-93,-265,1,7,11
9.86E+02,-5296,5112,-2090,-175,127,-269,1,7,11
1.02E+03,-5303,5106,-2076,-152,103,-266,1,7,11
1.06E+03,-5310,5108,-2060,-363,90,1,1,7,11
1.09E+03,-5321,5117,-1788,-320,81,11,1,7,11
1.11E+03,-5322,5382,-1792,-288,75,18,1,7,11
1.11E+03,-5322,5383,-1784,-274,78,23,1,7,11
1.09E+03,-5314,5381,-1785,-266,95,27,1,7,11
1.06E+03,-5308,5383,-1775,-258,124,33,1,7,11
1.02E+03,-5315,5395,-1777,7,-96,39,1,7,11
9.73E+02,-5323,5395,-1767,7,-66,50,1,7,11
9.37E+02,-5325,5391,-1765,17,-43,61,1,7,11
9.25E+02,-5331,5387,-1773,26,-23,74,1,7,11
9.46E+02,-5335,5394,-1785,39,-10,85,1,7,11
9.94E+02,-5335,5393,-2049,55,-6,96,1,7,11
1.05E+03,-5334,5398,-2064,64,-8,107,1,7,11
1.11E+03,-5319,5399,-2069,63,-12,117,1,7,11
1.16E+03,-5300,5392,-2082,51,-25,123,1,7,11
1.18E+03,-5287,5399,-2090,39,-32,117,1,7,11
1.18E+03,-5282,5394,-2090,30,-37,107,1,7,11
1.16E+03,-5278,5398,-2096,23,-47,93,1,7,11
1.14E+03,-5271,5394,-2104,16,-57,74,1,7,11
1.11E+03,-5274,5392,-2110,2,-68,55,1,7,11
1.08E+03,-5281,5396,-2111,-269,-80,40,1,7,11
1.05E+03,-5283,5395,-2108,-282,-93,29,1,7,11
1.02E+03,-5288,5386,-2105,-295,-106,24,1,7,11
1.02E+03,-5293,5380,-2102,-293,-115,24,1,7,11
1.02E+03,-5299,5381,-2100,-291,-121,25,1,7,11
1.04E+03,-5309,5382,-2099,-292,-124,31,1,7,11
1.06E+03,-5314,5380,-2097,-293,-127,37,1,7,11
1.09E+03,-5316,5391,-2104,-296,125,40,1,7,11
1.11E+03,-5312,5397,-2105,-297,126,47,1,7,11
1.13E+03,-5312,5399,-2104,-303,-118,50,1,7,11
1.14E+03,-5315,5398,-2088,-309,-101,56,1,7,11
1.14E+03,-5316,5395,-2083,-319,-83,60,1,7,11
1.11E+03,-5320,5392,-2075,-324,-70,66,1,7,11
1.07E+03,-5320,5391,-2065,-328,-57,71,1,7,11
1.02E+03,-5317,5390,-2061,-325,-50,78,1,7,11
9.82E+02,-5325,5396,-2064,-320,-48,81,1,7,11
9.66E+02,-5333,5401,-2052,-313,-53,83,1,7,11
9.72E+02,-5325,5401,-1783,-306,-61,91,1,7,11
9.87E+02,-5315,5394,-1785,-302,-68,101,1,7,11
9.98E+02,-5310,5395,-1779,-291,-81,112,1,7,11
9.92E+02,-5292,5395,-1781,-280,-89,117,1,7,11
9.67E+02,-5268,5390,-1789,-273,-90,118,1,7,11
9.33E+02,-5254,5390,-2052,-266,-84,109,1,7,11
9.01E+02,-5504,5385,-2063,-266,-80,86,1,7,11
8.77E+02,-5254,5390,-2071,-261,-76,64,1,7,11
8.63E+02,-5262,5403,-2080,-262,-80,43,1,7,11
8.58E+02,-5272,5412,-2084,-262,-83,30,1,7,11
8.61E+02,-5291,5420,-2085,-259,-90,18,1,7,11
8.70E+02,-5302,5416,-2086,-266,-104,16,1,7,11
8.83E+02,-5303,5406,-2081,-270,-119,19,1,7,11
8.97E+02,-5300,5399,-2078,-271,125,28,1,7,11
9.12E+02,-5292,5388,-2082,-276,122,34,1,7,11
9.23E+02,-5294,5384,-2081,-281,122,36,1,7,11
9.26E+02,-5292,5390,-2081,-281,126,35,1,7,11
9.19E+02,-5296,5395,-2082,-285,-123,28,1,7,11
9.01E+02,-5301,5395,-2075,-291,-118,22,1,7,11
8.75E+02,-5306,5394,-2076,-291,-122,24,1,7,11
8.44E+02,-5308,5400,-2078,-283,-125,31,1,7,11
8.12E+02,-5310,5402,-2085,-282,-128,37,1,7,11
7.84E+02,-5304,5398,-2083,-295,127,46,1,7,11
7.68E+02,-5299,5399,-2076,-316,-124,59,1,7,11
7.68E+02,-5298,5393,-2083,-342,-118,69,1,7,11
7.86E+02,-5299,5384,-2077,-351,-102,76,1,7,11
8.21E+02,-5310,5391,-2075,-351,-90,79,1,7,11
8.74E+02,-5317,5394,-2060,-352,-79,68,1,7,11
9.38E+02,-5322,5398,-1790,-349,-78,48,1,7,11
9.98E+02,-5336,5408,-1775,-340,-83,35,1,7,11
1.04E+03,-5342,5408,-1767,-335,-91,34,1,7,11
1.05E+03,-5343,5396,-1758,-329,-96,46,1,7,11
1.03E+03,-5345,5386,-1752,-310,-95,66,1,7,11
9.88E+02,-5349,5391,-1748,-275,-95,90,1,7,11
9.50E+02,-5346,5398,-1755,22,-96,119,1,7,11
9.34E+02,-5338,5405,-1770,49,-84,-106,1,7,11
9.44E+02,-5334,5408,-1771,60,-68,-81,1,7,11
9.69E+02,-5322,5409,-1783,66,-51,-57,1,7,11
9.98E+02,-5313,5407,-1792,68,-34,-38,1,7,11
1.02E+03,-5301,5412,-2062,72,-17,-22,1,7,11
1.02E+03,-5293,5426,-2067,79,-3,-9,1,7,11
1.02E+03,-5290,5421,-2071,73,262,-3,1,7,11
9.95E+02,-5290,5427,-2077,64,264,-3,1,7,11
9.61E+02,-5282,5435,-2089,61,-10,-19,1,7,11
9.19E+02,-5271,5442,-2095,50,-39,-42,1,7,11
8.80E+02,-5251,5442,-2094,40,-71,-67,1,7,11
8.54E+02,-5471,5429,-2103,30,-98,-91,1,7,11
8.47E+02,-5447,5413,-2106,19,-117,-118,1,7,11
8.55E+02,-5432,5407,-2113,13,-128,123,1,7,11
8.72E+02,-5418,5397,-2116,10,-122,107,1,7,11
8.92E+02,-5421,5390,-2117,8,-104,87,1,7,11
9.12E+02,-5430,5387,-2116,17,-94,65,1,7,11
9.33E+02,-5441,5394,-2110,25,-84,45,1,7,11
9.55E+02,-5464,5406,-2105,30,-77,30,1,7,11
9.79E+02,-5476,5409,-2121,31,-80,22,1,7,11
1.00E+03,-5488,5420,-2129,42,-81,25,1,7,11
1.01E+03,-5502,5427,-2126,61,-79,38,1,7,11
1.01E+03,-5255,5413,-2113,79,-78,73,1,7,11
9.86E+02,-5262,5400,-2101,114,-71,121,1,7,11
9.50E+02,-5269,5386,-2098,-101,-54,-83,1,7,11
9.15E+02,-5276,5389,-2110,-61,-21,-34,1,7,11
8.99E+02,-5279,5402,-2115,-33,282,266,1,7,11
9.10E+02,-5289,5429,-2122,-5,327,298,1,7,11
9.39E+02,-5291,5447,-2133,258,362,319,1,7,11
9.76E+02,-5286,5460,-2150,-5,379,325,1,7,11
1.01E+03,-5281,5445,-2155,-26,380,315,1,7,11
1.03E+03,-5251,5430,-2174,-41,362,289,1,7,11
1.04E+03,-5494,5439,-1939,-53,336,-18,1,7,11
1.03E+03,-5480,5456,-1951,-94,286,-78,1,7,11
1.02E+03,-5461,5465,-1963,100,-32,120,1,7,11
1.01E+03,-5440,5474,-1984,41,-101,70,1,7,11
9.95E+02,-5415,5472,-1995,-271,99,43,1,7,11
9.85E+02,-5403,5464,-1985,-319,75,40,1,7,11
9.86E+02,-5387,5456,-1979,-339,53,42,1,7,11
1.00E+03,-5384,5455,-1976,-352,46,36,1,7,11
1.02E+03,-5388,5460,-1974,-372,56,27,1,7,11
1.05E+03,-5403,5449,-1963,-142,79,15,1,7,11
1.07E+03,-5424,5445,-1932,-154,90,1,1,7,11
1.08E+03,-5446,5436,-2158,-149,83,-268,1,7,11
1.09E+03,-5467,5442,-2144,-134,68,-275,1,7,11
1.08E+03,-5485,5434,-2132,-376,45,-271,1,7,11
1.06E+03,-5490,5436,-2128,-345,29,-265,1,7,11
1.04E+03,-5496,5436,-2134,-332,18,-261,1,7,11
1.01E+03,-5251,5439,-2124,-329,10,-263,1,7,11
9.82E+02,-5252,5433,-2122,-328,0,-271,1,7,11
9.68E+02,-5263,5432,-2107,-334,-266,-283,1,7,11
9.72E+02,-5275,5425,-2092,-338,-283,-298,1,7,11
9.93E+02,-5284,5418,-2080,-342,-312,-315,1,7,11
1.02E+03,-5289,5402,-2059,-348,-358,-337,1,7,11
1.05E+03,-5320,5384,-1766,-346,-163,-366,1,7,11
1.06E+03,-5354,5117,-1739,-315,-524,-149,1,7,11
1.06E+03,-5376,5116,-1720,-273,-395,-190,1,7,11
1.04E+03,-5641,5111,-1715,33,-783,-225,1,7,11
1.02E+03,-5660,5109,-1695,71,-650,-520,1,7,11
9.86E+02,-5698,5099,-1915,96,-1035,-560,1,7,11
9.48E+02,-5742,5089,-1882,116,-920,-619,1,7,11
9.14E+02,-5545,5082,-1840,103,-1341,-452,1,7,11
8.90E+02,-5611,5058,-1527,65,-1272,-826,1,7,11
8.82E+02,-5922,5013,-1459,37,-1507,-692,1,7,11
8.87E+02,-5921,5233,-1427,91,-1780,-768,1,7,11
9.00E+02,-5893,5212,-1425,-31,-2013,-740,1,7,11
9.14E+02,-5611,5225,-1449,146,-2374,-851,1,7,11
9.26E+02,-5604,4999,-1473,575,-2338,-626,1,7,11
9.33E+02,-5908,5011,-1468,779,-2123,17,1,7,11
9.33E+02,-5940,5009,-1454,859,-1703,-20,1,7,11
9.23E+02,-5936,5014,-1470,645,-1816,133,1,7,11
9.04E+02,-5913,5027,-1476,640,-1415,220,1,7,11
8.80E+02,-5624,5041,-1499,849,-1257,515,1,7,11
8.53E+02,-5591,5038,-1504,769,-1332,527,1,7,11
8.26E+02,-5571,5038,-1498,427,-1152,522,1,7,11
8.02E+02,-5551,5030,-1489,596,-742,252,1,7,11
7.84E+02,-5527,5024,-1480,519,-858,230,1,7,11
7.72E+02,-5506,5027,-1463,199,-473,204,1,7,11
7.67E+02,-5759,5032,-1451,134,-611,173,1,7,11
7.67E+02,-5760,5037,-1442,318,-249,133,1,7,11
7.71E+02,-5513,5042,-1415,-12,-162,348,1,7,11
7.76E+02,-5517,5034,-1642,-77,-355,306,1,7,11
7.83E+02,-5752,5035,-1654,-128,-300,264,1,7,11
7.89E+02,-5726,5076,-1441,78,59,-22,1,7,11
7.96E+02,-5740,5068,-1648,12,-62,-31,1,7,11
8.06E+02,-5512,5107,-1653,22,264,-42,1,7,11
8.23E+02,-5513,5109,-1661,17,307,-32,1,7,11
8.44E+02,-5739,5068,-1659,32,365,267,1,7,11
8.69E+02,-5692,5025,-1428,103,199,339,1,7,11
8.95E+02,-5454,5165,-1807,345,714,635,1,7,11
9.19E+02,-5113,4826,-1809,578,1182,817,1,7,11
9.41E+02,-5332,4582,-1619,2314,3069,628,1,7,11
9.62E+02,-5688,4985,-1629,2902,3445,369,1,7,11
9.82E+02,-5575,5143,-1497,3030,3028,113,1,7,11
9.99E+02,-5556,5070,-1775,3250,2870,-200,1,7,11
1.02E+03,-5683,5451,-2379,3440,2402,-601,1,7,11
1.03E+03,-5301,5471,-2684,3148,1789,-742,1,7,11
1.04E+03,-5249,5398,-2914,2479,1784,-1033,1,7,11
1.04E+03,-5480,5037,-3093,2330,1415,-740,1,7,11
1.05E+03,-5495,5196,-2978,1833,1566,-684,1,7,11
1.04E+03,-5499,4848,-3057,1546,1181,-883,1,7,11
1.03E+03,-5488,4779,-3381,1309,1019,-851,1,7,11
1.01E+03,-5500,4739,-3436,1067,1118,-849,1,7,11
9.76E+02,-5492,4927,-3446,819,691,-853,1,7,11
9.42E+02,-5463,4607,-3219,607,777,-879,1,7,11
9.08E+02,-5469,4508,-3451,143,398,-644,1,7,11
8.79E+02,-5472,4679,-3427,272,524,-658,1,7,11
8.56E+02,-5491,4631,-3447,-41,164,-661,1,7,11
8.37E+02,-5261,4326,-3456,-87,376,-886,1,7,11
8.21E+02,-5308,4285,-3451,-100,355,-842,1,7,11
8.07E+02,-5360,4268,-3439,-88,318,-799,1,7,11
7.96E+02,-5661,4290,-3453,-61,262,-497,1,7,11
7.86E+02,-5693,4324,-3209,-82,-35,-439,1,7,11
7.79E+02,-5726,4318,-3442,110,-71,-620,1,7,11
7.75E+02,-5741,4324,-3409,45,126,-546,1,7,11
7.73E+02,-5746,4320,-3383,-276,39,-219,1,7,11
7.74E+02,-5732,4325,-3371,-351,-301,-151,1,7,11
7.76E+02,-5681,4609,-3421,-172,-338,-342,1,7,11
7.82E+02,-5635,4346,-3402,-576,0,-267,1,7,11
7.89E+02,-5372,4296,-3069,-414,73,60,1,7,11
8.00E+02,-5349,4311,-3061,-432,106,112,1,7,11
8.15E+02,-5340,4309,-2967,-462,-104,-88,1,7,11
8.34E+02,-5326,4307,-2984,-401,116,-27,1,7,11
8.54E+02,-5321,4318,-3176,-409,-91,267,1,7,11
8.75E+02,-5318,4293,-3166,-408,-58,278,1,7,11
8.94E+02,-5270,4316,-3200,-610,-60,256,1,7,11
9.09E+02,-5494,4294,-3186,-587,263,-24,1,7,11
9.21E+02,-5497,4282,-3178,-558,366,-52,1,7,11
9.31E+02,-5255,4268,-3152,-530,208,-106,1,7,11
9.40E+02,-5274,4268,-3130,-232,236,8,1,7,11
9.48E+02,-5285,4297,-3139,-177,194,-352,1,7,11
9.55E+02,-5283,4618,-3190,-311,300,-172,1,7,11
9.63E+02,-5304,4654,-2953,-292,-44,-198,1,7,11
9.70E+02,-5329,4646,-3199,-291,86,-196,1,7,11
9.76E+02,-5342,4642,-2963,-268,-343,-182,1,7,11
9.83E+02,-5350,4638,-2975,7,-249,-148,1,7,11
9.90E+02,-5337,4640,-3006,57,-404,-341,1,7,11
9.97E+02,-5308,4691,-3345,103,-490,0,1,7,11
1.00E+03,-5275,4697,-3380,51,-418,112,1,7,11
1.01E+03,-5250,4709,-3386,-260,-535,-42,1,7,11
1.02E+03,-5479,4714,-3391,-318,-358,290,1,7,11
1.03E+03,-5463,4701,-3382,-129,105,347,1,7,11
1.04E+03,-5451,4688,-3360,-206,329,351,1,7,11
1.04E+03,-5453,4677,-3329,-543,537,302,1,7,11
1.05E+03,-5469,4645,-2999,-611,415,-36,1,7,11
1.05E+03,-5466,4630,-2966,-617,461,-127,1,7,11
1.04E+03,-5448,4610,-2950,-620,487,51,1,7,11
1.02E+03,-5418,4265,-3168,-568,481,23,1,7,11
9.96E+02,-5423,4411,-3173,-144,489,39,1,7,11
9.69E+02,-5645,3978,-2765,105,806,-125,1,7,11
9.54E+02,-5869,3833,-2475,530,454,327,1,7,11
9.58E+02,-6715,3747,-2347,1118,-63,401,1,7,11
9.77E+02,-7020,3970,-1986,2057,-966,956,1,7,11
1.00E+03,-6642,4524,-2253,2859,-3042,2030,1,7,11
1.03E+03,-6729,4923,-2668,2971,-3920,2622,1,7,11
1.05E+03,-6232,5156,-3081,2951,-4917,3140,1,7,11
1.06E+03,-5709,5071,-3210,2836,-5118,3426,1,7,11
1.06E+03,-5028,5294,-3535,1987,-5049,3267,1,7,11
1.04E+03,-4760,5581,-3815,1157,-4531,3261,1,7,11
1.00E+03,-4909,6009,-4188,-57,-3923,3436,1,7,11
9.53E+02,-4917,6011,-4216,-1219,-2722,2988,1,7,11
9.11E+02,-4973,5535,-4133,-2704,-2063,2926,1,7,11
8.90E+02,-4752,5439,-3889,-4156,-1019,2289,1,7,11
9.02E+02,-4980,4845,-3591,-4910,-427,2102,1,7,11
9.37E+02,-4977,4563,-2991,-5051,49,1611,1,7,11
9.86E+02,-4979,4673,-2888,-5088,152,1133,1,7,11
1.03E+03,-4777,4719,-2264,-5139,450,479,1,7,11
1.07E+03,-5130,4546,-2172,-4508,842,216,1,7,11
1.10E+03,-5187,4977,-1689,-4034,809,317,1,7,11
1.10E+03,-5230,4799,-1633,-3863,450,-14,1,7,11
1.09E+03,-5008,5163,-1562,-3369,535,-70,1,7,11
