timestamp,ax,ay,az,gx,gy,gz,Label1,Label2,Label3
1.73E+00,-7890,-1862,1689,357,-579,-658,1,7,11
1.98E+00,-8200,-1817,2085,132,-594,-684,1,7,11
2.23E+00,-8280,-1490,1985,177,-411,-689,1,7,11
2.48E+00,-8120,-1410,2395,244,-786,-650,1,7,11
2.73E+00,-8180,-1584,2259,587,-676,-801,1,7,11
2.98E+00,-8167,-1249,2586,426,-1052,-629,1,7,11
3.23E+00,-8299,-1168,2580,502,-1093,-175,1,7,11
3.48E+00,-7931,-1351,2575,779,-706,-290,1,7,11
3.73E+00,-7843,-1302,2590,488,-475,67,1,7,11
3.98E+00,-8061,-1328,2596,424,-215,-84,1,7,11
4.23E+00,-8024,-1403,2560,616,22,-59,1,7,11
4.48E+00,-7592,-1240,2224,568,-34,-88,1,7,11
4.73E+00,-7757,-1617,2395,524,185,24,1,7,11
4.98E+00,-7418,-1479,2032,231,482,-182,1,7,11
5.23E+00,-7406,-1848,2171,237,688,-440,1,7,11
5.48E+00,-7758,-1696,1772,513,1045,-828,1,7,11
5.73E+00,-7644,-2050,1893,540,956,-1124,1,7,11
5.98E+00,-8038,-2131,1506,599,1320,-965,1,7,11
6.23E+00,-7891,-1953,1409,616,1294,-983,1,7,11
6.48E+00,-7929,-2001,1572,627,942,-941,1,7,11
6.73E+00,-8223,-2035,1242,627,1094,-1138,1,7,11
6.98E+00,-8289,-2034,1204,593,718,-1058,1,7,11
7.23E+00,-8108,-2019,1225,527,817,-685,1,7,11
7.48E+00,-8129,-1989,1537,179,612,-783,1,7,11
7.73E+00,-8094,-1947,1616,349,151,-619,1,7,11
7.98E+00,-8293,-2154,1456,-6,-26,-238,1,7,11
8.23E+00,-7934,-2110,1823,-99,79,-145,1,7,11
8.48E+00,-7837,-2054,1672,89,-271,-366,1,7,11
8.73E+00,-8063,-1752,1770,52,-300,-362,1,7,11
8.98E+00,-7830,-1710,2113,52,-295,-344,1,7,11
9.23E+00,-7830,-1677,1926,95,-292,-281,1,7,11
9.48E+00,-7815,-1890,1958,-81,13,42,1,7,11
9.73E+00,-8025,-1868,1956,256,83,106,1,7,11
9.98E+00,-7971,-1858,2173,340,-60,-119,1,7,11
1.02E+01,-7668,-1858,2107,155,351,-121,1,7,11
1.05E+01,-7623,-1884,1752,202,525,100,1,7,11
1.07E+01,-7602,-1673,1904,207,469,25,1,7,11
1.10E+01,-7616,-1733,1767,194,661,-325,1,7,11
1.12E+01,-7650,-2082,1462,177,1065,-155,1,7,11
1.15E+01,-7948,-1928,1579,171,925,-246,1,7,11
1.17E+01,-8033,-2030,1545,168,997,-593,1,7,11
1.20E+01,-7890,-2361,1224,186,997,-400,1,7,11
1.22E+01,-8302,-2418,1390,214,919,-393,1,7,11
1.25E+01,-8075,-2178,1339,227,1036,-557,1,7,11
1.27E+01,-8262,-2185,1303,214,836,-199,1,7,11
1.30E+01,-8228,-2432,1301,177,600,-147,1,7,11
1.32E+01,-8234,-2395,1349,327,202,-361,1,7,11
1.35E+01,-8243,-2357,1173,-16,312,-315,1,7,11
1.37E+01,-8216,-2316,1267,-102,-109,4,1,7,11
1.40E+01,-7869,-2020,1601,85,-260,60,1,7,11
1.42E+01,-7827,-2124,1501,-268,97,91,1,7,11
1.45E+01,-7844,-2103,1530,11,110,-103,1,7,11
1.47E+01,-7844,-2086,1534,41,103,-43,1,7,11
1.50E+01,-7823,-2079,1523,56,89,-2,1,7,11
1.52E+01,-8030,-2082,1499,52,72,268,1,7,11
1.55E+01,-7963,-2086,1469,31,92,-13,1,7,11
1.57E+01,-7944,-2095,1442,0,-103,-64,1,7,11
1.60E+01,-7967,-2108,1423,-279,-14,-100,1,7,11
1.62E+01,-8043,-2142,1421,-287,322,-111,1,7,11
1.65E+01,-7836,-1934,1414,-271,366,-77,1,7,11
1.67E+01,-7868,-1984,1658,9,131,-38,1,7,11
1.70E+01,-7870,-2027,1657,41,373,-20,1,7,11
1.72E+01,-7877,-2045,1408,71,347,-47,1,7,11
1.75E+01,-7897,-2040,1663,99,282,-87,1,7,11
1.77E+01,-7902,-1989,1409,111,-77,-113,1,7,11
1.80E+01,-7897,-1968,1659,107,63,-120,1,7,11
1.82E+01,-7866,-1925,1660,80,-300,-113,1,7,11
1.85E+01,-7853,-2153,1430,27,-129,-105,1,7,11
1.87E+01,-7829,-2129,1475,-297,-198,-88,1,7,11
1.90E+01,-8058,-2110,1519,-138,-549,-97,1,7,11
1.92E+01,-8002,-2080,1798,-189,-614,-105,1,7,11
1.95E+01,-7670,-2049,1831,-245,-387,123,1,7,11
1.97E+01,-7627,-1778,1875,-544,-619,73,1,7,11
2.00E+01,-7669,-1746,1680,-561,-555,9,1,7,11
2.02E+01,-8041,-1705,1748,-543,-243,-273,1,7,11
2.05E+01,-7880,-1683,2063,-247,-256,44,1,7,11
2.07E+01,-7908,-1912,2054,-183,-539,-105,1,7,11
2.10E+01,-7895,-1885,1763,-377,-534,268,1,7,11
2.12E+01,-7885,-1880,1708,-336,-199,364,1,7,11
2.15E+01,-7884,-1877,1671,-334,-346,176,1,7,11
2.17E+01,-7869,-1882,1893,-341,19,222,1,7,11
2.20E+01,-7880,-1902,1856,-366,-119,233,1,7,11
2.22E+01,-7869,-1669,1808,-134,-37,245,1,7,11
2.25E+01,-7850,-1706,1507,-158,307,232,1,7,11
2.27E+01,-7834,-1747,1465,-178,143,193,1,7,11
2.30E+01,-8062,-1788,1411,-194,220,149,1,7,11
2.32E+01,-8014,-2082,1606,-210,551,342,1,7,11
2.35E+01,-8057,-2107,1589,-228,390,256,1,7,11
2.37E+01,-7870,-2109,1600,-229,405,-45,1,7,11
2.40E+01,-8196,-2087,1616,-211,597,-40,1,7,11
2.42E+01,-8268,-2050,1636,-191,224,267,1,7,11
2.45E+01,-8265,-1761,1635,-185,293,373,1,7,11
2.47E+01,-7888,-1701,1642,-212,48,219,1,7,11
2.50E+01,-7850,-1679,1642,-529,-263,224,1,7,11
2.52E+01,-8061,-1886,1656,-595,-346,202,1,7,11
2.55E+01,-8035,-1843,1427,-419,-136,152,1,7,11
2.57E+01,-8034,-1810,1479,-512,-158,356,1,7,11
2.60E+01,-8005,-1811,1796,-847,-182,314,1,7,11
2.62E+01,-7976,-1850,1866,-653,-195,-9,1,7,11
2.65E+01,-7664,-1918,1900,-679,-218,-105,1,7,11
2.67E+01,-7603,-1700,1668,-669,-211,10,1,7,11
2.70E+01,-7955,-1729,1702,-891,-150,-175,1,7,11
2.72E+01,-8051,-1746,1739,-830,-136,-598,1,7,11
2.75E+01,-7908,-1754,1776,-486,-161,-611,1,7,11
2.77E+01,-8246,-1755,1774,-518,-549,-536,1,7,11
2.80E+01,-8275,-1730,1742,-337,-631,-146,1,7,11
2.82E+01,-8312,-1686,1710,9,-639,17,1,7,11
2.85E+01,-8048,-1467,1769,211,-269,554,1,7,11
2.87E+01,-7950,-1449,1765,205,-119,221,1,7,11
2.90E+01,-7643,-1440,1765,180,316,350,1,7,11
2.92E+01,-7664,-1454,1771,150,224,-44,1,7,11
2.95E+01,-7982,-1491,1778,142,608,99,1,7,11
2.97E+01,-7842,-1525,1787,174,427,30,1,7,11
3.00E+01,-7930,-1807,1751,239,431,32,1,7,11
3.02E+01,-8208,-1851,1705,554,385,74,1,7,11
3.05E+01,-7932,-1876,1894,621,600,101,1,7,11
3.07E+01,-7923,-1879,1834,397,577,86,1,7,11
3.10E+01,-8205,-1878,1823,628,525,45,1,7,11
3.12E+01,-8239,-1870,1842,580,154,8,1,7,11
3.15E+01,-8267,-1847,1849,534,-26,5,1,7,11
3.17E+01,-8245,-1811,1861,222,26,53,1,7,11
3.20E+01,-8213,-1530,1863,156,-131,123,1,7,11
3.22E+01,-8217,-1511,1852,363,-197,-48,1,7,11
3.25E+01,-8252,-1494,1873,317,-198,330,1,7,11
3.27E+01,-8262,-1495,1680,277,-186,226,1,7,11
3.30E+01,-8211,-1509,1747,266,-207,632,1,7,11
3.32E+01,-7888,-1517,2079,282,-225,462,1,7,11
3.35E+01,-7889,-1499,2168,315,-234,474,1,7,11
3.37E+01,-7854,-1475,2000,371,-551,466,1,7,11
3.40E+01,-8032,-1439,2044,190,-603,419,1,7,11
3.42E+01,-7967,-1661,2313,248,-604,574,1,7,11
3.45E+01,-7632,-1617,2022,545,-561,183,1,7,11
3.47E+01,-7621,-1600,2000,565,-183,269,1,7,11
3.50E+01,-7665,-1588,1960,558,-305,125,1,7,11
3.52E+01,-7964,-1584,2163,564,94,28,1,7,11
3.55E+01,-7828,-1598,2132,570,-14,-284,1,7,11
3.57E+01,-8206,-1615,2100,590,331,-261,1,7,11
3.60E+01,-8205,-1596,2055,618,360,67,1,7,11
3.62E+01,-8222,-1590,1771,617,158,-127,1,7,11
3.65E+01,-7924,-1587,1784,556,357,-105,1,7,11
3.67E+01,-7899,-1578,2076,229,257,114,1,7,11
3.70E+01,-7856,-1542,2071,144,110,72,1,7,11
3.72E+01,-7868,-1236,2054,323,15,46,1,7,11
3.75E+01,-7920,-1203,2071,-25,-299,71,1,7,11
3.77E+01,-8286,-1184,2130,-91,-332,-113,1,7,11
3.80E+01,-8079,-1161,1935,-117,-148,279,1,7,11
3.82E+01,-8274,-1389,1987,-107,-217,170,1,7,11
3.85E+01,-8226,-1356,2016,-78,-194,239,1,7,11
3.87E+01,-8233,-1329,2316,-65,-138,514,1,7,11
3.90E+01,-7930,-1295,2327,-53,-353,517,1,7,11
3.92E+01,-7846,-1013,2314,-53,-294,222,1,7,11
3.95E+01,-8021,-1007,2021,-83,63,136,1,7,11
3.97E+01,-7980,-1295,1978,-127,-47,270,1,7,11
4.00E+01,-7993,-1353,1935,96,382,-120,1,7,11
4.02E+01,-8008,-1175,2160,86,537,11,1,7,11
4.05E+01,-7823,-1241,2153,100,434,-380,1,7,11
4.07E+01,-7909,-1273,2142,-110,510,-219,1,7,11
4.10E+01,-8259,-1278,2110,-51,768,-255,1,7,11
4.12E+01,-8305,-1253,1716,274,447,-213,1,7,11
4.15E+01,-8101,-1217,1899,295,404,-340,1,7,11
4.17E+01,-8226,-1216,1845,-17,526,31,1,7,11
4.20E+01,-7896,-1225,1837,96,514,37,1,7,11
4.22E+01,-7852,-1247,1860,-274,215,-262,1,7,11
4.25E+01,-7816,-1262,1885,-381,140,-336,1,7,11
4.27E+01,-8049,-1277,1915,-224,291,-166,1,7,11
4.30E+01,-8023,-1542,1691,-556,-71,-237,1,7,11
4.32E+01,-8044,-1278,1720,-592,125,-543,1,7,11
4.35E+01,-7869,-1539,1754,-601,102,-529,1,7,11
4.37E+01,-7933,-1560,2057,-576,87,-191,1,7,11
4.40E+01,-8228,-1577,2126,-542,70,-349,1,7,11
4.42E+01,-8237,-1593,1953,-229,16,-270,1,7,11
4.45E+01,-8202,-1594,1996,-139,-320,14,1,7,11
4.47E+01,-7920,-1582,1994,-324,-134,-264,1,7,11
4.50E+01,-8054,-1593,1944,-284,-202,-298,1,7,11
4.52E+01,-7942,-1611,2115,-281,-149,-161,1,7,11
4.55E+01,-7938,-1649,1785,-322,15,-590,1,7,11
4.57E+01,-7986,-1456,1755,-373,-75,-471,1,7,11
4.60E+01,-7883,-1805,1699,-129,166,-848,1,7,11
4.62E+01,-8263,-1850,1694,-368,249,-819,1,7,11
4.65E+01,-8122,-1876,1717,-350,528,-463,1,7,11
4.67E+01,-8087,-1884,1742,-318,177,-549,1,7,11
4.70E+01,-8255,-1861,1744,-289,338,-157,1,7,11
4.72E+01,-8203,-1822,1753,-277,259,-330,1,7,11
4.75E+01,-7933,-1526,1769,-300,-67,-269,1,7,11
4.77E+01,-7918,-1492,2077,-349,109,50,1,7,11
4.80E+01,-7886,-1466,2134,-140,23,109,1,7,11
4.82E+01,-7858,-1441,1943,-163,-307,-118,1,7,11
4.85E+01,-7860,-1415,2025,-182,-378,-125,1,7,11
4.87E+01,-7818,-1414,2339,-206,-238,113,1,7,11
4.90E+01,-7943,-1436,2359,-224,-605,48,1,7,11
4.92E+01,-7582,-1463,2341,-228,-620,-361,1,7,11
4.95E+01,-7797,-1499,2315,-224,-531,-553,1,7,11
4.97E+01,-7584,-1803,2008,-205,-133,-470,1,7,11
5.00E+01,-7628,-1854,1940,-153,14,-827,1,7,11
5.02E+01,-7957,-1678,2111,-349,-72,-871,1,7,11
5.05E+01,-7826,-1708,1775,-277,362,-850,1,7,11
5.07E+01,-7877,-1742,1693,21,548,-780,1,7,11
5.10E+01,-7820,-1775,1887,17,400,-603,1,7,11
5.12E+01,-8049,-1788,1897,-299,497,-569,1,7,11
5.15E+01,-7840,-1777,1664,-371,472,-570,1,7,11
5.17E+01,-7891,-1759,1677,-226,610,-540,1,7,11
5.20E+01,-7911,-1741,1676,-561,200,-214,1,7,11
5.22E+01,-7908,-1733,1701,-390,310,-129,1,7,11
5.25E+01,-7924,-1737,1747,-447,-64,-329,1,7,11
5.27E+01,-7919,-1725,2053,-450,69,-293,1,7,11
5.30E+01,-8196,-1691,2087,-423,-285,-285,1,7,11
5.32E+01,-8216,-1904,2110,-405,-131,-270,1,7,11
5.35E+01,-8206,-1873,2122,-403,-224,15,1,7,11
5.37E+01,-7863,-1861,2115,-405,-554,42,1,7,11
5.40E+01,-8048,-1865,2078,-437,-539,6,1,7,11
5.42E+01,-7982,-1884,2060,-504,-224,-322,1,7,11
5.45E+01,-7963,-1920,2063,-842,-365,-173,1,7,11
5.47E+01,-7951,-1736,2053,-887,1,-247,1,7,11
5.50E+01,-7841,-1773,1764,-861,-84,-547,1,7,11
5.52E+01,-8229,-2051,1729,-792,362,-180,1,7,11
5.55E+01,-8241,-2082,1701,-456,276,30,1,7,11
5.57E+01,-7910,-2109,1677,-629,594,-34,1,7,11
5.60E+01,-7862,-2101,1915,-543,618,328,1,7,11
5.62E+01,-8054,-2083,1895,-527,560,129,1,7,11
5.65E+01,-7973,-2057,1848,-525,222,382,1,7,11
5.67E+01,-7972,-1769,1812,-567,173,324,1,7,11
5.70E+01,-8022,-1761,1831,-637,371,265,1,7,11
5.72E+01,-7882,-1757,1906,-432,288,-47,1,7,11
5.75E+01,-8243,-1747,1756,-419,-124,-63,1,7,11
5.77E+01,-8304,-1725,2092,-599,-312,-40,1,7,11
5.80E+01,-8283,-1698,2154,-243,-248,257,1,7,11
5.82E+01,-8222,-1673,1942,-138,-640,274,1,7,11
5.85E+01,-7851,-1673,1942,-297,-462,-9,1,7,11
5.87E+01,-7637,-1667,2172,40,-457,-97,1,7,11
5.90E+01,-7611,-1893,2141,111,-242,-303,1,7,11
5.92E+01,-7956,-1886,2136,-100,-276,-187,1,7,11
5.95E+01,-8007,-1899,2108,-31,-81,-211,1,7,11
5.97E+01,-7820,-1914,1789,308,128,-179,1,7,11
6.00E+01,-7878,-1919,1724,356,584,-355,1,7,11
6.02E+01,-7824,-1669,1919,369,464,12,1,7,11
6.05E+01,-8003,-1678,1858,326,850,52,1,7,11
6.07E+01,-7980,-1683,1818,-74,683,-258,1,7,11
6.10E+01,-7994,-1693,1815,43,889,-321,1,7,11
6.12E+01,-8044,-1730,1827,-336,502,-376,1,7,11
6.15E+01,-8054,-1765,1825,-151,568,-137,1,7,11
6.17E+01,-7851,-2053,1841,-192,163,-166,1,7,11
6.20E+01,-8209,-2073,1915,-199,268,-178,1,7,11
6.22E+01,-8298,-2061,1759,-156,77,-157,1,7,11
6.25E+01,-8091,-1767,2131,-334,-169,-346,1,7,11
6.27E+01,-8313,-1712,1953,31,-440,4,1,7,11
6.30E+01,-8257,-1882,1982,121,-648,76,1,7,11
6.32E+01,-7932,-1801,1993,-97,-1029,-127,1,7,11
6.35E+01,-7853,-1486,1985,-117,-1047,-106,1,7,11
6.37E+01,-8013,-1477,1976,59,-737,-105,1,7,11
6.40E+01,-7606,-1523,1940,-301,-872,110,1,7,11
6.42E+01,-7793,-1856,2161,-380,-633,-268,1,7,11
6.45E+01,-7554,-1708,2113,-158,-363,-377,1,7,11
6.47E+01,-7569,-2051,1767,-383,-77,-181,1,7,11
6.50E+01,-7648,-2128,1692,-334,247,-213,1,7,11
6.52E+01,-7665,-1948,1892,-274,492,-166,1,7,11
6.55E+01,-7660,-2016,1846,23,663,-138,1,7,11
6.57E+01,-7651,-2330,1838,35,718,-163,1,7,11
6.60E+01,-7957,-2352,1848,30,677,-255,1,7,11
6.62E+01,-7834,-2329,1856,16,793,-606,1,7,11
6.65E+01,-8263,-2033,1880,-269,567,-618,1,7,11
6.67E+01,-8120,-1989,1907,-303,264,-522,1,7,11
6.70E+01,-8175,-1923,1704,-329,-281,-372,1,7,11
6.72E+01,-8165,-2118,1769,-348,-561,71,1,7,11
6.75E+01,-8094,-1783,2073,-355,-780,-16,1,7,11
6.77E+01,-8246,-1701,2102,-380,-668,370,1,7,11
6.80E+01,-7860,-1903,2110,-187,-714,187,1,7,11
6.82E+01,-7945,-1877,2114,-531,-659,184,1,7,11
6.85E+01,-7576,-1868,2119,-623,-469,335,1,7,11
6.87E+01,-7588,-1877,2173,-452,-178,-78,1,7,11
6.90E+01,-7640,-1917,2169,-478,83,83,1,7,11
6.92E+01,-7670,-1760,2121,-429,335,40,1,7,11
6.95E+01,-7942,-2089,2072,-597,584,29,1,7,11
6.97E+01,-7628,-2169,1767,-242,815,27,1,7,11
7.00E+01,-7608,-1970,1721,-140,1084,-322,1,7,11
7.02E+01,-7660,-2001,1692,-235,1150,-161,1,7,11
7.05E+01,-7982,-2017,1910,124,1095,-220,1,7,11
7.07E+01,-8064,-2013,1846,-39,707,-240,1,7,11
7.10E+01,-7893,-1996,1800,275,798,-214,1,7,11
7.12E+01,-8200,-1973,1513,295,602,-160,1,7,11
7.15E+01,-8209,-1946,1514,269,140,-374,1,7,11
7.17E+01,-8200,-2165,1796,-38,-68,-363,1,7,11
7.20E+01,-8193,-2139,1839,-124,-264,-377,1,7,11
7.22E+01,-7861,-2142,1875,35,-219,-137,1,7,11
7.25E+01,-8011,-2143,1903,-314,-606,-203,1,7,11
7.27E+01,-8001,-2142,1709,-138,-626,-575,1,7,11
7.30E+01,-8061,-2148,2048,-165,-610,-391,1,7,11
7.32E+01,-7867,-2157,2084,-370,-585,-622,1,7,11
7.35E+01,-7855,-1925,2073,-280,-550,-255,1,7,11
7.37E+01,-8020,-1936,1754,79,-192,-131,1,7,11
7.40E+01,-7677,-1936,1695,-117,-269,-314,1,7,11
7.42E+01,-7631,-1949,1674,-128,-88,-306,1,7,11
7.45E+01,-7592,-1961,1916,106,280,-337,1,7,11
7.47E+01,-7558,-1986,1879,59,309,-131,1,7,11
7.50E+01,-7786,-2020,1827,-261,314,-203,1,7,11
7.52E+01,-7621,-2038,1820,-339,353,-551,1,7,11
7.55E+01,-8059,-2047,1897,-143,357,-596,1,7,11
7.57E+01,-8265,-2323,1782,-156,-15,-557,1,7,11
7.60E+01,-8296,-2335,2154,-332,-280,-175,1,7,11
7.62E+01,-8272,-2047,1985,55,-515,-347,1,7,11
7.65E+01,-8219,-1997,2317,-88,-462,-296,1,7,11
7.67E+01,-7843,-1952,2374,267,-869,-270,1,7,11
7.70E+01,-7651,-2157,2390,346,-658,-301,1,7,11
7.72E+01,-7629,-2135,2420,148,-830,-146,1,7,11
7.75E+01,-7663,-2111,2413,204,-419,-241,1,7,11
7.77E+01,-7999,-2113,2405,520,-213,-542,1,7,11
7.80E+01,-8052,-2133,2362,576,-259,-229,1,7,11
7.82E+01,-7978,-2156,2022,614,11,-138,1,7,11
7.85E+01,-7627,-2167,2172,615,233,-353,1,7,11
7.87E+01,-7597,-1938,2103,528,480,-134,1,7,11
7.90E+01,-7621,-1980,2058,161,650,-184,1,7,11
7.92E+01,-7621,-2030,1739,319,712,-206,1,7,11
7.95E+01,-7633,-2352,1686,-17,725,-214,1,7,11
7.97E+01,-7667,-2428,1896,-69,698,-206,1,7,11
8.00E+01,-7953,-2251,1857,-83,882,-186,1,7,11
8.02E+01,-8040,-2304,1857,-73,794,-189,1,7,11
8.05E+01,-8200,-2303,1685,-47,639,-186,1,7,11
8.07E+01,-8318,-2281,1790,273,340,-358,1,7,11
8.10E+01,-8303,-2217,2116,136,-281,40,1,7,11
8.12E+01,-8077,-2376,1928,227,-553,-95,1,7,11
8.15E+01,-8261,-2033,2000,519,-814,317,1,7,11
8.17E+01,-7815,-1969,2045,512,-714,174,1,7,11
8.20E+01,-7607,-1935,2338,208,-712,180,1,7,11
8.22E+01,-7696,-2173,2366,144,-812,345,1,7,11
8.25E+01,-7727,-2155,2379,344,-228,-77,1,7,11
8.27E+01,-7586,-1925,2371,314,82,99,1,7,11
8.30E+01,-8007,-1963,2327,323,242,89,1,7,11
8.32E+01,-8057,-2011,2039,330,393,-107,1,7,11
8.35E+01,-8026,-2000,1940,376,511,-62,1,7,11
8.37E+01,-8035,-1977,2108,357,882,-47,1,7,11
8.40E+01,-8010,-1956,2051,279,677,-16,1,7,11
8.42E+01,-8004,-1943,1758,-80,680,257,1,7,11
8.45E+01,-7952,-1950,1731,71,855,288,1,7,11
8.47E+01,-7633,-1969,1671,-269,500,303,1,7,11
8.50E+01,-7799,-2020,1846,-340,410,305,1,7,11
8.52E+01,-7776,-2336,1513,-129,411,261,1,7,11
8.55E+01,-7655,-2374,1521,-154,450,-64,1,7,11
8.57E+01,-7917,-2369,1872,-131,417,-91,1,7,11
8.60E+01,-8134,-2358,1733,-281,189,292,1,7,11
8.62E+01,-8168,-2316,1785,-83,122,533,1,7,11
8.65E+01,-8151,-2004,2083,365,-139,495,1,7,11
8.67E+01,-8066,-2171,2102,522,-593,660,1,7,11
8.70E+01,-7935,-2090,2121,610,-452,728,1,7,11
8.72E+01,-8022,-1751,2114,399,-485,701,1,7,11
8.75E+01,-7665,-1913,2086,384,-630,817,1,7,11
8.77E+01,-7979,-1826,2089,550,-176,388,1,7,11
8.80E+01,-8045,-1809,2109,179,-271,542,1,7,11
8.82E+01,-7888,-1816,2141,329,-122,217,1,7,11
8.85E+01,-7932,-1821,2169,-17,-18,164,1,7,11
8.87E+01,-8206,-1818,1935,-74,324,164,1,7,11
8.90E+01,-7933,-1808,1930,-97,371,195,1,7,11
8.92E+01,-7854,-1798,2167,-108,179,237,1,7,11
8.95E+01,-7982,-1804,2145,123,255,517,1,7,11
8.97E+01,-7627,-1821,2133,94,616,211,1,7,11
9.00E+01,-7619,-1845,2140,65,440,367,1,7,11
9.02E+01,-7606,-1868,2121,62,439,283,1,7,11
9.05E+01,-7801,-1896,1786,64,403,-52,1,7,11
9.07E+01,-7743,-1691,1679,42,388,101,1,7,11
9.10E+01,-7722,-1753,1832,15,426,-290,1,7,11
9.12E+01,-7574,-2071,1512,-297,507,-194,1,7,11
9.15E+01,-7998,-2136,1796,-354,481,-557,1,7,11
9.17E+01,-7924,-2160,1856,-365,583,-597,1,7,11
9.20E+01,-8087,-1924,1676,-347,274,-549,1,7,11
9.22E+01,-8087,-1932,1720,-284,-137,-166,1,7,11
9.25E+01,-8275,-1936,1743,41,-474,-324,1,7,11
9.27E+01,-7902,-2158,1766,101,-693,-271,1,7,11
9.30E+01,-7858,-2093,2065,-109,-732,-284,1,7,11
9.32E+01,-7896,-1765,2103,-69,-686,-288,1,7,11
9.35E+01,-7935,-1693,2135,-44,-861,21,1,7,11
9.37E+01,-8198,-1890,2162,-48,-496,107,1,7,11
9.40E+01,-8194,-1828,1925,-92,-601,-77,1,7,11
9.42E+01,-8198,-1528,1949,64,-172,-35,1,7,11
9.45E+01,-7891,-1499,1976,-332,-285,265,1,7,11
9.47E+01,-8031,-1504,1997,-232,92,290,1,7,11
9.50E+01,-7657,-1796,2008,-627,-36,263,1,7,11
9.52E+01,-7614,-1856,2002,-471,353,-59,1,7,11
9.55E+01,-7612,-1665,1950,-490,183,-108,1,7,11
9.57E+01,-7637,-1755,2136,-467,516,125,1,7,11
9.60E+01,-7650,-2078,2048,-429,549,-117,1,7,11
9.62E+01,-7661,-2105,1755,-393,560,-111,1,7,11
9.65E+01,-7958,-2131,1755,-606,538,-114,1,7,11
9.67E+01,-7921,-2109,2048,-548,232,-120,1,7,11
9.70E+01,-8292,-2078,2091,-227,342,-59,1,7,11
9.72E+01,-8249,-2061,2114,-155,90,151,1,7,11
9.75E+01,-7872,-1753,2115,-329,-217,220,1,7,11
9.77E+01,-7834,-1685,2144,-268,-250,201,1,7,11
9.80E+01,-7856,-1867,1928,24,-236,173,1,7,11
9.82E+01,-7889,-1809,1968,56,-144,170,1,7,11
9.85E+01,-7898,-1484,1967,-125,-322,190,1,7,11
9.87E+01,-8199,-1422,1938,-96,62,210,1,7,11
9.90E+01,-8215,-1625,2144,-107,-70,255,1,7,11
9.92E+01,-7915,-1570,2081,100,327,561,1,7,11
9.95E+01,-7847,-1550,1741,-261,213,588,1,7,11
9.97E+01,-8039,-1892,1792,-669,813,28,1,7,11
1.00E+02,-8211,-1701,1869,-661,404,-302,1,7,11
1.00E+02,-8077,-1733,1695,-812,365,-265,1,7,11
1.00E+02,-8108,-1715,1744,-610,38,87,1,7,11
1.01E+02,-8138,-1909,2048,-145,-222,-66,1,7,11
1.01E+02,-8088,-1831,2079,37,-454,318,1,7,11
1.01E+02,-8279,-1469,2099,-68,-847,153,1,7,11
1.01E+02,-8259,-1618,2098,273,-884,205,1,7,11
1.02E+02,-8203,-1538,2109,280,-886,251,1,7,11
1.02E+02,-7885,-1208,2136,-14,-796,240,1,7,11
1.02E+02,-7922,-1403,1924,-85,-385,185,1,7,11
1.02E+02,-8233,-1358,1965,110,-517,174,1,7,11
1.03E+02,-8221,-1336,1963,50,-151,197,1,7,11
1.03E+02,-7890,-1322,1921,-265,-273,217,1,7,11
1.03E+02,-7811,-1329,2134,-353,-84,197,1,7,11
1.03E+02,-7958,-1375,2118,-205,347,144,1,7,11
1.04E+02,-7622,-1191,2096,-547,244,279,1,7,11
1.04E+02,-7596,-1271,2076,-611,601,110,1,7,11
1.04E+02,-7584,-1421,1760,-638,623,-142,1,7,11
1.04E+02,-7630,-1523,1739,-615,593,-564,1,7,11
1.05E+02,-7981,-1866,1732,-542,529,-449,1,7,11
1.05E+02,-7866,-1910,1759,-171,165,-796,1,7,11
1.05E+02,-8268,-1671,2086,-288,-23,-801,1,7,11
1.05E+02,-8095,-1916,2162,-92,-275,-459,1,7,11
1.06E+02,-8136,-1880,1962,377,-530,-588,1,7,11
1.06E+02,-8092,-1836,2004,566,-508,-194,1,7,11
1.06E+02,-8237,-1524,2019,454,-657,-358,1,7,11
1.06E+02,-7864,-1472,2019,792,-681,-345,1,7,11
1.07E+02,-8012,-1416,2032,822,-858,-129,1,7,11
1.07E+02,-7959,-1640,2035,809,-412,-219,1,7,11
1.07E+02,-7990,-1627,2307,772,-204,-560,1,7,11
1.07E+02,-7987,-1627,2020,483,-281,-601,1,7,11
1.08E+02,-8021,-1641,1980,432,-85,-638,1,7,11
1.08E+02,-8015,-1651,1930,611,313,-638,1,7,11
1.08E+02,-7991,-1411,2172,249,188,-388,1,7,11
1.08E+02,-7977,-1446,1923,375,523,-402,1,7,11
1.09E+02,-7990,-1471,1931,256,527,-418,1,7,11
1.09E+02,-8042,-1495,1924,-90,175,-409,1,7,11
1.09E+02,-7833,-1527,2171,58,300,-612,1,7,11
1.09E+02,-7859,-1826,2162,-268,-90,-548,1,7,11
1.10E+02,-7905,-1866,1937,-341,35,-249,1,7,11
1.10E+02,-8219,-1888,2013,-379,-378,-224,1,7,11
1.10E+02,-8303,-1884,2366,-366,-566,-191,1,7,11
1.10E+02,-8086,-1862,2193,-314,-805,-364,1,7,11
1.11E+02,-8264,-1853,2233,20,-1042,1,1,7,11
1.11E+02,-7861,-1840,2250,96,-903,56,1,7,11
1.11E+02,-7999,-1831,2264,-88,-1112,22,1,7,11
1.11E+02,-7672,-1826,2286,-16,-684,-317,1,7,11
1.12E+02,-7679,-1825,2585,309,-436,-166,1,7,11
1.12E+02,-7964,-1841,2618,145,-211,-239,1,7,11
1.12E+02,-8007,-1852,2619,522,-258,-542,1,7,11
1.12E+02,-7839,-1840,2598,624,-68,-561,1,7,11
1.13E+02,-7873,-1809,2300,427,319,-525,1,7,11
1.13E+02,-7858,-1516,2252,417,161,-220,1,7,11
1.13E+02,-7835,-1498,2215,582,237,-186,1,7,11
1.13E+02,-8052,-1486,2199,182,513,-174,1,7,11
1.14E+02,-8002,-1475,2201,263,216,-188,1,7,11
1.14E+02,-7950,-1483,2207,82,130,-222,1,7,11
1.14E+02,-7634,-1508,2221,-339,272,-514,1,7,11
1.14E+02,-7789,-1816,2227,-197,-115,-548,1,7,11
1.15E+02,-7755,-1862,2209,-245,79,-621,1,7,11
1.15E+02,-7777,-1909,2204,-244,53,-447,1,7,11
1.15E+02,-7618,-1687,2217,-197,53,-771,1,7,11
1.15E+02,-7976,-1714,2229,-353,17,-777,1,7,11
1.16E+02,-8053,-1706,2221,46,-264,-477,1,7,11
1.16E+02,-7915,-1704,2216,-68,6,-401,1,7,11
1.16E+02,-8285,-1686,2206,356,31,-530,1,7,11
1.16E+02,-8108,-1908,2417,520,86,-356,1,7,11
1.17E+02,-8127,-1868,2349,402,-59,98,1,7,11
1.17E+02,-8125,-1819,2003,482,377,276,1,7,11
1.17E+02,-8115,-1522,1941,482,605,148,1,7,11
1.17E+02,-8137,-1480,2171,420,819,235,1,7,11
1.18E+02,-8111,-1431,1922,572,707,557,1,7,11
1.18E+02,-8121,-1654,1929,193,1045,577,1,7,11
1.18E+02,-8102,-1602,1929,338,1026,603,1,7,11
1.18E+02,-8317,-1538,2156,-16,712,635,1,7,11
1.19E+02,-8270,-1223,2123,-120,657,420,1,7,11
1.19E+02,-8207,-1397,2087,32,877,473,1,7,11
1.19E+02,-7888,-1371,2098,-130,878,788,1,7,11
1.19E+02,-7828,-1366,2129,-215,839,814,1,7,11
1.20E+02,-8028,-1354,2165,-523,799,784,1,7,11
1.20E+02,-8003,-1344,1939,-569,481,447,1,7,11
1.20E+02,-7993,-1332,1964,-611,384,586,1,7,11
1.20E+02,-8000,-1314,1973,-395,527,202,1,7,11
1.21E+02,-8011,-1290,1970,-442,160,345,1,7,11
1.21E+02,-8063,-1020,1971,-501,334,263,1,7,11
1.21E+02,-7845,-1285,1984,-822,-4,-13,1,7,11
1.21E+02,-7847,-1325,1977,-865,-68,268,1,7,11
1.22E+02,-7838,-1378,1940,-883,-77,292,1,7,11
1.22E+02,-7868,-1177,2175,-657,-32,300,1,7,11
1.22E+02,-7873,-1269,2144,-698,-18,312,1,7,11
1.22E+02,-7823,-1598,2110,-734,-2,281,1,7,11
1.23E+02,-7880,-1411,2111,-1052,279,-70,1,7,11
1.23E+02,-8227,-1476,2108,-1095,-37,100,1,7,11
1.23E+02,-8296,-1521,2099,-1112,96,47,1,7,11
1.23E+02,-8100,-1528,2079,-1130,-303,24,1,7,11
1.24E+02,-8082,-1517,2086,-921,-213,49,1,7,11
1.24E+02,-8282,-1512,2103,-994,-616,71,1,7,11
1.24E+02,-7927,-1513,2158,-1319,-504,80,1,7,11
1.24E+02,-7879,-1498,1955,-1374,-852,47,1,7,11
1.25E+02,-7884,-1483,2018,-1168,-665,7,1,7,11
1.25E+02,-7866,-1479,2357,-1213,-736,-268,1,7,11
1.25E+02,-7818,-1476,2428,-1229,-1036,-287,1,7,11
1.25E+02,-8000,-1448,2247,-1222,-1034,-315,1,7,11
1.26E+02,-7964,-1412,2575,-1218,-697,-373,1,7,11
1.26E+02,-7965,-1645,2666,-1211,-803,-209,1,7,11
1.26E+02,-8012,-1605,2506,-1160,-429,-530,1,7,11
1.26E+02,-8055,-1539,2823,-1324,-602,-551,1,7,11
1.27E+02,-7862,-1177,2845,-970,-249,-524,1,7,11
1.27E+02,-8244,-1354,2876,-920,-159,-183,1,7,11
1.27E+02,-8301,-1294,2862,-1149,-140,-270,1,7,11
1.27E+02,-8239,-1021,2536,-1113,-382,-85,1,7,11
1.28E+02,-8059,-1292,2683,-1101,-308,311,1,7,11
1.28E+02,-7679,-1339,2303,-1122,95,136,1,7,11
1.28E+02,-7597,-1408,2199,-910,338,356,1,7,11
1.28E+02,-7800,-1251,2340,-977,480,281,1,7,11
1.29E+02,-7799,-1617,1967,-1038,729,-87,1,7,11
1.29E+02,-7568,-1479,2096,-1315,926,58,1,7,11
1.29E+02,-7618,-1864,1695,-1335,1327,-310,1,7,11
1.29E+02,-7666,-1749,1818,-1358,1397,-143,1,7,11
1.30E+02,-7994,-2130,1432,-1390,1167,-231,1,7,11
1.30E+02,-7867,-1993,1589,-1195,1374,-553,1,7,11
1.30E+02,-8210,-2347,1274,-1272,967,-563,1,7,11
1.30E+02,-8262,-2419,1243,-1598,752,-539,1,7,11
1.31E+02,-8271,-2216,1226,-1411,480,-227,1,7,11
1.31E+02,-8235,-2247,1211,-1469,191,-156,1,7,11
1.31E+02,-8211,-2251,1240,-1508,-64,-353,1,7,11
1.31E+02,-7928,-2240,1277,-1523,-311,-267,1,7,11
1.32E+02,-7870,-2209,1565,-1526,-526,81,1,7,11
1.32E+02,-8064,-2196,1630,-1806,-438,-104,1,7,11
1.32E+02,-7984,-2180,1476,-1808,-830,-73,1,7,11
1.32E+02,-7680,-2401,1831,-1518,-650,-107,1,7,11
1.33E+02,-7669,-2342,1688,-1450,-689,94,1,7,11
1.33E+02,-7951,-2000,2054,-1612,-697,41,1,7,11
1.33E+02,-7970,-2141,2161,-1257,-697,24,1,7,11
1.33E+02,-8015,-1773,1987,-1154,-653,35,1,7,11
1.34E+02,-8044,-1668,2036,-1322,-849,88,1,7,11
1.34E+02,-8064,-1823,2335,-1021,-488,-103,1,7,11
1.34E+02,-8043,-1508,2398,-1014,-628,-39,1,7,11
1.34E+02,-7994,-1468,2194,-1005,-252,-17,1,7,11
1.35E+02,-7669,-1447,2219,-987,-133,-44,1,7,11
1.35E+02,-7636,-1421,2217,-963,20,123,1,7,11
1.35E+02,-7606,-1435,2202,-953,-90,25,1,7,11
1.35E+02,-7789,-1466,2413,-928,307,-335,1,7,11
1.36E+02,-7763,-1506,2365,-1150,238,-224,1,7,11
1.36E+02,-7758,-1829,2325,-1111,412,-621,1,7,11
1.36E+02,-7726,-1911,1981,-1038,813,-490,1,7,11
1.36E+02,-7703,-1751,2117,-697,704,-874,1,7,11
1.37E+02,-7703,-2107,1732,-877,1123,-749,1,7,11
1.37E+02,-7703,-1971,1843,-800,1020,-1118,1,7,11
1.37E+02,-7745,-2347,1416,-463,1198,-976,1,7,11
1.37E+02,-7559,-2213,1248,-639,1613,-1312,1,7,11
1.38E+02,-7617,-2599,1293,-576,1489,-1358,1,7,11
1.38E+02,-7819,-2558,1029,-548,1847,-1403,1,7,11
1.38E+02,-8213,-2905,876,-543,1836,-1396,1,7,11
1.38E+02,-8100,-2943,779,-564,1478,-1336,1,7,11
1.39E+02,-8489,-2941,470,-415,1390,-953,1,7,11
1.39E+02,-8524,-2693,436,-793,742,-727,1,7,11
1.39E+02,-8156,-2944,394,-658,576,-490,1,7,11
1.39E+02,-8100,-2917,405,-1073,-8,-588,1,7,11
1.40E+02,-8303,-2890,461,-996,-323,-184,1,7,11
1.40E+02,-8240,-2842,815,-1153,-587,-317,1,7,11
1.40E+02,-7911,-2531,689,-1538,-818,59,1,7,11
1.40E+02,-8058,-2492,1077,-1627,-742,-86,1,7,11
1.41E+02,-7946,-2472,955,-1419,-1102,-20,1,7,11
1.41E+02,-7619,-2455,1334,-1661,-1108,-16,1,7,11
1.41E+02,-7607,-2443,1214,-1594,-1046,-57,1,7,11
1.41E+02,-7597,-2682,1606,-1225,-705,-111,1,7,11
1.42E+02,-7644,-2657,1468,-1343,-859,80,1,7,11
1.42E+02,-7949,-2621,1815,-933,-802,42,1,7,11
1.42E+02,-8003,-2585,1887,-1045,-781,17,1,7,11
1.42E+02,-7811,-2291,1688,-667,-811,4,1,7,11
1.43E+02,-7844,-2259,1729,-823,-896,21,1,7,11
1.43E+02,-7820,-2229,1747,-489,-747,59,1,7,11
1.43E+02,-7973,-2213,1744,-413,-1100,102,1,7,11
1.43E+02,-7636,-2191,1751,-610,-1086,103,1,7,11
1.44E+02,-7622,-2185,1785,-572,-760,100,1,7,11
1.44E+02,-7577,-2180,2072,-236,-682,116,1,7,11
1.44E+02,-7557,-2178,2102,-142,-826,110,1,7,11
1.44E+02,-7786,-2188,2119,-309,-478,105,1,7,11
1.45E+02,-7731,-2205,2084,62,-389,86,1,7,11
1.45E+02,-7421,-2235,1726,-106,-238,27,1,7,11
1.45E+02,-7725,-2287,1828,-89,-275,-331,1,7,11
1.45E+02,-7716,-2647,1449,-97,-105,-146,1,7,11
1.46E+02,-7710,-2468,1542,-109,322,-234,1,7,11
1.46E+02,-7750,-2553,1156,102,249,-622,1,7,11
1.46E+02,-7582,-2887,1306,15,422,-428,1,7,11
1.46E+02,-7984,-2707,991,-344,844,-438,1,7,11
1.47E+02,-7861,-2771,959,-216,829,-622,1,7,11
1.47E+02,-8196,-2790,944,-514,458,-217,1,7,11
1.47E+02,-8224,-2801,950,-549,541,-275,1,7,11
1.47E+02,-7913,-2805,971,-571,320,-53,1,7,11
1.48E+02,-7847,-2768,995,-566,-114,375,1,7,11
1.48E+02,-7828,-2713,1289,-573,-261,255,1,7,11
1.48E+02,-8059,-2896,1342,-584,-155,631,1,7,11
1.48E+02,-8036,-2558,1161,-595,-528,475,1,7,11
1.49E+02,-8002,-2443,1275,-610,-616,820,1,7,11
1.49E+02,-7936,-2641,1620,-632,-407,872,1,7,11
1.49E+02,-7641,-2577,1435,-385,-429,860,1,7,11
1.49E+02,-7621,-2252,1504,-398,-426,794,1,7,11
1.50E+02,-7610,-2195,1817,-416,-393,455,1,7,11
1.50E+02,-7646,-2399,1883,-451,-601,613,1,7,11
1.50E+02,-7946,-2353,1707,-460,-572,531,1,7,11
1.50E+02,-7971,-2323,1771,-454,-561,213,1,7,11
1.51E+02,-7961,-2038,2082,-432,-553,161,1,7,11
1.51E+02,-7963,-2011,2141,-412,-518,353,1,7,11
1.51E+02,-7987,-1978,1964,-627,-227,293,1,7,11
1.51E+02,-8021,-1946,2042,-583,-214,-5,1,7,11
1.52E+02,-8037,-2173,2388,-524,-236,-27,1,7,11
1.52E+02,-8014,-2151,2202,-201,-549,-38,1,7,11
1.52E+02,-7945,-2131,2219,-370,-603,-55,1,7,11
1.52E+02,-7633,-2113,2187,-289,-586,-98,1,7,11
1.53E+02,-7574,-2111,2356,25,-249,117,1,7,11
1.53E+02,-7559,-2133,1988,44,-328,60,1,7,11
1.53E+02,-7557,-1931,2128,38,-111,10,1,7,11
1.53E+02,-7590,-2026,1761,9,381,-304,1,7,11
1.54E+02,-7614,-2379,1667,-260,579,-363,1,7,11
1.54E+02,-7948,-2198,1833,-259,775,-182,1,7,11
1.54E+02,-8004,-2269,1494,-259,891,-217,1,7,11
1.54E+02,-8014,-2566,1439,0,716,-234,1,7,11
1.55E+02,-8049,-2595,1437,12,763,-238,1,7,11
1.55E+02,-8062,-2604,1444,69,742,-195,1,7,11
1.55E+02,-8056,-2607,1656,-90,691,-371,1,7,11
1.55E+02,-8003,-2596,1550,-7,877,-269,1,7,11
1.56E+02,-7676,-2561,1250,300,832,61,1,7,11
1.56E+02,-8004,-2261,1269,303,811,57,1,7,11
1.56E+02,-7847,-2224,1579,-14,635,40,1,7,11
1.56E+02,-7900,-2183,1632,-85,144,65,1,7,11
1.57E+02,-7846,-2401,1426,61,-117,100,1,7,11
1.57E+02,-8028,-2373,1457,-278,-282,81,1,7,11
1.57E+02,-7972,-2367,1517,-369,-365,18,1,7,11
1.57E+02,-7955,-2385,1838,-167,-375,-328,1,7,11
1.58E+02,-7960,-2420,1893,-159,-349,-159,1,7,11
1.58E+02,-7956,-2197,1915,-339,-298,-220,1,7,11
1.58E+02,-7962,-2234,1879,27,61,-516,1,7,11
1.58E+02,-7993,-2256,1814,-110,-40,-534,1,7,11
1.59E+02,-8038,-2275,1502,-31,139,-524,1,7,11
1.59E+02,-8033,-2292,1441,288,526,-214,1,7,11
1.59E+02,-8012,-2292,1618,332,623,-159,1,7,11
1.59E+02,-7971,-2286,1268,344,422,-341,1,7,11
1.60E+02,-7974,-2274,1194,319,483,-284,1,7,11
1.60E+02,-8052,-2253,1185,-2,768,34,1,7,11
1.60E+02,-7901,-2226,1236,-82,463,125,1,7,11
1.60E+02,-8233,-2209,1590,97,552,-13,1,7,11
1.61E+02,-8193,-2189,1436,52,282,358,1,7,11
1.61E+02,-7847,-2415,1511,32,5,140,1,7,11
1.61E+02,-8029,-2385,1827,14,-210,333,1,7,11
1.61E+02,-7944,-2360,1889,-266,-632,-44,1,7,11
1.62E+02,-7610,-2334,1689,-262,-463,46,1,7,11
1.62E+02,-7557,-2325,1716,39,-485,-370,1,7,11
1.62E+02,-7779,-2337,1694,121,-427,-245,1,7,11
1.62E+02,-7785,-2361,1888,-45,-526,-606,1,7,11
1.63E+02,-7567,-2411,1839,277,-308,-426,1,7,11
1.63E+02,-7553,-2220,1792,338,-106,-464,1,7,11
1.63E+02,-7777,-2275,1471,149,349,-501,1,7,11
1.63E+02,-7796,-2589,1648,201,549,-799,1,7,11
1.64E+02,-7597,-2653,1634,223,441,-814,1,7,11
1.64E+02,-7675,-2461,1650,218,507,-809,1,7,11
1.64E+02,-8020,-2491,1451,202,462,-789,1,7,11
1.64E+02,-7862,-2483,1511,193,560,-482,1,7,11
1.65E+02,-7898,-2460,1815,209,337,-606,1,7,11
1.65E+02,-7835,-2433,1818,231,-291,-231,1,7,11
1.65E+02,-8025,-2677,1810,254,-163,-154,1,7,11
1.65E+02,-7970,-2656,1814,242,-198,-382,1,7,11
1.66E+02,-7938,-2641,1818,206,-164,-132,1,7,11
1.66E+02,-7680,-2638,1837,166,-355,-146,1,7,11
1.66E+02,-7666,-2649,1798,150,-276,-132,1,7,11
1.66E+02,-7669,-2670,1489,137,109,-361,1,7,11
1.67E+02,-7976,-2440,1447,375,288,-319,1,7,11
1.67E+02,-7981,-2460,1414,364,190,19,1,7,11
1.67E+02,-7967,-2462,1643,369,592,101,1,7,11
1.67E+02,-7965,-2441,1610,137,445,-65,1,7,11
1.68E+02,-7980,-2663,1572,158,508,299,1,7,11
1.68E+02,-8013,-2623,1550,159,793,164,1,7,11
1.68E+02,-7817,-2571,1563,143,776,546,1,7,11
1.68E+02,-7866,-2266,1605,378,432,415,1,7,11
1.69E+02,-7884,-2216,1649,355,539,787,1,7,11
1.69E+02,-7877,-2402,1437,352,379,874,1,7,11
1.69E+02,-7877,-2322,1482,347,-20,667,1,7,11
1.69E+02,-7848,-1995,1792,322,97,692,1,7,11
1.70E+02,-8034,-1947,1838,286,-288,676,1,7,11
1.70E+02,-7670,-2173,1866,-11,-140,846,1,7,11
1.70E+02,-7577,-2154,1862,-57,-170,418,1,7,11
1.70E+02,-7578,-2151,1857,-102,-376,200,1,7,11
1.71E+02,-7608,-2170,1836,120,-291,272,1,7,11
1.71E+02,-7663,-1975,1505,109,-111,93,1,7,11
1.71E+02,-7981,-2018,1447,-127,314,26,1,7,11
1.71E+02,-7821,-2326,1415,-114,229,5,1,7,11
1.72E+02,-8057,-2375,1655,-95,564,49,1,7,11
1.72E+02,-7990,-2399,1633,-65,612,71,1,7,11
1.72E+02,-7955,-2403,1610,-42,626,61,1,7,11
1.72E+02,-7956,-2398,1600,-39,600,42,1,7,11
1.73E+02,-7994,-2384,1617,-47,531,39,1,7,11
1.73E+02,-7811,-2353,1643,-64,161,62,1,7,11
1.73E+02,-7872,-2342,1458,-89,-15,111,1,7,11
1.73E+02,-7855,-2326,1535,-98,18,-97,1,7,11
1.74E+02,-7844,-2037,1867,-90,-188,-103,1,7,11
1.74E+02,-7810,-1983,1682,-64,-385,127,1,7,11
1.74E+02,-8059,-1926,1726,-47,-769,83,1,7,11
1.74E+02,-8004,-2160,1750,-57,-856,46,1,7,11
1.75E+02,-7669,-2168,1733,-82,-868,-280,1,7,11
1.75E+02,-7603,-1925,1704,-123,-791,-142,1,7,11
1.75E+02,-7631,-1953,1680,79,-627,-532,1,7,11
1.75E+02,-7949,-2002,1903,36,-197,-607,1,7,11
1.76E+02,-8006,-2316,1854,17,2,-608,1,7,11
1.76E+02,-7809,-2396,1825,-258,-48,-559,1,7,11
1.76E+02,-8002,-2231,1797,-272,336,-212,1,7,11
1.76E+02,-7948,-2296,1797,-274,199,-198,1,7,11
1.77E+02,-7943,-2578,1798,-266,236,-210,1,7,11
1.77E+02,-7984,-2579,1798,1,213,-198,1,7,11
1.77E+02,-8063,-2576,1815,11,135,-133,1,7,11
1.77E+02,-7860,-2563,1851,29,272,-262,1,7,11
1.78E+02,-7900,-2289,1693,66,-126,-124,1,7,11
1.78E+02,-7911,-2225,1739,-113,-274,266,1,7,11
1.78E+02,-7894,-2419,1774,-24,-148,382,1,7,11
1.78E+02,-7864,-2340,2064,320,-521,235,1,7,11
1.79E+02,-7828,-2016,2116,349,-604,252,1,7,11
1.79E+02,-8012,-1971,2130,345,-480,216,1,7,11
1.79E+02,-7644,-1929,2116,309,-777,132,1,7,11
1.79E+02,-7621,-2132,2093,261,-437,-11,1,7,11
1.80E+02,-7663,-2120,2078,-51,-554,-113,1,7,11
1.80E+02,-7964,-2146,2055,-60,-129,110,1,7,11
1.80E+02,-8019,-2171,1767,-37,82,125,1,7,11
1.80E+02,-8031,-1963,1730,256,268,-62,1,7,11
1.81E+02,-7942,-2002,1668,302,176,263,1,7,11
1.81E+02,-7638,-2025,1865,320,613,261,1,7,11
1.81E+02,-7642,-2048,1825,307,487,-21,1,7,11
1.81E+02,-7987,-2306,1812,285,806,-45,1,7,11
1.82E+02,-7878,-2307,1821,-2,498,-15,1,7,11
1.82E+02,-8223,-2306,1861,-32,576,342,1,7,11
1.82E+02,-8241,-2031,1908,-61,332,196,1,7,11
1.82E+02,-8214,-1994,1720,-78,75,537,1,7,11
1.83E+02,-7906,-1931,1788,-85,-161,570,1,7,11
1.83E+02,-7871,-2123,2128,-106,-613,565,1,7,11
1.83E+02,-8055,-2082,1939,120,-791,549,1,7,11
1.83E+02,-7665,-2057,1979,101,-651,232,1,7,11
1.84E+02,-7567,-1765,1994,81,-895,348,1,7,11
1.84E+02,-7578,-1745,2002,54,-779,-73,1,7,11
1.84E+02,-7617,-1753,1987,48,-627,71,1,7,11
1.84E+02,-7654,-1783,1945,95,-168,33,1,7,11
1.85E+02,-7989,-2068,2151,-100,95,39,1,7,11
1.85E+02,-7997,-2123,2109,-26,326,111,1,7,11
1.85E+02,-7677,-2160,2061,348,557,-82,1,7,11
1.85E+02,-7649,-1940,1766,217,502,-54,1,7,11
1.86E+02,-7662,-1941,1711,581,644,-53,1,7,11
1.86E+02,-8016,-1926,1682,627,725,-58,1,7,11
1.86E+02,-8197,-2152,1688,627,710,-23,1,7,11
1.86E+02,-8313,-2118,1714,617,799,342,1,7,11
1.87E+02,-8086,-2065,1783,604,566,220,1,7,11
1.87E+02,-8313,-1711,2096,570,310,588,1,7,11
1.87E+02,-8221,-1906,2133,515,62,625,1,7,11
1.87E+02,-8037,-1883,2154,146,-195,581,1,7,11
1.88E+02,-7653,-1845,2164,302,-611,163,1,7,11
1.88E+02,-7648,-1829,1929,-55,-560,-17,1,7,11
1.88E+02,-7947,-1827,2160,-128,-172,120,1,7,11
1.88E+02,-8041,-1819,2072,-124,16,79,1,7,11
1.89E+02,-7813,-1855,1779,45,-49,-114,1,7,11
1.89E+02,-8021,-1913,1741,-258,136,-51,1,7,11
1.89E+02,-7946,-1698,1692,-286,562,-49,1,7,11
1.89E+02,-7666,-1719,1904,-315,450,-97,1,7,11
1.90E+02,-7967,-1732,1862,-371,773,98,1,7,11
1.90E+02,-8052,-1735,1840,-245,465,70,1,7,11
1.90E+02,-7874,-1747,1852,-631,584,88,1,7,11
1.90E+02,-8227,-1747,1888,-457,154,121,1,7,11
1.91E+02,-8296,-1748,1665,-476,-58,-61,1,7,11
1.91E+02,-8291,-1738,1718,-463,-299,298,1,7,11
1.91E+02,-8298,-1698,1780,-441,-514,357,1,7,11
1.91E+02,-8311,-1909,2129,-435,-474,135,1,7,11
1.92E+02,-8255,-1882,1939,-447,-701,155,1,7,11
1.92E+02,-8056,-1899,1980,-469,-916,134,1,7,11
1.92E+02,-7784,-1887,1990,-467,-972,-9,1,7,11
1.92E+02,-7587,-1867,2023,-463,-760,-282,1,7,11
1.93E+02,-8001,-1876,2321,-406,-838,-146,1,7,11
1.93E+02,-7881,-1889,2332,-532,-400,-363,1,7,11
1.93E+02,-8216,-1669,2323,-376,-232,56,1,7,11
1.93E+02,-7871,-1691,2014,49,-327,-5,1,7,11
1.94E+02,-8045,-1685,1951,-87,-115,341,1,7,11
1.94E+02,-7976,-1914,2161,-30,326,342,1,7,11
1.94E+02,-7966,-1878,2129,-33,191,289,1,7,11
1.94E+02,-7994,-1839,2124,-86,207,-25,1,7,11
1.95E+02,-8047,-1802,2139,73,379,-70,1,7,11
1.95E+02,-7857,-1523,1921,-303,-27,-88,1,7,11
1.95E+02,-7893,-1515,1971,-150,25,-73,1,7,11
1.95E+02,-7902,-1489,2012,-214,-150,-54,1,7,11
1.96E+02,-7907,-1470,2333,-522,-555,-35,1,7,11
1.96E+02,-7897,-1433,2407,-559,-422,-35,1,7,11
1.96E+02,-7863,-1663,2240,-609,-809,-49,1,7,11
1.96E+02,-8040,-1659,2267,-392,-667,-107,1,7,11
1.97E+02,-7655,-1447,2244,-462,-750,50,1,7,11
1.97E+02,-7706,-1511,2182,-790,-737,-363,1,7,11
1.97E+02,-7424,-1844,2390,-842,-770,-597,1,7,11
1.97E+02,-7566,-1679,2345,-842,-237,-508,1,7,11
1.98E+02,-8033,-1763,2311,-770,49,-783,1,7,11
1.98E+02,-8217,-2098,2036,-404,280,-397,1,7,11
1.98E+02,-7922,-1928,2006,-534,139,-163,1,7,11
1.98E+02,-8048,-1968,1944,-147,254,-278,1,7,11
1.99E+02,-7679,-1956,1929,-325,608,0,1,7,11
1.99E+02,-7591,-1926,1924,-308,385,-296,1,7,11
1.99E+02,-7651,-2133,1949,-325,629,-377,1,7,11
1.99E+02,-7828,-2097,2025,-360,576,-181,1,7,11
2.00E+02,-8196,-2086,2357,-133,163,-347,1,7,11
2.00E+02,-8208,-2080,2192,-372,104,21,1,7,11
2.00E+02,-7920,-2061,2269,-318,-347,81,1,7,11
2.00E+02,-7834,-1769,2574,1,-522,83,1,7,11
2.01E+02,-8006,-1730,2604,73,-632,19,1,7,11
2.01E+02,-7937,-1694,2586,-123,-410,-318,1,7,11
2.01E+02,-7622,-1683,2267,-94,-612,-152,1,7,11
2.01E+02,-7597,-1709,2212,-89,-205,-252,1,7,11
2.02E+02,-7663,-1737,2431,-71,20,-600,1,7,11
2.02E+02,-8018,-2055,2351,-34,-28,-624,1,7,11
2.02E+02,-8049,-2159,1990,297,163,-577,1,7,11
2.02E+02,-7856,-1936,1928,375,415,-530,1,7,11
2.03E+02,-7878,-1963,2149,169,874,-182,1,7,11
2.03E+02,-8064,-1955,2114,211,729,-290,1,7,11
2.03E+02,-8016,-1936,2104,232,1044,11,1,7,11
2.03E+02,-7975,-2174,2074,231,730,47,1,7,11
2.04E+02,-7993,-2146,1786,224,680,71,1,7,11
2.04E+02,-8060,-2127,1774,195,888,118,1,7,11
2.04E+02,-7857,-2136,2072,176,822,-68,1,7,11
2.04E+02,-7930,-2129,2131,196,475,-21,1,7,11
2.05E+02,-8238,-2111,1937,215,565,274,1,7,11
2.05E+02,-8248,-2067,1965,241,360,295,1,7,11
2.05E+02,-8212,-1748,1952,228,-103,295,1,7,11
2.05E+02,-7862,-1697,1933,156,-273,283,1,7,11
2.06E+02,-8012,-1914,2172,302,-361,-30,1,7,11
2.06E+02,-7962,-1890,2159,-90,-353,-119,1,7,11
2.06E+02,-7977,-1895,2155,32,-304,70,1,7,11
2.06E+02,-7961,-1675,2133,-316,15,70,1,7,11
2.07E+02,-7992,-1717,2095,-374,-88,96,1,7,11
2.07E+02,-8032,-1769,2065,-162,348,-98,1,7,11
2.07E+02,-7961,-2075,1769,-180,233,-13,1,7,11
2.07E+02,-7641,-2110,1714,-187,388,-3,1,7,11
2.08E+02,-7632,-2121,1672,-208,492,-39,1,7,11
2.08E+02,-7640,-2120,1864,-242,791,-83,1,7,11
2.08E+02,-8028,-2066,1837,-546,793,123,1,7,11
2.08E+02,-7928,-1772,1874,-627,473,-110,1,7,11
2.09E+02,-8097,-1732,1697,-511,573,-26,1,7,11
2.09E+02,-8173,-1696,1777,-843,307,372,1,7,11
2.09E+02,-8140,-1915,2111,-647,-273,255,1,7,11
2.09E+02,-8288,-1860,2173,-700,-582,587,1,7,11
2.10E+02,-8215,-1794,1960,-754,-822,578,1,7,11
2.10E+02,-7883,-1470,1960,-1083,-1029,557,1,7,11
2.10E+02,-8036,-1425,1923,-937,-899,527,1,7,11
2.10E+02,-7980,-1656,2109,-1332,-902,209,1,7,11
2.11E+02,-7968,-1660,1790,-1261,-1077,154,1,7,11
2.11E+02,-7968,-1472,1756,-1483,-690,369,1,7,11
2.11E+02,-7940,-1814,1748,-1674,-803,337,1,7,11
2.11E+02,-7989,-1887,1739,-2065,-618,293,1,7,11
2.12E+02,-7813,-1703,1754,-2150,-207,297,1,7,11
2.12E+02,-7909,-1745,1772,-2172,-345,351,1,7,11
2.12E+02,-8207,-1785,2048,-2155,-303,210,1,7,11
2.12E+02,-7837,-2051,1775,-2083,-318,606,1,7,11
2.13E+02,-7960,-2056,1738,-1752,-278,410,1,7,11
2.13E+02,-7607,-2057,1739,-1697,49,386,1,7,11
2.13E+02,-7595,-1781,1760,-1908,127,544,1,7,11
2.13E+02,-7678,-1753,2097,-1852,-94,163,1,7,11
2.14E+02,-7827,-1717,1932,-1516,125,322,1,7,11
2.14E+02,-7922,-1704,2045,-1656,-270,290,1,7,11
2.14E+02,-8230,-1687,2413,-1250,-198,267,1,7,11
2.14E+02,-8229,-1672,2251,-1321,-399,-20,1,7,11
2.15E+02,-7902,-1900,2300,-1116,-841,-67,1,7,11
2.15E+02,-7814,-1864,2570,-658,-683,116,1,7,11
2.15E+02,-7990,-1839,2564,-473,-696,24,1,7,11
2.15E+02,-7646,-1809,2278,-217,-798,-377,1,7,11
2.16E+02,-7662,-1813,2249,-331,-619,-208,1,7,11
2.16E+02,-7680,-1835,2203,64,-168,-252,1,7,11
2.16E+02,-7984,-1868,2412,-74,61,-537,1,7,11
2.16E+02,-8050,-1906,2402,272,258,-542,1,7,11
2.17E+02,-7838,-1686,2424,359,374,-524,1,7,11
2.17E+02,-7879,-1696,2423,195,166,-243,1,7,11
2.17E+02,-7912,-1679,2422,533,142,-196,1,7,11
2.17E+02,-7888,-1903,2390,599,339,-380,1,7,11
2.18E+02,-7878,-1868,2370,629,321,-305,1,7,11
2.18E+02,-7817,-1858,2367,624,292,41,1,7,11
2.18E+02,-8015,-1851,2372,611,291,82,1,7,11
2.18E+02,-7996,-1851,2379,593,286,79,1,7,11
2.19E+02,-7981,-1851,2360,582,262,58,1,7,11
2.19E+02,-7982,-1849,2334,550,-7,16,1,7,11
2.19E+02,-8014,-1844,2347,237,-18,-300,1,7,11
2.19E+02,-8008,-1842,2340,187,-62,-333,1,7,11
2.20E+02,-8019,-1841,2047,152,-83,-369,1,7,11
2.20E+02,-8006,-1847,1985,375,-86,-381,1,7,11
2.20E+02,-8018,-1852,2174,337,-36,-129,1,7,11
2.20E+02,-8026,-1864,2137,271,346,-377,1,7,11
2.21E+02,-8053,-1874,2116,-95,186,-382,1,7,11
2.21E+02,-7844,-1900,2114,95,238,-374,1,7,11
2.21E+02,-7889,-1901,2116,48,251,-350,1,7,11
2.21E+02,-7914,-1909,2128,1,211,-303,1,7,11
2.22E+02,-7888,-1671,2131,-297,140,10,1,7,11
2.22E+02,-7838,-1690,2144,-345,335,29,1,7,11
2.22E+02,-8047,-1712,1939,-131,281,6,1,7,11
2.22E+02,-8000,-1733,2026,-157,-42,-309,1,7,11
2.23E+02,-7985,-1756,2400,-154,-103,-145,1,7,11
2.23E+02,-7989,-1768,2268,-347,70,-256,1,7,11
2.23E+02,-7996,-1750,2646,23,-280,-624,1,7,11
2.23E+02,-8050,-1688,2511,-80,-345,-477,1,7,11
2.24E+02,-7846,-1869,2887,343,-157,-788,1,7,11
2.24E+02,-7822,-1530,2694,530,-217,-774,1,7,11
2.24E+02,-8034,-1453,2698,448,-198,-486,1,7,11
2.24E+02,-7981,-1652,2925,841,-363,-435,1,7,11
2.25E+02,-7635,-1608,2862,693,54,-630,1,7,11
2.25E+02,-7641,-1595,2545,751,329,-613,1,7,11
2.25E+02,-7679,-1636,2518,1035,576,-573,1,7,11
2.25E+02,-7648,-1437,2434,1081,769,-517,1,7,11
2.26E+02,-7614,-1498,2589,1109,697,-252,1,7,11
2.26E+02,-7603,-1815,2224,1095,1125,-552,1,7,11
2.26E+02,-7597,-1879,2395,1044,999,-638,1,7,11
2.26E+02,-7641,-1672,2324,718,1347,-501,1,7,11
2.27E+02,-7967,-1721,2019,895,1369,-864,1,7,11
2.27E+02,-8040,-1763,1949,819,1327,-688,1,7,11
2.27E+02,-7825,-2066,2126,484,996,-723,1,7,11
2.27E+02,-7834,-2114,2054,407,948,-736,1,7,11
2.28E+02,-7858,-2162,1749,589,932,-740,1,7,11
2.28E+02,-7866,-1961,1713,523,917,-733,1,7,11
2.28E+02,-7864,-2012,1688,219,905,-732,1,7,11
2.28E+02,-7900,-2041,1689,190,1146,-731,1,7,11
2.29E+02,-8201,-2317,1678,180,1097,-709,1,7,11
2.29E+02,-8228,-2314,1881,184,762,-653,1,7,11
2.29E+02,-8218,-2043,1843,188,665,-822,1,7,11
2.29E+02,-7926,-2023,1524,168,845,-469,1,7,11
2.30E+02,-7886,-2024,1454,382,803,-636,1,7,11
2.30E+02,-7862,-2045,1419,339,794,-560,1,7,11
2.30E+02,-7869,-2326,1413,290,788,-239,1,7,11
2.30E+02,-7840,-2345,1662,-10,455,-148,1,7,11
2.31E+02,-7826,-2368,1661,-20,387,-373,1,7,11
2.31E+02,-7819,-2383,1656,-8,559,-349,1,7,11
2.31E+02,-7811,-2379,1614,280,212,-328,1,7,11
2.31E+02,-7827,-2382,1596,289,132,-302,1,7,11
2.32E+02,-7849,-2378,1579,298,311,-268,1,7,11
2.32E+02,-7850,-2365,1567,291,-30,36,1,7,11
2.32E+02,-7827,-2355,1573,264,-111,81,1,7,11
2.32E+02,-7826,-2358,1595,-29,74,106,1,7,11
2.33E+02,-7814,-2357,1643,-60,-270,-127,1,7,11
2.33E+02,-8058,-2363,1447,-91,-369,-113,1,7,11
2.33E+02,-8043,-2386,1524,-123,-220,-116,1,7,11
2.33E+02,-8011,-2415,1866,122,-594,125,1,7,11
2.34E+02,-8012,-2177,1684,124,-425,75,1,7,11
2.34E+02,-8025,-2211,1773,-118,-508,31,1,7,11
2.34E+02,-8009,-2242,2127,-57,-835,18,1,7,11
2.34E+02,-7974,-2257,1965,311,-864,22,1,7,11
2.35E+02,-7962,-2262,2037,216,-870,41,1,7,11
2.35E+02,-7946,-2246,2322,396,-877,82,1,7,11
2.35E+02,-7654,-2210,2318,828,-863,118,1,7,11
2.35E+02,-7664,-2419,2044,700,-819,-122,1,7,11
2.36E+02,-7638,-2343,2035,1031,-778,-107,1,7,11
2.36E+02,-7647,-2033,2316,1051,-441,126,1,7,11
2.36E+02,-7655,-1978,2344,1034,-636,98,1,7,11
2.36E+02,-7670,-1929,2376,740,-576,46,1,7,11
2.37E+02,-7947,-2130,2390,695,-526,23,1,7,11
2.37E+02,-7976,-2084,2427,642,-169,24,1,7,11
2.37E+02,-7991,-2059,2215,814,-350,44,1,7,11
2.37E+02,-7971,-1781,2247,781,-270,79,1,7,11
2.38E+02,-7945,-1771,2270,773,93,99,1,7,11
2.38E+02,-7658,-1758,2274,771,-46,100,1,7,11
2.38E+02,-7632,-1753,2275,789,343,81,1,7,11
2.38E+02,-7662,-1732,2269,823,233,37,1,7,11
2.39E+02,-7963,-1707,2254,855,608,19,1,7,11
2.39E+02,-7979,-1698,2193,884,453,31,1,7,11
2.39E+02,-8003,-1707,2409,886,816,37,1,7,11
2.39E+02,-7987,-1715,2361,882,892,39,1,7,11
2.40E+02,-7948,-1731,2329,869,721,-261,1,7,11
2.40E+02,-7956,-1739,2028,846,1094,-136,1,7,11
2.40E+02,-7999,-1762,2000,805,1123,-237,1,7,11
2.40E+02,-8025,-1777,1957,497,1135,-579,1,7,11
2.41E+02,-8050,-2053,2118,456,1118,-399,1,7,11
2.41E+02,-8064,-2089,1768,579,1102,-454,1,7,11
2.41E+02,-7817,-2153,1714,180,1060,-504,1,7,11
2.41E+02,-7834,-1967,1684,298,722,-815,1,7,11
2.42E+02,-7892,-2021,1892,-78,867,-867,1,7,11
2.42E+02,-7935,-2318,1843,60,451,-868,1,7,11
2.42E+02,-7899,-2360,1794,-309,528,-825,1,7,11
2.42E+02,-7840,-2403,1490,-176,128,-775,1,7,11
2.43E+02,-8040,-2193,1471,-557,272,-472,1,7,11
2.43E+02,-7994,-2260,1465,-426,-83,-441,1,7,11
2.43E+02,-7944,-2593,1479,-795,63,-422,1,7,11
2.43E+02,-7648,-2660,1501,-868,-286,-423,1,7,11
2.44E+02,-7651,-2462,1520,-663,-362,-424,1,7,11
2.44E+02,-7629,-2526,1809,-710,-188,-394,1,7,11
2.44E+02,-7623,-2845,1855,-750,-251,-618,1,7,11
2.44E+02,-7625,-2910,1903,-765,-558,-578,1,7,11
2.45E+02,-7645,-2706,1711,-751,-596,-539,1,7,11
2.45E+02,-7675,-2742,1763,-718,-637,-233,1,7,11
2.45E+02,-7672,-2759,2063,-648,-445,-166,1,7,11
2.45E+02,-7657,-2748,2094,-814,-494,-350,1,7,11
2.46E+02,-7634,-2728,2095,-470,-787,-263,1,7,11
2.46E+02,-7592,-2697,2073,-400,-787,81,1,7,11
2.46E+02,-7559,-2917,2068,-613,-478,-108,1,7,11
2.46E+02,-7566,-2877,2081,-594,-392,-54,1,7,11
2.47E+02,-7568,-2859,2113,-577,-569,295,1,7,11
2.47E+02,-7795,-2841,2131,-533,-224,357,1,7,11
2.47E+02,-7776,-2825,2147,-242,-153,382,1,7,11
2.47E+02,-7760,-2557,2164,-196,-345,377,1,7,11
2.48E+02,-7723,-2557,1931,-144,-299,343,1,7,11
2.48E+02,-7721,-2552,1964,-338,15,264,1,7,11
2.48E+02,-7755,-2537,2011,-267,55,-88,1,7,11
2.48E+02,-7788,-2520,2318,69,69,77,1,7,11
2.49E+02,-7800,-2495,2380,-103,52,-266,1,7,11
2.49E+02,-7561,-2458,2186,-11,20,-359,1,7,11
2.49E+02,-7586,-2662,2239,347,-280,-197,1,7,11
2.49E+02,-7600,-2600,2282,173,-348,-533,1,7,11
2.50E+02,-7562,-2277,2582,223,-168,-592,1,7,11
2.50E+02,-7779,-2202,2613,247,-218,-401,1,7,11
2.50E+02,-7749,-2403,2652,519,-241,-452,1,7,11
2.50E+02,-7729,-2356,2671,558,-247,-457,1,7,11
2.51E+02,-7703,-2336,2627,602,-218,-406,1,7,11
2.51E+02,-7397,-2361,2295,633,-130,-579,1,7,11
2.51E+02,-7702,-2386,2217,401,77,-531,1,7,11
2.51E+02,-7578,-2403,2211,413,309,-226,1,7,11
2.52E+02,-7943,-2197,2198,413,202,-132,1,7,11
2.52E+02,-7973,-2221,2429,411,521,-285,1,7,11
2.52E+02,-7961,-2238,2424,389,556,30,1,7,11
2.52E+02,-7621,-2256,2392,601,548,33,1,7,11
2.53E+02,-7559,-2259,2353,566,594,-307,1,7,11
2.53E+02,-7576,-2258,2316,539,446,-173,1,7,11
2.53E+02,-7641,-2274,2044,513,819,-531,1,7,11
2.53E+02,-7677,-2562,2036,254,646,-584,1,7,11
2.54E+02,-7677,-2606,2026,540,723,-616,1,7,11
2.54E+02,-7655,-2641,2003,614,1063,-405,1,7,11
2.54E+02,-7607,-2654,1967,446,904,-467,1,7,11
2.54E+02,-7577,-2646,1934,784,1282,-818,1,7,11
2.55E+02,-7781,-2642,2167,829,1359,-661,1,7,11
2.55E+02,-7692,-2634,2166,850,1154,-1043,1,7,11
2.55E+02,-7410,-2647,1924,857,1190,-951,1,7,11
2.55E+02,-7390,-2683,1931,875,1183,-1373,1,7,11
2.56E+02,-7389,-2472,2166,643,1401,-1279,1,7,11
2.56E+02,-7322,-2817,2092,665,1307,-1409,1,7,11
2.56E+02,-7474,-2932,1716,671,977,-1805,1,7,11
2.56E+02,-7683,-3180,1849,875,1003,-2134,1,7,11
2.57E+02,-7676,-3023,1853,864,913,-2128,1,7,11
2.57E+02,-7856,-3364,1834,876,704,-1695,1,7,11
2.57E+02,-7920,-3408,1531,894,431,-1658,1,7,11
2.57E+02,-7897,-3425,1498,864,177,-1361,1,7,11
2.58E+02,-7862,-3409,1500,785,-40,-1109,1,7,11
2.58E+02,-8027,-3374,1492,413,4,-889,1,7,11
2.58E+02,-7647,-3065,1474,539,-133,-465,1,7,11
2.58E+02,-7598,-3015,1497,135,-147,-610,1,7,11
2.59E+02,-7577,-2998,1840,-10,-362,-247,1,7,11
2.59E+02,-7789,-3012,1904,-115,-301,-152,1,7,11
2.59E+02,-7710,-3026,1721,78,32,-361,1,7,11
2.59E+02,-7688,-3033,1750,47,120,-379,1,7,11
2.60E+02,-7414,-3020,2072,40,-55,-230,1,7,11
2.60E+02,-7694,-3007,2117,35,291,-555,1,7,11
2.60E+02,-7362,-3007,2154,14,-1,-571,1,7,11
2.60E+02,-7517,-3022,2155,-1,-34,-597,1,7,11
2.61E+02,-7463,-3052,2148,5,-14,-397,1,7,11
2.61E+02,-7475,-3353,2161,18,274,-453,1,7,11
2.61E+02,-7486,-3390,2151,52,287,-473,1,7,11
2.61E+02,-7467,-3449,2113,88,279,-451,1,7,11
2.62E+02,-7152,-3280,1762,120,267,-409,1,7,11
2.62E+02,-7136,-3649,1888,-126,312,-420,1,7,11
2.62E+02,-7523,-3489,1530,104,157,-490,1,7,11
2.62E+02,-7739,-3545,1468,46,199,-495,1,7,11
2.63E+02,-7648,-3847,1434,-293,379,-615,1,7,11
2.63E+02,-7978,-3890,1416,-379,-62,-369,1,7,11
2.63E+02,-7658,-3914,1414,-187,-302,-84,1,7,11
2.63E+02,-7601,-3906,1434,-236,-220,375,1,7,11
2.64E+02,-7564,-3866,1487,-526,-628,519,1,7,11
2.64E+02,-7746,-3550,1806,-522,-489,620,1,7,11
2.64E+02,-7684,-3494,1893,-247,-798,408,1,7,11
2.64E+02,-7413,-3684,1738,-216,-815,393,1,7,11
2.65E+02,-7372,-3609,2071,-175,-844,596,1,7,11
2.65E+02,-7529,-3264,2126,-129,-856,249,1,7,11
2.65E+02,-7517,-3414,2163,-349,-506,376,1,7,11
2.65E+02,-7322,-3069,1936,-342,-637,302,1,7,11
2.66E+02,-7336,-3003,1945,-323,-236,309,1,7,11
2.66E+02,-7366,-2947,1976,-332,-309,347,1,7,11
2.66E+02,-7310,-2949,1967,-333,91,171,1,7,11
2.66E+02,-7427,-3200,1936,-321,-23,212,1,7,11
2.67E+02,-7453,-2945,1920,-313,145,156,1,7,11
2.67E+02,-7549,-3196,2161,-323,563,378,1,7,11
2.67E+02,-7314,-2956,2154,-373,248,143,1,7,11
2.67E+02,-7505,-2982,2136,-174,376,152,1,7,11
2.68E+02,-7427,-3026,2130,-523,-36,354,1,7,11
2.68E+02,-7141,-3068,2160,-607,60,-37,1,7,11
2.68E+02,-7491,-3346,1956,-406,-338,41,1,7,11
2.68E+02,-7387,-3070,2020,-418,-514,-323,1,7,11
2.69E+02,-7795,-3025,2341,-392,-435,-321,1,7,11
2.69E+02,-7591,-2977,2385,-605,-890,64,1,7,11
2.69E+02,-7567,-3158,2406,-550,-744,-32,1,7,11
2.69E+02,-7589,-3075,2193,-519,-745,343,1,7,11
2.70E+02,-7640,-2723,2242,-519,-699,194,1,7,11
2.70E+02,-7643,-2902,2560,-565,-655,558,1,7,11
2.70E+02,-7587,-2846,2621,-626,-860,633,1,7,11
2.70E+02,-7805,-2544,2654,-436,-500,634,1,7,11
2.71E+02,-7805,-2501,2433,-487,-620,590,1,7,11
2.71E+02,-7585,-2474,2442,-781,-204,534,1,7,11
2.71E+02,-7617,-2466,2671,-811,-307,240,1,7,11
2.71E+02,-7574,-2469,2616,-834,71,230,1,7,11
2.72E+02,-7578,-2467,2293,-838,257,191,1,7,11
2.72E+02,-7615,-2496,2225,-842,166,181,1,7,11
2.72E+02,-7585,-2546,2388,-827,540,209,1,7,11
2.72E+02,-7563,-2848,2036,-801,407,231,1,7,11
2.73E+02,-7771,-2893,1936,-778,493,520,1,7,11
2.73E+02,-7699,-2931,2113,-769,805,538,1,7,11
2.73E+02,-7418,-2700,1789,-504,831,528,1,7,11
2.73E+02,-7717,-2717,1737,-501,804,525,1,7,11
2.74E+02,-7580,-2723,1694,-499,491,543,1,7,11
2.74E+02,-7809,-2740,1681,-774,439,584,1,7,11
2.74E+02,-8088,-2744,1726,-801,578,428,1,7,11
2.74E+02,-8109,-2719,1787,-825,300,888,1,7,11
2.75E+02,-8234,-2923,2107,-832,42,762,1,7,11
2.75E+02,-7849,-2850,2148,-845,-168,1039,1,7,11
2.75E+02,-7603,-2540,2145,-852,-620,759,1,7,11
2.75E+02,-7399,-2501,2106,-869,-630,876,1,7,11
2.76E+02,-7551,-2510,2092,-655,-535,431,1,7,11
2.76E+02,-7426,-2848,2107,-688,-130,239,1,7,11
2.76E+02,-7476,-2882,2152,-685,112,-13,1,7,11
2.76E+02,-7322,-2763,1929,-876,271,77,1,7,11
2.77E+02,-7346,-3100,2172,-487,342,-259,1,7,11
2.77E+02,-7425,-3174,2147,-582,153,-322,1,7,11
2.77E+02,-7746,-2960,2116,-166,187,-375,1,7,11
2.77E+02,-7800,-2956,1788,-263,186,-378,1,7,11
2.78E+02,-7596,-3169,1700,111,381,-364,1,7,11
2.78E+02,-7633,-3124,1892,-123,299,-315,1,7,11
2.78E+02,-7663,-3078,1847,6,-60,16,1,7,11
2.78E+02,-7939,-2778,1815,-132,88,124,1,7,11
2.79E+02,-7613,-2753,1802,-546,-284,276,1,7,11
2.79E+02,-7726,-2763,1793,-453,-359,161,1,7,11
2.79E+02,-7401,-2785,1833,-855,-342,215,1,7,11
2.79E+02,-7398,-2812,1917,-695,-325,233,1,7,11
2.80E+02,-7388,-2808,1749,-714,-343,245,1,7,11
2.80E+02,-7411,-2767,2089,-683,-358,237,1,7,11
2.80E+02,-7704,-2704,1934,-864,-150,244,1,7,11
2.80E+02,-7692,-2885,1997,-483,-228,537,1,7,11
2.81E+02,-7708,-2528,2004,-580,-245,546,1,7,11
2.81E+02,-7782,-2437,2028,-194,-230,553,1,7,11
2.81E+02,-7574,-2600,2019,-340,-219,571,1,7,11
2.81E+02,-7559,-2276,1968,-274,-208,585,1,7,11
2.82E+02,-7703,-2244,2126,10,-169,558,1,7,11
2.82E+02,-7400,-2226,1733,-336,92,305,1,7,11
2.82E+02,-7684,-2255,1710,-228,-6,78,1,7,11
2.82E+02,-7685,-2302,1720,-638,345,-160,1,7,11
2.83E+02,-7717,-2628,1751,-512,378,-392,1,7,11
2.83E+02,-7714,-2471,1772,-849,356,-832,1,7,11
2.83E+02,-7688,-2828,1767,-860,335,-728,1,7,11
2.83E+02,-7710,-2934,1751,-824,362,-1119,1,7,11
2.84E+02,-7779,-2766,1750,-490,162,-960,1,7,11
2.84E+02,-7649,-2808,1773,-636,212,-982,1,7,11
2.84E+02,-8007,-2816,2050,-250,215,-905,1,7,11
2.84E+02,-8043,-2805,2068,-131,150,-735,1,7,11
2.85E+02,-8028,-2771,2071,-275,330,-791,1,7,11
2.85E+02,-8023,-2737,2067,73,271,-590,1,7,11
2.85E+02,-8001,-2710,1758,-100,-45,-357,1,7,11
2.85E+02,-7987,-2709,1689,-58,-76,-99,1,7,11
2.86E+02,-7950,-2725,1860,-51,-89,175,1,7,11
2.86E+02,-7674,-2742,1535,-80,-38,418,1,7,11
2.86E+02,-7633,-2753,1494,117,296,870,1,7,11
2.86E+02,-7781,-2754,1482,53,363,746,1,7,11
2.87E+02,-7399,-2751,1461,-280,183,764,1,7,11
2.87E+02,-7342,-2746,1470,-135,536,650,1,7,11
2.87E+02,-7345,-2738,1502,-518,595,456,1,7,11
2.87E+02,-7356,-2738,1796,-638,588,226,1,7,11
2.88E+02,-7385,-2752,1826,-478,547,259,1,7,11
2.88E+02,-7402,-2789,1812,-785,221,76,1,7,11
2.88E+02,-7420,-3110,1523,-793,170,-330,1,7,11
2.88E+02,-7682,-3015,1644,-770,135,-180,1,7,11
2.89E+02,-7696,-3377,1277,-467,137,-525,1,7,11
2.89E+02,-7790,-3455,1170,-411,192,-626,1,7,11
2.89E+02,-7572,-3257,1310,-615,208,-596,1,7,11
2.89E+02,-7601,-3279,975,-580,193,-566,1,7,11
2.90E+02,-7669,-3268,935,-567,199,-239,1,7,11
2.90E+02,-7989,-3249,918,-580,173,-313,1,7,11
2.90E+02,-8009,-3224,945,-613,289,96,1,7,11
2.90E+02,-7997,-3442,996,-401,-117,-28,1,7,11
2.91E+02,-7966,-3396,1331,-478,-310,328,1,7,11
2.91E+02,-7656,-3345,1174,-771,-524,381,1,7,11
2.91E+02,-7801,-3022,1274,-794,-499,135,1,7,11
2.91E+02,-7683,-2968,1653,-814,-689,323,1,7,11
2.92E+02,-7333,-3174,1810,-816,-1099,-79,1,7,11
2.92E+02,-7318,-3103,1748,-777,-961,-306,1,7,11
2.92E+02,-7379,-2770,1962,-439,-1354,-555,1,7,11
2.92E+02,-7419,-2921,2413,-576,-1543,-775,1,7,11
2.93E+02,-7695,-2538,2562,-194,-1464,-703,1,7,11
2.93E+02,-7422,-2684,2654,-339,-1840,-1074,1,7,11
2.93E+02,-7396,-2613,2445,3,-1837,-1136,1,7,11
2.93E+02,-7322,-2573,2442,60,-1450,-1129,1,7,11
2.94E+02,-7548,-2302,2432,81,-1386,-1111,1,7,11
2.94E+02,-7304,-2577,2451,66,-731,-1063,1,7,11
2.94E+02,-7530,-2641,2465,38,-611,-733,1,7,11
2.94E+02,-7508,-2460,2496,20,5,-698,1,7,11
2.95E+02,-7536,-2554,2499,46,298,-697,1,7,11
2.95E+02,-7519,-2908,2435,108,254,-698,1,7,11
2.95E+02,-7490,-2765,2575,-68,464,-731,1,7,11
2.95E+02,-7492,-3143,2397,274,706,-1044,1,7,11
2.96E+02,-7517,-3030,1925,355,970,-1088,1,7,11
2.96E+02,-7321,-3434,1681,178,1222,-1103,1,7,11
2.96E+02,-7337,-3327,1414,228,1425,-1058,1,7,11
2.96E+02,-7343,-3475,1401,235,1851,-748,1,7,11
2.97E+02,-7688,-3864,933,179,1733,-710,1,7,11
2.97E+02,-7565,-3725,1087,327,1740,-649,1,7,11
2.97E+02,-7651,-3813,1058,-35,1820,-809,1,7,11
2.97E+02,-8022,-4102,1082,-128,1242,-446,1,7,11
2.98E+02,-7901,-3837,952,53,1055,-559,1,7,11
2.98E+02,-7879,-4104,979,-258,179,-326,1,7,11
2.98E+02,-7674,-3781,998,-276,-139,-82,1,7,11
2.98E+02,-7592,-3946,1294,-312,-804,-29,1,7,11
2.99E+02,-7791,-3849,1357,-365,-1100,141,1,7,11
2.99E+02,-7781,-3501,1203,-175,-1084,526,1,7,11
2.99E+02,-7748,-3686,1599,-515,-1218,417,1,7,11
2.99E+02,-7713,-3619,1486,-390,-1594,780,1,7,11
3.00E+02,-7417,-3288,1891,-461,-1458,844,1,7,11
3.00E+02,-7376,-3218,1773,-512,-1807,872,1,7,11
3.00E+02,-7327,-3407,2169,-798,-1861,873,1,7,11
3.00E+02,-7527,-3334,2313,-808,-1872,852,1,7,11
3.01E+02,-7497,-3006,2215,-794,-1824,799,1,7,11
3.01E+02,-7500,-3195,2645,-490,-1495,467,1,7,11
3.01E+02,-7482,-3122,2551,-406,-1432,394,1,7,11
3.01E+02,-7481,-2785,2711,-561,-1610,558,1,7,11
3.02E+02,-7504,-2939,3133,-175,-1545,213,1,7,11
3.02E+02,-7301,-2820,3020,-289,-1234,137,1,7,11
3.02E+02,-7315,-2456,3400,97,-1225,370,1,7,11
3.02E+02,-7533,-2611,3219,-39,-1202,368,1,7,11
3.03E+02,-7462,-2285,3245,307,-1382,347,1,7,11
3.03E+02,-7105,-2233,3243,366,-961,285,1,7,11
3.03E+02,-7058,-2194,3255,379,-686,-91,1,7,11
3.03E+02,-7280,-2188,3272,366,-392,21,1,7,11
3.04E+02,-7237,-2207,3273,366,-363,-135,1,7,11
3.04E+02,-7246,-2239,3262,133,-73,-565,1,7,11
3.04E+02,-7077,-2589,3200,199,580,-773,1,7,11
3.04E+02,-7149,-2683,3375,527,805,-849,1,7,11
3.05E+02,-7439,-2817,3013,607,739,-858,1,7,11
3.05E+02,-7133,-2729,3140,461,915,-838,1,7,11
3.05E+02,-7278,-3157,2699,866,1370,-857,1,7,11
3.05E+02,-7182,-3060,2479,1041,1625,-703,1,7,11
3.06E+02,-6908,-3207,2215,960,1906,-1135,1,7,11
3.06E+02,-7278,-3586,1955,1344,2164,-1349,1,7,11
3.06E+02,-7509,-3687,1739,1396,2035,-1256,1,7,11
3.06E+02,-7729,-3519,1822,1339,1923,-1571,1,7,11
3.07E+02,-7659,-3842,1440,928,1849,-1280,1,7,11
3.07E+02,-8063,-3901,1620,681,1349,-1165,1,7,11
3.07E+02,-8062,-3941,1561,384,478,-971,1,7,11
3.07E+02,-8020,-3953,1279,318,-69,-1035,1,7,11
3.08E+02,-7993,-3948,1575,-280,-535,-823,1,7,11
3.08E+02,-7680,-3935,1657,-603,-679,-573,1,7,11
3.08E+02,-7564,-3911,1832,-867,-988,-318,1,7,11
3.08E+02,-7705,-3899,1708,-1062,-1213,-71,1,7,11
3.09E+02,-7364,-3872,2119,-941,-1585,192,1,7,11
3.09E+02,-7316,-3571,2030,-1013,-1625,539,1,7,11
3.09E+02,-7501,-3528,2430,-1294,-1630,593,1,7,11
3.09E+02,-7427,-3469,2587,-998,-1588,593,1,7,11
3.10E+02,-7159,-3657,2475,-940,-1237,555,1,7,11
3.10E+02,-7139,-3593,2865,-1110,-1392,516,1,7,11
3.10E+02,-7157,-3254,2741,-740,-1007,207,1,7,11
3.10E+02,-7436,-3419,3126,-851,-1136,163,1,7,11
3.11E+02,-7465,-3060,2993,-428,-1028,141,1,7,11
3.11E+02,-7512,-2954,3352,-250,-685,138,1,7,11
3.11E+02,-7536,-3120,3442,-329,-891,171,1,7,11
3.11E+02,-7497,-2788,3239,94,-839,217,1,7,11
3.12E+02,-7439,-2735,3264,-6,-488,235,1,7,11
3.12E+02,-7105,-2700,3236,138,-588,225,1,7,11
3.12E+02,-7275,-2933,3418,523,-316,194,1,7,11
3.12E+02,-7290,-2943,3364,609,346,379,1,7,11
3.13E+02,-7268,-2718,3043,407,471,338,1,7,11
3.13E+02,-7217,-2764,2961,427,1100,-4,1,7,11
3.13E+02,-7184,-3088,3153,409,1173,103,1,7,11
3.13E+02,-7222,-3196,2779,637,1431,-344,1,7,11
3.14E+02,-7292,-2986,2727,607,1835,-523,1,7,11
3.14E+02,-7122,-3337,2867,566,1887,-412,1,7,11
3.14E+02,-7166,-3436,2674,536,1867,-769,1,7,11
3.14E+02,-7503,-3249,2564,513,1841,-855,1,7,11
3.15E+02,-7352,-3292,2199,239,1793,-889,1,7,11
3.15E+02,-7439,-3319,2358,207,1445,-842,1,7,11
3.15E+02,-7413,-3326,2010,160,1576,-481,1,7,11
3.15E+02,-7364,-3322,1934,353,1170,-567,1,7,11
3.16E+02,-7360,-3304,2144,200,971,-239,1,7,11
3.16E+02,-7365,-3295,2136,64,1054,-162,1,7,11
3.16E+02,-7334,-3284,2147,-341,840,-325,1,7,11
3.16E+02,-7548,-3292,1936,-235,626,10,1,7,11
3.17E+02,-7512,-3309,1988,-616,169,74,1,7,11
3.17E+02,-7491,-3601,2331,-453,265,121,1,7,11
3.17E+02,-7480,-3630,2189,-492,-115,-95,1,7,11
3.17E+02,-7299,-3637,2589,-465,78,-65,1,7,11
3.18E+02,-7418,-3615,2468,-615,40,259,1,7,11
3.18E+02,-7733,-3589,2538,-208,-276,166,1,7,11
3.18E+02,-7406,-3285,2524,-279,-260,623,1,7,11
3.18E+02,-7696,-3206,2524,123,-77,495,1,7,11
3.19E+02,-7742,-3366,2496,-16,360,884,1,7,11
3.19E+02,-7409,-3018,2668,308,245,762,1,7,11
3.19E+02,-7328,-3171,2298,333,455,1074,1,7,11
3.19E+02,-7344,-3119,2188,275,685,1067,1,7,11
3.20E+02,-7314,-3114,2343,-51,1100,1051,1,7,11
3.20E+02,-7300,-3123,2002,-109,1010,710,1,7,11
3.20E+02,-7375,-3120,1936,124,1161,828,1,7,11
3.20E+02,-7761,-3083,2147,-120,1255,449,1,7,11
3.21E+02,-7680,-2762,2086,-91,1256,402,1,7,11
3.21E+02,-7638,-2724,1749,-53,1334,454,1,7,11
3.21E+02,-7754,-2691,1894,-19,958,478,1,7,11
3.21E+02,-7411,-2899,1804,-65,915,406,1,7,11
3.22E+02,-7409,-2858,1508,92,1135,538,1,7,11
3.22E+02,-7395,-2817,1490,-293,1037,183,1,7,11
3.22E+02,-7418,-2538,1499,-185,653,355,1,7,11
3.22E+02,-7725,-2549,1793,-592,485,294,1,7,11
3.23E+02,-7758,-2844,1862,-457,553,-5,1,7,11
3.23E+02,-7799,-2882,1698,-776,381,-69,1,7,11
3.23E+02,-7608,-2896,2057,-775,-29,116,1,7,11
3.23E+02,-7633,-2906,2143,-459,74,83,1,7,11
3.24E+02,-7636,-2914,1957,-626,-296,73,1,7,11
3.24E+02,-7586,-2922,2007,-545,-137,63,1,7,11
3.24E+02,-7742,-2941,2014,-203,-182,29,1,7,11
3.24E+02,-7396,-2710,1978,-379,-377,-312,1,7,11
3.25E+02,-7414,-2727,1946,-299,69,-162,1,7,11
3.25E+02,-7745,-2767,1930,42,295,-214,1,7,11
3.25E+02,-7750,-3099,2128,-100,242,-184,1,7,11
3.25E+02,-7719,-3183,2053,300,486,-162,1,7,11
3.26E+02,-7730,-2978,1732,190,757,-176,1,7,11
3.26E+02,-7787,-2994,1919,599,990,-207,1,7,11
3.26E+02,-7598,-2980,1854,469,1387,-204,1,7,11
3.26E+02,-7605,-2945,1497,833,1181,-146,1,7,11
3.27E+02,-7625,-3137,1651,892,1202,-322,1,7,11
3.27E+02,-7647,-2813,1570,884,1166,49,1,7,11
3.27E+02,-7632,-2760,1246,815,1334,-73,1,7,11
3.27E+02,-7620,-2727,1181,453,950,312,1,7,11
3.28E+02,-7614,-2714,1391,569,1054,169,1,7,11
3.28E+02,-7625,-2709,1370,169,642,246,1,7,11
3.28E+02,-7675,-2691,1369,278,483,546,1,7,11
3.28E+02,-7970,-2927,1387,-118,550,591,1,7,11
3.29E+02,-7973,-2905,1400,12,347,634,1,7,11
3.29E+02,-7978,-2877,1155,-355,-80,397,1,7,11
3.29E+02,-7999,-2851,1187,-202,41,395,1,7,11
3.29E+02,-7976,-2825,1217,-552,-346,390,1,7,11
3.30E+02,-7666,-2541,1258,-624,-176,613,1,7,11
3.30E+02,-7638,-2510,1550,-417,-197,549,1,7,11
3.30E+02,-7619,-2494,1582,-439,-165,230,1,7,11
3.30E+02,-7613,-2492,1629,-421,-339,173,1,7,11
3.31E+02,-7631,-2492,1653,-626,43,130,1,7,11
3.31E+02,-7648,-2480,1416,-532,-67,350,1,7,11
3.31E+02,-7969,-2458,1415,-172,342,312,1,7,11
3.31E+02,-7942,-2676,1634,-325,176,301,1,7,11
3.32E+02,-7641,-2621,1548,-257,245,273,1,7,11
3.32E+02,-7597,-2583,1205,-268,582,-13,1,7,11
3.32E+02,-7567,-2293,1373,-149,631,-54,1,7,11
3.32E+02,-7555,-2288,1317,-569,402,-80,1,7,11
3.33E+02,-7797,-2573,1292,-488,389,-84,1,7,11
3.33E+02,-7792,-2652,1289,-659,588,-90,1,7,11
3.33E+02,-7805,-2494,1315,-1045,250,-116,1,7,11
3.33E+02,-7585,-2854,1354,-1121,382,88,1,7,11
3.34E+02,-7628,-2922,1390,-1117,-31,30,1,7,11
3.34E+02,-8013,-2944,1185,-1057,80,-278,1,7,11
3.34E+02,-7869,-2938,1236,-693,-375,23,1,7,11
3.34E+02,-7928,-2906,1537,-808,-558,-125,1,7,11
3.35E+02,-8193,-2852,1595,-414,-462,267,1,7,11
3.35E+02,-7886,-2517,1653,-550,-841,377,1,7,11
3.35E+02,-7809,-2436,1443,-224,-671,161,1,7,11
3.35E+02,-7942,-2624,1470,-199,-726,141,1,7,11
3.36E+02,-7804,-2579,1469,-206,-705,311,1,7,11
3.36E+02,-7752,-2299,1469,-246,-836,-94,1,7,11
3.36E+02,-7760,-2302,1487,-544,-418,11,1,7,11
3.36E+02,-7802,-2588,1466,-564,-250,-364,1,7,11
3.37E+02,-7801,-2635,1433,-579,-367,-193,1,7,11
3.37E+02,-7806,-2445,1655,-606,23,-529,1,7,11
3.37E+02,-7590,-2492,1633,-387,125,-594,1,7,11
3.37E+02,-7945,-2526,1628,-424,-47,-639,1,7,11
3.38E+02,-7999,-2556,1635,-445,-30,-559,1,7,11
3.38E+02,-7974,-2836,1625,-445,-110,-174,1,7,11
3.38E+02,-7962,-2841,1613,-436,104,-308,1,7,11
3.38E+02,-7677,-2839,1623,-458,52,61,1,7,11
3.39E+02,-7632,-2832,1639,-511,-275,-122,1,7,11
3.39E+02,-7583,-2817,1429,-843,-362,-96,1,7,11
3.39E+02,-7578,-2536,1510,-671,-205,-104,1,7,11
3.39E+02,-7605,-2514,1883,-737,-580,-111,1,7,11
3.40E+02,-7651,-2474,1758,-746,-472,-98,1,7,11
3.40E+02,-7662,-2439,2102,-703,-891,-50,1,7,11
3.40E+02,-7621,-2679,2127,-871,-766,267,1,7,11
3.40E+02,-7801,-2662,2113,-778,-1054,304,1,7,11
3.41E+02,-7740,-2654,2088,-443,-699,283,1,7,11
3.41E+02,-7683,-2669,2051,-639,-792,-25,1,7,11
3.41E+02,-7373,-2438,1739,-576,-586,-97,1,7,11
3.41E+02,-7367,-2484,1918,-520,-335,59,1,7,11
3.42E+02,-7417,-2820,1818,-235,-89,-293,1,7,11
3.42E+02,-7706,-2917,1465,-233,365,-129,1,7,11
3.42E+02,-7751,-2775,1613,-246,530,-234,1,7,11
3.42E+02,-7793,-3127,1228,-256,394,-576,1,7,11
3.43E+02,-7645,-3198,1378,-514,770,-633,1,7,11
3.43E+02,-8061,-2977,1294,-519,825,-605,1,7,11
3.43E+02,-7889,-3007,973,-528,502,-208,1,7,11
3.43E+02,-7918,-3004,936,-526,628,-277,1,7,11
3.44E+02,-8207,-2972,927,-523,198,-83,1,7,11
3.44E+02,-8198,-3180,939,-530,-30,377,1,7,11
3.44E+02,-7880,-3109,955,-554,-277,560,1,7,11
3.44E+02,-8041,-2782,998,-607,-248,440,1,7,11
3.45E+02,-7985,-2942,1296,-420,-419,502,1,7,11
3.45E+02,-7961,-2838,1353,-509,-822,799,1,7,11
3.45E+02,-7667,-2482,1384,-866,-692,843,1,7,11
3.45E+02,-7631,-2613,1400,-733,-759,656,1,7,11
3.46E+02,-7624,-2574,1400,-1141,-739,721,1,7,11
3.46E+02,-7610,-2303,1384,-1384,-681,1048,1,7,11
3.46E+02,-7658,-2577,1403,-1548,-822,1093,1,7,11
3.46E+02,-7978,-2626,1177,-1436,-489,1150,1,7,11
3.47E+02,-7985,-2680,1195,-1797,-473,936,1,7,11
3.47E+02,-8040,-2460,1229,-1891,-483,920,1,7,11
3.47E+02,-7832,-2485,1545,-1717,-831,1146,1,7,11
3.47E+02,-7839,-2492,1606,-1776,-739,1103,1,7,11
3.48E+02,-7879,-2461,1418,-2064,-910,1033,1,7,11
3.48E+02,-7921,-2649,1501,-2084,-1353,726,1,7,11
3.48E+02,-7909,-2561,1840,-2095,-1559,733,1,7,11
3.48E+02,-7880,-2197,1670,-2090,-1447,753,1,7,11
3.49E+02,-7887,-2347,1771,-2085,-1795,1056,1,7,11
3.49E+02,-7846,-2000,2166,-2059,-1883,1149,1,7,11
3.49E+02,-8058,-2147,1982,-1773,-1668,981,1,7,11
3.49E+02,-7676,-2108,1991,-1735,-1716,1338,1,7,11
3.50E+02,-7752,-2090,1980,-1680,-1904,1371,1,7,11
3.50E+02,-7752,-2077,1970,-1878,-1444,1311,1,7,11
3.50E+02,-7788,-2072,1939,-1806,-1174,1023,1,7,11
3.50E+02,-7583,-2077,2173,-1473,-972,1001,1,7,11
3.51E+02,-7622,-2096,2169,-1612,-452,983,1,7,11
3.51E+02,-7667,-2118,1932,-1265,-226,938,1,7,11
3.51E+02,-7979,-2124,1957,-1160,-307,1121,1,7,11
3.51E+02,-8026,-2099,1987,-1292,74,1033,1,7,11
3.52E+02,-7810,-1790,2024,-912,-115,691,1,7,11
3.52E+02,-7818,-1720,2036,-1032,-109,887,1,7,11
3.52E+02,-7844,-1891,2039,-896,-115,843,1,7,11
3.52E+02,-7855,-1821,2043,-792,115,839,1,7,11
3.53E+02,-8040,-1530,2023,-441,84,850,1,7,11
3.53E+02,-7954,-1491,1990,-607,111,808,1,7,11
3.53E+02,-7653,-1452,1959,-519,-62,466,1,7,11
3.53E+02,-7660,-1425,2175,-186,313,629,1,7,11
3.54E+02,-7939,-1663,2132,-370,183,557,1,7,11
3.54E+02,-7961,-1410,2048,-295,559,246,1,7,11
3.54E+02,-8008,-1410,1689,37,426,192,1,7,11
3.54E+02,-7818,-1412,1846,92,788,147,1,7,11
3.55E+02,-7923,-1424,1512,117,853,370,1,7,11
3.55E+02,-8286,-1458,1457,-123,842,352,1,7,11
3.55E+02,-8071,-1492,1411,-105,488,345,1,7,11
3.55E+02,-8080,-1524,1642,-106,623,293,1,7,11
3.56E+02,-8085,-1797,1626,-113,220,-53,1,7,11
3.56E+02,-8115,-1816,1647,-122,331,88,1,7,11
3.56E+02,-8154,-1843,1410,126,-89,-275,1,7,11
3.56E+02,-8131,-1870,1449,117,-267,-356,1,7,11
3.57E+02,-8100,-1884,1504,105,-171,-212,1,7,11
3.57E+02,-8313,-1902,1815,87,-388,-526,1,7,11
3.57E+02,-8276,-1905,1894,54,-777,-562,1,7,11
3.57E+02,-8201,-1892,1704,-263,-665,-552,1,7,11
3.58E+02,-7856,-1869,1763,-318,-1033,-522,1,7,11
3.58E+02,-8058,-1833,2066,-136,-1090,-226,1,7,11
3.58E+02,-8002,-1794,2097,-229,-1127,-150,1,7,11
3.58E+02,-7952,-1485,2107,-589,-1117,-313,1,7,11
3.59E+02,-7950,-1416,2074,-472,-1053,53,1,7,11
3.59E+02,-7974,-1614,1779,-690,-698,-58,1,7,11
3.59E+02,-8037,-1581,1760,-979,-831,351,1,7,11
3.59E+02,-7818,-1598,2062,-1575,-461,252,1,7,11
3.60E+02,-7834,-1658,2150,-1894,-619,609,1,7,11
3.60E+02,-7848,-1467,1998,-2143,-535,632,1,7,11
3.60E+02,-7877,-1536,2363,-2045,-196,583,1,7,11
3.60E+02,-7918,-1855,2205,-2377,-384,234,1,7,11
3.61E+02,-7926,-1913,2286,-2368,-348,134,1,7,11
3.61E+02,-7881,-1708,2605,-2037,-327,270,1,7,11
3.61E+02,-7838,-1759,2670,-2176,-315,-128,1,7,11
3.61E+02,-8036,-2084,2462,-1757,-336,-277,1,7,11
3.62E+02,-8001,-2146,2480,-1802,-366,-181,1,7,11
3.62E+02,-7948,-1930,2481,-1578,-159,-584,1,7,11
3.62E+02,-7628,-1948,2487,-1352,-197,-456,1,7,11
3.62E+02,-7617,-1949,2499,-1130,-212,-823,1,7,11
3.63E+02,-7635,-1954,2524,-647,-246,-880,1,7,11
3.63E+02,-7614,-1948,2526,-412,-551,-879,1,7,11
3.63E+02,-7590,-1922,2544,-202,-565,-866,1,7,11
3.63E+02,-7566,-2155,2829,-286,-566,-837,1,7,11
3.64E+02,-7804,-2110,2844,119,-538,-818,1,7,11
3.64E+02,-7555,-2063,2863,-16,-240,-788,1,7,11
3.64E+02,-7560,-1766,2863,337,-177,-488,1,7,11
3.64E+02,-7562,-1735,2864,151,-352,-450,1,7,11
3.65E+02,-7783,-1708,2877,190,-266,-420,1,7,11
3.65E+02,-7755,-1687,2908,210,87,-429,1,7,11
3.65E+02,-7768,-1685,2694,222,-82,-482,1,7,11
3.65E+02,-7794,-1679,2729,231,-29,-810,1,7,11
3.66E+02,-7799,-1917,2749,236,-11,-880,1,7,11
3.66E+02,-7802,-1914,2734,233,272,-733,1,7,11
3.66E+02,-7774,-1908,2691,231,291,-1030,1,7,11
3.66E+02,-7555,-1666,2889,228,178,-1062,1,7,11
3.67E+02,-7579,-1711,2837,172,528,-1047,1,7,11
3.67E+02,-7560,-1771,2534,367,603,-753,1,7,11
3.67E+02,-7577,-2081,2501,310,423,-729,1,7,11
3.67E+02,-7650,-2129,2453,-1,478,-695,1,7,11
3.68E+02,-7991,-1925,2676,-76,487,-876,1,7,11
3.68E+02,-7992,-1983,2656,90,435,-503,1,7,11
3.68E+02,-7943,-2045,2657,20,627,-409,1,7,11
3.68E+02,-7666,-2354,2654,-263,598,-615,1,7,11
3.69E+02,-7956,-2398,2681,-260,576,-577,1,7,11
3.69E+02,-7965,-2184,2449,33,520,-525,1,7,11
3.69E+02,-7961,-2199,2465,95,207,-226,1,7,11
3.69E+02,-7941,-2201,2483,-81,147,-198,1,7,11
3.70E+02,-7962,-2179,2498,269,368,-195,1,7,11
3.70E+02,-8014,-2397,2499,359,326,-175,1,7,11
3.70E+02,-8029,-2350,2492,176,257,-375,1,7,11
3.70E+02,-8028,-2044,2490,221,-59,-312,1,7,11
3.71E+02,-8049,-1992,2482,241,-104,5,1,7,11
3.71E+02,-8059,-1939,2533,235,91,114,1,7,11
3.71E+02,-8016,-2160,2549,237,-299,-79,1,7,11
3.71E+02,-8005,-2121,2559,229,-367,-52,1,7,11
3.72E+02,-8000,-2084,2833,196,-185,-29,1,7,11
3.72E+02,-7990,-2051,2836,157,-527,-9,1,7,11
3.72E+02,-7990,-1785,2852,356,-613,261,1,7,11
3.72E+02,-7944,-2053,2848,295,-462,276,1,7,11
3.73E+02,-7664,-2061,2855,-31,-784,-10,1,7,11
3.73E+02,-7655,-2079,2890,-98,-837,-51,1,7,11
3.73E+02,-7669,-2108,2910,112,-880,-95,1,7,11
3.73E+02,-7939,-2122,2920,85,-646,127,1,7,11
3.74E+02,-7673,-2132,2899,66,-650,120,1,7,11
3.74E+02,-7666,-2156,2894,50,-865,123,1,7,11
3.74E+02,-7656,-2175,2875,37,-803,-119,1,7,11
3.74E+02,-7666,-1932,2866,31,-470,-107,1,7,11
3.75E+02,-7672,-1943,2846,16,-409,-82,1,7,11
3.75E+02,-7667,-1944,2848,-263,-614,-55,1,7,11
3.75E+02,-7656,-1950,2854,-297,-580,-24,1,7,11
3.75E+02,-7636,-1974,2863,-331,-556,-3,1,7,11
3.76E+02,-7581,-1997,2873,-354,-547,-1,1,7,11
3.76E+02,-7794,-2003,2852,-369,-251,-38,1,7,11
3.76E+02,-7764,-2016,2850,-145,-212,-86,1,7,11
3.76E+02,-7713,-2036,2839,-188,-175,118,1,7,11
3.77E+02,-7704,-2319,2839,-233,-368,38,1,7,11
3.77E+02,-7722,-2349,2821,-524,-304,-282,1,7,11
3.77E+02,-7721,-2391,2548,-553,18,-310,1,7,11
3.77E+02,-7727,-2204,2533,-565,116,-329,1,7,11
3.78E+02,-7776,-2228,2532,-579,-46,-322,1,7,11
3.78E+02,-7799,-2261,2533,-586,264,-277,1,7,11
3.78E+02,-7805,-2283,2522,-577,293,29,1,7,11
3.78E+02,-7578,-2297,2499,-559,321,86,1,7,11
3.79E+02,-7603,-2300,2503,-539,347,-91,1,7,11
3.79E+02,-7628,-2268,2492,-212,138,-1,1,7,11
3.79E+02,-7631,-2179,2450,-362,192,379,1,7,11
3.79E+02,-7594,-2387,2650,14,552,252,1,7,11
3.80E+02,-7621,-2353,2637,96,471,590,1,7,11
3.80E+02,-7645,-2336,2663,-116,662,592,1,7,11
3.80E+02,-7649,-2313,2672,-64,1103,523,1,7,11
3.80E+02,-7614,-2037,2648,300,1130,174,1,7,11
3.81E+02,-7798,-2019,2585,382,1128,317,1,7,11
3.81E+02,-7796,-2017,2226,196,1151,-83,1,7,11
3.81E+02,-7802,-2042,2373,247,911,51,1,7,11
3.81E+02,-7580,-2336,1998,538,947,-314,1,7,11
3.82E+02,-7657,-2381,2171,557,978,-141,1,7,11
3.82E+02,-7984,-2179,2131,571,977,-191,1,7,11
3.82E+02,-8050,-2228,2121,605,922,-211,1,7,11
3.82E+02,-7818,-2264,2102,400,1083,-215,1,7,11
3.83E+02,-7811,-2279,2103,452,725,-220,1,7,11
3.83E+02,-8038,-2281,2115,779,886,-232,1,7,11
3.83E+02,-8022,-2277,2129,851,814,-246,1,7,11
3.83E+02,-8028,-2268,2147,670,500,-523,1,7,11
3.84E+02,-8018,-2254,2156,738,428,-518,1,7,11
3.84E+02,-7995,-2240,2160,1054,386,-514,1,7,11
3.84E+02,-7993,-2218,1926,1098,617,-251,1,7,11
3.84E+02,-7967,-2199,1943,1129,596,-239,1,7,11
3.85E+02,-7937,-2183,1971,1142,581,-235,1,7,11
3.85E+02,-7940,-2410,1995,1139,571,-240,1,7,11
3.85E+02,-7950,-2372,2006,1126,541,-246,1,7,11
3.85E+02,-7948,-2323,1996,1100,239,-236,1,7,11
3.86E+02,-7951,-2022,1971,1044,207,-207,1,7,11
3.86E+02,-7938,-1991,1930,697,191,-159,1,7,11
3.86E+02,-7662,-1972,2170,820,197,-370,1,7,11
3.86E+02,-7648,-1967,1920,406,215,-341,1,7,11
3.87E+02,-7659,-1980,1961,250,232,-335,1,7,11
3.87E+02,-7945,-2004,2019,130,210,-331,1,7,11
3.87E+02,-7946,-2041,2335,319,132,-313,1,7,11
3.87E+02,-7656,-2311,2341,307,284,-305,1,7,11
3.88E+02,-7632,-2313,2338,323,-93,-348,1,7,11
3.88E+02,-7640,-2318,2346,334,93,-161,1,7,11
3.88E+02,-7646,-2311,2395,311,-280,-249,1,7,11
3.88E+02,-7655,-2046,2195,269,-206,-610,1,7,11
3.89E+02,-7662,-2021,2244,-36,-441,-458,1,7,11
3.89E+02,-7665,-1989,2261,-100,-675,-780,1,7,11
3.89E+02,-7665,-1970,2292,49,-1116,-782,1,7,11
3.89E+02,-7652,-1964,2610,-343,-973,-465,1,7,11
3.90E+02,-7629,-1975,2460,-228,-1018,-626,1,7,11
3.90E+02,-7617,-1994,2831,-598,-1018,-514,1,7,11
3.90E+02,-7590,-2005,2689,-411,-1006,-138,1,7,11
3.90E+02,-7799,-2005,2760,-442,-963,-282,1,7,11
3.91E+02,-7768,-2003,3078,-437,-1123,68,1,7,11
3.91E+02,-7764,-1994,3116,-394,-731,-107,1,7,11
3.91E+02,-7759,-1973,3134,-568,-819,-28,1,7,11
3.91E+02,-7773,-1952,3135,-208,-621,300,1,7,11
3.92E+02,-7806,-1924,3112,-347,-162,367,1,7,11
3.92E+02,-7593,-2143,3073,21,42,164,1,7,11
3.92E+02,-7671,-2100,2769,-125,-17,218,1,7,11
3.92E+02,-7966,-1791,2940,-4,152,553,1,7,11
3.93E+02,-7995,-1727,2817,365,595,391,1,7,11
3.93E+02,-8046,-1912,2445,190,813,487,1,7,11
3.93E+02,-7826,-1845,2297,243,1126,655,1,7,11
3.93E+02,-7822,-1812,2225,516,1312,738,1,7,11
3.94E+02,-8048,-1798,2407,529,1198,1044,1,7,11
3.94E+02,-8044,-1802,2354,545,1568,1034,1,7,11
3.94E+02,-8033,-1825,2320,563,1626,727,1,7,11
3.94E+02,-8031,-1861,2310,588,1640,876,1,7,11
3.95E+02,-8052,-1898,2314,400,1606,475,1,7,11
3.95E+02,-7842,-1671,2317,510,1260,576,1,7,11
3.95E+02,-7920,-1691,2329,641,1367,173,1,7,11
3.95E+02,-8207,-1690,2318,1038,1126,320,1,7,11
3.96E+02,-8221,-1914,2016,917,874,-39,1,7,11
3.96E+02,-8226,-1861,1947,1007,635,-128,1,7,11
3.96E+02,-8261,-1519,2150,1283,202,55,1,7,11
3.96E+02,-8297,-1438,2128,970,292,35,1,7,11
3.97E+02,-8307,-1614,2107,1116,-107,63,1,7,11
3.97E+02,-8312,-1547,2092,705,33,125,1,7,11
3.97E+02,-8309,-1243,2092,769,-303,-50,1,7,11
3.97E+02,-8291,-1212,2134,556,-359,295,1,7,11
3.98E+02,-8266,-1202,1937,350,-145,376,1,7,11
3.98E+02,-8243,-1202,2005,-79,-186,180,1,7,11
3.98E+02,-8213,-1202,2325,43,-224,218,1,7,11
3.98E+02,-7924,-1209,2395,-303,-246,229,1,7,11
3.99E+02,-7898,-1213,2208,-350,-254,225,1,7,11
3.99E+02,-7885,-1211,2289,-352,-247,202,1,7,11
3.99E+02,-7868,-1212,2617,-308,-246,170,1,7,11
3.99E+02,-7829,-1203,2661,33,-240,381,1,7,11
4.00E+02,-7821,-1343,2521,376,-342,-379,1,7,11
4.00E+02,-7834,-1355,2540,339,-292,-191,1,7,11
4.00E+02,-7812,-1397,2832,308,2,-254,1,7,11
4.00E+02,-8063,-1204,2859,277,66,-616,1,7,11
4.01E+02,-7838,-1262,2902,-2,117,-484,1,7,11
4.01E+02,-8022,-1573,2924,-13,121,-852,1,7,11
4.01E+02,-7678,-1626,2916,-28,-121,-739,1,7,11
4.01E+02,-7555,-1429,2882,-36,-100,-1145,1,7,11
4.02E+02,-7708,-1481,2559,-38,-39,-1315,1,7,11
4.02E+02,-7412,-1533,2478,-55,332,-1218,1,7,11
4.02E+02,-7358,-1863,2650,-98,176,-1571,1,7,11
4.02E+02,-7515,-1734,2578,89,533,-1653,1,7,11
4.03E+02,-7484,-2152,2297,7,637,-1522,1,7,11
4.03E+02,-7462,-2313,2300,-301,412,-1674,1,7,11
4.03E+02,-7482,-2199,2568,-317,386,-2096,1,7,11
4.03E+02,-7516,-2585,2564,-297,548,-1973,1,7,11
4.04E+02,-7316,-2437,2285,10,186,-2333,1,7,11
4.04E+02,-7415,-2527,2286,55,328,-2394,1,7,11
4.04E+02,-7746,-2852,2562,112,-83,-2403,1,7,11
4.04E+02,-7558,-2881,2571,-78,13,-2378,1,7,11
4.05E+02,-7618,-2895,2579,-24,-146,-2321,1,7,11
4.05E+02,-7678,-2898,2615,260,-544,-1986,1,7,11
4.05E+02,-8028,-2891,2670,-4,-403,-2142,1,7,11
4.05E+02,-7848,-2886,2495,-46,-773,-1747,1,7,11
4.06E+02,-7890,-2899,2846,-123,-879,-1851,1,7,11
4.06E+02,-7899,-2911,2713,27,-727,-1452,1,7,11
4.06E+02,-7835,-2933,3112,-353,-1087,-1574,1,7,11
4.06E+02,-7983,-2704,3006,-210,-1147,-1222,1,7,11
4.07E+02,-7587,-2728,3451,-559,-898,-1158,1,7,11
4.07E+02,-7776,-2728,3266,-624,-1144,-1322,1,7,11
4.07E+02,-7379,-2747,3307,-439,-1069,-956,1,7,11
4.07E+02,-7478,-3077,3315,-501,-674,-1084,1,7,11
4.08E+02,-7090,-3158,3327,-803,-449,-714,1,7,11
4.08E+02,-7210,-2980,3271,-799,-139,-786,1,7,11
4.08E+02,-6859,-3062,3210,-783,-190,-472,1,7,11
4.08E+02,-6816,-3387,3392,-787,-57,-448,1,7,11
4.09E+02,-6811,-3446,3051,-812,284,-442,1,7,11
4.09E+02,-6846,-3240,2970,-840,303,-423,1,7,11
4.09E+02,-6872,-3287,3153,-871,266,-620,1,7,11
4.09E+02,-6904,-3591,2815,-873,-24,-537,1,7,11
4.10E+02,-7061,-3615,2764,-852,-6,-211,1,7,11
4.10E+02,-7496,-3621,2760,-795,-44,-342,1,7,11
4.10E+02,-7683,-3621,2775,-438,-123,75,1,7,11
4.10E+02,-7597,-3595,2800,-552,17,-11,1,7,11
4.11E+02,-7866,-3286,3100,-137,-329,369,1,7,11
4.11E+02,-8263,-3447,3136,26,-558,567,1,7,11
4.11E+02,-7883,-3045,3127,-80,-783,768,1,7,11
4.11E+02,-7819,-3142,3094,257,-790,824,1,7,11
4.12E+02,-7822,-2753,3074,259,-431,830,1,7,11
4.12E+02,-7994,-2892,2777,-32,-543,846,1,7,11
4.12E+02,-7592,-2532,2718,-120,-308,839,1,7,11
4.12E+02,-7730,-2468,2697,-262,-5,789,1,7,11
4.13E+02,-7348,-2449,2714,-146,518,476,1,7,11
4.13E+02,-7430,-2471,2733,-239,459,415,1,7,11
4.13E+02,-7188,-2494,2927,-249,867,591,1,7,11
4.13E+02,-7014,-2501,2822,-232,1077,186,1,7,11
4.14E+02,-6635,-2480,2682,-211,1335,289,1,7,11
4.14E+02,-6642,-2443,2419,-243,1910,86,1,7,11
4.14E+02,-6839,-2515,2313,-406,2329,-282,1,7,11
4.14E+02,-7042,-2888,2012,-857,2578,-351,1,7,11
4.15E+02,-7450,-2775,1974,-753,2649,-149,1,7,11
4.15E+02,-7472,-3161,2163,-1093,2279,-197,1,7,11
4.15E+02,-7146,-3002,2058,-1106,2342,-528,1,7,11
4.15E+02,-7049,-3072,1706,-1078,2124,-637,1,7,11
4.16E+02,-7229,-3399,1875,-1035,1878,-504,1,7,11
4.16E+02,-7257,-3262,1811,-744,1614,-662,1,7,11
4.16E+02,-7113,-3673,1797,-720,1304,-1102,1,7,11
4.16E+02,-7467,-3550,1853,-687,651,-1018,1,7,11
4.17E+02,-7488,-3891,1694,-659,171,-1154,1,7,11
4.17E+02,-7425,-3968,2050,-890,-351,-1251,1,7,11
4.17E+02,-7116,-3781,2092,-841,-787,-1581,1,7,11
4.17E+02,-7121,-4106,2081,-776,-1053,-1598,1,7,11
4.18E+02,-7453,-4170,2076,-459,-1075,-1551,1,7,11
4.18E+02,-7405,-4220,2093,-404,-896,-1181,1,7,11
4.18E+02,-7602,-3992,2107,-587,-427,-943,1,7,11
4.18E+02,-7958,-4027,2114,-249,-222,-885,1,7,11
4.19E+02,-7941,-4038,2027,-146,-277,-582,1,7,11
4.19E+02,-7609,-4033,1910,-298,-42,-361,1,7,11
4.19E+02,-7414,-4224,1487,65,598,66,1,7,11
4.19E+02,-7333,-4153,1550,-46,870,112,1,7,11
4.20E+02,-7317,-3830,1359,277,1138,-98,1,7,11
4.20E+02,-7326,-3794,927,344,1360,258,1,7,11
4.20E+02,-7328,-3785,1024,195,1277,130,1,7,11
4.20E+02,-7365,-3778,641,594,1418,234,1,7,11
4.21E+02,-7708,-3759,844,510,1501,556,1,7,11
4.21E+02,-7785,-3959,847,704,1467,612,1,7,11
4.21E+02,-7589,-3856,876,907,1574,402,1,7,11
4.21E+02,-7622,-3468,872,1353,1338,444,1,7,11
4.22E+02,-7591,-3307,846,1244,1069,501,1,7,11
4.22E+02,-7748,-3389,799,1582,858,818,1,7,11
4.22E+02,-7390,-2983,768,1582,504,855,1,7,11
4.22E+02,-7328,-3129,787,1252,508,861,1,7,11
4.23E+02,-7330,-2798,866,1407,831,827,1,7,11
4.23E+02,-7409,-2752,711,1308,647,772,1,7,11
4.23E+02,-7700,-2736,1060,981,663,481,1,7,11
4.23E+02,-7373,-2755,1101,930,685,437,1,7,11
4.24E+02,-7339,-2793,1099,903,1055,570,1,7,11
4.24E+02,-7502,-3093,1078,1139,947,159,1,7,11
4.24E+02,-7468,-3152,1046,1096,1164,-79,1,7,11
4.24E+02,-7487,-2987,733,1046,1615,-347,1,7,11
4.25E+02,-7546,-3361,887,721,1508,-602,1,7,11
4.25E+02,-7706,-3240,786,885,1901,-845,1,7,11
4.25E+02,-7937,-3632,470,782,1701,-763,1,7,11
4.25E+02,-7857,-3488,465,436,1905,-1084,1,7,11
4.26E+02,-7897,-3545,784,385,1479,-1054,1,7,11
4.26E+02,-8050,-3538,882,632,1212,-695,1,7,11
4.26E+02,-7590,-3496,738,409,909,-826,1,7,11
4.26E+02,-7733,-3670,1124,491,656,-476,1,7,11
4.27E+02,-7390,-3607,1002,809,608,-604,1,7,11
4.27E+02,-7531,-3322,1398,865,286,-212,1,7,11
4.27E+02,-7452,-3278,1270,668,11,-372,1,7,11
4.27E+02,-7154,-3226,1645,726,-190,-304,1,7,11
4.28E+02,-7129,-3422,1513,1040,-582,19,1,7,11
4.28E+02,-7065,-3289,1904,1112,-634,98,1,7,11
4.28E+02,-7102,-2949,1744,920,-522,-113,1,7,11
4.28E+02,-7494,-3133,2058,967,-356,-59,1,7,11
4.29E+02,-7527,-2807,2090,1006,59,290,1,7,11
4.29E+02,-7549,-2740,2109,982,327,300,1,7,11
4.29E+02,-7338,-2943,2124,923,246,261,1,7,11
4.29E+02,-7358,-2910,2107,1111,621,-49,1,7,11
4.30E+02,-7373,-2893,2070,1045,475,-119,1,7,11
4.30E+02,-7681,-2894,1788,736,850,55,1,7,11
4.30E+02,-7799,-2910,1785,715,730,-281,1,7,11
4.30E+02,-7679,-2930,2053,757,1087,-318,1,7,11
4.31E+02,-8048,-2940,2057,1103,898,-316,1,7,11
4.31E+02,-7836,-2924,2055,958,911,-298,1,7,11
4.31E+02,-7829,-2875,1785,1312,1144,-306,1,7,11
4.31E+02,-8054,-2821,1738,1379,1104,-347,1,7,11
4.32E+02,-8020,-2520,1680,1406,1075,-160,1,7,11
4.32E+02,-7980,-2481,1867,1401,1075,-234,1,7,11
4.32E+02,-7973,-2463,1810,1362,1129,-569,1,7,11
4.32E+02,-7974,-2477,1495,1315,939,-636,1,7,11
4.33E+02,-7958,-2521,1447,1013,1001,-438,1,7,11
4.33E+02,-7672,-2833,1635,966,1293,-496,1,7,11
4.33E+02,-7635,-2900,1566,1150,1318,-833,1,7,11
4.33E+02,-7643,-2732,1268,1046,1316,-683,1,7,11
4.34E+02,-7645,-2815,1260,683,976,-1030,1,7,11
4.34E+02,-7662,-3147,1249,833,1098,-1113,1,7,11
4.34E+02,-7973,-3200,1238,485,667,-906,1,7,11
4.34E+02,-8007,-2974,1223,400,452,-1125,1,7,11
4.35E+02,-8000,-2984,1197,586,255,-754,1,7,11
4.35E+02,-7970,-2995,1203,536,354,-831,1,7,11
4.35E+02,-7634,-3005,1221,522,-9,-628,1,7,11
4.35E+02,-7603,-2995,1279,520,-46,-213,1,7,11
4.36E+02,-7783,-2989,1583,515,-99,-332,1,7,11
4.36E+02,-7754,-2993,1639,246,75,42,1,7,11
4.36E+02,-7731,-3009,1662,204,-327,67,1,7,11
4.36E+02,-7420,-3036,1413,169,-171,65,1,7,11
4.37E+02,-7346,-3332,1410,381,-239,25,1,7,11
4.37E+02,-7540,-3382,1658,343,-236,-317,1,7,11
4.37E+02,-7323,-3444,1433,310,-171,-186,1,7,11
4.37E+02,-7319,-3265,1432,318,-139,-537,1,7,11
4.38E+02,-7325,-3594,1429,339,-337,-389,1,7,11
4.38E+02,-7379,-3643,1433,351,-289,-500,1,7,11
4.38E+02,-7396,-3692,1429,333,-305,-833,1,7,11
4.38E+02,-7379,-3458,1663,307,-347,-651,1,7,11
4.39E+02,-7370,-3486,1650,-2,-158,-694,1,7,11
4.39E+02,-7299,-3520,1616,-72,-243,-700,1,7,11
4.39E+02,-7502,-3555,1625,105,-536,-720,1,7,11
4.39E+02,-7491,-3859,1433,26,-549,-737,1,7,11
4.40E+02,-7465,-3927,1835,12,-593,-732,1,7,11
4.40E+02,-7438,-3728,1668,77,-628,-735,1,7,11
4.40E+02,-7127,-3737,1743,-75,-423,-726,1,7,11
4.40E+02,-7286,-3742,2060,295,-475,-732,1,7,11
4.41E+02,-7254,-3738,2083,147,-775,-780,1,7,11
4.41E+02,-7205,-3751,2080,222,-816,-1058,1,7,11
4.41E+02,-6889,-3777,1791,517,-840,-1079,1,7,11
4.41E+02,-6844,-3815,1763,501,-803,-1101,1,7,11
4.42E+02,-6824,-4116,1736,193,-462,-1120,1,7,11
4.42E+02,-6850,-4169,1714,134,-595,-1126,1,7,11
4.42E+02,-6878,-4215,1693,332,-221,-1094,1,7,11
4.42E+02,-7171,-3995,1682,267,-356,-1028,1,7,11
4.43E+02,-7214,-4021,1696,-63,-257,-671,1,7,11
4.43E+02,-7239,-4037,1694,122,53,-790,1,7,11
4.43E+02,-7208,-4053,1683,47,67,-625,1,7,11
4.43E+02,-6904,-4072,1915,-274,105,-204,1,7,11
4.44E+02,-6905,-4087,1908,-327,-73,-315,1,7,11
4.44E+02,-7238,-4091,1676,-347,296,79,1,7,11
4.44E+02,-7076,-4073,1735,-331,355,-26,1,7,11
4.44E+02,-7425,-4029,2054,-266,365,375,1,7,11
4.45E+02,-7522,-4221,2126,72,311,247,1,7,11
4.45E+02,-7475,-4152,2160,-75,-102,635,1,7,11
4.45E+02,-7121,-3810,2136,282,38,411,1,7,11
4.45E+02,-7064,-3739,2105,317,-282,603,1,7,11
4.46E+02,-7196,-3952,2054,309,-336,244,1,7,11
4.46E+02,-6868,-3933,1745,267,-299,320,1,7,11
4.46E+02,-6888,-3941,1718,-67,48,126,1,7,11
4.46E+02,-7169,-3728,1680,108,-111,-278,1,7,11
4.47E+02,-7181,-3776,1910,39,257,-133,1,7,11
4.47E+02,-7256,-3831,1914,-280,157,-228,1,7,11
4.47E+02,-7087,-4129,1692,-327,522,-522,1,7,11
4.47E+02,-7151,-4154,1718,-356,555,-248,1,7,11
4.48E+02,-7154,-4158,1735,-369,518,-177,1,7,11
4.48E+02,-7084,-4163,1721,-375,196,-337,1,7,11
4.48E+02,-7046,-4158,1690,-377,189,-261,1,7,11
4.48E+02,-7054,-4146,1683,-368,230,79,1,7,11
4.49E+02,-7132,-4136,1706,-332,550,-81,1,7,11
4.49E+02,-7460,-4101,1734,1,577,289,1,7,11
4.49E+02,-7537,-3786,1754,91,579,136,1,7,11
4.49E+02,-7299,-3724,1753,-77,522,233,1,7,11
4.50E+02,-7477,-3878,1689,257,181,546,1,7,11
4.50E+02,-7154,-3847,1667,283,149,253,1,7,11
4.50E+02,-7113,-3558,1873,264,135,162,1,7,11
4.50E+02,-7045,-3564,1853,-24,376,296,1,7,11
4.51E+02,-7269,-3884,1840,-45,137,-119,1,7,11
4.51E+02,-7273,-3953,1839,-47,163,-280,1,7,11
4.51E+02,-7049,-3771,1835,-8,216,-518,1,7,11
4.51E+02,-7064,-4100,1827,299,225,-639,1,7,11
4.52E+02,-7114,-4152,1819,347,242,-483,1,7,11
4.52E+02,-7441,-4167,1803,372,227,-789,1,7,11
4.52E+02,-7473,-4164,1795,346,156,-777,1,7,11
4.52E+02,-7426,-4160,1516,297,328,-438,1,7,11
4.53E+02,-7102,-4150,1469,-41,280,-583,1,7,11
4.53E+02,-7061,-4160,1468,104,285,-218,1,7,11
4.53E+02,-7098,-4170,1508,7,316,-373,1,7,11
4.53E+02,-7166,-4178,1826,-309,311,-266,1,7,11
4.54E+02,-7430,-4179,1867,-313,-3,118,1,7,11
4.54E+02,-7152,-4173,1914,-293,-62,-46,1,7,11
4.54E+02,-7101,-4151,1695,3,126,-10,1,7,11
4.54E+02,-7066,-4125,1708,65,75,-35,1,7,11
4.55E+02,-7293,-4102,1708,-117,30,-89,1,7,11
4.55E+02,-7226,-3838,1681,-55,-259,106,1,7,11
4.55E+02,-7171,-3836,1906,260,25,18,1,7,11
4.55E+02,-7201,-4112,1894,318,106,-350,1,7,11
4.56E+02,-7216,-4155,1861,383,-94,-176,1,7,11
4.56E+02,-7258,-4193,1841,169,-19,-516,1,7,11
4.56E+02,-7063,-4212,1831,185,271,-574,1,7,11
4.56E+02,-7116,-4210,1828,165,-5,-602,1,7,11
4.57E+02,-7160,-4183,1828,360,-54,-596,1,7,11
4.57E+02,-7165,-4151,1832,258,-128,-546,1,7,11
4.57E+02,-7109,-4132,1839,-123,48,-207,1,7,11
4.57E+02,-7289,-4114,1863,-265,15,-384,1,7,11
4.58E+02,-7236,-4108,1900,-158,15,-317,1,7,11
4.58E+02,-7222,-4120,1741,-546,28,-268,1,7,11
4.58E+02,-7239,-4151,1779,-626,23,33,1,7,11
4.58E+02,-7253,-4182,1790,-630,15,108,1,7,11
4.59E+02,-7289,-4210,2058,-589,41,-106,1,7,11
4.59E+02,-7054,-4211,1790,-249,72,-66,1,7,11
4.59E+02,-7082,-4192,1777,-154,108,-40,1,7,11
4.59E+02,-7074,-4163,1745,-323,100,-17,1,7,11
4.60E+02,-7061,-4126,1667,-265,87,-22,1,7,11
4.60E+02,-7067,-3835,1903,-260,70,-51,1,7,11
4.60E+02,-7048,-3828,1880,-293,32,-79,1,7,11
4.60E+02,-7274,-4108,1870,-342,-259,-121,1,7,11
4.61E+02,-7243,-4153,1875,-139,-284,53,1,7,11
4.61E+02,-7232,-4193,1883,-188,-279,22,1,7,11
4.61E+02,-7257,-3970,1673,-225,1,-322,1,7,11
4.61E+02,-7272,-3992,1697,-247,25,-337,1,7,11
4.62E+02,-7282,-3997,1727,-256,48,-311,1,7,11
4.62E+02,-7253,-3990,1737,-525,67,4,1,7,11
4.62E+02,-7190,-3988,1741,-558,91,74,1,7,11
4.62E+02,-6843,-3998,1735,-601,124,-126,1,7,11
4.63E+02,-6809,-4014,1722,-388,-66,-111,1,7,11
4.63E+02,-6825,-4045,1713,-415,258,-92,1,7,11
4.63E+02,-6879,-4078,1708,-392,332,-55,1,7,11
4.63E+02,-7226,-4086,1701,-558,154,260,1,7,11
4.64E+02,-7118,-4071,1703,-178,225,331,1,7,11
4.64E+02,-7480,-4039,1711,-282,216,184,1,7,11
4.64E+02,-7487,-3997,1704,-110,143,554,1,7,11
4.64E+02,-7159,-4189,1686,309,313,616,1,7,11
4.65E+02,-7104,-4108,1915,168,-3,587,1,7,11
4.65E+02,-7072,-3763,1885,231,-56,244,1,7,11
4.65E+02,-7058,-3949,1868,234,-91,130,1,7,11
4.65E+02,-7047,-3921,1856,198,-124,280,1,7,11
4.66E+02,-7253,-3921,1845,140,121,-71,1,7,11
4.66E+02,-7234,-3959,1872,310,-89,67,1,7,11
4.66E+02,-7228,-3757,1670,-17,-22,-304,1,7,11
4.66E+02,-7246,-3810,1711,-45,320,-137,1,7,11
4.67E+02,-7280,-4108,1735,-46,158,-187,1,7,11
4.67E+02,-7046,-4128,1744,-28,246,-186,1,7,11
4.67E+02,-7062,-4140,1747,-11,575,-150,1,7,11
4.67E+02,-7041,-4127,1719,-2,603,-344,1,7,11
4.68E+02,-7227,-4112,1917,-23,611,-285,1,7,11
4.68E+02,-7171,-4125,1882,-76,626,14,1,7,11
4.68E+02,-7180,-4152,1856,-123,638,31,1,7,11
4.68E+02,-7212,-4195,1830,100,384,68,1,7,11
4.69E+02,-7272,-4221,1795,-125,627,109,1,7,11
4.69E+02,-7124,-4224,1509,-69,600,-100,1,7,11
4.69E+02,-7480,-4208,1500,-3,515,-30,1,7,11
4.69E+02,-7298,-4164,1508,323,130,302,1,7,11
4.70E+02,-7298,-4110,1509,376,-66,373,1,7,11
4.70E+02,-7494,-3781,1500,148,-263,136,1,7,11
4.70E+02,-7484,-3962,1513,128,-156,337,1,7,11
4.70E+02,-7444,-3898,1529,345,-558,275,1,7,11
4.71E+02,-7133,-3857,1796,297,-634,-56,1,7,11
4.71E+02,-7084,-3855,1831,-15,-634,112,1,7,11
4.71E+02,-7058,-3865,1884,-61,-559,1,1,7,11
4.71E+02,-7049,-3888,1688,-80,-194,-370,1,7,11
4.72E+02,-7294,-3917,1732,-62,-321,-225,1,7,11
4.72E+02,-7058,-3929,1756,-34,83,-569,1,7,11
4.72E+02,-7066,-3925,1765,-15,-39,-614,1,7,11
4.72E+02,-7054,-3919,1761,-23,327,-639,1,7,11
4.73E+02,-7286,-3918,1746,-66,156,-401,1,7,11
4.73E+02,-7232,-3927,1710,117,206,-408,1,7,11
4.73E+02,-7171,-3961,1668,25,515,-415,1,7,11
4.73E+02,-6890,-3773,1898,-317,587,-420,1,7,11
4.74E+02,-6883,-4110,1851,-349,384,-389,1,7,11
4.74E+02,-7210,-4195,1805,-335,456,-617,1,7,11
4.74E+02,-7092,-4014,1804,-296,475,-570,1,7,11
4.74E+02,-7456,-4064,1817,44,629,-226,1,7,11
4.75E+02,-7469,-4095,1819,-92,164,-374,1,7,11
4.75E+02,-7161,-4079,1806,298,-57,-294,1,7,11
4.75E+02,-7167,-4048,1785,158,27,4,1,7,11
4.75E+02,-7126,-4002,1496,249,-146,58,1,7,11
4.76E+02,-7137,-4201,1505,522,-528,75,1,7,11
4.76E+02,-7148,-4183,1820,178,-590,92,1,7,11
4.76E+02,-7470,-4154,1893,353,-607,92,1,7,11
4.76E+02,-7539,-4135,1734,273,-393,-122,1,7,11
4.77E+02,-7548,-4099,2070,-39,-424,-30,1,7,11
4.77E+02,-7524,-3809,2162,-90,-411,337,1,7,11
4.77E+02,-7472,-3757,1988,-118,-624,178,1,7,11
4.77E+02,-7162,-3939,2314,115,-561,247,1,7,11
4.78E+02,-7125,-3869,2361,90,-229,538,1,7,11
4.78E+02,-7112,-3562,2406,60,-156,549,1,7,11
4.78E+02,-7130,-3522,2428,31,-343,538,1,7,11
4.78E+02,-7161,-3516,2430,15,-277,517,1,7,11
4.79E+02,-7456,-3503,2411,40,47,233,1,7,11
4.79E+02,-7486,-3478,2382,100,114,218,1,7,11
4.79E+02,-7465,-3711,2318,-69,-84,233,1,7,11
4.79E+02,-7481,-3700,1993,272,259,229,1,7,11
4.80E+02,-7486,-3693,1957,357,323,216,1,7,11
4.80E+02,-7482,-3686,1947,190,346,164,1,7,11
4.80E+02,-7429,-3668,1925,524,289,332,1,7,11
4.80E+02,-7099,-3619,2161,576,-54,-55,1,7,11
4.81E+02,-7083,-3295,2122,567,107,51,1,7,11
4.81E+02,-7060,-3278,2124,232,-270,-327,1,7,11
4.81E+02,-7153,-3307,2162,356,-338,-194,1,7,11
4.81E+02,-7506,-3618,1983,-65,-138,-554,1,7,11
4.82E+02,-7340,-3699,2315,37,-218,-575,1,7,11
4.82E+02,-7380,-3534,2395,-355,-523,-562,1,7,11
4.82E+02,-7422,-3844,2190,-224,-248,-550,1,7,11
4.82E+02,-7748,-3882,2224,-536,-189,-515,1,7,11
4.83E+02,-7745,-3887,2236,-554,-384,-157,1,7,11
4.83E+02,-7688,-3866,2207,-565,-306,-280,1,7,11
4.83E+02,-7548,-3573,2407,-591,17,120,1,7,11
4.83E+02,-7118,-3526,2328,-419,96,-41,1,7,11
4.84E+02,-7237,-3508,2007,-804,-52,-15,1,7,11
4.84E+02,-6881,-3521,1956,-679,297,-25,1,7,11
4.84E+02,-6823,-3578,2169,-1036,372,-57,1,7,11
4.84E+02,-6802,-3910,2115,-1073,182,-94,1,7,11
4.85E+02,-6831,-3737,2057,-1063,244,121,1,7,11
4.85E+02,-7175,-3805,1771,-761,537,71,1,7,11
4.85E+02,-7054,-4104,1751,-685,246,38,1,7,11
4.85E+02,-7160,-4123,1699,-860,366,48,1,7,11
4.86E+02,-7453,-4127,1892,-825,-111,78,1,7,11
4.86E+02,-7430,-4131,1847,-865,-368,95,1,7,11
4.86E+02,-7141,-4138,1827,-700,-591,80,1,7,11
4.86E+02,-7064,-4141,1817,-1076,-775,62,1,7,11
4.87E+02,-7046,-4150,1863,-965,-865,23,1,7,11
4.87E+02,-7057,-4177,1676,-1353,-667,13,1,7,11
4.87E+02,-7056,-4203,1756,-1201,-710,29,1,7,11
4.87E+02,-7275,-3991,2084,-1268,-753,65,1,7,11
4.88E+02,-7188,-4045,2137,-1555,-1027,91,1,7,11
4.88E+02,-6882,-4075,2175,-1540,-695,75,1,7,11
4.88E+02,-7210,-4088,1957,-1237,-809,54,1,7,11
4.88E+02,-7258,-4063,1970,-1401,-448,100,1,7,11
4.89E+02,-7295,-4024,1924,-1306,-595,-65,1,7,11
4.89E+02,-7263,-4203,2138,-991,-516,302,1,7,11
4.89E+02,-7246,-4161,2091,-978,-179,368,1,7,11
4.89E+02,-6854,-4138,1761,-984,-157,152,1,7,11
4.90E+02,-6790,-4146,1698,-1012,-370,371,1,7,11
4.90E+02,-6815,-4178,1680,-1305,-292,306,1,7,11
4.90E+02,-6906,-3970,1695,-1308,71,257,1,7,11
4.90E+02,-7254,-4006,1711,-963,65,-7,1,7,11
4.91E+02,-7090,-4021,1732,-1097,17,-1,1,7,11
4.91E+02,-7140,-4020,1748,-700,-356,272,1,7,11
4.91E+02,-7084,-3996,1728,-817,-522,278,1,7,11
4.91E+02,-7259,-4207,1704,-466,-626,-35,1,7,11
4.92E+02,-7245,-4161,1706,-429,-400,124,1,7,11
4.92E+02,-7252,-4126,1737,-434,-406,49,1,7,11
4.92E+02,-7244,-4101,1782,-458,-405,7,1,7,11
4.92E+02,-7226,-3840,2085,-504,-403,-283,1,7,11
4.93E+02,-7185,-4122,2127,-834,-426,-323,1,7,11
4.93E+02,-6811,-4161,2156,-641,-464,-133,1,7,11
4.93E+02,-6806,-4198,1960,-699,-395,-526,1,7,11
4.93E+02,-6871,-3985,2037,-704,-582,-615,1,7,11
4.94E+02,-6883,-4035,2328,-643,-529,-632,1,7,11
4.94E+02,-6874,-4067,2337,-805,-205,-617,1,7,11
4.94E+02,-6847,-4093,2342,-451,-134,-592,1,7,11
4.94E+02,-6800,-4356,2045,-609,-319,-576,1,7,11
4.95E+02,-7013,-4358,1996,-529,29,-572,1,7,11
4.95E+02,-6989,-4365,1954,-217,-125,-565,1,7,11
4.95E+02,-6989,-4381,1921,-171,-28,-552,1,7,11
4.95E+02,-7027,-4411,2164,-133,311,-548,1,7,11
4.96E+02,-6796,-4449,2153,-337,330,-531,1,7,11
4.96E+02,-6819,-4472,2134,-266,321,-525,1,7,11
4.96E+02,-6902,-4232,2134,42,292,-538,1,7,11
4.96E+02,-7209,-4239,2128,97,-50,-520,1,7,11
4.97E+02,-7254,-4474,2135,-111,120,-243,1,7,11
4.97E+02,-7280,-4441,2163,-73,24,-198,1,7,11
4.97E+02,-7271,-4393,2173,-43,-300,-152,1,7,11
4.97E+02,-7269,-4089,1942,-27,-343,-375,1,7,11
4.98E+02,-7223,-4045,1964,-19,-363,-348,1,7,11
4.98E+02,-6890,-4008,1969,-36,-346,-345,1,7,11
4.98E+02,-6799,-3996,1973,-71,-272,-163,1,7,11
4.98E+02,-6802,-4008,2005,-106,-92,-245,1,7,11
4.99E+02,-6819,-4030,2021,-127,274,-563,1,7,11
4.99E+02,-6840,-4054,2034,107,356,-595,1,7,11
4.99E+02,-6868,-4072,2019,102,159,-592,1,7,11
4.99E+02,-6866,-4070,1987,75,186,-563,1,7,11
5.00E+02,-6863,-4057,1949,22,203,-522,1,7,11
5.00E+02,-6832,-4068,1927,-315,200,-207,1,7,11
5.00E+02,-6803,-4355,1927,-139,199,-153,1,7,11
5.00E+02,-6790,-4405,1930,-174,194,-353,1,7,11
5.01E+02,-7025,-4455,2171,-166,185,-301,1,7,11
5.01E+02,-7037,-4258,2160,-141,185,-273,1,7,11
5.01E+02,-6802,-4318,2134,-336,160,6,1,7,11
5.01E+02,-6856,-4613,2110,32,140,12,1,7,11
5.02E+02,-7197,-4627,2084,-109,374,31,1,7,11
5.02E+02,-7263,-4613,2081,259,332,84,1,7,11
5.02E+02,-7295,-4305,2081,369,271,-104,1,7,11
5.02E+02,-7287,-4234,2078,192,-66,-34,1,7,11
5.03E+02,-7239,-4418,2060,220,117,275,1,7,11
5.03E+02,-6904,-4052,1789,153,100,271,1,7,11
5.03E+02,-6878,-4021,2070,300,-119,-25,1,7,11
5.03E+02,-6864,-4006,2117,-64,-68,-77,1,7,11
5.04E+02,-6854,-4005,2161,98,-32,118,1,7,11
5.04E+02,-6852,-4011,1944,16,-1,61,1,7,11
5.04E+02,-6859,-4006,1969,-302,284,9,1,7,11
5.04E+02,-6895,-3997,1974,-353,307,-281,1,7,11
5.05E+02,-6893,-3985,1973,-143,310,-268,1,7,11
5.05E+02,-6882,-3979,1964,-182,324,12,1,7,11
5.05E+02,-6862,-3990,1950,-225,325,49,1,7,11
5.05E+02,-6836,-4026,1923,-246,338,71,1,7,11
5.06E+02,-6825,-4057,1921,-239,357,68,1,7,11
5.06E+02,-6861,-4096,1932,-199,366,54,1,7,11
5.06E+02,-6855,-4401,1922,-138,325,57,1,7,11
5.06E+02,-6865,-4446,2173,-309,288,34,1,7,11
5.07E+02,-6909,-4462,2146,38,-9,4,1,7,11
5.07E+02,-7229,-4464,2131,121,-59,-273,1,7,11
5.07E+02,-7254,-4442,2122,-66,116,-258,1,7,11
5.07E+02,-7249,-4409,2117,-40,34,23,1,7,11
5.08E+02,-7245,-4373,2117,-58,-273,38,1,7,11
5.08E+02,-7221,-4354,2138,-110,-303,59,1,7,11
5.08E+02,-7170,-4096,2169,88,-295,70,1,7,11
5.08E+02,-6873,-4359,1941,47,21,63,1,7,11
5.09E+02,-6870,-4348,1970,18,111,42,1,7,11
5.09E+02,-6852,-4066,1972,3,-71,32,1,7,11
5.09E+02,-6851,-4039,1960,-271,-2,20,1,7,11
5.09E+02,-6862,-3999,1957,-324,312,30,1,7,11
5.10E+02,-6873,-3970,1937,-180,362,58,1,7,11
5.10E+02,-6827,-4209,2167,-534,364,103,1,7,11
5.10E+02,-6819,-3969,2156,-638,139,-127,1,7,11
5.10E+02,-6818,-4018,1920,-466,157,-98,1,7,11
5.11E+02,-6837,-4067,1932,-479,167,-87,1,7,11
5.11E+02,-6858,-4378,1927,-427,161,-73,1,7,11
5.11E+02,-6883,-4428,2166,-579,144,-58,1,7,11
5.11E+02,-7176,-4451,2137,-183,129,-51,1,7,11
5.12E+02,-7241,-4457,2116,-285,356,-47,1,7,11
5.12E+02,-7280,-4445,2073,109,288,-41,1,7,11
5.12E+02,-7263,-4405,1764,-37,-50,-42,1,7,11
5.12E+02,-7287,-4093,1719,272,-88,-78,1,7,11
5.13E+02,-7056,-4039,1692,265,126,-99,1,7,11
5.13E+02,-7294,-4004,1680,-37,93,-103,1,7,11
5.13E+02,-7263,-3977,1678,-105,86,-108,1,7,11
5.13E+02,-7219,-4224,1693,70,105,-128,1,7,11
5.14E+02,-7209,-3976,1729,-265,-99,85,1,7,11
5.14E+02,-7197,-3980,1764,-338,-70,38,1,7,11
5.14E+02,-7170,-3975,2049,-148,-57,2,1,7,11
5.14E+02,-6912,-4224,2063,-218,-35,-285,1,7,11
5.15E+02,-7172,-3982,2090,-550,-31,-292,1,7,11
5.15E+02,-7170,-4222,2105,-601,-23,-286,1,7,11
5.15E+02,-7169,-3988,2131,-640,-35,5,1,7,11
5.15E+02,-6852,-4008,2152,-391,-55,47,1,7,11
5.16E+02,-6829,-4046,1920,-631,-57,58,1,7,11
5.16E+02,-6815,-4087,1935,-582,-66,52,1,7,11
5.16E+02,-6835,-4374,1949,-242,-72,22,1,7,11
5.16E+02,-6869,-4402,1949,-138,-92,7,1,7,11
5.17E+02,-6857,-4422,2170,-289,-125,8,1,7,11
5.17E+02,-6866,-4435,2126,52,-126,-271,1,7,11
5.17E+02,-6882,-4442,2078,105,-116,-297,1,7,11
5.17E+02,-6905,-4440,1787,127,-88,-318,1,7,11
5.18E+02,-7180,-4447,1763,119,-64,-315,1,7,11
5.18E+02,-7208,-4458,1748,97,-33,-292,1,7,11
5.18E+02,-7226,-4461,1748,79,-8,6,1,7,11
5.18E+02,-7232,-4460,1758,69,266,53,1,7,11
5.19E+02,-7234,-4449,1760,64,275,96,1,7,11
5.19E+02,-7214,-4426,1752,54,264,-112,1,7,11
5.19E+02,-6905,-4390,1748,35,-7,-84,1,7,11
5.19E+02,-7200,-4090,1758,-257,266,-97,1,7,11
5.20E+02,-7215,-4038,1773,-313,-4,-70,1,7,11
5.20E+02,-7242,-3997,2048,-368,-45,-20,1,7,11
5.20E+02,-7190,-4219,2053,-210,-96,316,1,7,11
5.20E+02,-6871,-4185,2060,-537,-96,354,1,7,11
5.21E+02,-6864,-4172,2091,-611,-63,353,1,7,11
5.21E+02,-6867,-4177,2118,-402,-40,345,1,7,11
5.21E+02,-6882,-4202,2142,-417,-24,331,1,7,11
5.21E+02,-6891,-3982,2159,-393,-20,321,1,7,11
5.22E+02,-6902,-4017,2171,-575,-18,305,1,7,11
5.22E+02,-6909,-4047,2151,-214,-21,263,1,7,11
5.22E+02,-6901,-4060,2110,-365,-33,-53,1,7,11
5.22E+02,-7174,-4063,2078,-268,-23,-126,1,7,11
5.23E+02,-7213,-4061,1785,70,-5,76,1,7,11
5.23E+02,-7260,-4068,1753,-115,284,43,1,7,11
5.23E+02,-7271,-4083,1719,-46,314,49,1,7,11
5.23E+02,-7276,-4072,1677,284,382,56,1,7,11
5.24E+02,-7287,-4060,1890,332,204,70,1,7,11
5.24E+02,-7291,-4040,1842,359,528,91,1,7,11
5.24E+02,-7275,-4018,1524,356,580,113,1,7,11
5.24E+02,-7271,-3987,1472,310,620,125,1,7,11
5.25E+02,-7277,-4224,1443,-38,633,-127,1,7,11
5.25E+02,-7059,-4211,1454,115,608,-120,1,7,11
5.25E+02,-7095,-4208,1503,-269,211,-75,1,7,11
5.25E+02,-7095,-4206,1526,-331,333,-30,1,7,11
5.26E+02,-7075,-4194,1798,-365,-50,258,1,7,11
5.26E+02,-7066,-4171,1839,-130,104,266,1,7,11
5.26E+02,-7047,-4145,1863,-133,6,270,1,7,11
5.26E+02,-7272,-4116,1892,-139,-331,259,1,7,11
5.27E+02,-7246,-3837,1916,-153,-134,-21,1,7,11
5.27E+02,-7240,-3818,1688,-169,-173,-65,1,7,11
5.27E+02,-7224,-3801,1704,-190,-203,-112,1,7,11
5.27E+02,-7231,-3796,1739,-222,-204,82,1,7,11
5.28E+02,-7250,-3804,1778,-255,-213,33,1,7,11
5.28E+02,-7212,-3825,2072,-527,-230,4,1,7,11
5.28E+02,-7194,-4116,2118,-520,-198,-299,1,7,11
5.28E+02,-7179,-4159,2169,-228,-148,-342,1,7,11
5.29E+02,-6911,-4197,1937,-161,-328,-129,1,7,11
5.29E+02,-6902,-3976,1946,-319,16,-164,1,7,11
5.29E+02,-6890,-4002,1920,31,117,-189,1,7,11
5.29E+02,-6875,-4044,2143,116,-30,-207,1,7,11
5.30E+02,-6891,-4058,2101,-50,132,-222,1,7,11
5.30E+02,-7173,-4079,1789,-19,202,-211,1,7,11
5.30E+02,-7178,-4095,1736,-18,228,-191,1,7,11
5.30E+02,-7198,-4358,1707,-30,229,-170,1,7,11
5.31E+02,-7247,-4372,1695,-46,199,-137,1,7,11
5.31E+02,-7292,-4380,1696,-52,131,-339,1,7,11
5.31E+02,-7067,-4397,1706,-26,316,-267,1,7,11
5.31E+02,-7103,-4388,1729,295,-8,65,1,7,11
5.32E+02,-7126,-4371,1756,128,-70,-120,1,7,11
5.32E+02,-7117,-4074,1752,230,115,-74,1,7,11
5.32E+02,-7081,-4015,1742,574,45,-64,1,7,11
5.32E+02,-7261,-4201,1722,615,0,-97,1,7,11
5.33E+02,-7254,-4145,1724,589,6,72,1,7,11
5.33E+02,-7247,-4103,1726,549,22,-263,1,7,11
5.33E+02,-7251,-3827,1756,228,63,-325,1,7,11
5.33E+02,-7222,-3834,2054,152,88,-359,1,7,11
5.34E+02,-7208,-4101,2122,342,116,-152,1,7,11
5.34E+02,-7176,-4123,2169,291,98,-201,1,7,11
5.34E+02,-6873,-4151,1931,-6,59,-254,1,7,11
5.34E+02,-6844,-4176,1937,-50,41,-566,1,7,11
5.35E+02,-6879,-4214,1950,-103,49,-614,1,7,11
5.35E+02,-6904,-3994,1961,111,46,-619,1,7,11
5.35E+02,-6902,-4034,1972,76,41,-578,1,7,11
5.35E+02,-6872,-4068,1974,42,52,-525,1,7,11
5.36E+02,-6857,-4084,1974,8,88,-227,1,7,11
5.36E+02,-6840,-4356,1981,-289,113,-185,1,7,11
5.36E+02,-6820,-4370,1984,-332,123,-134,1,7,11
5.36E+02,-6811,-4389,1983,-377,-119,-341,1,7,11
5.37E+02,-6806,-4421,1991,-155,-103,-290,1,7,11
5.37E+02,-6809,-4450,2002,-169,-80,20,1,7,11
5.37E+02,-6801,-4477,2001,-147,-50,84,1,7,11
5.37E+02,-6825,-4242,1990,-351,-2,-92,1,7,11
5.38E+02,-6884,-4251,1962,39,346,-52,1,7,11
5.38E+02,-7211,-4253,1941,-124,136,-2,1,7,11
5.38E+02,-7252,-4231,2161,-20,155,314,1,7,11
5.38E+02,-7291,-4446,2128,310,162,349,1,7,11
5.39E+02,-7291,-4377,2087,351,136,381,1,7,11
5.39E+02,-7292,-4042,1788,328,362,130,1,7,11
5.39E+02,-7284,-3978,1750,-7,319,130,1,7,11
5.39E+02,-7271,-4185,1725,-112,289,128,1,7,11
5.40E+02,-7271,-4145,1707,13,287,373,1,7,11
5.40E+02,-7262,-4120,1712,-379,281,375,1,7,11
5.40E+02,-7236,-4114,1742,-246,273,370,1,7,11
5.40E+02,-7219,-4133,1768,-606,271,360,1,7,11
5.41E+02,-7204,-4169,2058,-424,279,339,1,7,11
5.41E+02,-7205,-4189,2087,-445,294,307,1,7,11
5.41E+02,-7226,-4193,2078,-430,311,277,1,7,11
5.41E+02,-7198,-4176,1750,-422,303,280,1,7,11
5.42E+02,-7198,-4176,1720,-446,324,281,1,7,11
5.42E+02,-7172,-4189,1700,-494,349,289,1,7,11
5.42E+02,-6904,-3970,1690,-789,380,282,1,7,11
5.42E+02,-6888,-4028,1695,-811,135,275,1,7,11
5.43E+02,-6893,-4353,1685,-778,153,-12,1,7,11
5.43E+02,-7176,-4392,1689,-440,152,-56,1,7,11
5.43E+02,-7045,-4394,1711,-585,151,-104,1,7,11
5.43E+02,-7164,-4371,1736,-191,333,-85,1,7,11
5.44E+02,-7491,-4082,1738,-294,-34,-2,1,7,11
5.44E+02,-7486,-4019,1724,92,104,366,1,7,11
5.44E+02,-7446,-4192,1712,-96,-259,187,1,7,11
5.44E+02,-7125,-4101,1707,-95,-347,212,1,7,11
5.45E+02,-7069,-3768,1708,97,-154,201,1,7,11
5.45E+02,-7238,-3722,1709,-276,-192,182,1,7,11
5.45E+02,-7177,-3966,1724,-170,-179,382,1,7,11
5.45E+02,-6870,-3723,1763,-580,-129,308,1,7,11
5.46E+02,-6890,-3776,2089,-440,-294,-37,1,7,11
5.46E+02,-6903,-3838,2149,-480,38,-87,1,7,11
5.46E+02,-6912,-4141,2166,-444,-121,-119,1,7,11
5.46E+02,-7237,-4168,1921,-631,257,123,1,7,11
5.47E+02,-7252,-4180,2136,-531,323,-86,1,7,11
5.47E+02,-7198,-4184,1778,-179,144,2,1,7,11
5.47E+02,-7188,-4181,1751,-337,512,282,1,7,11
5.47E+02,-7208,-4174,1697,17,636,320,1,7,11
5.48E+02,-7289,-4152,1664,120,501,350,1,7,11
5.48E+02,-7425,-4116,1914,-31,847,128,1,7,11
5.48E+02,-7535,-3828,1916,323,822,194,1,7,11
5.48E+02,-7542,-3761,1890,143,455,245,1,7,11
5.49E+02,-7541,-3946,1867,145,565,213,1,7,11
5.49E+02,-7460,-3873,1817,341,372,144,1,7,11
5.49E+02,-7136,-3548,1794,-32,-97,-38,1,7,11
5.49E+02,-7090,-3539,1528,69,63,121,1,7,11
5.50E+02,-7087,-3576,1822,-172,27,32,1,7,11
5.50E+02,-7080,-3908,1881,-539,0,-286,1,7,11
5.50E+02,-7073,-3737,1702,-569,-260,-340,1,7,11
5.50E+02,-7098,-3806,1744,-523,18,-379,1,7,11
5.51E+02,-7092,-4098,1771,-164,42,-381,1,7,11
5.51E+02,-7101,-3836,1764,-305,97,-353,1,7,11
5.51E+02,-7090,-3792,1740,52,-105,-292,1,7,11
5.51E+02,-7107,-3745,1703,93,-54,28,1,7,11
5.52E+02,-7082,-3953,1906,89,-45,117,1,7,11
5.52E+02,-7051,-3910,1840,36,256,-77,1,7,11
5.52E+02,-7063,-3899,1828,-316,314,-45,1,7,11
5.52E+02,-7090,-3913,1839,-147,343,-29,1,7,11
5.53E+02,-7131,-3943,1874,-203,333,-31,1,7,11
5.53E+02,-7158,-3716,1908,-221,277,-44,1,7,11
5.53E+02,-7142,-3738,1687,-203,-76,-65,1,7,11
5.53E+02,-7119,-3734,1689,-151,100,126,1,7,11
5.54E+02,-7143,-3730,1691,-366,32,47,1,7,11
5.54E+02,-7144,-3737,1695,-333,-281,-265,1,7,11
5.54E+02,-7152,-3746,1696,-307,-296,-313,1,7,11
5.54E+02,-7428,-3752,1717,-287,-269,-334,1,7,11
5.55E+02,-7439,-3772,1733,2,51,-314,1,7,11
5.55E+02,-7426,-3792,1741,66,-109,-275,1,7,11
5.55E+02,-7145,-3790,1717,-123,281,28,1,7,11
5.55E+02,-7119,-3768,1677,-82,187,58,1,7,11
5.56E+02,-7102,-3732,1888,-75,589,87,1,7,11
5.56E+02,-7062,-3953,1823,-113,443,121,1,7,11
5.56E+02,-7055,-3929,1505,60,800,-106,1,7,11
5.56E+02,-7076,-3919,1449,-305,868,-68,1,7,11
5.57E+02,-7128,-3917,1422,-150,651,-13,1,7,11
5.57E+02,-7484,-3942,1431,-217,651,317,1,7,11
5.57E+02,-7343,-3939,1457,-227,856,157,1,7,11
5.57E+02,-7370,-3921,1479,-180,504,251,1,7,11
5.58E+02,-7326,-3884,1504,-365,596,588,1,7,11
5.58E+02,-7303,-3572,1519,-282,346,549,1,7,11
5.58E+02,-7514,-3520,1505,58,-71,232,1,7,11
5.58E+02,-7466,-3478,1482,-97,92,146,1,7,11
5.59E+02,-7157,-3705,1460,-56,72,297,1,7,11
5.59E+02,-7141,-3690,1431,-43,125,-88,1,7,11
5.59E+02,-7162,-3697,1434,-42,-53,30,1,7,11
5.59E+02,-7159,-3706,1423,-44,276,-339,1,7,11
5.60E+02,-7165,-3466,1657,-60,369,-181,1,7,11
5.60E+02,-7150,-3487,1639,-108,194,-250,1,7,11
5.60E+02,-7134,-3515,1626,84,519,-569,1,7,11
5.60E+02,-7105,-3537,1604,10,556,-611,1,7,11
5.61E+02,-7096,-3574,1573,-336,573,-630,1,7,11
5.61E+02,-7103,-3888,1545,-154,574,-611,1,7,11
5.61E+02,-7428,-3952,1546,-202,579,-566,1,7,11
5.61E+02,-7505,-3763,1564,-210,537,-223,1,7,11
5.62E+02,-7315,-3790,1588,-151,207,-374,1,7,11
5.62E+02,-7360,-3798,1614,-316,359,-267,1,7,11
5.62E+02,-7324,-3788,1615,46,-41,94,1,7,11
5.62E+02,-7540,-3746,1601,-121,108,-118,1,7,11
5.63E+02,-7538,-3940,1589,-79,7,126,1,7,11
5.63E+02,-7527,-3870,1575,-91,-350,100,1,7,11
5.63E+02,-7531,-3551,1579,90,-182,67,1,7,11
5.63E+02,-7532,-3511,1602,-295,-251,41,1,7,11
5.64E+02,-7503,-3517,1629,-206,-578,29,1,7,11
5.64E+02,-7111,-3565,1656,-630,-397,6,1,7,11
5.64E+02,-7282,-3878,1432,-505,-603,-340,1,7,11
5.64E+02,-7049,-3937,1483,-833,-211,-179,1,7,11
5.65E+02,-7073,-3746,1514,-826,-337,-203,1,7,11
5.65E+02,-7074,-3796,1520,-512,50,-180,1,7,11
5.65E+02,-7077,-3825,1492,-448,-83,-142,1,7,11
5.65E+02,-7288,-4130,1454,-412,-19,-356,1,7,11
5.66E+02,-7257,-4137,1662,-398,281,-352,1,7,11
5.66E+02,-7242,-4152,1624,-427,291,-349,1,7,11
5.66E+02,-7279,-4172,1613,-473,292,-332,1,7,11
5.66E+02,-7099,-4202,1620,-773,274,-294,1,7,11
5.67E+02,-7168,-3980,1640,-787,-43,24,1,7,11
5.67E+02,-7460,-3988,1420,-468,109,93,1,7,11
5.67E+02,-7481,-3969,1461,-639,-259,-103,1,7,11
5.67E+02,-7472,-4193,1499,-532,-377,-45,1,7,11
5.68E+02,-7468,-4138,1514,-151,-212,-13,1,7,11
5.68E+02,-7450,-3822,1504,-288,-531,280,1,7,11
5.68E+02,-7140,-3771,1485,61,-547,310,1,7,11
5.68E+02,-7078,-3746,1466,111,-254,309,1,7,11
5.69E+02,-7044,-3731,1477,-122,-170,260,1,7,11
5.69E+02,-7055,-3728,1505,-115,-338,-80,1,7,11
5.69E+02,-7069,-3736,1519,-114,-283,98,1,7,11
5.69E+02,-7071,-3733,1519,119,18,28,1,7,11
5.70E+02,-7072,-3732,1516,62,67,-291,1,7,11
5.70E+02,-7069,-3732,1530,-269,103,-334,1,7,11
5.70E+02,-7056,-3728,1527,-351,-121,-360,1,7,11
5.70E+02,-7255,-3736,1520,-196,-113,-344,1,7,11
5.71E+02,-7227,-3736,1508,-539,-40,-340,1,7,11
5.71E+02,-7049,-3747,1813,-621,327,-335,1,7,11
5.71E+02,-7125,-3808,1838,-404,135,-257,1,7,11
5.71E+02,-7109,-3839,1846,-630,160,118,1,7,11
5.72E+02,-7093,-4109,1843,-561,217,-55,1,7,11
5.72E+02,-7052,-4113,1819,-212,535,-4,1,7,11
5.72E+02,-7058,-3839,1529,-368,563,-39,1,7,11
5.72E+02,-7058,-3822,1484,-291,585,-69,1,7,11
5.73E+02,-7045,-3806,1426,10,550,-90,1,7,11
5.73E+02,-7063,-3813,1630,53,553,-103,1,7,11
5.73E+02,-7107,-4104,1593,82,566,-97,1,7,11
5.73E+02,-7426,-4128,1553,-115,575,-77,1,7,11
5.74E+02,-7476,-4151,1250,-32,557,-47,1,7,11
5.74E+02,-7298,-4143,1199,286,254,-25,1,7,11
5.74E+02,-7376,-4099,1160,307,149,267,1,7,11
5.74E+02,-7423,-3794,1404,273,-13,319,1,7,11
5.75E+02,-7397,-3968,1391,-31,42,368,1,7,11
5.75E+02,-7377,-3890,1400,-117,-382,138,1,7,11
5.75E+02,-7341,-3565,1180,31,-530,153,1,7,11
5.75E+02,-7532,-3501,1233,-330,-401,153,1,7,11
5.76E+02,-7467,-3710,1546,-176,-466,377,1,7,11
5.76E+02,-7443,-3696,1643,-518,-471,326,1,7,11
5.76E+02,-7426,-3687,1485,-561,-448,275,1,7,11
5.76E+02,-7160,-3690,1831,-565,-389,-30,1,7,11
5.77E+02,-7137,-3711,1899,-533,-578,-66,1,7,11
5.77E+02,-7094,-3477,1686,-214,-235,-107,1,7,11
5.77E+02,-7080,-3483,1705,-132,-356,94,1,7,11
5.77E+02,-7051,-3499,1692,-306,38,64,1,7,11
5.78E+02,-7278,-3518,1664,43,-66,40,1,7,11
5.78E+02,-7281,-3547,1869,126,342,7,1,7,11
5.78E+02,-7288,-3584,1814,-51,203,-276,1,7,11
5.78E+02,-7088,-3888,1502,283,555,-317,1,7,11
5.79E+02,-7147,-3928,1460,349,585,-353,1,7,11
5.79E+02,-7474,-3949,1660,137,541,-138,1,7,11
5.79E+02,-7473,-3940,1603,150,167,-186,1,7,11
5.79E+02,-7490,-3926,1575,368,279,-244,1,7,11
5.80E+02,-7517,-3920,1573,288,-110,-573,1,7,11
5.80E+02,-7509,-3927,1595,-57,-45,-577,1,7,11
5.80E+02,-7499,-3949,1639,-120,-368,-549,1,7,11
5.80E+02,-7461,-3734,1431,86,-131,-249,1,7,11
5.81E+02,-7426,-3753,1493,109,-347,-235,1,7,11
5.81E+02,-7428,-3763,1799,-108,-283,-230,1,7,11
5.81E+02,-7156,-3743,1812,-64,24,-219,1,7,11
5.81E+02,-7160,-3726,1815,-57,80,-203,1,7,11
5.82E+02,-7141,-3962,1810,-79,125,-173,1,7,11
5.82E+02,-7117,-3955,1528,-127,-75,-147,1,7,11
5.82E+02,-7115,-3946,1506,75,-8,-379,1,7,11
5.82E+02,-7115,-3960,1484,16,293,-336,1,7,11
5.83E+02,-7092,-3720,1454,-297,323,-293,1,7,11
5.83E+02,-7119,-3729,1428,-353,344,-268,1,7,11
5.83E+02,-7148,-3739,1663,-154,317,17,1,7,11
5.83E+02,-7440,-3753,1661,-209,256,46,1,7,11
5.84E+02,-7489,-3749,1417,-249,-99,80,1,7,11
5.84E+02,-7506,-3741,1429,-532,16,-126,1,7,11
5.84E+02,-7494,-3726,1447,-545,-131,-90,1,7,11
5.84E+02,-7487,-3956,1488,-557,-525,-94,1,7,11
5.85E+02,-7437,-3939,1510,-574,-417,-118,1,7,11
5.85E+02,-7092,-3938,1526,-599,-773,79,1,7,11
5.85E+02,-7055,-3948,1820,-630,-786,-272,1,7,11
5.85E+02,-7041,-3726,1868,-389,-496,-355,1,7,11
5.86E+02,-7283,-3767,1919,-625,-426,-151,1,7,11
5.86E+02,-7272,-3802,1689,-584,-582,-179,1,7,11
5.86E+02,-7286,-3825,1698,-549,-217,-193,1,7,11
5.86E+02,-7273,-3831,1681,-542,-133,-182,1,7,11
5.87E+02,-7241,-3819,1917,-569,-316,-160,1,7,11
5.87E+02,-7259,-3812,1902,-638,6,-138,1,7,11
5.87E+02,-7292,-3827,1903,-466,38,-324,1,7,11
5.87E+02,-7062,-4101,1666,-782,55,24,1,7,11
5.88E+02,-7091,-4142,1673,-797,59,-126,1,7,11
5.88E+02,-7151,-4178,1701,-487,60,272,1,7,11
5.88E+02,-7435,-4173,1721,-634,13,344,1,7,11
5.88E+02,-7429,-4134,1706,-246,-318,130,1,7,11
5.89E+02,-7156,-3813,1665,-341,-132,383,1,7,11
5.89E+02,-7457,-3730,1895,-293,-167,347,1,7,11
5.89E+02,-7495,-3920,1881,-304,-215,328,1,7,11
5.89E+02,-7477,-3876,1857,-364,-522,331,1,7,11
5.90E+02,-7166,-3877,1861,-213,-534,314,1,7,11
5.90E+02,-7112,-3890,1889,-578,-515,260,1,7,11
5.90E+02,-7122,-3918,1695,-415,-189,-84,1,7,11
5.90E+02,-7116,-3960,1740,-460,-141,121,1,7,11
5.91E+02,-7091,-3744,1762,-444,-318,100,1,7,11
5.91E+02,-7102,-3768,1780,-637,55,94,1,7,11
5.91E+02,-7109,-3765,1775,-548,-98,114,1,7,11
5.91E+02,-7087,-3727,1737,-217,-30,-108,1,7,11
5.92E+02,-7050,-3935,1673,-189,267,-72,1,7,11
5.92E+02,-7079,-3888,1874,-218,298,-40,1,7,11
5.92E+02,-7140,-3878,1853,-514,309,-10,1,7,11
5.92E+02,-7440,-3880,1864,-574,291,294,1,7,11
5.93E+02,-7482,-3895,1880,-574,262,333,1,7,11
5.93E+02,-7496,-3913,1896,-533,-65,360,1,7,11
5.93E+02,-7474,-3903,1887,-214,111,346,1,7,11
5.93E+02,-7463,-3880,1874,-164,32,284,1,7,11
5.94E+02,-7474,-3852,1852,-139,-285,-58,1,7,11
5.94E+02,-7468,-3842,1832,-155,-341,-124,1,7,11
5.94E+02,-7429,-3864,1822,-203,-372,88,1,7,11
5.94E+02,-7154,-3901,1837,-514,-353,30,1,7,11
5.95E+02,-7155,-3942,1861,-553,-310,-275,1,7,11
5.95E+02,-7431,-3731,1883,-565,-258,-305,1,7,11
5.95E+02,-7452,-3763,1894,-550,42,-280,1,7,11
5.95E+02,-7462,-3770,1885,-524,91,29,1,7,11
5.96E+02,-7454,-3736,1863,-514,118,104,1,7,11
5.96E+02,-7436,-3936,1838,-541,-121,-78,1,7,11
5.96E+02,-7458,-3884,1823,-613,123,260,1,7,11
5.96E+02,-7433,-3850,1815,-448,65,364,1,7,11
5.97E+02,-7433,-3579,1832,-804,17,183,1,7,11
5.97E+02,-7167,-3847,1879,-872,-296,233,1,7,11
5.97E+02,-7167,-3861,1670,-887,-359,238,1,7,11
5.97E+02,-7156,-3870,1714,-871,-194,201,1,7,11
5.98E+02,-7119,-3876,1745,-831,-566,376,1,7,11
5.98E+02,-7114,-3876,1766,-779,-420,258,1,7,11
5.98E+02,-7089,-3898,1767,-480,-784,-116,1,7,11
5.98E+02,-7279,-3937,1771,-442,-842,21,1,7,11
5.99E+02,-7253,-3732,2054,-404,-824,-366,1,7,11
5.99E+02,-7262,-3799,2069,-606,-500,-219,1,7,11
5.99E+02,-7277,-4097,2065,-538,-409,-530,1,7,11
5.99E+02,-7293,-4130,1787,-204,-542,-529,1,7,11
6.00E+02,-7046,-4145,1757,-137,-129,-238,1,7,11
6.00E+02,-7284,-4140,1721,-344,17,-148,1,7,11
6.00E+02,-7285,-4102,1694,-349,-57,-363,1,7,11
6.00E+02,-7060,-3804,1677,-151,262,-316,1,7,11
6.01E+02,-7047,-3782,1905,-234,267,19,1,7,11
6.01E+02,-7049,-3783,1895,-564,292,93,1,7,11
6.01E+02,-7048,-3819,1900,-582,335,-96,1,7,11
6.01E+02,-7056,-4115,1912,-521,147,-55,1,7,11
6.02E+02,-7085,-4129,1676,-138,217,-54,1,7,11
6.02E+02,-7149,-4128,1689,28,252,-77,1,7,11
6.02E+02,-7457,-4109,1669,-43,212,-103,1,7,11
6.02E+02,-7483,-3799,1862,375,136,119,1,7,11
6.03E+02,-7500,-3968,1801,213,311,64,1,7,11
6.03E+02,-7305,-3881,1503,221,-21,7,1,7,11
6.03E+02,-7552,-3568,1458,143,126,-264,1,7,11
6.03E+02,-7527,-3548,1488,257,57,-285,1,7,11
6.04E+02,-7495,-3543,1524,-125,25,-302,1,7,11
6.04E+02,-7463,-3565,1848,19,26,-325,1,7,11
6.04E+02,-7157,-3863,1907,-297,36,-351,1,7,11
6.04E+02,-7114,-3899,1710,-299,72,-143,1,7,11
6.05E+02,-7077,-3929,1748,-283,112,-201,1,7,11
6.05E+02,-7053,-3939,1747,-263,-105,-519,1,7,11
6.05E+02,-7277,-3925,1722,-265,-51,-574,1,7,11
6.05E+02,-7052,-3902,1692,-307,294,-613,1,7,11
6.06E+02,-7054,-3903,1681,-143,340,-601,1,7,11
6.06E+02,-7287,-3923,1686,-244,370,-568,1,7,11
6.06E+02,-7231,-3957,1913,-591,370,-539,1,7,11
6.06E+02,-7214,-3771,1666,-406,140,-535,1,7,11
6.07E+02,-7208,-4117,1707,-415,156,-530,1,7,11
6.07E+02,-7224,-4189,1706,-584,169,-536,1,7,11
6.07E+02,-7049,-3995,1729,-202,192,-550,1,7,11
6.07E+02,-7104,-4040,1730,-282,156,-532,1,7,11
6.08E+02,-7159,-4062,1713,-85,354,-255,1,7,11
6.08E+02,-7457,-4033,1667,364,280,-236,1,7,11
6.08E+02,-7464,-4214,1843,234,-65,-208,1,7,11
6.08E+02,-7455,-4195,1799,528,98,-180,1,7,11
6.09E+02,-7438,-4156,1522,249,39,-159,1,7,11
6.09E+02,-7166,-4137,1535,162,18,-140,1,7,11
6.09E+02,-7426,-4140,1829,325,40,-375,1,7,11
6.09E+02,-7159,-4150,1875,-23,56,-345,1,7,11
6.10E+02,-7121,-4154,1902,-88,64,-278,1,7,11
6.10E+02,-7090,-4164,1682,119,82,18,1,7,11
6.10E+02,-7082,-4154,1704,92,112,45,1,7,11
6.10E+02,-7063,-4131,1715,68,119,79,1,7,11
6.11E+02,-7056,-3837,1708,48,125,118,1,7,11
6.11E+02,-7291,-3799,1721,15,117,-93,1,7,11
6.11E+02,-7256,-3764,1719,-285,105,-56,1,7,11
6.11E+02,-7200,-3736,1704,-337,92,-32,1,7,11
6.12E+02,-6892,-3735,1676,-143,97,-33,1,7,11
6.12E+02,-6864,-3743,1909,-207,122,-62,1,7,11
6.12E+02,-6863,-3771,1885,-521,-97,-112,1,7,11
6.12E+02,-6893,-3814,1880,-558,-70,97,1,7,11
6.13E+02,-7212,-4123,1879,-554,-45,50,1,7,11
6.13E+02,-7080,-4157,1899,-241,-35,4,1,7,11
6.13E+02,-7163,-4170,1666,-158,-99,-261,1,7,11
6.13E+02,-7442,-4144,1679,-328,36,-265,1,7,11
6.14E+02,-7162,-4102,1684,-294,-368,-281,1,7,11
6.14E+02,-7115,-3811,1716,-322,-251,-320,1,7,11
6.14E+02,-7270,-3787,1757,-155,-414,-134,1,7,11
6.14E+02,-7212,-3798,1777,-243,-442,-182,1,7,11
6.15E+02,-6908,-3821,2062,-591,-398,-229,1,7,11
6.15E+02,-6893,-4121,2121,-428,-560,-522,1,7,11
6.15E+02,-6904,-4174,2174,-478,-184,-540,1,7,11
6.15E+02,-7178,-3977,1973,-486,-326,-519,1,7,11
6.16E+02,-7191,-4014,2004,-436,56,-215,1,7,11
6.16E+02,-7226,-4026,2013,-597,-67,-155,1,7,11
6.16E+02,-7235,-4008,1976,-232,299,-325,1,7,11
6.16E+02,-7222,-3980,1925,-383,148,22,1,7,11
6.17E+02,-7218,-4211,2098,-300,255,98,1,7,11
6.17E+02,-7215,-4198,1782,7,607,-111,1,7,11
6.17E+02,-7219,-4192,1757,42,414,-103,1,7,11
6.17E+02,-7228,-4190,1740,75,424,122,1,7,11
6.18E+02,-7220,-4206,1732,113,619,63,1,7,11
6.18E+02,-7229,-4206,1714,-95,531,-281,1,7,11
6.18E+02,-7248,-4213,1703,-42,173,-370,1,7,11
6.18E+02,-7055,-4209,1699,277,333,-194,1,7,11
6.19E+02,-7112,-4182,1686,341,-30,-240,1,7,11
6.19E+02,-7120,-4164,1665,375,115,-240,1,7,11
6.19E+02,-7079,-4147,1894,363,36,-233,1,7,11
6.19E+02,-7059,-4136,1892,291,5,-254,1,7,11
6.20E+02,-7289,-4155,1665,-67,-271,-524,1,7,11
6.20E+02,-7257,-4195,1730,90,-265,-537,1,7,11
6.20E+02,-7234,-4026,1780,16,13,-538,1,7,11
6.20E+02,-7197,-4094,2095,-267,48,-533,1,7,11
6.21E+02,-7185,-4410,2149,9,119,-537,1,7,11
6.21E+02,-7185,-4435,1921,81,-119,-532,1,7,11
6.21E+02,-7233,-4442,1931,-82,-81,-521,1,7,11
6.21E+02,-7221,-4415,2168,262,-88,-215,1,7,11
6.22E+02,-7202,-4373,2152,323,-89,-370,1,7,11
6.22E+02,-7170,-4074,2139,336,-79,-305,1,7,11
6.22E+02,-7175,-4058,2135,313,-53,11,1,7,11
6.22E+02,-6900,-4056,2139,306,-32,90,1,7,11
6.23E+02,-7180,-4061,2168,320,272,-111,1,7,11
6.23E+02,-7205,-4059,1939,377,278,-55,1,7,11
6.23E+02,-7227,-4042,1942,201,256,-9,1,7,11
6.23E+02,-7230,-4021,1924,540,-49,280,1,7,11
6.24E+02,-7230,-3980,2145,611,-80,293,1,7,11
6.24E+02,-7237,-4205,2123,637,-100,287,1,7,11
6.24E+02,-7248,-4172,2113,617,120,261,1,7,11
6.24E+02,-7268,-4147,2107,545,40,-38,1,7,11
6.25E+02,-7264,-4148,2127,168,-331,-87,1,7,11
6.25E+02,-7236,-4158,2141,295,-191,118,1,7,11
6.25E+02,-7218,-4179,2164,-100,-527,68,1,7,11
6.25E+02,-7223,-4213,1961,39,-570,36,1,7,11
6.26E+02,-7213,-3997,2029,-290,-585,35,1,7,11
6.26E+02,-7217,-4022,2348,-307,-554,51,1,7,11
6.26E+02,-7230,-4023,2405,-280,-248,94,1,7,11
6.26E+02,-7252,-3993,2198,50,-173,-104,1,7,11
6.27E+02,-7251,-4198,2216,125,-376,-19,1,7,11
6.27E+02,-7186,-4124,2204,-87,-327,316,1,7,11
6.27E+02,-6886,-3809,2190,-93,17,348,1,7,11
6.27E+02,-6854,-3762,2414,-112,99,367,1,7,11
6.28E+02,-6838,-3746,2380,105,-63,365,1,7,11
6.28E+02,-6849,-3741,2352,54,282,340,1,7,11
6.28E+02,-6876,-3758,2325,17,337,299,1,7,11
6.28E+02,-7182,-3784,2045,-257,360,-4,1,7,11
6.29E+02,-7252,-3815,2026,10,354,-46,1,7,11
6.29E+02,-7093,-3840,1940,45,305,-71,1,7,11
6.29E+02,-7149,-4101,2155,80,-76,-92,1,7,11
6.29E+02,-7150,-4102,2117,86,57,-85,1,7,11
6.30E+02,-7123,-3840,2087,58,-306,-97,1,7,11
6.30E+02,-7133,-4103,2105,-263,-149,-124,1,7,11
6.30E+02,-7107,-4118,2138,-329,-518,120,1,7,11
6.30E+02,-7098,-4133,1948,-136,-598,104,1,7,11
6.31E+02,-7101,-4161,2028,-182,-406,97,1,7,11
6.31E+02,-7081,-4183,2361,-196,-472,115,1,7,11
6.31E+02,-7291,-4188,2427,-179,-775,-115,1,7,11
6.31E+02,-7259,-4180,2225,-154,-775,-101,1,7,11
6.32E+02,-7244,-4155,2245,-383,-484,-82,1,7,11
6.32E+02,-7218,-4127,2278,-369,-435,-47,1,7,11
6.32E+02,-6909,-3828,2286,-361,-618,-4,1,7,11
6.32E+02,-6893,-3787,2299,-384,-521,287,1,7,11
6.33E+02,-6838,-3773,2295,-172,-196,338,1,7,11
6.33E+02,-7034,-3773,2282,-212,-353,357,1,7,11
6.33E+02,-7030,-3795,2275,-250,21,341,1,7,11
6.33E+02,-6836,-3831,2287,-250,-127,304,1,7,11
6.34E+02,-7171,-3840,2302,-188,-67,284,1,7,11
6.34E+02,-7256,-4115,2562,-345,-69,285,1,7,11
6.34E+02,-7294,-4104,2272,33,109,296,1,7,11
6.34E+02,-7064,-3820,2224,121,-273,272,1,7,11
6.35E+02,-7094,-3780,2181,-104,-181,-32,1,7,11
6.35E+02,-7111,-3748,2424,-112,-635,-83,1,7,11
6.35E+02,-7097,-3723,2186,113,-853,126,1,7,11
6.35E+02,-7076,-3735,2220,45,-1061,74,1,7,11
6.36E+02,-7050,-3742,2274,-276,-985,30,1,7,11
6.36E+02,-7075,-3762,2603,-341,-1347,11,1,7,11
6.36E+02,-7084,-3803,2685,-152,-1391,98,1,7,11
6.36E+02,-7069,-4106,2525,-225,-1356,-7,1,7,11
6.37E+02,-7044,-4150,2879,-244,-1292,166,1,7,11
6.37E+02,-7242,-4159,2703,-231,-950,593,1,7,11
6.37E+02,-7188,-4142,2761,-201,-1109,489,1,7,11
6.37E+02,-6892,-4102,2784,-150,-755,875,1,7,11
6.38E+02,-6872,-3787,2787,-357,-651,728,1,7,11
6.38E+02,-6863,-3732,2745,-315,-816,1089,1,7,11
6.38E+02,-7172,-3908,2695,-281,-445,908,1,7,11
6.38E+02,-7279,-3558,2915,-258,-589,977,1,7,11
6.39E+02,-7428,-3468,2911,11,-520,1310,1,7,11
6.39E+02,-7494,-3635,2908,9,-578,1400,1,7,11
6.39E+02,-7461,-3315,2914,-272,-462,1184,1,7,11
6.39E+02,-7150,-3247,2937,-307,-845,1370,1,7,11
6.40E+02,-7078,-3453,2734,-340,-694,910,1,7,11
6.40E+02,-7247,-3209,2780,-352,-1034,741,1,7,11
6.40E+02,-7201,-3223,3089,-338,-728,794,1,7,11
6.40E+02,-7226,-3241,3172,-313,-885,577,1,7,11
6.41E+02,-7266,-3256,3009,-277,-794,153,1,7,11
6.41E+02,-7272,-3272,3330,36,-451,298,1,7,11
6.41E+02,-7051,-3279,3389,76,-601,-32,1,7,11
6.41E+02,-7292,-3274,3402,108,-518,-53,1,7,11
6.42E+02,-7247,-3253,3401,124,-165,-53,1,7,11
6.42E+02,-7219,-3215,3371,117,-309,-46,1,7,11
6.42E+02,-7237,-3427,3060,87,67,-14,1,7,11
6.42E+02,-7244,-3385,2986,31,-85,307,1,7,11
6.43E+02,-7041,-3364,2945,-312,280,372,1,7,11
6.43E+02,-7118,-3348,3189,-140,347,178,1,7,11
6.43E+02,-7456,-3351,2951,-200,353,234,1,7,11
6.43E+02,-7481,-3353,2957,-226,288,531,1,7,11
6.44E+02,-7468,-3345,3198,-231,-53,534,1,7,11
6.44E+02,-7470,-3340,2948,-232,-118,243,1,7,11
6.44E+02,-7479,-3348,2967,-240,74,207,1,7,11
6.44E+02,-7442,-3380,2976,-239,9,177,1,7,11
6.45E+02,-7143,-3412,2992,-230,-278,382,1,7,11
6.45E+02,-7165,-3442,3025,-213,-262,306,1,7,11
6.45E+02,-7450,-3205,3061,-191,8,264,1,7,11
6.45E+02,-7465,-3226,3068,-145,21,268,1,7,11
6.46E+02,-7466,-3237,3048,-337,58,315,1,7,11
6.46E+02,-7447,-3240,3000,-261,-124,382,1,7,11
6.46E+02,-7157,-3215,3194,55,-29,203,1,7,11
6.46E+02,-7116,-3423,3127,64,315,254,1,7,11
6.47E+02,-7135,-3351,3076,15,132,539,1,7,11
6.47E+02,-7455,-3029,2775,-324,155,585,1,7,11
6.47E+02,-7505,-2975,2765,-168,369,410,1,7,11
6.47E+02,-7314,-3182,2787,-521,307,500,1,7,11
6.48E+02,-7322,-3155,3092,-603,-61,851,1,7,11
6.48E+02,-7297,-3133,3130,-394,62,649,1,7,11
6.48E+02,-7505,-3103,3184,-422,-320,642,1,7,11
6.48E+02,-7532,-3073,3017,-443,-164,838,1,7,11
6.49E+02,-7534,-3090,3046,-468,-546,806,1,7,11
6.49E+02,-7472,-3144,3067,-497,-398,791,1,7,11
6.49E+02,-7130,-2957,3360,-505,-427,487,1,7,11
6.49E+02,-7105,-3019,3413,-480,-640,626,1,7,11
6.50E+02,-7126,-3329,3449,-411,-550,553,1,7,11
6.50E+02,-7427,-3340,3453,-543,-376,516,1,7,11
6.50E+02,-7478,-3333,3421,-333,3,531,1,7,11
6.50E+02,-7476,-3027,3375,23,111,574,1,7,11
