timestamp,ax,ay,az,gx,gy,gz,Label1,Label2,Label3
7.37E+02,-6773,-4265,2716,-377,339,262,1,7,11
7.54E+02,-6542,-4263,2720,-169,373,-9,1,7,11
7.66E+02,-6934,-4467,2939,-432,294,295,1,7,11
7.77E+02,-6976,-4470,2695,-436,-10,139,1,7,11
7.91E+02,-7021,-4446,2708,-406,-58,255,1,7,11
8.07E+02,-6832,-4430,2734,-636,118,435,1,7,11
8.22E+02,-6786,-4454,2724,-602,39,652,1,7,11
8.33E+02,-6960,-4468,2693,-554,34,757,1,7,11
8.38E+02,-6655,-4477,2926,-520,97,750,1,7,11
8.39E+02,-6615,-4474,2905,-214,-77,668,1,7,11
8.39E+02,-6629,-4439,2904,-190,270,792,1,7,11
8.39E+02,-6915,-4404,2894,-188,311,417,1,7,11
8.40E+02,-6933,-4383,2888,-197,323,586,1,7,11
8.43E+02,-6947,-4388,2879,-229,323,235,1,7,11
8.51E+02,-6982,-4377,2883,-222,323,148,1,7,11
8.60E+02,-6979,-4385,2852,-205,305,333,1,7,11
8.68E+02,-6997,-4365,2833,-174,314,-38,1,7,11
8.71E+02,-6786,-4056,2546,-162,321,-123,1,7,11
8.67E+02,-6810,-4048,2534,-167,334,114,1,7,11
8.61E+02,-6841,-4039,2523,-164,347,114,1,7,11
8.53E+02,-6849,-4034,2514,-155,339,-124,1,7,11
8.48E+02,-6844,-4036,2493,-150,336,-112,1,7,11
8.46E+02,-6855,-4015,2480,-136,347,-109,1,7,11
8.46E+02,-6869,-4002,2476,-141,348,-98,1,7,11
8.48E+02,-6886,-3989,2466,-147,366,-84,1,7,11
8.49E+02,-6904,-3982,2450,-153,136,-64,1,7,11
8.49E+02,-6906,-4215,2687,-158,156,-44,1,7,11
8.44E+02,-7169,-4182,2652,-182,193,-14,1,7,11
8.32E+02,-7172,-4165,2621,-240,229,280,1,7,11
8.15E+02,-6900,-4157,2592,-576,514,324,1,7,11
7.95E+02,-6880,-4199,2574,-433,533,351,1,7,11
7.73E+02,-6850,-3993,2292,-788,537,359,1,7,11
7.50E+02,-6816,-4063,2262,-884,533,329,1,7,11
7.27E+02,-6804,-4372,2224,-691,524,257,1,7,11
7.05E+02,-6818,-4401,2185,-728,512,-91,1,7,11
6.88E+02,-6850,-4412,2415,-745,237,79,1,7,11
6.80E+02,-6881,-4416,2388,-746,204,30,1,7,11
6.79E+02,-7175,-4422,2381,-725,173,25,1,7,11
6.80E+02,-7183,-4433,2367,-682,131,54,1,7,11
6.71E+02,-7186,-4448,2356,-869,349,89,1,7,11
6.55E+02,-7194,-4452,2360,-787,323,118,1,7,11
6.38E+02,-7211,-4459,2360,-437,292,-109,1,7,11
6.27E+02,-7227,-4454,2357,-585,264,-79,1,7,11
6.23E+02,-7227,-4424,2355,-210,-22,-49,1,7,11
6.22E+02,-7223,-4389,2353,-366,-39,-28,1,7,11
6.23E+02,-7217,-4365,2358,-288,-49,-11,1,7,11
6.24E+02,-7214,-4095,2370,35,-54,-3,1,7,11
6.23E+02,-7213,-4082,2383,89,-54,-8,1,7,11
6.26E+02,-7191,-4057,2375,-124,-56,-24,1,7,11
6.40E+02,-7171,-4035,2359,-116,-51,-56,1,7,11
6.65E+02,-7169,-4020,2369,116,-44,-99,1,7,11
6.95E+02,-6908,-3994,2351,81,-37,90,1,7,11
7.24E+02,-6912,-3978,2335,31,-19,64,1,7,11
7.50E+02,-7174,-4216,2318,-296,-7,58,1,7,11
7.73E+02,-7187,-4215,2045,-381,268,63,1,7,11
7.94E+02,-7207,-3985,2043,-212,286,83,1,7,11
8.12E+02,-7210,-4014,2033,-540,295,125,1,7,11
8.22E+02,-7203,-4037,2015,-582,294,-110,1,7,11
8.21E+02,-7201,-4054,2006,-605,301,-102,1,7,11
8.09E+02,-7218,-4078,2021,-620,307,-104,1,7,11
7.94E+02,-7264,-4093,2037,-566,295,-88,1,7,11
7.85E+02,-7264,-4072,2037,-513,275,-60,1,7,11
7.87E+02,-7182,-4213,1951,-132,300,-25,1,7,11
7.92E+02,-7180,-4200,1929,-172,337,-46,1,7,11
7.91E+02,-7261,-3978,2065,-391,157,-119,1,7,11
7.77E+02,-7266,-3989,1780,-421,149,120,1,7,11
7.58E+02,-7290,-4003,1770,-443,145,109,1,7,11
7.44E+02,-7064,-4012,1771,-441,128,119,1,7,11
7.43E+02,-7079,-4010,1753,-420,352,-107,1,7,11
7.50E+02,-7084,-4001,1752,-394,322,-66,1,7,11
7.59E+02,-7099,-3992,1748,-617,296,-22,1,7,11
7.63E+02,-7111,-3975,1739,-566,274,289,1,7,11
7.63E+02,-7115,-4211,1720,-531,-2,341,1,7,11
7.57E+02,-7108,-4206,1710,-251,-13,382,1,7,11
7.47E+02,-7101,-4201,1697,-223,-12,147,1,7,11
7.35E+02,-7096,-4187,1666,-190,-4,143,1,7,11
7.23E+02,-7097,-4183,1664,-182,257,373,1,7,11
7.13E+02,-7110,-4207,1676,-172,-4,337,1,7,11
7.05E+02,-7120,-4211,1695,-152,-25,295,1,7,11
7.01E+02,-7116,-4204,1691,-374,-70,-11,1,7,11
6.99E+02,-7096,-4194,1696,-350,-116,-65,1,7,11
6.98E+02,-7084,-4204,1700,-359,109,-123,1,7,11
6.94E+02,-7081,-4196,1684,-381,85,83,1,7,11
6.90E+02,-7072,-4188,1915,-160,66,58,1,7,11
6.90E+02,-7060,-4174,1908,-223,64,51,1,7,11
7.02E+02,-7069,-4180,1914,-560,79,71,1,7,11
7.20E+02,-7085,-4196,1910,-631,92,119,1,7,11
7.31E+02,-7098,-4204,1909,-427,97,-70,1,7,11
7.26E+02,-7118,-4203,1895,-449,106,259,1,7,11
7.11E+02,-7136,-4199,1885,-457,112,327,1,7,11
7.03E+02,-7132,-4192,1870,-447,108,378,1,7,11
7.12E+02,-7125,-4168,1833,-431,115,148,1,7,11
7.32E+02,-7123,-4160,1827,-417,-122,149,1,7,11
7.48E+02,-7131,-4152,1823,-400,-96,130,1,7,11
7.48E+02,-7144,-4138,1814,-619,-76,351,1,7,11
7.35E+02,-7136,-4132,1822,-537,-39,-34,1,7,11
7.18E+02,-7134,-4133,1827,-227,-33,-65,1,7,11
7.02E+02,-7126,-4127,1828,-155,-28,-124,1,7,11
6.92E+02,-7118,-3840,1813,-341,-22,74,1,7,11
6.88E+02,-7111,-3795,1511,-292,-13,36,1,7,11
6.91E+02,-7103,-3752,1467,-279,263,8,1,7,11
6.96E+02,-7108,-3742,1450,-326,293,0,1,7,11
6.99E+02,-7121,-3751,1458,-140,342,-258,1,7,11
6.99E+02,-7141,-3786,1487,-198,355,5,1,7,11
6.96E+02,-7165,-3820,1482,-222,350,22,1,7,11
6.91E+02,-7143,-4157,1661,-161,-9,34,1,7,11
6.85E+02,-7135,-4163,1613,-172,-33,4,1,7,11
6.80E+02,-7524,-4207,1606,-143,-81,308,1,7,11
6.76E+02,-7503,-4211,1613,-288,-95,357,1,7,11
6.77E+02,-7131,-4116,1425,340,123,47,1,7,11
6.83E+02,-7160,-3800,1489,-91,-57,72,1,7,11
6.92E+02,-7155,-3840,1518,-100,-84,104,1,7,11
7.00E+02,-7137,-4119,1528,-64,-106,125,1,7,11
6.98E+02,-7131,-4121,1527,-27,-113,-127,1,7,11
6.87E+02,-7114,-4112,1511,-6,-115,116,1,7,11
6.78E+02,-7120,-3834,1477,-11,-112,87,1,7,11
6.78E+02,-7107,-3806,1422,-47,-118,59,1,7,11
6.84E+02,-7112,-3804,1654,123,-117,38,1,7,11
6.87E+02,-7155,-3817,1650,0,-97,25,1,7,11
6.82E+02,-7467,-3826,1635,-334,-78,60,1,7,11
6.74E+02,-7511,-3822,1625,-367,-73,-123,1,7,11
6.71E+02,-7522,-3828,1612,-371,-84,-21,1,7,11
6.76E+02,-7528,-3838,1610,-347,-91,327,1,7,11
6.85E+02,-7513,-3836,1614,-286,-98,129,1,7,11
6.93E+02,-7498,-3833,1619,49,-99,138,1,7,11
6.98E+02,-7493,-3822,1632,-123,-102,377,1,7,11
6.97E+02,-7493,-3821,1414,-55,-110,318,1,7,11
6.90E+02,-7502,-3812,1458,-2,-124,-25,1,7,11
6.85E+02,-7494,-3766,1465,330,103,-105,1,7,11
6.93E+02,-7456,-3908,1457,134,75,46,1,7,11
7.20E+02,-7455,-3904,1495,320,72,24,1,7,11
7.51E+02,-7127,-3741,1455,-318,72,65,1,7,11
7.69E+02,-7136,-3762,1419,-146,73,41,1,7,11
7.61E+02,-7499,-4100,1603,-336,273,-15,1,7,11
7.40E+02,-7529,-3832,1597,-280,289,264,1,7,11
7.27E+02,-7551,-3819,1603,79,308,259,1,7,11
7.33E+02,-7316,-3812,1627,-86,304,-25,1,7,11
7.46E+02,-7319,-3798,1658,-9,249,-67,1,7,11
7.52E+02,-7300,-3773,1433,324,-71,-116,1,7,11
7.38E+02,-7523,-3732,1463,375,-124,84,1,7,11
7.16E+02,-7496,-3921,1469,163,99,41,1,7,11
6.98E+02,-7448,-3847,1441,164,75,25,1,7,11
6.92E+02,-7157,-3567,1449,-9,78,7,1,7,11
6.90E+02,-7154,-3859,1504,91,98,5,1,7,11
6.81E+02,-7143,-3891,1525,-266,107,16,1,7,11
6.68E+02,-7125,-3936,1796,-342,118,27,1,7,11
6.63E+02,-7115,-3722,1805,-366,-114,52,1,7,11
6.74E+02,-7113,-3762,1795,-138,-78,83,1,7,11
6.97E+02,-7127,-3783,1520,-379,-40,115,1,7,11
7.19E+02,-7127,-3778,1469,-368,-6,-109,1,7,11
7.30E+02,-7142,-3763,1422,-137,284,-96,1,7,11
7.34E+02,-7163,-3761,1647,-175,309,-92,1,7,11
7.35E+02,-7446,-3761,1624,-218,321,-97,1,7,11
7.40E+02,-7494,-3782,1598,-245,314,-96,1,7,11
7.49E+02,-7542,-3807,1604,-244,300,-80,1,7,11
7.60E+02,-7334,-3814,1604,-197,282,-46,1,7,11
7.73E+02,-7360,-3795,1588,-370,264,260,1,7,11
7.83E+02,-7370,-3771,1571,-292,-10,308,1,7,11
7.86E+02,-7368,-3752,1568,21,-23,345,1,7,11
7.78E+02,-7361,-3731,1597,83,-40,366,1,7,11
7.67E+02,-7337,-3956,1615,-106,-63,364,1,7,11
7.64E+02,-7305,-3924,1629,-53,-88,338,1,7,11
7.79E+02,-7518,-3885,1633,-41,-115,290,1,7,11
8.05E+02,-7467,-3865,1629,-88,116,-34,1,7,11
8.30E+02,-7428,-3854,1631,79,100,-119,1,7,11
8.40E+02,-7129,-3870,1622,-306,82,51,1,7,11
8.34E+02,-7087,-3902,1610,-194,68,-279,1,7,11
8.20E+02,-7056,-3957,1608,-585,70,-338,1,7,11
8.09E+02,-7055,-3755,1598,-415,96,-359,1,7,11
8.09E+02,-7129,-4107,1278,-622,285,-109,1,7,11
8.15E+02,-7479,-3833,1269,-546,326,-37,1,7,11
8.26E+02,-7543,-3818,1269,-229,350,316,1,7,11
8.36E+02,-7319,-3794,1258,-154,342,366,1,7,11
8.44E+02,-7337,-3777,1253,-340,310,136,1,7,11
8.44E+02,-7344,-3760,1259,-275,278,383,1,7,11
8.34E+02,-7359,-3762,1541,20,-7,326,1,7,11
8.16E+02,-7375,-3738,1562,52,-25,286,1,7,11
7.96E+02,-7358,-3935,1579,109,-67,-63,1,7,11
7.79E+02,-7327,-3877,1585,-111,-112,89,1,7,11
7.70E+02,-7300,-3575,1605,-111,102,-360,1,7,11
7.67E+02,-7535,-3558,1647,102,62,-527,1,7,11
7.68E+02,-7518,-3558,1436,48,11,-451,1,7,11
7.71E+02,-7513,-3569,1506,-296,-323,-885,1,7,11
7.74E+02,-7490,-3584,1823,-355,-131,-1027,1,7,11
7.75E+02,-7167,-3861,1871,-187,-202,-1135,1,7,11
7.71E+02,-7103,-3892,1909,-552,-243,-962,1,7,11
7.61E+02,-7271,-3898,1875,-409,-516,-999,1,7,11
7.46E+02,-7175,-3905,1828,-841,-237,-1010,1,7,11
7.27E+02,-6828,-3948,1518,-1091,-179,-1002,1,7,11
7.10E+02,-7009,-3721,1430,-1351,-328,-975,1,7,11
7.01E+02,-6923,-3960,1261,-1608,72,-917,1,7,11
7.00E+02,-6615,-3943,1337,-1920,285,-1108,1,7,11
7.04E+02,-6938,-3813,993,-2308,545,-768,1,7,11
7.08E+02,-6828,-4034,968,-2571,770,-889,1,7,11
7.10E+02,-7275,-4236,916,-2590,670,-457,1,7,11
7.16E+02,-7159,-4349,1076,-2382,734,-237,1,7,11
7.29E+02,-7531,-4714,759,-2101,757,-295,1,7,11
7.47E+02,-7351,-4511,716,-1458,736,-117,1,7,11
7.64E+02,-7397,-4511,683,-1294,685,279,1,7,11
7.77E+02,-7392,-4717,670,-886,862,380,1,7,11
7.83E+02,-7320,-4636,665,-537,778,173,1,7,11
7.85E+02,-7510,-4325,693,-297,473,153,1,7,11
7.85E+02,-7438,-4231,705,-101,430,337,1,7,11
7.87E+02,-7132,-4397,734,262,419,-41,1,7,11
7.93E+02,-7105,-4059,763,296,419,80,1,7,11
8.09E+02,-7109,-4014,1042,259,417,-300,1,7,11
8.34E+02,-7146,-4215,1050,-51,417,-132,1,7,11
8.60E+02,-7164,-4130,1028,-105,401,-160,1,7,11
8.78E+02,-7436,-3776,711,50,402,-155,1,7,11
8.79E+02,-7484,-3725,679,-368,419,-376,1,7,11
8.64E+02,-7502,-3926,871,-245,423,-297,1,7,11
8.38E+02,-7531,-3857,797,-632,449,12,1,7,11
8.06E+02,-7337,-3568,486,-775,489,29,1,7,11
7.71E+02,-7415,-3547,433,-878,770,10,1,7,11
7.34E+02,-7717,-3558,613,-701,499,-301,1,7,11
6.96E+02,-7699,-3842,253,-1033,442,-148,1,7,11
6.64E+02,-7384,-3904,173,-1121,384,-567,1,7,11
6.48E+02,-7323,-3747,380,-938,600,-508,1,7,11
6.56E+02,-7519,-4104,334,-958,561,-685,1,7,11
6.74E+02,-7481,-3973,328,-943,548,-1080,1,7,11
6.83E+02,-7466,-4082,352,-1100,543,-1123,1,7,11
6.75E+02,-7455,-4426,381,-662,535,-1070,1,7,11
6.63E+02,-7449,-4471,147,-428,528,-682,1,7,11
6.64E+02,-7437,-4468,143,-174,523,-498,1,7,11
6.77E+02,-7159,-4448,142,30,525,-558,1,7,11
6.95E+02,-7153,-4425,158,-96,535,-383,1,7,11
7.10E+02,-7166,-4387,177,259,545,20,1,7,11
7.23E+02,-7473,-4072,233,322,552,-118,1,7,11
7.39E+02,-7501,-4046,572,336,248,-38,1,7,11
7.60E+02,-7534,-4052,385,342,164,-8,1,7,11
7.84E+02,-7309,-4219,621,142,331,-11,1,7,11
8.06E+02,-7364,-3766,228,136,257,-28,1,7,11
8.21E+02,-7364,-3947,354,272,-124,-28,1,7,11
8.27E+02,-7338,-3785,-16,-430,-296,-103,1,7,11
8.26E+02,-7550,-4138,-21,-885,-146,93,1,7,11
8.21E+02,-7439,-4009,-35,-757,-532,53,1,7,11
8.14E+02,-7057,-4411,-34,-1061,-619,18,1,7,11
8.06E+02,-7226,-4303,264,-1074,-419,-274,1,7,11
7.97E+02,-6904,-4718,323,-1032,-461,-284,1,7,11
7.88E+02,-6865,-4542,365,-652,-474,-274,1,7,11
7.78E+02,-6819,-4580,136,-799,-484,16,1,7,11
7.67E+02,-6819,-4539,172,-436,-474,59,1,7,11
7.55E+02,-6852,-4731,202,-608,-460,-112,1,7,11
7.42E+02,-7188,-4633,215,-556,-449,-19,1,7,11
7.31E+02,-7080,-4245,253,-563,-459,323,1,7,11
7.20E+02,-7449,-4073,531,-618,-807,177,1,7,11
7.09E+02,-7302,-4159,574,-492,-676,524,1,7,11
6.95E+02,-7396,-3960,617,-875,-1098,630,1,7,11
6.78E+02,-7396,-3564,582,-1057,-1291,779,1,7,11
6.62E+02,-7336,-3520,562,-1288,-1200,888,1,7,11
6.48E+02,-7500,-3485,252,-1279,-1581,644,1,7,11
6.40E+02,-7141,-3536,218,-1525,-1609,875,1,7,11
6.35E+02,-7053,-3765,242,-2112,-1194,403,1,7,11
6.35E+02,-7275,-4116,238,-2126,-1318,552,1,7,11
6.38E+02,-7266,-4218,238,-2088,-900,223,1,7,11
6.44E+02,-7245,-4062,252,-1758,-732,186,1,7,11
6.53E+02,-7248,-4405,252,-1890,-826,187,1,7,11
6.64E+02,-7230,-4431,215,-1459,-430,247,1,7,11
6.77E+02,-7184,-4453,160,-1584,-560,578,1,7,11
6.95E+02,-7175,-4478,155,-1221,-161,394,1,7,11
7.20E+02,-7209,-4238,146,-1333,-288,476,1,7,11
7.53E+02,-7240,-4464,372,-904,74,829,1,7,11
7.88E+02,-7281,-4475,357,-743,-90,675,1,7,11
8.17E+02,-7051,-4431,334,-773,-6,1060,1,7,11
8.34E+02,-7067,-4044,298,-329,376,1285,1,7,11
8.41E+02,-7080,-3993,315,122,186,1381,1,7,11
8.43E+02,-7387,-3680,271,928,653,1595,1,7,11
8.45E+02,-7598,-3247,292,1364,1028,1551,1,7,11
8.51E+02,-7398,-3235,275,1168,1126,-340,1,7,11
8.57E+02,-7766,-3431,353,1329,1129,-586,1,7,11
8.62E+02,-7747,-3249,538,235,249,-782,1,7,11
8.62E+02,-7718,-3256,518,360,-53,-806,1,7,11
8.59E+02,-7450,-3749,348,-551,-59,-1018,1,7,11
8.55E+02,-7435,-3825,332,-305,372,-1406,1,7,11
8.50E+02,-7494,-4097,329,-16,577,-1255,1,7,11
8.47E+02,-7452,-4197,339,190,427,-1558,1,7,11
8.46E+02,-7084,-4066,289,458,779,-1632,1,7,11
8.49E+02,-7270,-4066,-89,1035,704,-1487,1,7,11
8.56E+02,-7212,-4383,104,977,898,-1884,1,7,11
8.65E+02,-7196,-4259,84,1172,1353,-1776,1,7,11
8.73E+02,-7270,-4307,45,1469,1585,-2153,1,7,11
8.76E+02,-7124,-4252,10,1791,1501,-1942,1,7,11
8.76E+02,-7490,-4448,1,1999,1833,-2160,1,7,11
8.73E+02,-7356,-4437,24,2357,1817,-2059,1,7,11
8.71E+02,-7382,-4359,-290,2203,1461,-1836,1,7,11
8.69E+02,-7396,-4028,-360,2196,1610,-1581,1,7,11
8.70E+02,-7387,-3985,-171,2367,1207,-1289,1,7,11
8.74E+02,-7360,-4012,-200,1937,1015,-766,1,7,11
8.81E+02,-7312,-4092,-211,1752,1049,-782,1,7,11
8.92E+02,-7531,-4453,-211,1837,820,-605,1,7,11
9.07E+02,-7536,-4287,-190,1492,615,-223,1,7,11
9.25E+02,-7380,-4266,-147,1516,180,-373,1,7,11
9.41E+02,-7716,-4457,-382,1798,-97,66,1,7,11
9.53E+02,-7762,-4433,-321,1487,-193,315,1,7,11
9.63E+02,-7414,-4254,-295,1609,-894,549,1,7,11
9.69E+02,-7451,-4696,27,1171,-1300,390,1,7,11
9.73E+02,-7285,-4898,-77,1382,-1561,533,1,7,11
9.76E+02,-7235,-4798,515,1559,-1438,349,1,7,11
9.78E+02,-7159,-4738,472,1906,-1912,-87,1,7,11
9.80E+02,-7085,-4746,864,2035,-1926,-48,1,7,11
9.84E+02,-7073,-4596,732,2671,-2333,-9,1,7,11
9.88E+02,-7202,-4497,1091,2715,-2647,334,1,7,11
9.94E+02,-6893,-4622,980,3186,-2262,256,1,7,11
9.99E+02,-6903,-4462,1383,3067,-2206,-76,1,7,11
1.00E+03,-6891,-4069,1259,3333,-2389,-122,1,7,11
1.01E+03,-6908,-4190,1421,3193,-1973,84,1,7,11
1.01E+03,-6886,-3827,1801,3106,-1936,48,1,7,11
1.01E+03,-6892,-3799,1692,2870,-2120,59,1,7,11
9.99E+02,-6880,-3808,2077,2589,-2078,66,1,7,11
9.89E+02,-6878,-4120,1946,2013,-2086,69,1,7,11
9.76E+02,-6861,-4131,2036,1750,-2106,85,1,7,11
9.65E+02,-6860,-4122,2374,1523,-2103,84,1,7,11
9.57E+02,-6816,-4121,2213,1274,-2088,105,1,7,11
9.54E+02,-6991,-4172,2599,994,-2092,99,1,7,11
9.54E+02,-6925,-3999,2501,710,-2068,60,1,7,11
9.57E+02,-6614,-4081,2891,734,-1690,-262,1,7,11
9.61E+02,-6770,-4365,2726,439,-1849,-359,1,7,11
9.67E+02,-6732,-4374,2775,623,-1447,-223,1,7,11
9.73E+02,-6699,-4365,2813,547,-1606,-524,1,7,11
9.80E+02,-6354,-4364,3081,371,-1268,-578,1,7,11
9.86E+02,-6308,-4064,3073,-74,-1182,-603,1,7,11
9.92E+02,-6511,-4071,2801,-334,-1373,-603,1,7,11
9.97E+02,-6482,-4085,2768,-387,-1315,-626,1,7,11
1.00E+03,-6305,-4089,2751,-714,-993,-615,1,7,11
1.00E+03,-6360,-4047,2707,-1017,-974,-231,1,7,11
9.98E+02,-6697,-4025,2898,-1594,-938,-297,1,7,11
9.92E+02,-6537,-4209,2841,-1881,-1149,-40,1,7,11
9.84E+02,-6624,-4132,2538,-1938,-1132,253,1,7,11
9.73E+02,-6953,-4176,2535,-2230,-1133,830,1,7,11
9.60E+02,-7012,-4041,2826,-2640,-1139,1123,1,7,11
9.45E+02,-7035,-4435,2849,-2609,-919,1354,1,7,11
9.29E+02,-7004,-4286,2820,-2421,-976,1213,1,7,11
9.12E+02,-6923,-4338,2501,-2141,-993,1213,1,7,11
8.94E+02,-6610,-4609,2455,-1875,-930,1336,1,7,11
8.76E+02,-6585,-4640,2458,-1660,-1103,1121,1,7,11
8.60E+02,-6585,-4643,2484,-1209,-768,863,1,7,11
8.46E+02,-6586,-4612,2520,-1321,-698,603,1,7,11
8.34E+02,-6584,-4619,2874,-968,-879,378,1,7,11
8.24E+02,-6589,-4341,2726,-1092,-805,-85,1,7,11
8.15E+02,-6583,-4328,2815,-681,-425,19,1,7,11
8.06E+02,-6584,-4322,3135,-487,-234,-344,1,7,11
7.98E+02,-6758,-4326,3159,-521,-260,-151,1,7,11
7.90E+02,-6773,-4462,3142,1,336,-240,1,7,11
7.82E+02,-7428,-3774,3347,362,641,-217,1,7,11
7.73E+02,-6995,-3916,3132,257,573,58,1,7,11
7.66E+02,-6040,-4031,2688,-321,472,-369,1,7,11
7.59E+02,-5986,-4694,2832,-271,1166,-892,1,7,11
7.53E+02,-5527,-4812,2602,361,2355,-1340,1,7,11
7.50E+02,-5576,-5072,2187,891,3424,-1427,1,7,11
7.49E+02,-6179,-5406,2373,1564,4390,-1809,1,7,11
7.53E+02,-6769,-5176,2045,2016,4838,-1523,1,7,11
7.65E+02,-7098,-4583,1997,2481,5203,-1604,1,7,11
7.83E+02,-7344,-4622,2156,2833,4536,-1408,1,7,11
8.02E+02,-7404,-4335,2053,2465,3988,-1327,1,7,11
8.18E+02,-7359,-4618,1671,2608,3482,-1303,1,7,11
8.25E+02,-7465,-4501,1850,2232,3329,-1294,1,7,11
8.25E+02,-7061,-4912,1800,2273,3089,-1001,1,7,11
8.18E+02,-7201,-4874,1422,2499,2758,-1152,1,7,11
8.06E+02,-7176,-4679,1566,2848,2766,-1042,1,7,11
7.91E+02,-6853,-4628,1588,2649,2922,-732,1,7,11
7.77E+02,-7174,-4327,1461,2207,2863,-684,1,7,11
7.67E+02,-7071,-4451,1831,2319,2499,-806,1,7,11
7.64E+02,-7351,-4014,1769,2081,2270,-616,1,7,11
7.65E+02,-7633,-4119,1992,1447,1736,-285,1,7,11
7.73E+02,-8059,-3762,2401,977,906,162,1,7,11
7.82E+02,-8039,-3962,2397,461,-61,693,1,7,11
7.91E+02,-7783,-3733,2001,94,-1039,1249,1,7,11
7.96E+02,-7087,-4004,2115,-683,-1878,1675,1,7,11
7.94E+02,-6930,-4296,1768,-1556,-2405,2147,1,7,11
7.88E+02,-6377,-4734,1709,-1750,-2641,2148,1,7,11
7.79E+02,-6513,-4562,1680,-2038,-2676,1729,1,7,11
7.69E+02,-6357,-4534,1901,-2231,-2645,1445,1,7,11
7.62E+02,-6954,-4631,1653,-2203,-2602,1198,1,7,11
7.61E+02,-7061,-4360,1489,-2209,-2430,1156,1,7,11
7.67E+02,-7355,-4068,1741,-2228,-2323,1266,1,7,11
7.73E+02,-7682,-4177,2114,-2320,-2246,1281,1,7,11
7.70E+02,-7829,-3930,2360,-2009,-2694,1059,1,7,11
7.57E+02,-7677,-3580,2325,-2357,-3530,1207,1,7,11
7.38E+02,-7083,-3941,1978,-2271,-4134,1860,1,7,11
7.20E+02,-6985,-4175,2346,-2490,-3858,2077,1,7,11
7.07E+02,-6386,-4253,2218,-2586,-3436,1992,1,7,11
7.02E+02,-6028,-4619,2191,-1754,-2439,1975,1,7,11
7.06E+02,-6232,-4593,2625,-1188,-1588,1783,1,7,11
7.14E+02,-6213,-4225,2447,-651,-581,1814,1,7,11
7.17E+02,-6532,-4217,2683,109,770,992,1,7,11
7.07E+02,-6846,-3575,2291,371,1146,673,1,7,11
6.93E+02,-7087,-3307,2182,-14,1008,459,1,7,11
6.96E+02,-7490,-3206,2372,-370,979,407,1,7,11
7.32E+02,-7496,-3317,2325,-496,1091,427,1,7,11
7.87E+02,-7307,-3662,2309,-729,719,434,1,7,11
8.37E+02,-7351,-3475,2024,-1110,824,635,1,7,11
8.62E+02,-7422,-3483,2032,-1124,469,616,1,7,11
8.56E+02,-7754,-3669,2013,-1131,612,621,1,7,11
8.38E+02,-7732,-3637,1975,-948,529,462,1,7,11
8.25E+02,-7720,-3600,1950,-989,591,858,1,7,11
8.28E+02,-7704,-3589,1930,-1007,495,734,1,7,11
8.40E+02,-7372,-3324,2103,-968,670,1028,1,7,11
8.53E+02,-7322,-3612,1750,-947,1111,680,1,7,11
8.58E+02,-7440,-3596,1848,-1147,1286,826,1,7,11
8.56E+02,-7100,-3684,1497,-902,1279,615,1,7,11
8.54E+02,-7462,-3855,1466,-1042,1832,202,1,7,11
8.57E+02,-7317,-3854,1622,-439,1775,335,1,7,11
8.69E+02,-7701,-3563,1538,-375,2157,-108,1,7,11
8.86E+02,-7579,-3532,1234,-52,1949,-350,1,7,11
9.06E+02,-7950,-3523,1206,539,1927,-584,1,7,11
9.25E+02,-8054,-3480,1210,887,2118,-455,1,7,11
9.42E+02,-7838,-3640,1191,921,1716,-788,1,7,11
9.57E+02,-7865,-3321,1221,1328,1512,-852,1,7,11
9.71E+02,-7869,-3275,1261,1172,1268,-857,1,7,11
9.84E+02,-7836,-3238,1541,1212,1005,-859,1,7,11
9.95E+02,-8046,-3213,1553,1190,757,-872,1,7,11
1.01E+03,-7980,-3452,1536,1374,787,-645,1,7,11
1.01E+03,-7670,-3449,1243,971,600,-692,1,7,11
1.02E+03,-7638,-3219,1223,1031,188,-749,1,7,11
1.03E+03,-7618,-3287,1221,811,306,-1035,1,7,11
1.03E+03,-7630,-3665,1544,595,-74,-1047,1,7,11
1.03E+03,-7614,-3546,1588,199,8,-762,1,7,11
1.03E+03,-7560,-3947,1631,372,-178,-722,1,7,11
1.02E+03,-7723,-3797,1632,360,-616,-710,1,7,11
1.01E+03,-7354,-4126,1628,344,-509,-738,1,7,11
1.00E+03,-7435,-4220,1648,295,-685,-1110,1,7,11
9.82E+02,-7073,-4004,1639,-22,-762,-942,1,7,11
9.59E+02,-7249,-4068,1658,-95,-1068,-1290,1,7,11
9.32E+02,-7179,-4382,1411,105,-1111,-1357,1,7,11
9.04E+02,-6841,-4433,1656,81,-1146,-1157,1,7,11
8.76E+02,-7025,-4475,1629,70,-1150,-1218,1,7,11
8.52E+02,-6990,-4290,1627,75,-1124,-1271,1,7,11
8.33E+02,-6987,-4339,1634,-109,-1086,-1578,1,7,11
8.18E+02,-7028,-4639,1421,257,-1041,-1623,1,7,11
8.11E+02,-6814,-4667,1475,175,-754,-1623,1,7,11
8.10E+02,-6824,-4655,1517,400,-738,-1567,1,7,11
8.17E+02,-6830,-4634,1845,878,-699,-1204,1,7,11
8.31E+02,-6844,-4349,1915,1091,-645,-1322,1,7,11
8.49E+02,-6850,-4301,1733,1007,-832,-922,1,7,11
8.62E+02,-6856,-4244,2063,1394,-504,-1037,1,7,11
8.65E+02,-6856,-4431,2142,1216,-420,-660,1,7,11
8.55E+02,-6881,-4357,1972,1251,-590,-791,1,7,11
8.40E+02,-6890,-4026,2309,1232,-532,-411,1,7,11
8.30E+02,-6878,-4216,2358,1169,-248,-534,1,7,11
8.30E+02,-6835,-4160,2379,1287,-239,-183,1,7,11
8.38E+02,-6799,-4143,2405,1088,-236,-132,1,7,11
8.45E+02,-7028,-4145,2409,843,-244,-371,1,7,11
8.46E+02,-7018,-4176,2423,565,-517,-131,1,7,11
8.41E+02,-7010,-4211,2426,294,-542,-160,1,7,11
8.36E+02,-7006,-3994,2425,51,-568,-188,1,7,11
8.38E+02,-7013,-4026,2401,-146,-579,-197,1,7,11
8.51E+02,-7030,-4095,2403,-583,-585,-184,1,7,11
8.72E+02,-6798,-4402,2411,-437,-579,-158,1,7,11
8.95E+02,-6818,-4462,2428,-496,-570,-366,1,7,11
9.19E+02,-6862,-4262,2193,-501,-555,-308,1,7,11
9.39E+02,-6897,-4289,2206,-436,-541,20,1,7,11
9.59E+02,-7176,-4316,2223,-598,-523,102,1,7,11
9.77E+02,-7185,-4327,2243,-229,-253,-92,1,7,11
9.94E+02,-6907,-4315,2239,-361,-247,-62,1,7,11
1.01E+03,-6841,-4272,2213,-275,-516,-82,1,7,11
1.03E+03,-7015,-4232,2179,-270,-518,76,1,7,11
1.04E+03,-6980,-4474,2427,-329,-237,-334,1,7,11
1.06E+03,-6973,-4467,2424,-147,-197,-246,1,7,11
1.07E+03,-6980,-4467,2410,-230,-150,-396,1,7,11
1.08E+03,-7009,-4225,2408,-564,-341,-506,1,7,11
1.09E+03,-6787,-4272,2426,-622,-280,-813,1,7,11
1.09E+03,-6810,-4340,2198,-407,1,-834,1,7,11
1.09E+03,-7029,-4628,2427,-640,-266,-831,1,7,11
1.09E+03,-6987,-4633,2402,-621,-266,-853,1,7,11
1.09E+03,-6977,-4673,2425,-636,-261,-882,1,7,11
1.08E+03,-6964,-4701,2176,-617,-283,-893,1,7,11
1.07E+03,-6947,-4711,2427,-587,-317,-891,1,7,11
1.05E+03,-6918,-4722,2415,-568,-361,-867,1,7,11
1.02E+03,-6625,-4489,2411,-567,-155,-834,1,7,11
1.00E+03,-6583,-4503,2395,-563,-203,-800,1,7,11
9.91E+02,-6553,-4524,2385,-578,-236,-777,1,7,11
9.88E+02,-6778,-4561,2379,-591,-515,-503,1,7,11
9.92E+02,-6764,-4876,2387,-600,-522,-484,1,7,11
9.93E+02,-6744,-4925,2385,-581,-527,-464,1,7,11
9.84E+02,-6764,-4738,2417,-549,-249,-447,1,7,11
9.57E+02,-6783,-4772,2182,-195,-230,-405,1,7,11
9.19E+02,-6555,-4794,2220,-347,-205,-604,1,7,11
8.82E+02,-6555,-4781,2242,33,-199,-518,1,7,11
8.57E+02,-6562,-4775,2272,-118,-201,-174,1,7,11
8.50E+02,-6558,-4762,2301,-38,-220,-346,1,7,11
8.56E+02,-6549,-4774,2613,-4,-515,-286,1,7,11
8.71E+02,-6768,-4764,2649,282,-580,10,1,7,11
8.89E+02,-6714,-4752,2666,277,-405,30,1,7,11
9.08E+02,-6362,-4992,2657,-18,-496,32,1,7,11
9.28E+02,-6509,-4980,2643,-127,-819,-258,1,7,11
9.50E+02,-6438,-4784,2683,-297,-851,-335,1,7,11
9.71E+02,-6403,-4833,2458,-520,-883,-210,1,7,11
9.92E+02,-6099,-4844,2681,-602,-895,-540,1,7,11
1.01E+03,-6053,-4828,2618,-422,-870,-586,1,7,11
1.03E+03,-6029,-4860,2605,-798,-802,-609,1,7,11
1.05E+03,-6060,-5144,2609,-867,-444,-604,1,7,11
1.07E+03,-6104,-5188,2618,-890,-598,-548,1,7,11
1.09E+03,-6095,-5187,2576,-838,-254,-215,1,7,11
1.10E+03,-6089,-5213,2293,-784,-134,-384,1,7,11
1.12E+03,-6105,-4993,2573,-447,0,-299,1,7,11
1.13E+03,-6403,-5034,2609,-564,108,34,1,7,11
1.13E+03,-6407,-5033,2587,-377,-67,122,1,7,11
1.14E+03,-6427,-5001,2585,48,282,-81,1,7,11
1.14E+03,-6479,-5230,2614,-67,129,-25,1,7,11
1.14E+03,-6321,-5171,2641,347,229,301,1,7,11
1.14E+03,-6723,-4803,2683,253,568,146,1,7,11
1.14E+03,-6608,-4885,2437,415,614,569,1,7,11
1.14E+03,-6948,-4703,2670,498,574,777,1,7,11
1.13E+03,-7007,-4331,2665,493,248,741,1,7,11
1.13E+03,-6794,-4258,2654,439,171,940,1,7,11
1.12E+03,-6821,-4471,2627,387,339,1358,1,7,11
1.12E+03,-6809,-4424,2296,598,-4,1218,1,7,11
1.11E+03,-7036,-4392,2218,517,-58,1270,1,7,11
1.10E+03,-7040,-4396,2189,152,-49,1251,1,7,11
1.09E+03,-6800,-4413,2186,338,-25,1197,1,7,11
1.08E+03,-6788,-4423,2423,331,-9,1379,1,7,11
1.07E+03,-7026,-4418,2388,362,280,1021,1,7,11
1.06E+03,-6794,-4458,2405,370,334,896,1,7,11
1.05E+03,-6837,-4231,2196,169,376,1032,1,7,11
1.04E+03,-6886,-4240,2247,247,382,652,1,7,11
1.03E+03,-6910,-4478,2288,590,348,798,1,7,11
1.03E+03,-7186,-4465,2590,639,296,442,1,7,11
1.02E+03,-7213,-4448,2687,398,-11,623,1,7,11
1.02E+03,-7256,-4415,2533,406,-72,582,1,7,11
1.03E+03,-7277,-4379,2853,411,97,584,1,7,11
1.03E+03,-7261,-4079,2910,388,-260,611,1,7,11
1.03E+03,-7213,-4049,2708,568,-361,634,1,7,11
1.03E+03,-6890,-4041,2769,219,-203,392,1,7,11
1.03E+03,-6814,-4035,2775,379,-544,388,1,7,11
1.02E+03,-7002,-4000,2766,272,-596,607,1,7,11
1.01E+03,-6952,-4224,2765,119,-607,546,1,7,11
9.96E+02,-6926,-3986,2797,-320,-596,224,1,7,11
9.81E+02,-6614,-4017,3076,-219,-600,167,1,7,11
9.69E+02,-6553,-4047,2806,-610,-589,344,1,7,11
9.61E+02,-6780,-4085,2793,-485,-545,-2,1,7,11
9.62E+02,-6548,-4364,2783,-844,-214,-97,1,7,11
9.74E+02,-6599,-4383,2770,-675,-142,106,1,7,11
1.00E+03,-6652,-4401,2759,-756,-354,93,1,7,11
1.04E+03,-6934,-4428,2752,-1075,-336,119,1,7,11
1.09E+03,-6950,-4448,2739,-1100,-331,-101,1,7,11
1.14E+03,-6969,-4467,2727,-1096,-330,-66,1,7,11
1.17E+03,-6989,-4459,2712,-1059,-342,-30,1,7,11
1.17E+03,-6994,-4451,2700,-758,-360,269,1,7,11
1.13E+03,-7007,-4440,2695,-707,-368,313,1,7,11
1.07E+03,-7003,-4443,2693,-895,-135,358,1,7,11
1.01E+03,-6956,-4423,2919,-809,-162,381,1,7,11
9.78E+02,-6652,-4416,2901,-484,-168,365,1,7,11
9.82E+02,-6628,-4415,2905,-427,-149,310,1,7,11
1.02E+03,-6612,-4424,2929,-626,-384,-12,1,7,11
1.06E+03,-6620,-4424,2694,-552,-353,-82,1,7,11
1.11E+03,-6627,-4402,2697,-212,-310,118,1,7,11
1.14E+03,-6646,-4371,2697,-142,15,79,1,7,11
1.14E+03,-6935,-4067,2943,-330,94,81,1,7,11
1.13E+03,-6976,-4019,2914,-295,-82,120,1,7,11
1.11E+03,-7016,-4200,2835,-286,-9,-72,1,7,11
1.09E+03,-6795,-4148,2524,-314,327,-5,1,7,11
1.06E+03,-6829,-4098,2464,-336,175,361,1,7,11
1.04E+03,-6901,-3809,2682,-368,254,178,1,7,11
1.02E+03,-7247,-3819,2667,-169,566,524,1,7,11
1.01E+03,-7041,-3824,2645,-181,581,613,1,7,11
1.01E+03,-7063,-4100,2616,-175,579,411,1,7,11
1.02E+03,-7079,-4121,2603,-150,578,422,1,7,11
1.03E+03,-7085,-4139,2603,-372,573,639,1,7,11
1.05E+03,-7102,-4164,2620,-330,563,569,1,7,11
1.08E+03,-7086,-4148,2591,-257,533,227,1,7,11
1.10E+03,-7055,-4133,2302,58,252,368,1,7,11
1.13E+03,-7290,-4135,2290,46,246,-31,1,7,11
1.15E+03,-7278,-4121,2266,22,238,86,1,7,11
1.16E+03,-7251,-3832,2217,-293,211,-306,1,7,11
1.16E+03,-7246,-3840,2206,-129,199,-176,1,7,11
1.16E+03,-7267,-4124,2231,-209,185,-514,1,7,11
1.15E+03,-7280,-4151,2239,-227,155,-543,1,7,11
1.14E+03,-7277,-4166,2242,-217,371,-530,1,7,11
1.13E+03,-7261,-4191,2242,-191,333,-238,1,7,11
1.13E+03,-7231,-3972,2238,-158,296,-198,1,7,11
1.14E+03,-7213,-4010,2252,-377,273,-173,1,7,11
1.16E+03,-7220,-4040,2266,-308,-5,-145,1,7,11
1.17E+03,-7206,-4058,2259,36,-36,-366,1,7,11
1.19E+03,-7194,-4067,2255,118,-56,-329,1,7,11
1.21E+03,-7180,-4060,2237,-69,-63,-293,1,7,11
1.22E+03,-7186,-4059,2240,-23,-63,-264,1,7,11
1.22E+03,-7200,-4056,2251,275,-62,16,1,7,11
1.21E+03,-7221,-4056,2254,319,-75,33,1,7,11
1.19E+03,-7217,-4040,2254,363,-100,47,1,7,11
1.16E+03,-7206,-4011,2243,132,-123,55,1,7,11
1.12E+03,-7189,-4223,2233,138,118,58,1,7,11
1.09E+03,-7203,-4204,2240,381,118,63,1,7,11
1.07E+03,-7221,-4191,2254,378,118,88,1,7,11
1.06E+03,-7230,-4178,2259,375,112,-122,1,7,11
1.07E+03,-7228,-4183,2270,377,107,-110,1,7,11
1.09E+03,-7229,-4181,2275,380,108,-96,1,7,11
1.10E+03,-7230,-4189,2292,378,109,-102,1,7,11
1.12E+03,-7223,-4182,2294,129,109,-118,1,7,11
1.12E+03,-7199,-4170,2289,151,105,110,1,7,11
1.13E+03,-7181,-4178,2298,139,112,68,1,7,11
1.14E+03,-6897,-4191,2296,376,-128,21,1,7,11
1.14E+03,-6873,-4214,2289,354,-111,-322,1,7,11
1.16E+03,-6848,-4199,2256,356,-71,-377,1,7,11
1.18E+03,-6829,-4201,2214,351,-30,-181,1,7,11
1.19E+03,-6845,-3970,2217,309,294,-227,1,7,11
1.20E+03,-7173,-4009,2247,270,374,-246,1,7,11
1.19E+03,-7241,-4021,2267,272,175,-220,1,7,11
1.16E+03,-7052,-4024,2563,305,187,-163,1,7,11
1.12E+03,-7076,-4014,2566,142,140,-333,1,7,11
1.08E+03,-7062,-3975,2282,198,335,2,1,7,11
1.04E+03,-7282,-4190,2265,209,282,61,1,7,11
1.03E+03,-7266,-4171,2285,179,-14,94,1,7,11
1.02E+03,-7266,-4154,2301,141,-58,116,1,7,11
1.02E+03,-7262,-4130,2564,366,-111,-120,1,7,11
1.02E+03,-7238,-4101,2299,326,90,-106,1,7,11
1.02E+03,-7222,-3835,2566,260,62,-110,1,7,11
1.01E+03,-7209,-3839,2576,-57,46,-118,1,7,11
1.01E+03,-7202,-4105,2599,-105,41,124,1,7,11
1.03E+03,-7195,-4119,2616,115,40,111,1,7,11
1.05E+03,-7191,-4138,2632,93,51,99,1,7,11
1.09E+03,-7197,-4156,2649,93,68,88,1,7,11
1.13E+03,-7212,-4177,2654,103,87,78,1,7,11
1.17E+03,-7184,-4148,2592,122,90,74,1,7,11
1.20E+03,-7169,-4152,2573,53,110,34,1,7,11
1.21E+03,-6902,-4174,2589,-282,114,-266,1,7,11
1.21E+03,-7182,-4215,2626,-351,108,-312,1,7,11
1.20E+03,-7202,-3980,2655,-366,81,-332,1,7,11
1.19E+03,-7236,-3991,2672,-337,60,-313,1,7,11
1.18E+03,-7256,-4000,2684,-296,39,10,1,7,11
1.18E+03,-7248,-4010,2453,7,22,100,1,7,11
1.18E+03,-7210,-4006,2460,72,15,-69,1,7,11
1.18E+03,-6909,-3975,2464,-112,24,-11,1,7,11
1.19E+03,-6873,-4177,2439,-32,66,278,1,7,11
1.19E+03,-6871,-4113,2661,286,-112,301,1,7,11
1.20E+03,-6875,-3785,2610,323,-24,339,1,7,11
1.21E+03,-6890,-3767,2593,289,322,365,1,7,11
1.22E+03,-7174,-3768,2592,256,145,373,1,7,11
1.23E+03,-7213,-3774,2585,-21,208,350,1,7,11
1.24E+03,-7262,-3797,2595,-29,237,304,1,7,11
1.25E+03,-7054,-3830,2620,-27,228,-7,1,7,11
1.25E+03,-7084,-4100,2602,-6,185,-58,1,7,11
1.25E+03,-7090,-4114,2585,-7,130,-107,1,7,11
1.25E+03,-7075,-4125,2582,-13,328,98,1,7,11
1.24E+03,-7076,-4147,2590,-19,287,49,1,7,11
1.23E+03,-7056,-4153,2596,257,-10,19,1,7,11
1.22E+03,-7282,-4145,2610,296,-33,6,1,7,11
1.21E+03,-7266,-4135,2640,348,-34,19,1,7,11
1.21E+03,-7264,-4130,2664,160,-24,56,1,7,11
1.20E+03,-7251,-4119,2683,243,-15,98,1,7,11
1.19E+03,-7232,-4102,2683,581,-4,-118,1,7,11
1.19E+03,-7204,-3838,2436,384,268,-92,1,7,11
1.19E+03,-7195,-4100,2451,435,301,-87,1,7,11
1.18E+03,-7188,-4116,2472,495,337,-95,1,7,11
1.19E+03,-7179,-4130,2475,827,377,-117,1,7,11
1.19E+03,-7170,-4130,2463,664,179,111,1,7,11
1.20E+03,-6908,-4114,2434,749,512,75,1,7,11
1.20E+03,-7231,-4107,2594,1009,882,-341,1,7,11
1.21E+03,-7258,-3837,2568,1367,705,-344,1,7,11
1.22E+03,-7270,-4098,2289,1201,1024,-339,1,7,11
1.24E+03,-7279,-4099,2272,1563,1081,-333,1,7,11
1.25E+03,-7271,-4109,2253,1420,1121,-332,1,7,11
1.26E+03,-7256,-4129,2229,1530,902,-355,1,7,11
1.27E+03,-7256,-4134,2215,1901,944,-137,1,7,11
1.27E+03,-7254,-4161,2245,1731,977,-187,1,7,11
1.27E+03,-7246,-4206,2277,2117,1006,-235,1,7,11
1.26E+03,-7238,-4217,2298,2036,1310,-542,1,7,11
1.24E+03,-7237,-4200,2298,2221,1370,-588,1,7,11
1.21E+03,-7253,-4170,2570,2653,1187,-631,1,7,11
1.18E+03,-7279,-4118,2587,2538,1249,-403,1,7,11
1.15E+03,-7067,-3786,2600,2903,1542,-423,1,7,11
1.11E+03,-7115,-3952,2625,2710,1548,-430,1,7,11
1.08E+03,-7428,-3870,2668,2730,1261,-419,1,7,11
1.04E+03,-7478,-3528,2448,2712,1185,-386,1,7,11
1.01E+03,-7520,-3707,2477,2901,1329,-595,1,7,11
9.86E+02,-7525,-3621,2487,2525,934,-534,1,7,11
9.63E+02,-7502,-3284,2475,2592,1046,-234,1,7,11
9.44E+02,-7471,-3201,2450,2336,666,-202,1,7,11
9.29E+02,-7465,-3410,2680,1781,816,-196,1,7,11
9.18E+02,-7460,-3389,2672,1449,465,-191,1,7,11
9.11E+02,-7476,-3400,2685,1344,637,-183,1,7,11
9.08E+02,-7508,-3425,2445,757,565,-148,1,7,11
9.08E+02,-7525,-3450,2448,472,230,-341,1,7,11
9.12E+02,-7525,-3236,2433,226,148,-267,1,7,11
9.20E+02,-7513,-3280,2677,271,334,65,1,7,11
9.32E+02,-7509,-3326,2671,85,280,-128,1,7,11
9.48E+02,-7496,-3621,2656,-323,-24,-73,1,7,11
9.67E+02,-7477,-3674,2652,-203,-80,-47,1,7,11
9.90E+02,-7476,-3469,2650,-562,99,-36,1,7,11
1.01E+03,-7480,-3512,2658,-636,45,-36,1,7,11
1.04E+03,-7484,-3544,2659,-387,-270,-33,1,7,11
1.07E+03,-7482,-3557,2655,-628,-326,-31,1,7,11
1.10E+03,-7484,-3547,2650,-594,-375,-17,1,7,11
1.13E+03,-7481,-3537,2660,-566,-164,266,1,7,11
1.16E+03,-7466,-3543,2679,-534,-204,294,1,7,11
1.19E+03,-7464,-3526,2449,-230,-227,319,1,7,11
1.22E+03,-7459,-3498,2476,-171,-242,340,1,7,11
1.24E+03,-7455,-3460,2501,-377,-241,359,1,7,11
1.26E+03,-7450,-3670,2515,-340,-236,378,1,7,11
1.27E+03,-7445,-3635,2529,-335,-231,134,1,7,11
1.26E+03,-7440,-3610,2540,-352,-238,140,1,7,11
1.25E+03,-7432,-3591,2556,-130,-247,131,1,7,11
1.23E+03,-7425,-3585,2829,-170,-514,372,1,7,11
1.21E+03,-7159,-3593,2831,-206,-525,350,1,7,11
1.18E+03,-7147,-3601,2829,-231,-520,320,1,7,11
1.15E+03,-7134,-3610,2832,-248,-235,289,1,7,11
1.12E+03,-7122,-3620,2823,-254,-182,261,1,7,11
1.10E+03,-7116,-3626,2816,-255,-363,-21,1,7,11
1.09E+03,-7123,-3632,2823,-513,-283,-38,1,7,11
1.08E+03,-7127,-3636,2834,-254,44,-51,1,7,11
1.09E+03,-7135,-3641,2831,-250,101,-66,1,7,11
1.10E+03,-7136,-3647,2555,-245,-114,-89,1,7,11
1.11E+03,-7145,-3647,2539,-245,-81,-120,1,7,11
1.12E+03,-7167,-3644,2513,-237,-51,115,1,7,11
1.13E+03,-7436,-3637,2486,-238,-35,105,1,7,11
1.14E+03,-7439,-3648,2456,-253,-24,105,1,7,11
1.14E+03,-7455,-3656,2445,-523,-15,107,1,7,11
1.14E+03,-7464,-3668,2439,-539,-15,112,1,7,11
1.12E+03,-7454,-3685,2686,-548,-27,114,1,7,11
1.11E+03,-7455,-3688,2683,-549,-44,111,1,7,11
1.09E+03,-7459,-3687,2681,-544,-60,113,1,7,11
1.09E+03,-7459,-3687,2437,-541,-82,122,1,7,11
1.10E+03,-7462,-3678,2444,-534,-98,-110,1,7,11
1.12E+03,-7458,-3669,2454,-533,-111,-75,1,7,11
1.14E+03,-7448,-3653,2467,-536,-112,-36,1,7,11
1.17E+03,-7434,-3647,2482,-547,-99,-2,1,7,11
1.20E+03,-7163,-3646,2504,-558,-85,275,1,7,11
1.22E+03,-7137,-3648,2510,-571,-66,286,1,7,11
1.24E+03,-7140,-3648,2521,-591,-38,274,1,7,11
1.25E+03,-7130,-3644,2533,-616,-17,261,1,7,11
1.24E+03,-7123,-3631,2523,-400,263,-18,1,7,11
1.22E+03,-7115,-3610,2509,-449,293,-35,1,7,11
1.19E+03,-7124,-3601,2488,-775,335,-50,1,7,11
1.15E+03,-7125,-3585,2465,-844,373,-49,1,7,11
1.11E+03,-7112,-3320,2436,-663,154,-38,1,7,11
1.09E+03,-7082,-3319,2650,-749,205,-25,1,7,11
1.09E+03,-7055,-3317,2615,-1100,530,-20,1,7,11
1.10E+03,-7271,-3587,2584,-946,620,-24,1,7,11
1.13E+03,-7225,-3326,2297,-1300,484,-46,1,7,11
1.16E+03,-7211,-3590,2281,-1158,646,-91,1,7,11
1.18E+03,-7219,-3593,2235,-1253,1074,-126,1,7,11
1.19E+03,-7269,-3594,2179,-1593,986,108,1,7,11
1.19E+03,-7073,-3585,2373,-1412,1402,114,1,7,11
1.19E+03,-7134,-3326,2044,-1507,1584,-63,1,7,11
1.18E+03,-7460,-3585,1973,-1828,1657,274,1,7,11
1.17E+03,-7493,-3324,2148,-1886,1431,375,1,7,11
1.16E+03,-7521,-3323,2073,-1702,1427,203,1,7,11
1.14E+03,-7299,-3587,1751,-1785,1663,528,1,7,11
1.13E+03,-7337,-3323,1676,-2113,1620,582,1,7,11
1.12E+03,-7390,-3307,1852,-1933,1573,628,1,7,11
1.11E+03,-7423,-3276,1486,-2002,1257,430,1,7,11
1.10E+03,-7702,-3257,1618,-2339,1205,481,1,7,11
1.10E+03,-7761,-3266,1542,-2427,1168,781,1,7,11
1.11E+03,-7557,-3281,1202,-2197,1368,830,1,7,11
1.12E+03,-7582,-3276,1347,-2426,1304,876,1,7,11
1.14E+03,-7602,-3260,977,-2382,998,649,1,7,11
1.17E+03,-7637,-3248,1136,-2316,972,670,1,7,11
1.19E+03,-7675,-3230,1047,-1981,946,687,1,7,11
1.21E+03,-7980,-3231,724,-2158,922,694,1,7,11
1.22E+03,-7986,-3232,644,-1788,1133,704,1,7,11
1.22E+03,-7962,-3212,805,-1671,1095,684,1,7,11
1.21E+03,-7971,-3226,492,-1829,1080,880,1,7,11
1.20E+03,-8017,-3244,444,-1422,1064,810,1,7,11
1.17E+03,-8046,-3233,602,-1225,1026,494,1,7,11
1.15E+03,-8018,-3438,192,-1287,714,434,1,7,11
1.12E+03,-7983,-3428,339,-946,670,576,1,7,11
1.10E+03,-7995,-3215,316,-1145,891,176,1,7,11
1.09E+03,-8053,-3289,330,-1037,829,289,1,7,11
1.10E+03,-7840,-3306,303,-852,458,-73,1,7,11
1.12E+03,-7847,-3291,268,-404,577,114,1,7,11
1.14E+03,-7856,-3297,287,-253,194,76,1,7,11
1.17E+03,-7858,-3302,336,-344,319,70,1,7,11
1.20E+03,-7830,-3251,360,66,-77,84,1,7,11
1.22E+03,-8041,-3218,147,-126,52,96,1,7,11
1.23E+03,-8000,-3425,189,-97,-311,116,1,7,11
1.22E+03,-7971,-3373,228,-101,-143,-115,1,7,11
1.21E+03,-7955,-3071,517,99,-214,-79,1,7,11
1.18E+03,-7672,-3058,549,4,-538,-31,1,7,11
1.13E+03,-7659,-3066,592,-348,-583,269,1,7,11
1.09E+03,-7640,-3071,627,-138,-632,309,1,7,11
1.05E+03,-7628,-3071,395,-155,-408,327,1,7,11
1.02E+03,-7625,-3070,425,-152,-425,343,1,7,11
1.02E+03,-7625,-3071,455,-356,-431,357,1,7,11
1.04E+03,-7606,-3047,459,5,-421,128,1,7,11
1.08E+03,-7573,-3012,427,-128,-392,160,1,7,11
1.11E+03,-7553,-2986,439,-14,-588,183,1,7,11
1.14E+03,-7797,-2963,457,366,-251,197,1,7,11
1.16E+03,-7555,-3189,477,251,-159,201,1,7,11
1.17E+03,-7571,-3152,486,405,-333,198,1,7,11
1.16E+03,-7592,-3103,496,808,-257,190,1,7,11
1.15E+03,-7620,-2796,492,684,63,182,1,7,11
1.12E+03,-7670,-2739,504,1043,118,171,1,7,11
1.08E+03,-7978,-2698,772,1109,-106,169,1,7,11
1.05E+03,-8021,-2893,789,899,-104,170,1,7,11
1.03E+03,-8028,-2871,789,910,-119,163,1,7,11
1.02E+03,-8037,-2857,796,1151,113,141,1,7,11
1.03E+03,-8032,-2844,806,1126,83,357,1,7,11
1.05E+03,-8042,-2831,826,1088,65,298,1,7,11
1.09E+03,-8064,-2821,851,1048,55,-20,1,7,11
1.13E+03,-7837,-2823,876,743,45,-81,1,7,11
1.18E+03,-7860,-2554,643,710,30,-126,1,7,11
1.21E+03,-7871,-2538,658,672,9,93,1,7,11
1.24E+03,-7876,-2547,690,857,-273,53,1,7,11
1.24E+03,-7871,-2825,725,511,-312,8,1,7,11
1.22E+03,-7864,-2836,1026,409,-364,-303,1,7,11
1.17E+03,-7837,-2845,1056,558,-179,-363,1,7,11
1.10E+03,-8056,-2871,1097,162,-248,-166,1,7,11
1.05E+03,-8047,-2907,896,-86,-598,-231,1,7,11
1.02E+03,-8042,-2691,945,2,-409,-245,1,7,11
1.02E+03,-8010,-2721,948,-152,-491,-227,1,7,11
1.05E+03,-7671,-2740,918,-572,-823,-197,1,7,11
1.09E+03,-7593,-2783,1148,-506,-862,-178,1,7,11
1.12E+03,-7803,-3083,1109,-679,-859,-165,1,7,11
1.15E+03,-7790,-3123,1073,-1059,-833,-150,1,7,11
1.17E+03,-7784,-3160,1024,-1130,-795,-362,1,7,11
1.18E+03,-7797,-2950,729,-1151,-485,-311,1,7,11
1.17E+03,-7595,-3013,745,-1114,-422,1,1,7,11
1.15E+03,-7652,-3330,753,-712,-392,56,1,7,11
1.12E+03,-7938,-3366,741,-486,-391,87,1,7,11
1.08E+03,-7948,-3368,722,-213,-399,78,1,7,11
1.05E+03,-7956,-3334,707,76,-402,27,1,7,11
1.03E+03,-7993,-3031,730,353,-639,-309,1,7,11
1.02E+03,-8036,-2961,757,638,-627,-378,1,7,11
1.04E+03,-7812,-3123,1024,640,-624,-178,1,7,11
1.06E+03,-7850,-2774,1072,1095,-611,-237,1,7,11
1.08E+03,-7884,-2695,1111,993,-614,-541,1,7,11
1.10E+03,-7900,-2883,1145,1346,-629,-599,1,7,11
1.11E+03,-7903,-2833,927,1384,-396,-411,1,7,11
1.12E+03,-7920,-2534,983,1379,-424,-498,1,7,11
1.13E+03,-8224,-2520,1316,1327,-460,-853,1,7,11
1.14E+03,-8251,-2524,1375,1012,-798,-687,1,7,11
1.15E+03,-8234,-2522,1399,916,-652,-1042,1,7,11
1.16E+03,-8203,-2825,1192,754,-1028,-914,1,7,11
1.17E+03,-7923,-2900,1262,828,-904,-1322,1,7,11
1.16E+03,-7893,-2724,1589,405,-1311,-1231,1,7,11
1.14E+03,-7872,-2784,1635,514,-1219,-1662,1,7,11
1.10E+03,-7861,-3131,1458,330,-1649,-1833,1,7,11
1.07E+03,-7823,-2969,1804,-97,-1846,-1732,1,7,11
1.04E+03,-8016,-3072,1911,-257,-1792,-2130,1,7,11
1.03E+03,-7948,-3447,1786,-140,-1997,-2002,1,7,11
1.05E+03,-7587,-3287,2132,-227,-2203,-2351,1,7,11
1.07E+03,-7726,-3622,1966,-559,-2642,-2424,1,7,11
1.11E+03,-7326,-3699,2046,-392,-2543,-2218,1,7,11
1.14E+03,-7440,-3526,2391,-503,-2913,-2267,1,7,11
1.16E+03,-7044,-3875,2226,-880,-2733,-2568,1,7,11
1.18E+03,-6908,-3775,2612,-743,-2770,-2610,1,7,11
1.18E+03,-6792,-3830,2658,-1109,-2773,-2652,1,7,11
1.18E+03,-6920,-4192,2484,-936,-2755,-2687,1,7,11
1.16E+03,-6781,-4064,2551,-1011,-2710,-2462,1,7,11
1.13E+03,-6662,-4434,2864,-1296,-2876,-2499,1,7,11
1.10E+03,-6315,-4290,2932,-1298,-2491,-2544,1,7,11
1.06E+03,-6486,-4639,2711,-1004,-2605,-2830,1,7,11
1.04E+03,-6401,-4725,2731,-962,-2189,-2858,1,7,11
1.02E+03,-6089,-4541,2740,-909,-2004,-2874,1,7,11
1.02E+03,-6045,-4587,2743,-1110,-2070,-2863,1,7,11
1.02E+03,-6025,-4897,2753,-1076,-1871,-2822,1,7,11
1.04E+03,-6267,-4951,2782,-1038,-1428,-2470,1,7,11
1.06E+03,-6241,-4759,2801,-731,-1262,-2589,1,7,11
1.09E+03,-6205,-4839,2806,-676,-1373,-2430,1,7,11
1.12E+03,-5875,-5229,3077,-853,-917,-1936,1,7,11
1.14E+03,-5832,-5051,3089,-789,-1049,-2060,1,7,11
1.16E+03,-5783,-5391,3102,-462,-659,-1672,1,7,11
1.17E+03,-6012,-5447,3119,-630,-774,-1822,1,7,11
1.18E+03,-5988,-5503,3124,-544,-392,-1455,1,7,11
1.17E+03,-5953,-5288,3108,-194,-531,-1610,1,7,11
1.16E+03,-5949,-5324,3097,-381,-144,-1537,1,7,11
1.14E+03,-5940,-5350,3075,-309,-283,-1223,1,7,11
1.12E+03,-5908,-5376,2807,-265,72,-1207,1,7,11
1.10E+03,-5898,-5358,2794,52,-83,-1226,1,7,11
1.08E+03,-5898,-5355,2778,78,268,-1256,1,7,11
1.08E+03,-5632,-5361,2770,90,351,-1558,1,7,11
1.08E+03,-5604,-5670,2788,80,158,-1632,1,7,11
1.10E+03,-5557,-5752,2814,92,211,-1504,1,7,11
1.11E+03,-5508,-5564,3087,-116,521,-1691,1,7,11
1.13E+03,-5710,-5600,3090,-44,583,-2160,1,7,11
1.14E+03,-5659,-5902,3105,259,637,-2385,1,7,11
1.14E+03,-5370,-5955,3127,307,423,-2605,1,7,11
1.13E+03,-5359,-6003,3162,359,437,-2542,1,7,11
1.11E+03,-5322,-5779,3174,164,414,-2692,1,7,11
1.08E+03,-5261,-5808,3166,197,631,-3083,1,7,11
1.05E+03,-5453,-5854,3170,196,594,-2957,1,7,11
1.02E+03,-5406,-6147,3176,183,561,-3339,1,7,11
9.92E+02,-5081,-6175,3159,146,248,-3455,1,7,11
9.84E+02,-5226,-6199,3156,314,157,-3597,1,7,11
9.96E+02,-4863,-6203,3152,-70,314,-3539,1,7,11
1.02E+03,-4821,-6230,3156,37,-52,-3763,1,7,11
1.05E+03,-4777,-6044,3168,-374,62,-4203,1,7,11
1.09E+03,-4942,-6128,3133,-524,-355,-4069,1,7,11
1.12E+03,-4554,-6481,3090,-392,-230,-4378,1,7,11
1.15E+03,-4624,-6307,2767,-510,-567,-4386,1,7,11
1.17E+03,-4459,-6357,2688,-860,-552,-4376,1,7,11
1.17E+03,-4044,-6715,2908,-724,-192,-4077,1,7,11
1.15E+03,-4145,-6615,2898,-1138,-320,-4011,1,7,11
1.11E+03,-3749,-6789,2893,-1012,30,-4222,1,7,11
1.07E+03,-3902,-6910,2876,-1311,115,-4198,1,7,11
1.03E+03,-3554,-7270,2868,-1296,-96,-4143,1,7,11
1.02E+03,-3458,-7141,2865,-1018,-97,-4093,1,7,11
1.02E+03,-3586,-7493,2846,-968,60,-3765,1,7,11
1.03E+03,-3255,-7504,2543,-1132,10,-3725,1,7,11
1.06E+03,-3387,-7298,2525,-1080,-324,-3918,1,7,11
1.09E+03,-3032,-7352,2514,-1052,-375,-3569,1,7,11
1.13E+03,-3192,-7686,2511,-752,-167,-3712,1,7,11
1.15E+03,-2814,-7726,2471,-705,-232,-3323,1,7,11
1.18E+03,-2913,-7769,2448,-881,-548,-3448,1,7,11
1.19E+03,-2528,-7807,2677,-818,-577,-3341,1,7,11
1.19E+03,-2636,-7553,2629,-494,-598,-2991,1,7,11
1.17E+03,-2209,-7778,2585,-422,-586,-3180,1,7,11
1.15E+03,-2368,-7777,2562,-400,-567,-3107,1,7,11
1.12E+03,-2305,-7555,2571,-403,-536,-2784,1,7,11
1.10E+03,-2016,-7586,2571,-421,-254,-2701,1,7,11
1.08E+03,-1960,-7625,2575,-418,-244,-2497,1,7,11
1.07E+03,-2160,-7667,2579,-397,-247,-2590,1,7,11
1.07E+03,-2097,-7968,2573,-622,-517,-2407,1,7,11
1.08E+03,-1779,-7979,2301,-581,-526,-1968,1,7,11
1.09E+03,-1725,-7983,2303,-560,-525,-1775,1,7,11
1.10E+03,-1895,-8012,2562,-542,-526,-1823,1,7,11
1.11E+03,-1822,-7996,2296,-238,-255,-1651,1,7,11
1.13E+03,-1495,-7993,2262,-243,-239,-1253,1,7,11
1.15E+03,-1431,-8032,2252,-526,-230,-1164,1,7,11
1.17E+03,-1598,-8050,2212,-529,-230,-1353,1,7,11
1.18E+03,-1262,-7838,2192,-538,-205,-1324,1,7,11
1.18E+03,-1218,-7892,2188,-524,-156,-1320,1,7,11
1.17E+03,-1216,-7898,2200,-202,-346,-1298,1,7,11
1.14E+03,-1225,-7893,2223,-130,-302,-990,1,7,11
1.09E+03,-1194,-7869,2214,-306,-292,-927,1,7,11
1.04E+03,-1169,-7829,2204,1,-288,-1140,1,7,11
1.00E+03,-1156,-7821,2217,0,-292,-1102,1,7,11
9.81E+02,-1378,-7816,2229,0,-326,-1077,1,7,11
9.83E+02,-1347,-8059,2222,-258,-353,-1058,1,7,11
1.00E+03,-1326,-8055,2217,-275,-367,-766,1,7,11
1.03E+03,-1289,-8058,2200,-302,-383,-735,1,7,11
1.06E+03,-978,-8041,2425,-314,-143,-717,1,7,11
1.09E+03,-942,-7809,2411,-353,-147,-717,1,7,11
1.11E+03,-1143,-7840,2408,-375,-150,-729,1,7,11
1.12E+03,-1094,-7846,2387,-129,-136,-1027,1,7,11
1.10E+03,-1071,-7839,2379,-141,-363,-1092,1,7,11
1.07E+03,-1047,-7857,2395,-169,-333,-906,1,7,11
1.02E+03,-1033,-7868,2404,-168,-297,-968,1,7,11
9.70E+02,-1044,-7847,2409,-149,13,-1002,1,7,11
9.45E+02,-1054,-7853,2402,-131,66,-984,1,7,11
9.53E+02,-1048,-7855,2391,-362,111,-940,1,7,11
9.85E+02,-1025,-7879,2372,-344,-115,-1136,1,7,11
1.03E+03,-754,-7873,2361,-322,-91,-1085,1,7,11
1.07E+03,-727,-7889,2357,-324,-89,-1040,1,7,11
1.11E+03,-724,-7893,2363,-317,-96,-747,1,7,11
1.13E+03,-692,-7913,2374,-304,127,-708,1,7,11
1.13E+03,-654,-7901,2356,-281,98,-684,1,7,11
1.13E+03,-879,-7888,2358,-267,80,-651,1,7,11
1.12E+03,-850,-7873,2352,-263,55,-869,1,7,11
1.10E+03,-818,-7896,2364,-281,21,-837,1,7,11
1.08E+03,-774,-7894,2361,-260,-263,-801,1,7,11
1.06E+03,-484,-7894,2360,-258,-267,-778,1,7,11
1.03E+03,-456,-7917,2376,-261,-265,-497,1,7,11
1.01E+03,-437,-7918,2385,7,4,-483,1,7,11
9.87E+02,-420,-7902,2384,17,21,-458,1,7,11
9.72E+02,-625,-7889,2359,15,39,-443,1,7,11
9.65E+02,-594,-7893,2352,0,70,-450,1,7,11
9.70E+02,-579,-7921,2372,-264,106,-468,1,7,11
9.84E+02,-566,-7915,2371,32,-127,-474,1,7,11
1.01E+03,-549,-7905,2367,64,-116,-477,1,7,11
1.03E+03,-552,-7906,2379,80,-113,-466,1,7,11
1.06E+03,-545,-7899,2417,101,99,-412,1,7,11
1.08E+03,-516,-7888,2422,100,60,-639,1,7,11
1.10E+03,-239,-7870,2425,80,26,-624,1,7,11
1.10E+03,-203,-7867,2416,50,3,-588,1,7,11
1.09E+03,-153,-7872,2417,25,-261,-565,1,7,11
1.06E+03,-384,-7873,2417,2,8,-557,1,7,11
1.02E+03,-364,-7887,2408,-272,31,-557,1,7,11
9.88E+02,-355,-7901,2405,-276,53,-565,1,7,11
9.78E+02,-351,-7921,2404,-277,63,-566,1,7,11
9.92E+02,-345,-7924,2398,-263,69,-560,1,7,11
1.02E+03,-339,-7927,2406,3,70,-554,1,7,11
1.06E+03,-340,-7934,2428,21,66,-541,1,7,11
1.09E+03,-322,-7931,2179,52,43,-518,1,7,11
1.11E+03,-290,-7875,2426,89,33,-241,1,7,11
1.12E+03,-261,-7858,2418,95,33,-216,1,7,11
1.11E+03,34,-7838,2383,92,41,-190,1,7,11
1.09E+03,65,-7841,2364,61,67,-167,1,7,11
1.07E+03,94,-7873,2353,27,102,-150,1,7,11
1.04E+03,87,-7913,2365,15,-120,-147,1,7,11
1.01E+03,61,-8202,2388,8,-100,-384,1,7,11
9.85E+02,33,-8200,2391,32,-97,-351,1,7,11
9.78E+02,24,-7931,2408,56,-117,-309,1,7,11
9.83E+02,28,-7926,2418,66,119,-277,1,7,11
9.96E+02,35,-7909,2423,81,109,6,1,7,11
1.01E+03,39,-7860,2417,90,108,18,1,7,11
1.02E+03,46,-7869,2411,44,108,22,1,7,11
1.02E+03,33,-7891,2421,13,114,20,1,7,11
1.03E+03,14,-7912,2429,-257,112,26,1,7,11
1.03E+03,5,-7934,2427,2,109,34,1,7,11
1.04E+03,-271,-7930,2427,16,117,46,1,7,11
1.05E+03,-291,-7908,2423,33,117,75,1,7,11
1.06E+03,-295,-7899,2418,44,110,109,1,7,11
1.06E+03,-295,-7904,2416,55,103,-116,1,7,11
1.05E+03,-309,-7903,2414,76,94,-93,1,7,11
1.02E+03,-316,-7881,2404,94,74,-68,1,7,11
9.95E+02,-308,-7878,2392,93,42,-51,1,7,11
9.72E+02,-299,-7884,2390,89,10,-58,1,7,11
9.62E+02,-307,-7895,2396,79,-267,-77,1,7,11
9.70E+02,-308,-7901,2403,87,-284,-86,1,7,11
9.88E+02,-313,-7892,2407,99,-295,-101,1,7,11
1.01E+03,-321,-7901,2423,101,-291,-116,1,7,11
1.04E+03,-322,-7891,2429,118,-292,125,1,7,11
1.06E+03,-308,-7868,2416,119,-292,104,1,7,11
1.07E+03,-315,-7873,2430,102,-292,75,1,7,11
1.08E+03,-315,-7884,2184,90,-293,58,1,7,11
1.08E+03,-310,-7885,2189,100,-296,56,1,7,11
1.06E+03,-299,-7871,2177,108,-295,58,1,7,11
1.05E+03,-282,-7873,2185,82,-288,51,1,7,11
1.03E+03,-263,-7893,2182,52,-274,37,1,7,11
1.01E+03,-271,-7905,2185,31,7,19,1,7,11
1.00E+03,-281,-7913,2186,22,36,15,1,7,11
1.00E+03,-286,-7906,2189,26,63,24,1,7,11
1.01E+03,-303,-7921,2210,32,85,31,1,7,11
1.02E+03,-298,-7902,2197,64,94,48,1,7,11
1.03E+03,-284,-7881,2180,87,94,49,1,7,11
1.05E+03,-285,-7874,2181,85,101,28,1,7,11
1.07E+03,-298,-7881,2196,70,104,2,1,7,11
1.08E+03,-322,-7867,2208,67,93,-273,1,7,11
1.09E+03,-323,-7862,2214,67,64,-276,1,7,11
1.09E+03,-318,-7857,2205,59,31,-282,1,7,11
1.09E+03,-297,-7867,2213,40,1,-286,1,7,11
1.08E+03,-276,-7878,2201,26,-280,-296,1,7,11
1.06E+03,1,-7894,2200,16,-289,-310,1,7,11
1.03E+03,21,-7915,2194,13,-289,-316,1,7,11
1.01E+03,29,-7915,2192,27,-277,-317,1,7,11
9.92E+02,24,-7907,2202,53,16,-310,1,7,11
9.84E+02,16,-7889,2208,66,35,-293,1,7,11
9.88E+02,21,-7882,2205,66,39,-269,1,7,11
1.00E+03,11,-7882,2213,64,43,1,1,7,11
1.01E+03,12,-7873,2218,68,42,19,1,7,11
1.03E+03,31,-7852,2210,62,32,31,1,7,11
1.04E+03,34,-7840,2208,40,38,21,1,7,11
1.04E+03,23,-7855,2220,2,47,5,1,7,11
1.05E+03,28,-7872,2216,-267,45,-265,1,7,11
1.06E+03,41,-7882,2197,-270,50,-280,1,7,11
1.07E+03,47,-7905,2193,-270,65,-299,1,7,11
1.08E+03,40,-7915,2193,-263,82,-328,1,7,11
1.10E+03,37,-7918,2189,21,93,-346,1,7,11
1.11E+03,48,-7906,2180,53,99,-356,1,7,11
1.13E+03,49,-7894,2184,63,112,-368,1,7,11
1.14E+03,48,-7884,2197,61,119,-372,1,7,11
1.16E+03,49,-7886,2207,61,123,-369,1,7,11
1.17E+03,41,-7884,2210,66,121,-365,1,7,11
1.18E+03,44,-7883,2210,63,110,-353,1,7,11
1.19E+03,52,-7870,2210,57,94,-338,1,7,11
1.19E+03,71,-7861,2198,37,75,-322,1,7,11
1.19E+03,88,-7866,2190,12,68,-317,1,7,11
1.18E+03,100,-7885,2201,-258,72,-322,1,7,11
1.16E+03,111,-7895,2201,11,77,-328,1,7,11
1.12E+03,114,-7881,2200,23,93,-341,1,7,11
1.08E+03,127,-7858,2191,28,97,-346,1,7,11
1.05E+03,-123,-7880,2190,8,99,-367,1,7,11
1.02E+03,124,-7908,2201,4,96,-378,1,7,11
1.02E+03,120,-7910,2199,17,92,-368,1,7,11
1.03E+03,121,-7904,2193,44,93,-340,1,7,11
1.06E+03,114,-7901,2200,58,97,-308,1,7,11
1.09E+03,121,-7896,2207,70,90,-266,1,7,11
1.12E+03,-113,-7875,2202,84,78,25,1,7,11
1.16E+03,-94,-7869,2196,87,68,39,1,7,11
1.19E+03,-79,-7858,2184,84,65,50,1,7,11
1.21E+03,-82,-7858,2191,68,74,51,1,7,11
1.21E+03,-87,-7857,2191,45,81,52,1,7,11
1.18E+03,-88,-7878,2203,21,86,58,1,7,11
1.15E+03,-91,-7897,2221,2,87,45,1,7,11
1.10E+03,-94,-7896,2221,5,83,35,1,7,11
1.07E+03,-98,-7895,2241,4,84,22,1,7,11
1.05E+03,-95,-7879,2239,13,85,8,1,7,11
1.06E+03,-99,-7845,2220,23,88,-267,1,7,11
1.08E+03,-78,-7853,2220,-262,83,-281,1,7,11
1.11E+03,-81,-7858,2225,-285,85,-310,1,7,11
1.14E+03,-81,-7883,2225,-317,84,-328,1,7,11
1.17E+03,-81,-7886,2224,-316,78,-338,1,7,11
1.19E+03,-66,-7880,2214,-310,82,-336,1,7,11
1.20E+03,-52,-7877,2205,-316,86,-326,1,7,11
1.21E+03,-31,-7879,2189,-318,87,-317,1,7,11
1.20E+03,-18,-7878,2425,-324,97,-311,1,7,11
1.19E+03,-16,-7888,2420,-326,111,-308,1,7,11
1.17E+03,-27,-7892,2407,-328,126,-295,1,7,11
1.14E+03,-30,-7906,2402,-324,-117,-271,1,7,11
1.12E+03,-39,-7910,2409,-318,-107,2,1,7,11
1.10E+03,-44,-7909,2409,-299,-101,17,1,7,11
1.09E+03,-55,-7913,2412,-281,-103,24,1,7,11
1.08E+03,-62,-7896,2413,-266,-112,43,1,7,11
1.08E+03,-63,-7890,2426,0,-118,52,1,7,11
1.08E+03,-62,-7873,2417,5,-120,59,1,7,11
1.08E+03,-58,-7871,2412,6,-118,60,1,7,11
1.09E+03,-60,-7868,2408,-259,-116,54,1,7,11
1.11E+03,-58,-7873,2397,-270,-115,55,1,7,11
1.13E+03,-73,-7875,2394,-274,-110,57,1,7,11
1.14E+03,-78,-7891,2395,-280,-115,62,1,7,11
1.16E+03,-81,-7905,2404,-279,-120,58,1,7,11
1.17E+03,-86,-7908,2413,-270,-127,53,1,7,11
1.17E+03,-87,-7906,2417,5,115,47,1,7,11
1.16E+03,-76,-7890,2408,14,104,42,1,7,11
1.12E+03,-66,-7901,2411,-258,100,39,1,7,11
1.08E+03,-59,-7920,2423,0,108,33,1,7,11
1.04E+03,-47,-7916,2424,21,117,31,1,7,11
1.01E+03,-45,-7904,2421,38,-122,30,1,7,11
1.00E+03,-62,-7885,2417,43,-108,27,1,7,11
1.00E+03,-61,-7882,2419,35,-109,22,1,7,11
1.02E+03,-67,-7865,2410,34,-116,20,1,7,11
1.05E+03,-46,-7842,2387,16,125,16,1,7,11
1.08E+03,-33,-7852,2382,-284,117,6,1,7,11
1.12E+03,-27,-7885,2383,-308,113,-257,1,7,11
1.14E+03,-17,-7906,2380,-305,117,7,1,7,11
1.16E+03,-26,-7919,2388,-284,-125,27,1,7,11
1.16E+03,-31,-7916,2389,-258,-118,56,1,7,11
1.14E+03,-40,-7923,2402,16,-116,81,1,7,11
1.11E+03,-45,-7900,2399,34,-118,102,1,7,11
1.08E+03,-46,-7874,2392,32,-122,113,1,7,11
1.06E+03,-55,-7852,2403,11,-124,108,1,7,11
1.05E+03,-63,-7845,2403,-282,-128,102,1,7,11
1.06E+03,-68,-7858,2398,-315,125,94,1,7,11
1.08E+03,-62,-7878,2405,-347,123,84,1,7,11
1.11E+03,-56,-7907,2400,-359,122,70,1,7,11
1.14E+03,-62,-7909,2387,-344,-128,68,1,7,11
1.17E+03,-49,-7907,2367,-324,-123,71,1,7,11
1.20E+03,-39,-7917,2362,-315,-116,63,1,7,11
1.22E+03,-40,-7935,2364,-296,-114,49,1,7,11
1.23E+03,-41,-8198,2367,-269,-119,38,1,7,11
1.22E+03,-66,-7928,2364,-355,-78,328,1,7,11
1.19E+03,-93,-7916,2359,-333,-35,327,1,7,11
1.15E+03,-120,-7899,2354,-330,-10,331,1,7,11
1.11E+03,121,-7902,2347,-340,-7,335,1,7,11
1.09E+03,106,-7888,2340,-332,-14,332,1,7,11
1.08E+03,113,-7889,2324,-340,-27,329,1,7,11
1.09E+03,109,-7881,2044,-348,-23,314,1,7,11
1.10E+03,99,-7895,2046,-369,-9,302,1,7,11
1.11E+03,94,-7920,2311,-372,259,311,1,7,11
1.13E+03,88,-7934,2039,-365,271,325,1,7,11
1.14E+03,86,-7932,2035,-354,290,338,1,7,11
1.15E+03,69,-7931,2037,-349,302,361,1,7,11
1.15E+03,66,-7928,2026,-347,303,149,1,7,11
1.15E+03,42,-7917,2028,-345,320,178,1,7,11
1.15E+03,11,-8203,2032,-352,326,212,1,7,11
1.14E+03,-287,-8208,2042,-319,333,521,1,7,11
1.12E+03,-334,-7934,2036,-272,306,587,1,7,11
1.11E+03,-356,-7917,2023,19,261,433,1,7,11
1.09E+03,-379,-7931,2028,34,-40,807,1,7,11
1.07E+03,-135,-7931,2042,64,-94,666,1,7,11
1.06E+03,-164,-7919,2045,95,103,1049,1,7,11
1.05E+03,-197,-7900,2339,96,-259,935,1,7,11
1.05E+03,-205,-7887,2347,87,-142,1361,1,7,11
1.05E+03,-251,-7879,2356,56,-211,1207,1,7,11
1.05E+03,-186,-8193,2344,36,-545,1563,1,7,11
1.06E+03,-218,-8217,2358,54,-249,1607,1,7,11
1.07E+03,-516,-8195,2368,115,-218,1464,1,7,11
1.08E+03,-601,-7890,2380,-91,-157,1843,1,7,11
1.08E+03,-476,-7870,2179,-92,-329,1715,1,7,11
1.08E+03,-831,-7856,2199,-88,28,2081,1,7,11
1.07E+03,-873,-7855,2186,-103,-100,2168,1,7,11
1.05E+03,-709,-7834,2431,-107,333,2012,1,7,11
1.02E+03,-1134,-8042,2189,-123,231,2403,1,7,11
1.00E+03,-1303,-8020,2239,93,560,2605,1,7,11
9.90E+02,-1191,-8050,2302,47,568,2902,1,7,11
9.97E+02,-1538,-8043,2300,71,530,2983,1,7,11
1.02E+03,-1603,-7997,2269,84,214,3284,1,7,11
1.05E+03,-1427,-7951,2200,71,147,3565,1,7,11
1.09E+03,-1498,-7969,2380,1,358,3835,1,7,11
1.13E+03,-1819,-8015,2313,-319,344,4032,1,7,11
1.16E+03,-1697,-8015,2010,-346,340,4384,1,7,11
1.18E+03,-2108,-8028,1985,-143,308,4245,1,7,11
1.20E+03,-2029,-8037,1959,-161,269,4610,1,7,11
1.19E+03,-2203,-7939,2154,-364,-42,4689,1,7,11
1.16E+03,-2592,-7794,2053,-354,-105,4490,1,7,11
1.12E+03,-2554,-7749,1753,-159,-61,4515,1,7,11
1.08E+03,-3079,-7377,1718,-132,310,4597,1,7,11
1.04E+03,-3336,-7536,1714,-377,168,4767,1,7,11
1.03E+03,-3321,-7497,1732,-198,235,5211,1,7,11
1.03E+03,-3494,-7552,1758,-522,188,5395,1,7,11
1.05E+03,-3860,-7544,1741,-518,310,5463,1,7,11
1.06E+03,-3942,-7537,1716,-524,-82,5426,1,7,11
1.07E+03,-3811,-7489,1754,-515,55,5055,1,7,11
1.07E+03,-4158,-7470,1774,-240,-353,5169,1,7,11
1.05E+03,-4016,-7146,2106,-203,-220,4745,1,7,11
1.03E+03,-4367,-7275,2109,-133,-589,4585,1,7,11
1.01E+03,-4237,-6906,2149,-362,-625,4666,1,7,11
9.75E+02,-4637,-7018,2172,-318,-594,4300,1,7,11
9.41E+02,-4532,-6588,1945,-292,-517,4245,1,7,11
9.05E+02,-4934,-6703,1977,-320,-181,4233,1,7,11
8.72E+02,-4774,-6343,1991,-351,-362,4251,1,7,11
8.43E+02,-4853,-6493,1987,-361,-263,4244,1,7,11
8.18E+02,-5219,-6116,1980,-366,118,4468,1,7,11
8.00E+02,-5109,-6245,1975,-355,-5,4423,1,7,11
7.90E+02,-5751,-5990,2029,-286,524,4369,1,7,11
7.87E+02,-5631,-5920,2017,20,253,4368,1,7,11
7.93E+02,-5903,-5622,2001,2,171,4185,1,7,11
8.08E+02,-5949,-5560,1979,19,362,3918,1,7,11
8.31E+02,-5767,-5722,2141,56,308,3317,1,7,11
8.61E+02,-5850,-5363,2108,24,286,2975,1,7,11
8.98E+02,-6195,-5336,2136,-299,258,2891,1,7,11
9.37E+02,-6024,-5279,2148,-270,-38,2610,1,7,11
9.72E+02,-6097,-5460,2163,17,-94,2353,1,7,11
9.97E+02,-6405,-5118,2165,45,116,2128,1,7,11
1.01E+03,-6452,-5049,2162,42,78,1664,1,7,11
1.00E+03,-6505,-4994,2174,52,54,1510,1,7,11
9.95E+02,-6525,-5187,2159,64,53,1655,1,7,11
9.87E+02,-6306,-5122,1928,52,98,1548,1,7,11
9.86E+02,-6351,-4809,1934,27,-97,1221,1,7,11
9.93E+02,-6698,-4964,1961,-264,-30,1407,1,7,11
1.00E+03,-6764,-4874,1994,-351,-14,1385,1,7,11
1.02E+03,-6542,-4530,2012,-207,262,1379,1,7,11
1.03E+03,-6565,-4732,2033,-637,275,1342,1,7,11
1.05E+03,-6571,-4698,2041,-840,263,997,1,7,11
1.05E+03,-6550,-4700,2310,-1040,267,902,1,7,11
1.05E+03,-6571,-4684,2324,-952,303,1029,1,7,11
1.03E+03,-6581,-4698,2337,-1383,321,660,1,7,11
1.00E+03,-6584,-4709,2040,-1243,354,805,1,7,11
9.68E+02,-6564,-4734,1962,-1608,139,439,1,7,11
9.41E+02,-6773,-4515,2133,-1432,195,572,1,7,11
9.31E+02,-6749,-4567,1791,-1494,526,184,1,7,11
9.41E+02,-6762,-4607,1704,-1523,604,286,1,7,11
9.63E+02,-6774,-4896,1866,-1527,386,-82,1,7,11
9.87E+02,-6768,-4948,1797,-1529,406,98,1,7,11
1.00E+03,-6779,-4754,1495,-1501,418,39,1,7,11
1.01E+03,-6555,-4776,1452,-1415,437,21,1,7,11
1.00E+03,-6559,-4783,1651,-1550,433,48,1,7,11
9.85E+02,-6533,-4765,1542,-1174,409,67,1,7,11
9.58E+02,-6551,-4763,1209,-1360,430,95,1,7,11
9.26E+02,-6603,-4796,1163,-1286,467,-105,1,7,11
8.92E+02,-6647,-4787,1366,-1152,476,-28,1,7,11
8.62E+02,-6955,-4763,1018,-1036,476,294,1,7,11
8.39E+02,-7019,-4754,959,-665,483,371,1,7,11
8.22E+02,-6814,-4968,1141,-802,483,161,1,7,11
8.10E+02,-6860,-4938,1086,-457,493,172,1,7,11
8.00E+02,-7194,-4923,1069,-394,503,175,1,7,11
7.93E+02,-7229,-4923,1045,-601,468,198,1,7,11
7.87E+02,-7255,-4916,1029,-574,408,199,1,7,11
7.83E+02,-7177,-4941,705,-598,138,132,1,7,11
7.81E+02,-6868,-4964,678,-632,300,329,1,7,11
7.80E+02,-6806,-4978,660,-404,-36,266,1,7,11
7.81E+02,-7031,-4986,640,-416,-68,-50,1,7,11
7.83E+02,-7017,-4745,665,-407,-87,-78,1,7,11
7.86E+02,-6986,-4769,689,-619,-117,-80,1,7,11
7.90E+02,-6962,-4765,708,-540,112,-79,1,7,11
7.96E+02,-6942,-4750,1024,-151,78,-101,1,7,11
8.02E+02,-6970,-4989,1081,-317,58,-108,1,7,11
8.08E+02,-6978,-4927,1104,46,24,-85,1,7,11
8.15E+02,-6975,-4866,1122,111,-268,-56,1,7,11
8.23E+02,-6980,-4567,897,-109,-296,-18,1,7,11
8.30E+02,-6970,-4543,917,-105,-354,306,1,7,11
8.38E+02,-6994,-4543,982,-110,-139,374,1,7,11
8.46E+02,-7016,-4505,1008,-70,-194,182,1,7,11
8.54E+02,-6792,-4670,1011,-31,-218,186,1,7,11
8.61E+02,-6996,-4611,951,-49,-526,184,1,7,11
8.67E+02,-6986,-4624,942,121,-217,147,1,7,11
8.74E+02,-7025,-4633,951,53,-164,137,1,7,11
8.79E+02,-6803,-4648,973,42,-143,154,1,7,11
8.84E+02,-6829,-4645,985,63,-132,194,1,7,11
8.87E+02,-6862,-4639,999,108,-383,243,1,7,11
8.89E+02,-6891,-4351,1008,-77,-134,541,1,7,11
8.90E+02,-7173,-4299,1020,-22,-131,581,1,7,11
8.91E+02,-7271,-4466,1311,-10,-355,624,1,7,11
8.92E+02,-7054,-4429,1335,-38,-347,407,1,7,11
8.95E+02,-7058,-4410,1333,-52,-338,432,1,7,11
9.01E+02,-7062,-4402,1331,-61,-314,419,1,7,11
9.11E+02,-7289,-4398,1329,-59,-282,625,1,7,11
9.24E+02,-7265,-4414,1344,-73,20,541,1,7,11
9.39E+02,-7214,-4432,1328,-61,70,163,1,7,11
9.54E+02,-7211,-4389,1334,-32,-97,-18,1,7,11
9.70E+02,-7201,-4379,1332,-102,-50,105,1,7,11
9.83E+02,-7204,-4438,1369,93,-7,13,1,7,11
9.91E+02,-7209,-4455,1371,86,268,-289,1,7,11
9.93E+02,-6904,-4231,1355,65,268,-322,1,7,11
9.88E+02,-6886,-4274,1353,15,291,-373,1,7,11
9.80E+02,-6847,-4303,1358,-304,297,-153,1,7,11
9.71E+02,-6834,-4307,1366,-374,305,-185,1,7,11
9.64E+02,-6842,-4301,1347,-203,293,-202,1,7,11
9.60E+02,-6840,-4302,1308,-565,257,-188,1,7,11
9.58E+02,-6834,-4316,999,-404,261,-374,1,7,11
9.56E+02,-6828,-4336,941,-492,299,-290,1,7,11
9.54E+02,-6812,-4640,1141,-818,332,49,1,7,11
9.53E+02,-6812,-4667,1076,-843,138,109,1,7,11
9.51E+02,-6815,-4688,754,-830,196,-95,1,7,11
9.50E+02,-6807,-4703,662,-773,237,-61,1,7,11
9.50E+02,-6808,-4732,837,-445,553,-51,1,7,11
9.49E+02,-6841,-4510,771,-586,623,-64,1,7,11
9.49E+02,-6909,-4550,498,-183,434,-99,1,7,11
9.47E+02,-7249,-4555,492,54,469,-126,1,7,11
9.45E+02,-7053,-4485,432,368,466,-119,1,7,11
9.45E+02,-7138,-4666,436,388,476,-102,1,7,11
9.47E+02,-7452,-4616,445,895,453,-50,1,7,11
9.54E+02,-7479,-4298,454,1130,418,-33,1,7,11
9.65E+02,-7484,-4371,445,1324,606,-45,1,7,11
9.77E+02,-7471,-4055,480,1161,244,-31,1,7,11
9.86E+02,-7491,-4029,799,1185,181,-33,1,7,11
9.89E+02,-7550,-4051,652,1205,358,-34,1,7,11
9.85E+02,-7304,-4031,690,1544,-16,-46,1,7,11
9.79E+02,-7311,-4010,744,1597,-112,-87,1,7,11
9.75E+02,-7312,-4017,1062,1633,74,-122,1,7,11
9.79E+02,-7307,-4022,1135,1409,18,86,1,7,11
9.91E+02,-7302,-4027,958,1421,-325,9,1,7,11
1.01E+03,-7529,-4034,1289,1662,-184,-351,1,7,11
1.02E+03,-7539,-4035,1366,1624,-552,-217,1,7,11
1.04E+03,-7537,-4015,1190,1558,-430,-558,1,7,11
1.05E+03,-7509,-4009,1241,1181,-833,-611,1,7,11
1.07E+03,-7468,-4053,1563,1291,-708,-637,1,7,11
1.07E+03,-7165,-4373,1626,1124,-1101,-416,1,7,11
1.08E+03,-7109,-4460,1445,712,-971,-442,1,7,11
1.08E+03,-7287,-4291,1495,861,-1363,-484,1,7,11
1.09E+03,-7199,-4352,1514,771,-1231,-792,1,7,11
1.09E+03,-6860,-4665,1521,413,-1581,-846,1,7,11
1.09E+03,-6795,-4501,1828,555,-1631,-647,1,7,11
1.09E+03,-6998,-4598,1893,222,-1659,-670,1,7,11
1.09E+03,-6951,-4939,1718,207,-1428,-684,1,7,11
1.09E+03,-6626,-4972,2060,517,-1441,-699,1,7,11
1.08E+03,-6547,-4983,2094,571,-1430,-704,1,7,11
1.08E+03,-6530,-4990,2173,632,-1634,-670,1,7,11
1.07E+03,-6738,-4740,1995,435,-1590,-860,1,7,11
1.06E+03,-6686,-4771,2353,475,-1557,-782,1,7,11
1.06E+03,-6359,-4791,2192,790,-1270,-458,1,7,11
1.04E+03,-6526,-4763,2258,868,-1234,-404,1,7,11
1.02E+03,-6497,-4979,2560,642,-1401,-634,1,7,11
9.94E+02,-6486,-4929,2605,670,-1318,-584,1,7,11
9.68E+02,-6448,-4905,2653,890,-964,-559,1,7,11
9.47E+02,-6442,-4877,2440,860,-1105,-524,1,7,11
9.38E+02,-6436,-4583,2446,838,-725,-222,1,7,11
9.38E+02,-6450,-4556,2475,795,-851,-166,1,7,11
9.45E+02,-6476,-4510,2481,508,-456,-360,1,7,11
9.52E+02,-6526,-4730,2486,488,-552,-278,1,7,11
9.57E+02,-6325,-4676,2511,479,-133,70,1,7,11
9.57E+02,-6384,-4631,2521,457,3,-84,1,7,11
9.54E+02,-6696,-4324,2517,443,114,283,1,7,11
9.49E+02,-6744,-4267,2502,415,-63,136,1,7,11
9.41E+02,-6531,-4471,2487,621,260,235,1,7,11
9.34E+02,-6568,-4441,2463,556,309,583,1,7,11
9.32E+02,-6598,-4426,2451,217,344,637,1,7,11
9.38E+02,-6627,-4406,2434,130,371,402,1,7,11
9.53E+02,-6920,-4395,2674,292,136,391,1,7,11
9.70E+02,-6970,-4385,2665,-51,147,624,1,7,11
9.83E+02,-7021,-4374,2655,-128,140,607,1,7,11
9.83E+02,-7030,-4394,2641,40,362,588,1,7,11
9.71E+02,-6818,-4388,2640,10,341,544,1,7,11
9.54E+02,-6823,-4390,2615,-280,286,250,1,7,11
9.41E+02,-6821,-4409,2593,-318,259,199,1,7,11
9.39E+02,-6819,-4453,2605,-349,-40,148,1,7,11
9.49E+02,-6811,-4225,2603,-350,-82,337,1,7,11
9.68E+02,-6808,-4251,2606,-341,-121,268,1,7,11
9.92E+02,-6798,-4264,2607,-320,100,-41,1,7,11
1.01E+03,-6796,-4286,2623,-313,92,-81,1,7,11
1.04E+03,-7035,-4345,2655,-297,67,-97,1,7,11
1.05E+03,-7007,-4332,2645,52,59,-111,1,7,11
1.07E+03,-7000,-4341,2664,103,63,-122,1,7,11
1.08E+03,-6976,-4341,2669,-90,61,-119,1,7,11
1.09E+03,-6974,-4348,2452,-48,78,-101,1,7,11
1.10E+03,-6974,-4348,2476,-3,85,-71,1,7,11
1.10E+03,-6981,-4332,2505,302,92,-49,1,7,11
1.11E+03,-6992,-4301,2519,355,107,-12,1,7,11
1.11E+03,-6998,-4259,2522,149,104,294,1,7,11
1.11E+03,-6987,-4474,2517,170,107,345,1,7,11
1.11E+03,-6996,-4452,2517,160,122,382,1,7,11
1.10E+03,-6980,-4430,2501,141,-127,164,1,7,11
1.08E+03,-6954,-4404,2456,369,-125,181,1,7,11
1.04E+03,-6939,-4388,2683,317,-101,169,1,7,11
1.01E+03,-6942,-4427,2666,-19,-59,139,1,7,11
9.84E+02,-6957,-4418,2625,-58,262,320,1,7,11
9.66E+02,-6963,-4432,2592,120,315,-56,1,7,11
9.60E+02,-7000,-4449,2572,66,338,-99,1,7,11
9.67E+02,-6786,-4467,2576,35,349,-103,1,7,11
9.85E+02,-6843,-4468,2596,56,358,-89,1,7,11
1.01E+03,-6887,-4460,2607,107,358,-45,1,7,11
1.05E+03,-7176,-4445,2621,-72,361,278,1,7,11
1.08E+03,-7182,-4406,2627,277,354,353,1,7,11
1.12E+03,-7174,-4393,2654,323,335,151,1,7,11
1.14E+03,-6902,-4369,2665,359,300,174,1,7,11
1.15E+03,-6886,-4089,2674,377,-2,155,1,7,11
1.15E+03,-6875,-4058,2687,370,-41,354,1,7,11
1.14E+03,-6857,-4019,2435,357,-83,280,1,7,11
1.12E+03,-6838,-4005,2443,324,-114,-65,1,7,11
1.10E+03,-6814,-4011,2451,282,110,95,1,7,11
1.07E+03,-6802,-4001,2461,-9,84,-271,1,7,11
1.05E+03,-6795,-4006,2481,-47,73,-363,1,7,11
1.03E+03,-6819,-4001,2505,-60,79,-172,1,7,11
1.02E+03,-6829,-4001,2526,-59,71,-195,1,7,11
1.02E+03,-6829,-4007,2538,-45,64,-183,1,7,11
1.02E+03,-6829,-3999,2539,-14,58,-144,1,7,11
1.04E+03,-6824,-3990,2526,259,45,-339,1,7,11
1.05E+03,-6821,-3998,2530,-3,37,-277,1,7,11
1.06E+03,-6816,-3993,2532,-9,34,35,1,7,11
1.06E+03,-6819,-4002,2542,-25,35,88,1,7,11
1.07E+03,-6811,-3979,2537,-33,29,127,1,7,11
1.07E+03,-6813,-4219,2544,-56,37,-93,1,7,11
1.08E+03,-6816,-4196,2820,-82,50,-60,1,7,11
1.08E+03,-6838,-4182,2860,122,65,-29,1,7,11
1.08E+03,-6840,-4143,2860,101,63,287,1,7,11
1.07E+03,-6836,-4108,2856,37,69,343,1,7,11
1.06E+03,-6853,-3838,2876,-312,88,135,1,7,11
1.06E+03,-6852,-3825,2861,-135,110,175,1,7,11
1.05E+03,-6854,-3837,2848,-233,-106,196,1,7,11
1.05E+03,-6852,-4122,2837,-581,-70,199,1,7,11
1.06E+03,-6853,-4133,2816,-631,-31,177,1,7,11
1.07E+03,-6846,-4143,2539,-408,273,159,1,7,11
1.09E+03,-6839,-4154,2513,-437,333,128,1,7,11
1.11E+03,-6854,-4196,2497,-464,143,357,1,7,11
1.13E+03,-6870,-4191,2473,-445,196,346,1,7,11
1.15E+03,-6879,-4192,2466,-429,241,341,1,7,11
1.16E+03,-6895,-4201,2461,-405,537,342,1,7,11
1.16E+03,-7172,-4201,2446,-637,588,351,1,7,11
1.15E+03,-6912,-4182,2677,-592,609,359,1,7,11
1.13E+03,-6902,-4136,2639,-560,629,361,1,7,11
1.11E+03,-6893,-3823,2594,-554,415,355,1,7,11
1.08E+03,-6883,-3792,2586,-603,467,334,1,7,11
1.05E+03,-6891,-3791,2583,-479,777,292,1,7,11
1.04E+03,-7175,-3787,2587,-802,820,-1,1,7,11
1.04E+03,-7194,-3764,2575,-857,831,-30,1,7,11
1.05E+03,-7188,-3950,2248,-667,839,-44,1,7,11
1.07E+03,-7174,-3918,2188,-1061,870,-35,1,7,11
1.09E+03,-7200,-3933,2396,-975,667,-29,1,7,11
1.11E+03,-7213,-3746,2334,-1379,699,-8,1,7,11
1.13E+03,-7235,-3826,1957,-1225,725,-14,1,7,11
1.14E+03,-7285,-4180,2113,-1551,747,-41,1,7,11
1.14E+03,-7066,-3984,1739,-1545,749,-78,1,7,11
1.12E+03,-7109,-4023,1898,-1259,738,-112,1,7,11
1.10E+03,-7154,-4085,1829,-1197,721,115,1,7,11
1.07E+03,-7466,-4399,1513,-1349,682,102,1,7,11
1.04E+03,-7339,-4473,1428,-862,487,-113,1,7,11
1.03E+03,-7338,-4442,1655,-626,384,-81,1,7,11
1.05E+03,-7311,-4410,1645,-163,546,-64,1,7,11
1.07E+03,-7542,-4363,1636,23,224,-88,1,7,11
1.10E+03,-7488,-4212,1455,303,302,26,1,7,11
1.14E+03,-7474,-4164,1471,337,-34,21,1,7,11
1.17E+03,-7431,-4124,1474,330,-107,27,1,7,11
1.19E+03,-7123,-3831,1488,283,95,24,1,7,11
1.21E+03,-7095,-3833,1535,-52,73,0,1,7,11
1.21E+03,-7114,-4113,1849,-113,73,-274,1,7,11
1.21E+03,-7095,-4115,1870,-126,40,-262,1,7,11
1.19E+03,-7069,-4113,1896,95,27,2,1,7,11
1.16E+03,-7046,-4135,1674,47,27,18,1,7,11
1.13E+03,-7295,-4161,1704,8,36,27,1,7,11
1.10E+03,-7259,-4185,1713,-286,42,33,1,7,11
1.08E+03,-7209,-4188,1714,-346,61,16,1,7,11
1.06E+03,-6905,-4192,1705,-170,112,-273,1,7,11
1.05E+03,-6874,-4171,1674,-249,-54,-314,1,7,11
1.05E+03,-6871,-4120,1887,-594,323,-350,1,7,11
1.05E+03,-6908,-3828,1854,-434,219,-348,1,7,11
1.07E+03,-7218,-3805,1815,-511,628,-294,1,7,11
1.09E+03,-7280,-3823,1514,-825,510,42,1,7,11
1.11E+03,-7123,-4122,1486,-834,873,127,1,7,11
1.14E+03,-7480,-4160,1436,-509,655,-44,1,7,11
1.17E+03,-7543,-4195,1636,-410,884,276,1,7,11
1.19E+03,-7326,-3970,1569,-557,812,299,1,7,11
1.21E+03,-7347,-3986,1533,-186,447,292,1,7,11
1.22E+03,-7325,-3989,1262,-348,557,-3,1,7,11
1.22E+03,-7299,-3976,1265,-291,150,-78,1,7,11
1.19E+03,-7539,-4223,1280,-257,277,103,1,7,11
1.15E+03,-7523,-4190,1273,27,-89,38,1,7,11
1.11E+03,-7487,-4156,1538,26,74,-260,1,7,11
1.08E+03,-7453,-4151,1556,-267,24,-285,1,7,11
1.06E+03,-7428,-4140,1583,-286,2,-285,1,7,11
1.06E+03,-7160,-4159,1634,-306,-259,-268,1,7,11
1.08E+03,-7147,-4220,1428,-307,-265,23,1,7,11
1.11E+03,-7142,-3971,1465,24,-261,64,1,7,11
1.14E+03,-7093,-4209,1472,110,-259,-123,1,7,11
1.18E+03,-7295,-4212,1487,-89,15,-113,1,7,11
1.21E+03,-7241,-4210,1478,-60,31,112,1,7,11
1.23E+03,-7225,-4186,1450,-71,70,41,1,7,11
1.23E+03,-7227,-4150,1653,-110,110,-24,1,7,11
1.22E+03,-7263,-4127,1598,65,-94,-315,1,7,11
1.19E+03,-7073,-4140,1572,-314,-43,-322,1,7,11
1.15E+03,-7142,-4160,1555,-166,-16,-285,1,7,11
1.11E+03,-7463,-4173,1278,-231,-21,41,1,7,11
1.08E+03,-7539,-4193,1267,-521,-41,-116,1,7,11
1.07E+03,-7327,-4204,1253,-249,-80,-12,1,7,11
1.08E+03,-7349,-4214,1247,-194,-123,336,1,7,11
1.10E+03,-7334,-4224,1249,-379,57,141,1,7,11
1.12E+03,-7307,-3986,1259,-260,12,146,1,7,11
1.15E+03,-7552,-3987,1548,78,-278,359,1,7,11
1.18E+03,-7515,-4219,1577,-94,-331,288,1,7,11
1.20E+03,-7467,-4185,1610,-34,-364,-54,1,7,11
1.20E+03,-7160,-4138,1634,269,-381,120,1,7,11
1.20E+03,-7125,-3824,1641,302,-365,57,1,7,11
1.17E+03,-7065,-3755,1629,306,-335,29,1,7,11
1.12E+03,-7271,-3755,1638,-28,-290,-265,1,7,11
1.08E+03,-7270,-3754,1408,-91,27,-301,1,7,11
1.04E+03,-7256,-3787,1443,102,68,-299,1,7,11
1.03E+03,-7258,-3827,1478,68,113,-297,1,7,11
1.04E+03,-7259,-4120,1501,71,-117,-279,1,7,11
1.06E+03,-7279,-4137,1495,94,-92,-257,1,7,11
1.10E+03,-7046,-4144,1468,115,-77,51,1,7,11
1.13E+03,-7057,-4127,1418,112,-63,105,1,7,11
1.15E+03,-7094,-4133,1650,58,-38,-111,1,7,11
1.16E+03,-7148,-4154,1630,12,-17,-73,1,7,11
1.16E+03,-7445,-4151,1594,-269,-19,-37,1,7,11
1.15E+03,-7480,-4157,1547,-293,-26,-8,1,7,11
1.13E+03,-7517,-4149,1268,-299,-28,275,1,7,11
1.11E+03,-7549,-4159,1259,-302,-43,298,1,7,11
1.08E+03,-7324,-4176,1537,-281,-79,313,1,7,11
1.04E+03,-7323,-4207,1565,21,121,311,1,7,11
1.00E+03,-7303,-4220,1599,107,61,285,1,7,11
9.62E+02,-7517,-4210,1633,-57,10,-26,1,7,11
9.24E+02,-7467,-4179,1660,291,-294,-96,1,7,11
8.93E+02,-7143,-4128,1658,361,-324,79,1,7,11
8.74E+02,-7097,-3828,1662,381,-314,-268,1,7,11
8.70E+02,-7091,-3798,1431,368,-278,-332,1,7,11
8.82E+02,-7094,-3776,1449,354,11,-350,1,7,11
9.09E+02,-7101,-3759,1457,332,49,-339,1,7,11
9.52E+02,-7123,-3764,1470,306,91,-301,1,7,11
1.00E+03,-7166,-3784,1497,285,125,9,1,7,11
1.05E+03,-7444,-3783,1494,286,-125,77,1,7,11
1.09E+03,-7453,-3778,1492,275,-122,-121,1,7,11
1.09E+03,-7444,-3765,1485,266,125,-74,1,7,11
1.07E+03,-7430,-3760,1469,-27,121,-42,1,7,11
1.03E+03,-7155,-3774,1454,-75,119,-36,1,7,11
1.01E+03,-7426,-3786,1456,110,119,-61,1,7,11
1.00E+03,-7433,-3815,1455,47,113,-73,1,7,11
1.03E+03,-7434,-3829,1460,-268,93,-106,1,7,11
1.08E+03,-7430,-4099,1472,-312,70,115,1,7,11
1.13E+03,-7431,-4102,1493,-337,54,98,1,7,11
1.19E+03,-7434,-4111,1502,-345,41,107,1,7,11
1.23E+03,-7423,-4125,1513,-346,37,-107,1,7,11
1.25E+03,-7139,-4131,1494,-321,44,-38,1,7,11
1.25E+03,-7114,-4146,1465,-295,68,294,1,7,11
1.24E+03,-7096,-4174,1434,-281,105,358,1,7,11
1.21E+03,-7079,-4197,1421,-278,-109,133,1,7,11
1.17E+03,-7071,-3999,1447,0,-47,325,1,7,11
1.13E+03,-7093,-3977,1460,115,-30,322,1,7,11
1.08E+03,-7096,-4175,1445,-37,-19,364,1,7,11
1.04E+03,-7104,-4147,1450,276,256,165,1,7,11
1.01E+03,-7102,-3840,1447,332,283,224,1,7,11
9.84E+02,-7119,-3794,1448,361,319,513,1,7,11
9.73E+02,-7150,-3736,1444,131,355,526,1,7,11
9.72E+02,-7453,-3932,1443,380,382,531,1,7,11
9.81E+02,-7527,-3868,1432,367,155,543,1,7,11
9.96E+02,-7341,-3551,1436,342,167,560,1,7,11
1.02E+03,-7385,-3503,1434,307,155,574,1,7,11
1.04E+03,-7412,-3459,1434,265,136,563,1,7,11
1.05E+03,-7403,-3673,1421,-38,361,527,1,7,11
1.07E+03,-7408,-3657,1427,-110,341,201,1,7,11
1.07E+03,-7410,-3650,1462,84,310,379,1,7,11
1.07E+03,-7395,-3648,1505,36,268,300,1,7,11
1.05E+03,-7369,-3649,1794,5,-26,-19,1,7,11
1.03E+03,-7329,-3647,1826,-274,-58,-68,1,7,11
9.94E+02,-7537,-3645,1861,-290,-79,-106,1,7,11
9.66E+02,-7479,-3636,1869,-296,-89,115,1,7,11
9.51E+02,-7439,-3630,1860,-326,-71,70,1,7,11
9.52E+02,-7150,-3650,1869,-153,-50,9,1,7,11
9.65E+02,-7126,-3698,1905,-521,-47,-315,1,7,11
9.86E+02,-7100,-3502,1676,-625,-68,-131,1,7,11
1.01E+03,-7245,-3919,1530,-860,64,-390,1,7,11
1.03E+03,-7262,-3965,1659,-696,79,-491,1,7,11
1.04E+03,-7117,-3810,1594,-1066,-103,-809,1,7,11
1.05E+03,-7496,-4185,1556,-1130,-41,-806,1,7,11
1.06E+03,-7517,-3979,1177,-1090,-30,-481,1,7,11
1.05E+03,-7491,-4021,1302,-1068,-3,-422,1,7,11
1.04E+03,-7306,-4426,898,-749,134,-591,1,7,11
1.02E+03,-7391,-4260,1136,-662,179,-549,1,7,11
1.02E+03,-7696,-4316,1127,-793,156,-246,1,7,11
1.02E+03,-7707,-4348,1093,-624,358,-206,1,7,11
1.03E+03,-7737,-4641,1111,-207,307,-182,1,7,11
1.05E+03,-7787,-4668,909,-263,-25,-143,1,7,11
1.07E+03,-7796,-4670,935,-46,100,-340,1,7,11
1.08E+03,-7696,-4645,924,381,-334,-297,1,7,11
1.09E+03,-7361,-4659,983,208,-225,-319,1,7,11
1.10E+03,-7306,-4631,1282,544,-600,-356,1,7,11
1.10E+03,-7539,-4319,1320,390,-442,-132,1,7,11
1.11E+03,-7543,-4282,1391,465,-775,-364,1,7,11
1.10E+03,-7550,-4275,1248,771,-855,-293,1,7,11
1.10E+03,-7324,-4260,1618,828,-670,62,1,7,11
1.09E+03,-7393,-4432,1422,713,-732,-60,1,7,11
1.08E+03,-7411,-4327,1452,1125,-1035,345,1,7,11
1.06E+03,-7416,-3975,1459,966,-1081,521,1,7,11
1.05E+03,-7364,-4128,1457,993,-1125,413,1,7,11
1.03E+03,-7340,-3760,1427,961,-1120,510,1,7,11
1.03E+03,-7355,-3904,1640,1147,-1074,860,1,7,11
1.03E+03,-7350,-3575,1621,737,-763,649,1,7,11
1.04E+03,-7355,-3553,1644,782,-666,669,1,7,11
1.06E+03,-7359,-3563,1437,591,-864,681,1,7,11
1.08E+03,-7372,-3858,1504,169,-824,667,1,7,11
1.10E+03,-7370,-3884,1826,184,-810,890,1,7,11
1.12E+03,-7337,-3894,1875,525,-832,833,1,7,11
1.13E+03,-7531,-3888,1685,406,-871,476,1,7,11
1.13E+03,-7485,-3857,1790,845,-657,599,1,7,11
1.12E+03,-7457,-3559,2158,1058,-705,219,1,7,11
1.10E+03,-7443,-3493,2031,1289,-752,379,1,7,11
1.07E+03,-7437,-3659,2401,1244,-1047,313,1,7,11
1.05E+03,-7479,-3595,2293,1409,-1043,273,1,7,11
1.03E+03,-7511,-3258,2661,1810,-1054,288,1,7,11
1.04E+03,-7499,-3418,2481,1907,-1078,304,1,7,11
1.06E+03,-7463,-3052,2522,1683,-1079,313,1,7,11
1.08E+03,-7455,-3199,2515,1912,-1042,316,1,7,11
1.11E+03,-7164,-3108,2492,1532,-740,324,1,7,11
1.14E+03,-7112,-2789,2489,1591,-677,306,1,7,11
1.17E+03,-7054,-2775,2490,1370,-865,275,1,7,11
1.19E+03,-7243,-2782,2452,899,-792,-39,1,7,11
1.19E+03,-7259,-3075,2465,698,-430,-121,1,7,11
1.19E+03,-7289,-3101,2465,826,-601,96,1,7,11
1.17E+03,-7081,-3099,2485,506,-539,92,1,7,11
1.13E+03,-7152,-3077,2523,470,-229,-111,1,7,11
1.10E+03,-7489,-2813,2822,447,-220,-6,1,7,11
1.07E+03,-7547,-2785,2841,438,-251,137,1,7,11
1.05E+03,-7327,-2750,2841,428,-550,545,1,7,11
1.05E+03,-7366,-2929,2825,412,-574,438,1,7,11
1.06E+03,-7400,-2885,2844,587,-596,822,1,7,11
1.09E+03,-7418,-2875,2886,225,-618,660,1,7,11
1.12E+03,-7682,-2875,2927,139,-633,700,1,7,11
1.14E+03,-7409,-2857,2939,332,-638,704,1,7,11
1.17E+03,-7386,-2864,2705,-4,-614,660,1,7,11
1.19E+03,-7384,-2891,2741,-80,-575,833,1,7,11
1.19E+03,-7379,-2942,2801,-122,-544,468,1,7,11
1.17E+03,-7352,-2744,3090,-116,-536,601,1,7,11
1.12E+03,-7297,-2776,3076,-91,-521,217,1,7,11
1.07E+03,-7500,-3087,3092,-99,-238,346,1,7,11
1.03E+03,-7455,-3115,3114,-73,-207,-14,1,7,11
1.00E+03,-7431,-3109,3110,-6,-169,-84,1,7,11
1.00E+03,-7158,-3085,3103,319,-136,-99,1,7,11
1.02E+03,-7143,-3078,3106,359,-360,-78,1,7,11
1.05E+03,-7164,-2812,3134,376,-322,-39,1,7,11
1.09E+03,-7438,-2789,3151,149,-299,262,1,7,11
1.12E+03,-7479,-2758,3179,170,-272,303,1,7,11
1.15E+03,-7506,-2707,2955,199,-259,352,1,7,11
1.17E+03,-7530,-2933,2990,207,-260,136,1,7,11
1.18E+03,-7315,-2917,3039,216,-264,161,1,7,11
1.18E+03,-7372,-2890,3062,241,-270,177,1,7,11
1.17E+03,-7397,-2534,3025,554,-278,208,1,7,11
1.15E+03,-7682,-2687,3011,537,0,235,1,7,11
1.13E+03,-7702,-2687,3342,225,10,523,1,7,11
1.11E+03,-7417,-2436,3378,243,33,514,1,7,11
1.10E+03,-7688,-2656,3395,247,60,237,1,7,11
1.10E+03,-7711,-2610,3418,233,80,218,1,7,11
1.09E+03,-7723,-2574,3429,227,92,193,1,7,11
1.10E+03,-7753,-2291,3424,224,120,153,1,7,11
1.11E+03,-7754,-2266,3420,219,-114,366,1,7,11
1.12E+03,-7764,-2246,3440,186,-69,302,1,7,11
1.14E+03,-7762,-2225,3454,162,-35,-11,1,7,11
1.15E+03,-7773,-2186,3437,147,269,-72,1,7,11
1.16E+03,-7795,-2386,3402,383,320,-122,1,7,11
1.15E+03,-7553,-2355,3372,324,371,86,1,7,11
1.14E+03,-7576,-2349,3366,-3,162,32,1,7,11
1.13E+03,-7565,-2325,3064,-62,185,-283,1,7,11
1.11E+03,-7603,-2322,3046,91,231,-358,1,7,11
1.09E+03,-7589,-2357,3038,-268,221,-146,1,7,11
1.07E+03,-7556,-2393,3042,-360,200,-236,1,7,11
1.06E+03,-7797,-2412,3068,-155,165,-607,1,7,11
1.06E+03,-7776,-2399,3344,-151,371,-466,1,7,11
1.06E+03,-7781,-2388,3352,-138,339,-817,1,7,11
1.07E+03,-7778,-2360,3342,-132,304,-860,1,7,11
1.09E+03,-7754,-2351,3337,-186,272,-874,1,7,11
1.11E+03,-7713,-2369,3366,-539,-7,-872,1,7,11
1.13E+03,-7386,-2420,3392,-399,-33,-866,1,7,11
1.14E+03,-7328,-2217,3373,-496,-27,-874,1,7,11
1.14E+03,-7302,-2198,3332,-836,270,-863,1,7,11
1.13E+03,-7524,-2193,3039,-713,328,-820,1,7,11
1.12E+03,-7518,-2242,3035,-1348,323,-791,1,7,11
1.09E+03,-7476,-2261,2976,-1575,270,-771,1,7,11
1.07E+03,-7152,-2246,3125,-1795,-38,-503,1,7,11
1.04E+03,-7085,-2252,2716,-2058,-70,-476,1,7,11
1.02E+03,-7272,-2267,2554,-2363,-94,-443,1,7,11
1.00E+03,-7204,-2303,2644,-2450,-116,-410,1,7,11
9.99E+02,-6885,-2612,2183,-3084,114,-413,1,7,11
1.01E+03,-7173,-2484,2031,-3255,124,-459,1,7,11
1.02E+03,-7065,-2775,2003,-3894,-91,-497,1,7,11
1.04E+03,-7519,-3377,2016,-3770,-75,-466,1,7,11
1.07E+03,-7414,-3703,2041,-3884,-115,-625,1,7,11
1.10E+03,-7709,-3716,2029,-3212,62,-228,1,7,11
1.14E+03,-7704,-4169,2003,-2866,41,-340,1,7,11
1.18E+03,-7378,-4054,1973,-2143,67,58,1,7,11
1.22E+03,-7537,-4375,1945,-1352,-58,-120,1,7,11
1.26E+03,-7453,-4408,1969,-587,161,-98,1,7,11
1.30E+03,-7083,-4361,1984,200,448,95,1,7,11
1.34E+03,-7057,-3970,1980,910,1077,-338,1,7,11
1.37E+03,-7285,-4131,2016,1437,1156,-566,1,7,11
1.41E+03,-7052,-3928,2021,1927,1455,-835,1,7,11
1.43E+03,-7121,-3474,2031,2251,1698,-1058,1,7,11
1.45E+03,-7475,-3608,2346,2623,2097,-944,1,7,11
1.46E+03,-7873,-2992,2593,2515,2371,-972,1,7,11
1.46E+03,-8996,-2473,2867,2530,2070,-806,1,7,11
1.45E+03,-8241,-2888,2685,2108,808,25,1,7,11
1.43E+03,-7864,-3010,2847,1429,486,-333,1,7,11
1.40E+03,-8010,-2995,2484,1496,606,-182,1,7,11
1.37E+03,-7782,-3334,2595,1438,636,-209,1,7,11
1.34E+03,-7667,-3442,2607,1545,842,-177,1,7,11
1.30E+03,-7665,-3445,2229,1611,658,-71,1,7,11
1.24E+03,-7962,-3417,2184,1656,1060,192,1,7,11
1.18E+03,-7987,-3366,2424,1419,1083,409,1,7,11
1.10E+03,-7972,-3005,2381,1647,726,503,1,7,11
1.04E+03,-7609,-3014,2348,1209,510,432,1,7,11
9.86E+02,-7338,-3297,2317,1345,398,227,1,7,11
9.71E+02,-7282,-3551,2152,1564,832,-26,1,7,11
9.89E+02,-6866,-3714,1756,1713,1302,-321,1,7,11
1.03E+03,-7230,-3569,1871,2228,1910,-631,1,7,11
1.08E+03,-7353,-3342,1809,2842,2414,-841,1,7,11
1.12E+03,-7818,-2749,1742,2495,2274,-1052,1,7,11
1.15E+03,-8544,-2515,2311,2231,2042,-923,1,7,11
1.17E+03,-8614,-2238,2293,2165,1416,-758,1,7,11
1.17E+03,-8630,-2025,2642,1618,465,-450,1,7,11
1.17E+03,-8435,-1953,2632,871,-255,-305,1,7,11
1.16E+03,-8170,-2031,2644,7,-1376,337,1,7,11
1.14E+03,-7954,-2187,2295,-1064,-2134,452,1,7,11
1.12E+03,-7624,-2625,2181,-1867,-2476,1076,1,7,11
1.11E+03,-7379,-2842,2387,-2645,-2812,1382,1,7,11
1.10E+03,-7178,-3131,2378,-3046,-2948,1611,1,7,11
1.09E+03,-7193,-2982,2378,-3700,-3186,1453,1,7,11
1.09E+03,-7072,-3027,2211,-3911,-3083,1488,1,7,11
1.09E+03,-7350,-3180,2584,-4152,-3073,1834,1,7,11
1.09E+03,-7985,-2781,2457,-4059,-2991,1708,1,7,11
1.10E+03,-8135,-2854,2583,-4013,-3268,2174,1,7,11
1.10E+03,-8190,-2678,2506,-4164,-3593,2282,1,7,11
1.10E+03,-7852,-2769,2731,-4198,-3656,2823,1,7,11
1.09E+03,-7948,-3390,3044,-3948,-3623,2298,1,7,11
1.07E+03,-7839,-3428,3589,-2982,-3707,1925,1,7,11
1.04E+03,-7823,-3175,3634,-2602,-3744,1911,1,7,11
1.01E+03,-7642,-3143,3658,-2165,-4190,1836,1,7,11
9.80E+02,-7466,-3088,3312,-1422,-3832,1427,1,7,11
9.67E+02,-6822,-2812,3292,-1386,-3654,1241,1,7,11
9.70E+02,-6288,-3110,3310,-990,-2774,1324,1,7,11
9.84E+02,-6092,-3138,3467,-947,-2159,857,1,7,11
1.00E+03,-6084,-2978,3940,-1097,-1313,276,1,7,11
1.02E+03,-6467,-2946,3791,-813,-539,-571,1,7,11
1.03E+03,-6375,-3128,3778,-571,369,-709,1,7,11
1.04E+03,-6741,-2811,3892,-148,645,-1122,1,7,11
1.05E+03,-6579,-2801,3679,-343,1154,-1117,1,7,11
1.06E+03,-6932,-2787,3446,-343,1888,-1035,1,7,11
1.07E+03,-7030,-3095,2949,-174,2022,-710,1,7,11
1.09E+03,-6844,-2989,2735,-573,2284,-727,1,7,11
1.09E+03,-7248,-3357,2487,-622,2497,-1077,1,7,11
1.09E+03,-7449,-3306,2608,-610,2693,-1029,1,7,11
1.07E+03,-7354,-3457,2248,-360,2804,-645,1,7,11
1.03E+03,-7718,-3848,2184,-37,2808,-465,1,7,11
9.93E+02,-7785,-3942,2410,422,2776,-220,1,7,11
9.67E+02,-7568,-3901,2364,954,2734,-261,1,7,11
9.62E+02,-7627,-3523,2386,1651,2913,-119,1,7,11
9.78E+02,-7965,-3324,2191,1689,2484,-30,1,7,11
1.01E+03,-8053,-3410,2301,2079,2207,332,1,7,11
1.04E+03,-7810,-2940,2455,1775,1262,712,1,7,11
1.07E+03,-7872,-2557,2509,1681,1330,1348,1,7,11
1.10E+03,-8270,-2644,2510,1861,926,1818,1,7,11
1.12E+03,-8572,-2355,2519,1872,1122,2419,1,7,11
1.12E+03,-8455,-1997,2294,1801,858,3082,1,7,11
1.10E+03,-7702,-2428,2421,1288,544,3347,1,7,11
1.07E+03,-7481,-2582,2418,736,598,2718,1,7,11
1.03E+03,-7117,-2550,2232,860,483,2272,1,7,11
9.84E+02,-7425,-2740,2582,746,704,1938,1,7,11
9.39E+02,-7520,-2909,2232,1393,908,1863,1,7,11
9.02E+02,-7768,-2621,2369,1431,1315,1403,1,7,11
8.74E+02,-8011,-2025,1997,1844,1386,656,1,7,11
8.55E+02,-8277,-1706,1956,1516,1155,344,1,7,11
8.46E+02,-8163,-1794,1987,1606,1371,44,1,7,11
8.46E+02,-8154,-1430,1971,1152,988,-369,1,7,11
8.52E+02,-8313,-1422,1982,1104,1095,-562,1,7,11
8.60E+02,-8231,-1642,1998,864,1071,-437,1,7,11
8.71E+02,-8212,-1617,2040,577,1047,-883,1,7,11
8.83E+02,-7934,-1614,2328,279,733,-1119,1,7,11
8.96E+02,-8202,-1627,2392,-296,699,-1301,1,7,11
9.12E+02,-8200,-1437,2197,-631,880,-1186,1,7,11
9.28E+02,-7897,-1532,2253,-685,781,-1565,1,7,11
9.47E+02,-7842,-1880,2239,-955,441,-1447,1,7,11
9.66E+02,-8013,-1718,2374,-1196,622,-1838,1,7,11
9.88E+02,-7666,-2079,1949,-1446,609,-1710,1,7,11
1.01E+03,-7594,-1958,1757,-1715,401,-2069,1,7,11
1.03E+03,-7592,-2395,1802,-1972,505,-2130,1,7,11
1.06E+03,-7615,-2600,1623,-2177,875,-2120,1,7,11
1.09E+03,-7680,-2540,1213,-2280,726,-2104,1,7,11
1.11E+03,-7822,-2731,1161,-2292,1078,-2069,1,7,11
1.14E+03,-8213,-3135,1169,-2386,1111,-1713,1,7,11
1.17E+03,-8076,-2953,1168,-2079,1091,-1822,1,7,11
1.19E+03,-8124,-2968,1403,-1437,752,-1636,1,7,11
1.21E+03,-8120,-2967,1401,-1350,646,-1215,1,7,11
1.23E+03,-8089,-2952,1400,-765,790,-1334,1,7,11
1.24E+03,-8278,-3140,1379,-491,424,-999,1,7,11
1.24E+03,-8222,-2798,1357,-544,592,-970,1,7,11
1.22E+03,-7901,-2722,1323,-196,522,-977,1,7,11
1.20E+03,-7823,-2707,1306,-213,194,-1007,1,7,11
1.17E+03,-8026,-2783,1331,-566,135,-1320,1,7,11
1.14E+03,-7999,-3127,1344,-620,345,-1370,1,7,11
1.12E+03,-7981,-3177,1309,-623,313,-1153,1,7,11
1.10E+03,-7968,-2965,1008,-636,302,-1167,1,7,11
1.09E+03,-7953,-2982,953,-392,302,-1159,1,7,11
1.10E+03,-7972,-3044,916,-412,329,-1388,1,7,11
1.11E+03,-8041,-3362,904,-387,365,-1335,1,7,11
1.13E+03,-7841,-3400,1132,-548,374,-1009,1,7,11
1.15E+03,-7888,-3452,1141,-191,354,-969,1,7,11
1.17E+03,-7895,-3230,914,-301,258,-945,1,7,11
1.20E+03,-7834,-3260,948,100,101,-975,1,7,11
1.21E+03,-8038,-3278,983,-15,-328,-1321,1,7,11
1.22E+03,-7974,-3276,1290,354,-256,-1172,1,7,11
1.22E+03,-7648,-3251,1335,198,-430,-1271,1,7,11
1.21E+03,-7570,-3203,1380,522,-849,-1582,1,7,11
1.19E+03,-7728,-3451,1181,525,-742,-1587,1,7,11
1.17E+03,-7398,-3222,1257,229,-1124,-1558,1,7,11
1.14E+03,-7336,-3268,1608,185,-979,-1259,1,7,11
1.11E+03,-7536,-3326,1432,171,-1330,-1215,1,7,11
1.09E+03,-7469,-3625,1489,176,-1405,-1176,1,7,11
1.07E+03,-7426,-3667,1804,192,-1171,-1398,1,7,11
1.07E+03,-7148,-3483,1884,186,-1155,-1363,1,7,11
1.09E+03,-7158,-3571,1726,184,-1374,-1324,1,7,11
1.10E+03,-7160,-3883,2052,223,-1345,-1289,1,7,11
1.13E+03,-7156,-3938,2107,513,-1316,-1022,1,7,11
1.14E+03,-7126,-3964,2136,554,-1293,-1015,1,7,11
1.15E+03,-7051,-3962,2094,567,-1009,-1015,1,7,11
1.16E+03,-7232,-3959,1790,521,-938,-1022,1,7,11
1.15E+03,-7200,-3714,1768,172,-1068,-1281,1,7,11
1.14E+03,-7196,-3735,1774,330,-665,-986,1,7,11
1.12E+03,-7209,-3797,2056,-35,-790,-917,1,7,11
1.09E+03,-7203,-4111,2067,-100,-429,-1078,1,7,11
1.07E+03,-7205,-4155,2073,117,-586,-719,1,7,11
1.06E+03,-7219,-4182,2078,93,-225,-869,1,7,11
1.06E+03,-7243,-4203,2088,77,-137,-504,1,7,11
1.07E+03,-7281,-3992,2108,51,-329,-395,1,7,11
1.10E+03,-7053,-4046,2129,48,-315,-549,1,7,11
1.13E+03,-7069,-4363,2147,53,-329,-224,1,7,11
1.15E+03,-7070,-4400,2150,100,-356,-178,1,7,11
1.17E+03,-7062,-4404,2146,-100,-138,-149,1,7,11
1.17E+03,-7048,-4399,2154,-65,-175,-139,1,7,11
1.17E+03,-7042,-4382,2164,-28,-209,-133,1,7,11
1.15E+03,-7286,-4089,2164,264,-245,-373,1,7,11
1.12E+03,-7259,-4078,2168,-7,-546,-362,1,7,11
1.08E+03,-7229,-4362,1942,-51,-597,-365,1,7,11
1.04E+03,-7191,-4400,1976,-96,-394,-138,1,7,11
1.01E+03,-6909,-4423,2006,-116,-441,-187,1,7,11
9.94E+02,-6896,-4411,2006,124,-468,-243,1,7,11
1.00E+03,-6905,-4415,2022,72,-471,-533,1,7,11
1.02E+03,-6892,-4393,2040,32,-476,-530,1,7,11
1.05E+03,-6859,-4402,2337,-290,-482,-513,1,7,11
1.09E+03,-6861,-4458,2411,-343,-485,-225,1,7,11
1.12E+03,-6851,-4263,2218,-341,-511,-176,1,7,11
1.14E+03,-6815,-4272,2232,-280,-804,-381,1,7,11
1.15E+03,-7016,-4288,2246,15,-832,-335,1,7,11
1.15E+03,-6961,-4307,2256,31,-848,-299,1,7,11
1.13E+03,-6645,-4339,2256,27,-865,-279,1,7,11
1.09E+03,-6583,-4352,2243,19,-872,-278,1,7,11
1.06E+03,-6545,-4620,2252,0,-845,-295,1,7,11
1.02E+03,-6536,-4629,2275,0,-804,-302,1,7,11
9.90E+02,-6555,-4640,2562,29,-772,-276,1,7,11
9.73E+02,-6761,-4349,2266,110,-769,44,1,7,11
9.64E+02,-6695,-4319,2221,-112,-465,81,1,7,11
9.61E+02,-6679,-4307,2236,-116,-617,92,1,7,11
9.62E+02,-6916,-4323,2468,262,-325,-124,1,7,11
9.67E+02,-7004,-4459,2508,137,-274,-43,1,7,11
9.77E+02,-6819,-4283,2490,555,28,333,1,7,11
9.92E+02,-6904,-4068,2478,413,107,245,1,7,11
1.01E+03,-7042,-3879,2468,475,-16,848,1,7,11
1.04E+03,-7144,-3493,2494,439,306,1098,1,7,11
1.06E+03,-7470,-3649,2512,416,319,1323,1,7,11
1.06E+03,-7489,-3308,2500,384,274,1215,1,7,11
1.05E+03,-7466,-3239,2468,576,-66,1243,1,7,11
1.02E+03,-7438,-3439,2447,214,119,1407,1,7,11
9.81E+02,-7467,-3437,2463,319,70,973,1,7,11
9.52E+02,-7506,-3212,2502,-69,-262,1028,1,7,11
9.45E+02,-7505,-3258,2501,82,-368,839,1,7,11
9.60E+02,-7474,-3592,2504,-287,-206,391,1,7,11
9.86E+02,-7456,-3686,2525,-371,-249,206,1,7,11
1.02E+03,-7448,-3508,2544,-151,-514,305,1,7,11
1.04E+03,-7461,-3846,2831,-171,-227,-75,1,7,11
1.06E+03,-7458,-3914,2842,-137,-193,115,1,7,11
1.08E+03,-7137,-3948,2820,-341,-167,82,1,7,11
1.08E+03,-7077,-3732,2539,-302,-360,31,1,7,11
1.09E+03,-7047,-3753,2529,9,-269,-277,1,7,11
1.10E+03,-7041,-3771,2546,77,80,-323,1,7,11
1.10E+03,-7289,-3788,2543,-92,-105,-352,1,7,11
1.10E+03,-7293,-3795,2542,256,-29,-360,1,7,11
1.09E+03,-7288,-3801,2819,340,290,-357,1,7,11
1.07E+03,-7272,-3790,2558,172,343,-343,1,7,11
1.05E+03,-7254,-3751,2542,515,129,-317,1,7,11
1.03E+03,-7260,-3967,2535,561,184,-277,1,7,11
1.02E+03,-7260,-3930,2547,586,211,54,1,7,11
1.02E+03,-7258,-3956,2837,559,202,-127,1,7,11
1.03E+03,-7250,-3736,2834,548,154,-89,1,7,11
1.05E+03,-7204,-3753,2559,534,377,-94,1,7,11
1.07E+03,-7180,-3773,2556,232,133,99,1,7,11
1.08E+03,-6907,-3769,2550,167,145,-267,1,7,11
1.09E+03,-7200,-3766,2547,351,189,-139,1,7,11
1.08E+03,-7250,-3757,2553,276,239,-256,1,7,11
1.08E+03,-7267,-3760,2553,-56,238,-591,1,7,11
1.07E+03,-7249,-3800,2552,113,204,-411,1,7,11
1.06E+03,-7217,-3837,2531,50,169,-490,1,7,11
1.06E+03,-7199,-4134,2520,-276,143,-831,1,7,11
1.04E+03,-7184,-4170,2512,-337,369,-647,1,7,11
1.02E+03,-6911,-4211,2509,-141,333,-693,1,7,11
1.00E+03,-6882,-3993,2505,-208,276,-712,1,7,11
9.74E+02,-6843,-4023,2507,-526,-37,-718,1,7,11
9.51E+02,-6843,-4048,2506,-570,-91,-701,1,7,11
9.36E+02,-6852,-4015,2490,-592,110,-670,1,7,11
9.33E+02,-6842,-4029,2506,-414,37,-875,1,7,11
9.40E+02,-6843,-4082,2539,-488,-288,-815,1,7,11
9.56E+02,-6817,-4365,2547,-489,-370,-489,1,7,11
9.81E+02,-6796,-4381,2523,-475,-171,-436,1,7,11
1.01E+03,-6802,-4408,2514,-456,-195,-634,1,7,11
1.04E+03,-6812,-4441,2514,-608,-236,-213,1,7,11
1.05E+03,-6788,-4438,2485,-527,-248,-384,1,7,11
1.05E+03,-7011,-4428,2685,-188,-235,-321,1,7,11
1.02E+03,-6991,-4439,2637,-383,-184,-277,1,7,11
9.92E+02,-6976,-4453,2612,-320,-371,5,1,7,11
9.65E+02,-6981,-4460,2606,9,-285,14,1,7,11
9.55E+02,-7028,-4244,2657,94,65,26,1,7,11
9.65E+02,-6822,-4227,2662,-23,-127,65,1,7,11
9.88E+02,-6876,-4416,2687,366,-76,114,1,7,11
1.01E+03,-7203,-4408,2488,217,264,-47,1,7,11
1.04E+03,-7261,-4400,2559,553,271,293,1,7,11
1.05E+03,-7261,-4096,2851,395,-25,379,1,7,11
1.06E+03,-7229,-4033,2852,453,-71,186,1,7,11
1.06E+03,-7173,-3982,2867,465,-103,218,1,7,11
1.06E+03,-6862,-4214,2891,422,-113,196,1,7,11
1.07E+03,-6792,-4198,2911,627,121,382,1,7,11
1.08E+03,-6973,-4157,2889,551,105,-7,1,7,11
1.08E+03,-6967,-4142,2909,194,110,107,1,7,11
1.07E+03,-6952,-4113,2916,364,123,-267,1,7,11
1.04E+03,-6964,-3820,2905,273,-104,-348,1,7,11
1.01E+03,-6973,-3795,2892,-77,-69,-377,1,7,11
9.81E+02,-7000,-3789,2898,85,-22,-377,1,7,11
9.65E+02,-6817,-3805,2928,22,284,-342,1,7,11
9.71E+02,-6854,-3803,2926,12,300,-263,1,7,11
9.93E+02,-6881,-3776,2901,13,315,89,1,7,11
1.02E+03,-6890,-3742,2864,-260,344,-61,1,7,11
1.05E+03,-6905,-3725,2849,-292,136,295,1,7,11
1.07E+03,-6908,-3968,2819,-339,183,379,1,7,11
1.08E+03,-6894,-3961,2517,-155,215,178,1,7,11
1.08E+03,-6872,-3942,2459,-513,236,184,1,7,11
1.07E+03,-6881,-3947,2681,-404,537,135,1,7,11
1.05E+03,-6901,-3719,2662,-802,567,316,1,7,11
1.03E+03,-6909,-3738,2637,-676,574,-55,1,7,11
1.00E+03,-7188,-3774,2629,-1064,566,78,1,7,11
9.71E+02,-7200,-3815,2610,-921,530,-297,1,7,11
9.42E+02,-7224,-4120,2596,-1015,242,-154,1,7,11
9.13E+02,-7261,-4162,2580,-1322,212,-240,1,7,11
8.87E+02,-7284,-4192,2285,-1330,172,-541,1,7,11
8.64E+02,-7054,-4217,2246,-1319,149,-550,1,7,11
8.44E+02,-7063,-3969,2195,-1023,130,-250,1,7,11
8.28E+02,-7058,-3994,2406,-972,378,-169,1,7,11
8.16E+02,-7046,-4008,2350,-1150,381,-315,1,7,11
8.06E+02,-7279,-4028,2043,-1088,133,47,1,7,11
7.99E+02,-7253,-4046,2005,-762,154,-125,1,7,11
7.95E+02,-7235,-4064,1987,-702,171,-69,1,7,11
7.93E+02,-7221,-4079,1969,-641,183,-34,1,7,11
7.95E+02,-7190,-4086,1948,-838,184,-35,1,7,11
7.98E+02,-6907,-4091,1942,-806,185,-76,1,7,11
8.04E+02,-6901,-4354,1949,-796,185,122,1,7,11
8.12E+02,-6891,-4094,1963,-806,173,51,1,7,11
8.22E+02,-6881,-4066,1968,-820,150,-274,1,7,11
8.32E+02,-6858,-4012,1958,-850,135,-324,1,7,11
8.44E+02,-6854,-4219,1987,-672,154,-360,1,7,11
8.56E+02,-6868,-4196,2021,-1034,190,-366,1,7,11
8.68E+02,-6897,-4178,2343,-1147,232,-353,1,7,11
8.80E+02,-7255,-3797,2353,-969,555,-290,1,7,11
8.92E+02,-7239,-3943,2044,-1391,571,42,1,7,11
9.04E+02,-7173,-3865,1959,-1609,604,85,1,7,11
9.15E+02,-6844,-3845,2115,-1886,422,74,1,7,11
9.26E+02,-6799,-3889,1772,-1949,789,-269,1,7,11
9.36E+02,-6820,-3759,1671,-2252,667,-157,1,7,11
9.46E+02,-6807,-3785,1443,-2648,758,-526,1,7,11
9.55E+02,-7026,-4172,1219,-2903,1108,-421,1,7,11
9.62E+02,-6827,-4435,1400,-3129,955,-814,1,7,11
9.68E+02,-6874,-4707,1363,-3179,980,-671,1,7,11
9.71E+02,-7221,-4966,1345,-2782,948,-1030,1,7,11
9.73E+02,-7296,-4858,1304,-2434,1104,-1063,1,7,11
9.74E+02,-7296,-5163,966,-2007,719,-768,1,7,11
9.73E+02,-7267,-5172,900,-1859,876,-675,1,7,11
9.70E+02,-7216,-5148,1116,-1228,808,-800,1,7,11
9.67E+02,-6893,-4832,1082,-1150,773,-394,1,7,11
9.64E+02,-6841,-4770,1055,-875,771,-253,1,7,11
9.63E+02,-6817,-4949,760,-633,792,-378,1,7,11
9.65E+02,-6821,-4598,725,-177,824,10,1,7,11
9.69E+02,-6856,-4551,668,-297,856,-113,1,7,11
9.74E+02,-6895,-4531,871,67,873,264,1,7,11
9.79E+02,-7182,-4559,837,-99,872,365,1,7,11
9.83E+02,-7201,-4579,796,262,843,170,1,7,11
9.85E+02,-7210,-4602,505,364,789,181,1,7,11
9.85E+02,-7234,-4605,488,218,472,147,1,7,11
9.84E+02,-7262,-4595,497,579,397,354,1,7,11
9.81E+02,-7278,-4563,494,424,566,309,1,7,11
9.76E+02,-7277,-4518,782,503,230,278,1,7,11
9.70E+02,-7280,-4723,833,817,158,263,1,7,11
9.64E+02,-7283,-4664,893,880,348,280,1,7,11
9.58E+02,-7279,-4346,686,677,286,332,1,7,11
9.51E+02,-7266,-4278,703,718,-19,163,1,7,11
9.44E+02,-7232,-4226,720,698,-52,252,1,7,11
9.34E+02,-7200,-4465,743,885,-68,573,1,7,11
9.24E+02,-7181,-4461,760,784,-75,607,1,7,11
9.15E+02,-6906,-4464,765,421,-89,614,1,7,11
9.09E+02,-6892,-4228,755,547,-104,592,1,7,11
9.07E+02,-6883,-4242,746,158,-116,548,1,7,11
9.11E+02,-6897,-4273,745,291,-124,243,1,7,11
9.16E+02,-6905,-4283,743,-50,120,213,1,7,11
9.22E+02,-7175,-4303,749,-116,115,199,1,7,11
9.27E+02,-7225,-4344,1050,110,121,208,1,7,11
9.29E+02,-7233,-4352,1055,-98,104,235,1,7,11
9.30E+02,-7237,-4339,1067,-34,113,254,1,7,11
9.29E+02,-7249,-4300,1064,312,-121,530,1,7,11
9.26E+02,-7272,-4244,1054,130,-87,546,1,7,11
9.24E+02,-7049,-4455,1033,194,-50,560,1,7,11
9.24E+02,-7065,-4410,756,248,-31,574,1,7,11
9.26E+02,-7078,-4378,727,535,-23,574,1,7,11
9.32E+02,-7107,-4357,719,546,-19,551,1,7,11
9.40E+02,-7167,-4076,741,562,-36,519,1,7,11
9.48E+02,-7467,-4061,1026,598,-101,231,1,7,11
9.56E+02,-7478,-4030,1055,389,87,237,1,7,11
9.63E+02,-7472,-4005,1083,430,25,249,1,7,11
9.73E+02,-7469,-3977,1134,471,-278,522,1,7,11
9.86E+02,-7461,-4205,927,775,-314,538,1,7,11
1.00E+03,-7451,-4167,966,813,-347,553,1,7,11
1.03E+03,-7433,-4128,997,834,-373,565,1,7,11
1.05E+03,-7431,-4098,1299,834,-381,569,1,7,11
1.06E+03,-7167,-3811,1317,833,-130,580,1,7,11
1.06E+03,-7156,-3789,1322,812,-379,584,1,7,11
1.06E+03,-7158,-3784,1325,782,-361,587,1,7,11
1.05E+03,-7153,-3781,1335,491,-338,582,1,7,11
1.04E+03,-7157,-3774,1344,461,-308,564,1,7,11
1.03E+03,-7432,-3763,1366,451,-275,546,1,7,11
1.03E+03,-7453,-3746,1371,459,12,533,1,7,11
1.03E+03,-7477,-3726,1396,470,45,532,1,7,11
1.04E+03,-7515,-3715,1173,489,69,541,1,7,11
1.04E+03,-7551,-3952,1191,794,77,560,1,7,11
1.04E+03,-7327,-3932,1198,843,76,576,1,7,11
1.04E+03,-7348,-3905,1200,644,65,598,1,7,11
1.04E+03,-7355,-3870,1196,692,52,618,1,7,11
1.03E+03,-7365,-3573,1187,722,48,634,1,7,11
1.02E+03,-7380,-3542,1189,733,41,388,1,7,11
1.02E+03,-7382,-3532,1199,729,22,392,1,7,11
1.01E+03,-7385,-3537,1218,719,-257,632,1,7,11
1.00E+03,-7382,-3536,1246,710,-277,591,1,7,11
1.00E+03,-7381,-3537,1539,709,-295,538,1,7,11
1.01E+03,-7380,-3537,1586,714,-317,222,1,7,11
1.01E+03,-7381,-3542,1643,732,-336,166,1,7,11
1.02E+03,-7381,-3537,1427,1025,-357,128,1,7,11
1.04E+03,-7365,-3528,1467,1062,-372,351,1,7,11
1.05E+03,-7355,-3508,1500,1092,-377,327,1,7,11
1.06E+03,-7331,-3476,1511,1104,-380,305,1,7,11
1.08E+03,-7315,-3457,1524,1073,-363,276,1,7,11
1.09E+03,-7301,-3693,1532,1033,-344,-5,1,7,11
1.09E+03,-7302,-3688,1816,718,-326,-34,1,7,11
1.09E+03,-7305,-3682,1824,670,-312,-55,1,7,11
1.08E+03,-7326,-3688,1845,886,-298,-65,1,7,11
1.06E+03,-7346,-3678,1859,869,-287,-59,1,7,11
1.03E+03,-7362,-3658,1873,866,-280,-32,1,7,11
9.93E+02,-7381,-3301,1894,813,78,337,1,7,11
9.67E+02,-7397,-3280,1909,799,102,352,1,7,11
9.56E+02,-7403,-3255,1911,791,116,364,1,7,11
9.60E+02,-7413,-3231,1666,508,-125,366,1,7,11
9.73E+02,-7420,-3238,1671,471,-123,357,1,7,11
9.91E+02,-7424,-3253,1688,447,121,335,1,7,11
1.01E+03,-7683,-3262,1703,427,101,294,1,7,11
1.02E+03,-7421,-3272,1715,410,75,-16,1,7,11
1.03E+03,-7416,-3271,1739,407,49,-75,1,7,11
1.03E+03,-7417,-3261,1753,416,30,-127,1,7,11
1.03E+03,-7423,-3241,1759,427,23,98,1,7,11
1.01E+03,-7422,-3218,1776,427,16,82,1,7,11
9.88E+02,-7421,-3453,1778,418,14,79,1,7,11
9.70E+02,-7682,-3429,1784,402,18,87,1,7,11
9.60E+02,-7682,-3396,1786,632,26,110,1,7,11
9.59E+02,-7692,-3377,1777,588,40,-115,1,7,11
9.70E+02,-7696,-3372,1788,537,49,-80,1,7,11
9.90E+02,-7701,-3372,1789,232,56,-57,1,7,11
1.02E+03,-7707,-3372,2052,192,55,-41,1,7,11
1.06E+03,-7712,-3389,2074,146,50,-42,1,7,11
1.09E+03,-7720,-3416,2109,370,35,-59,1,7,11
1.12E+03,-7719,-3431,2134,361,13,-87,1,7,11
1.13E+03,-7724,-3443,2160,365,-270,-121,1,7,11
1.13E+03,-7719,-3447,1931,376,-298,102,1,7,11
1.11E+03,-7710,-3451,1949,135,-321,76,1,7,11
1.07E+03,-7690,-3436,1956,144,-344,60,1,7,11
1.03E+03,-7420,-3423,1976,383,-352,42,1,7,11
9.86E+02,-7402,-3412,1996,354,-346,32,1,7,11
9.47E+02,-7401,-3415,2007,302,-337,39,1,7,11
9.17E+02,-7398,-3416,2029,278,-330,60,1,7,11
9.05E+02,-7387,-3400,2045,273,-320,98,1,7,11
9.10E+02,-7377,-3384,2311,260,-293,-115,1,7,11
9.29E+02,-7382,-3358,2326,-7,-258,-54,1,7,11
9.57E+02,-7380,-3338,2351,-35,30,265,1,7,11
9.88E+02,-7380,-3064,2375,-61,57,320,1,7,11
1.02E+03,-7365,-3043,2367,-112,79,354,1,7,11
1.04E+03,-7360,-3029,2380,61,103,349,1,7,11
1.05E+03,-7375,-3020,2400,-293,117,322,1,7,11
1.05E+03,-7369,-2990,2391,-381,114,278,1,7,11
1.04E+03,-7352,-2973,2338,-242,113,-36,1,7,11
1.01E+03,-7338,-2974,2040,-404,-125,-111,1,7,11
9.83E+02,-7377,-3011,2047,-825,-96,61,1,7,11
9.61E+02,-7686,-3029,2304,-664,-87,10,1,7,11
9.49E+02,-7735,-3040,2019,-708,-93,1,1,7,11
9.47E+02,-7757,-3043,1962,-729,-110,41,1,7,11
9.53E+02,-7752,-3060,2164,-758,-123,99,1,7,11
9.67E+02,-7740,-3342,2118,-1035,-124,-106,1,7,11
9.86E+02,-7724,-3363,1791,-1033,-123,-75,1,7,11
1.01E+03,-7696,-3352,1687,-1037,-126,-67,1,7,11
1.03E+03,-7694,-3357,1840,-1094,-119,-93,1,7,11
1.05E+03,-7713,-3386,1520,-928,-113,113,1,7,11
1.07E+03,-7760,-3451,1487,-999,122,50,1,7,11
1.07E+03,-7789,-3236,1455,-1011,56,-257,1,7,11
1.06E+03,-7807,-3277,1433,-1003,-287,-302,1,7,11
1.03E+03,-7573,-3314,1428,-960,-140,-339,1,7,11
9.87E+02,-7600,-3597,1444,-899,-247,-378,1,7,11
9.37E+02,-7642,-3613,1497,-1070,-617,-149,1,7,11
8.99E+02,-7938,-3628,1832,-702,-485,-143,1,7,11
8.85E+02,-7939,-3605,1904,-804,-873,-353,1,7,11
8.97E+02,-7680,-3308,1713,-387,-725,-276,1,7,11
9.22E+02,-7937,-3280,2052,-232,-1064,96,1,7,11
9.51E+02,-7661,-3244,2141,-331,-1133,-15,1,7,11
9.72E+02,-7592,-3225,1956,36,-937,368,1,7,11
9.85E+02,-7791,-3450,2021,117,-948,163,1,7,11
9.91E+02,-7766,-3412,2359,-76,-921,154,1,7,11
9.93E+02,-7753,-3371,2179,-18,-1131,356,1,7,11
9.92E+02,-7726,-3338,2259,285,-1085,287,1,7,11
9.88E+02,-7685,-3057,2577,323,-1040,-41,1,7,11
9.79E+02,-7380,-3042,2627,346,-735,-113,1,7,11
9.64E+02,-7317,-3035,2640,349,-682,61,1,7,11
9.43E+02,-7512,-3032,2625,335,-860,-294,1,7,11
9.22E+02,-7463,-3019,2604,279,-505,-154,1,7,11
9.09E+02,-7441,-3047,2604,-80,-399,-535,1,7,11
9.14E+02,-7434,-3339,2617,79,-567,-395,1,7,11
9.37E+02,-7159,-3368,2607,6,-253,-485,1,7,11
9.73E+02,-7153,-3391,2589,-318,-198,-804,1,7,11
1.01E+03,-7155,-3406,2567,-378,-150,-834,1,7,11
1.04E+03,-7441,-3428,2289,-182,-368,-848,1,7,11
1.06E+03,-7476,-3204,2291,-230,-347,-847,1,7,11
1.07E+03,-7530,-3236,2301,-238,-351,-830,1,7,11
1.07E+03,-7547,-3237,2562,-204,-371,-806,1,7,11
1.07E+03,-7303,-3242,2574,-173,-134,-808,1,7,11
1.06E+03,-7332,-3240,2597,-153,-163,-856,1,7,11
1.05E+03,-7360,-3254,2631,-133,-215,-677,1,7,11
1.03E+03,-7369,-3253,2639,-363,-537,-1052,1,7,11
1.02E+03,-7380,-3250,2650,-355,-591,-920,1,7,11
1.01E+03,-7384,-3255,2669,-369,-639,-1297,1,7,11
1.01E+03,-7363,-3271,2671,-155,-442,-1162,1,7,11
1.01E+03,-7346,-3318,2684,-238,-496,-1570,1,7,11
1.01E+03,-7300,-3623,2444,-582,-828,-1493,1,7,11
1.02E+03,-7498,-3679,2473,-415,-646,-1697,1,7,11
1.04E+03,-7437,-3479,2477,-499,-718,-2172,1,7,11
1.06E+03,-7146,-3568,2494,-847,-1033,-2402,1,7,11
1.07E+03,-7076,-3894,2488,-664,-1103,-2621,1,7,11
1.08E+03,-7268,-3959,2491,-752,-1150,-2836,1,7,11
1.08E+03,-7201,-3800,2493,-1104,-925,-2777,1,7,11
1.07E+03,-6848,-4193,2499,-943,-965,-2959,1,7,11
1.05E+03,-6991,-4073,2466,-1017,-992,-3420,1,7,11
1.02E+03,-6921,-4471,2475,-1346,-975,-3665,1,7,11
9.83E+02,-6578,-4612,2485,-1398,-964,-3891,1,7,11
9.49E+02,-6740,-4732,2492,-1184,-959,-4127,1,7,11
9.26E+02,-6383,-4601,2491,-1228,-956,-4092,1,7,11
9.22E+02,-6281,-4746,2499,-1263,-948,-4297,1,7,11
9.36E+02,-6416,-5140,2522,-1538,-957,-4735,1,7,11
9.59E+02,-6271,-5025,2526,-1550,-990,-4898,1,7,11
9.79E+02,-5853,-5432,2550,-1576,-1302,-4796,1,7,11
9.84E+02,-5919,-5324,2819,-1602,-1375,-5208,1,7,11
9.73E+02,-5702,-5755,2554,-1655,-1211,-5387,1,7,11
9.51E+02,-5263,-5631,2503,-1431,-1249,-5354,1,7,11
9.21E+02,-5402,-5783,2472,-1466,-1220,-5564,1,7,11
8.89E+02,-5072,-6195,2454,-1468,-1391,-5980,1,7,11
8.57E+02,-5023,-6089,2485,-1432,-1285,-5796,1,7,11
8.28E+02,-5156,-6444,2481,-1583,-989,-5987,1,7,11
8.04E+02,-4989,-6300,2444,-1247,-963,-5588,1,7,11
7.86E+02,-4546,-6705,2676,-1189,-929,-5661,1,7,11
7.73E+02,-4625,-6572,2664,-1373,-1131,-5494,1,7,11
7.65E+02,-4426,-6941,2661,-1312,-1081,-5104,1,7,11
7.62E+02,-4001,-7034,2659,-987,-740,-5034,1,7,11
7.62E+02,-3836,-6877,2646,-934,-670,-5233,1,7,11
7.65E+02,-3921,-7201,2623,-1143,-859,-5201,1,7,11
7.70E+02,-3556,-7227,2601,-1109,-510,-5189,1,7,11
7.76E+02,-3701,-7276,2595,-1139,-446,-5178,1,7,11
7.82E+02,-3304,-7074,2591,-946,-435,-5189,1,7,11
7.87E+02,-3391,-7154,2565,-1015,-437,-5211,1,7,11
7.89E+02,-2953,-7512,2281,-1333,-424,-5233,1,7,11
7.89E+02,-3077,-7330,2257,-1331,-610,-5005,1,7,11
7.85E+02,-2740,-7404,2250,-1295,-514,-4993,1,7,11
7.79E+02,-2887,-7698,2207,-955,-196,-5159,1,7,11
7.72E+02,-2479,-7746,2420,-915,-177,-4791,1,7,11
7.70E+02,-2600,-7804,2403,-1151,-162,-4918,1,7,11
7.81E+02,-2199,-7653,2407,-1149,-175,-4503,1,7,11
8.11E+02,-2331,-7674,2368,-1059,-189,-4315,1,7,11
8.55E+02,-2163,-7971,2361,-757,-210,-4081,1,7,11
9.04E+02,-1748,-8006,2346,-712,-222,-3837,1,7,11
9.46E+02,-1829,-8044,2310,-656,-236,-3852,1,7,11
9.74E+02,-1426,-7810,2034,-868,-233,-3644,1,7,11
9.88E+02,-1579,-7854,2025,-843,-200,-3442,1,7,11
9.91E+02,-1226,-7872,2010,-792,-174,-2973,1,7,11
9.85E+02,-1407,-7875,1985,-498,-159,-2776,1,7,11
9.74E+02,-1303,-7885,1977,-465,-173,-2841,1,7,11
9.61E+02,-948,-7913,1969,-453,-191,-2435,1,7,11
9.48E+02,-1099,-7933,1949,-427,-224,-2294,1,7,11
9.38E+02,-756,-7937,1920,-391,-245,-2431,1,7,11
9.35E+02,-879,-8217,2154,-618,-524,-1985,1,7,11
9.38E+02,-839,-8226,2141,-575,-538,-1925,1,7,11
9.41E+02,-491,-8269,2147,-541,-562,-2072,1,7,11
9.37E+02,-416,-8261,2117,-202,-578,-1728,1,7,11
9.19E+02,-590,-8223,2088,-140,-583,-1894,1,7,11
8.90E+02,-246,-8207,2070,-131,-587,-1832,1,7,11
8.57E+02,-190,-8198,2061,-154,-570,-1801,1,7,11
8.33E+02,-380,-7926,1790,-172,-568,-1504,1,7,11
8.21E+02,-327,-7925,1783,-221,-567,-1478,1,7,11
8.15E+02,-268,-8200,1785,-521,-570,-1433,1,7,11
8.07E+02,297,-8285,1704,-161,-228,-1307,1,7,11
7.90E+02,321,-8277,1691,-359,-131,-964,1,7,11
7.69E+02,312,-8270,1710,-345,-331,-1132,1,7,11
7.50E+02,307,-8256,1730,-327,-305,-1028,1,7,11
7.37E+02,317,-8254,1749,-318,-311,-687,1,7,11
7.31E+02,338,-8234,1755,-302,-337,-872,1,7,11
7.29E+02,355,-8231,1750,-299,-364,-830,1,7,11
7.30E+02,364,-8232,1742,-301,-380,-802,1,7,11
7.33E+02,367,-8232,1740,-308,-384,-789,1,7,11
7.36E+02,129,-8236,1721,-313,-135,-772,1,7,11
7.38E+02,159,-8220,1701,-302,-384,-779,1,7,11
7.42E+02,181,-8214,1687,-295,-359,-791,1,7,11
7.47E+02,212,-8231,1673,-285,-333,-815,1,7,11
7.55E+02,220,-8244,1679,-257,-308,-853,1,7,11
7.64E+02,228,-8232,1671,32,-292,-877,1,7,11
7.74E+02,231,-8201,1670,54,-278,-888,1,7,11
7.82E+02,250,-7916,1674,48,-290,-876,1,7,11
7.91E+02,543,-7907,1695,24,-316,-856,1,7,11
7.98E+02,568,-7904,1700,0,-335,-836,1,7,11
8.06E+02,602,-7908,1702,-285,-359,-804,1,7,11
8.14E+02,403,-7911,1678,-305,-377,-776,1,7,11
8.22E+02,446,-7920,1916,-328,-371,-501,1,7,11
8.31E+02,474,-8198,1900,-354,-342,-478,1,7,11
8.39E+02,472,-8219,1882,-365,-295,-446,1,7,11
8.47E+02,467,-8232,1866,-358,4,-396,1,7,11
8.56E+02,485,-8245,1869,-345,38,-606,1,7,11
8.64E+02,481,-8262,1892,-319,74,-576,1,7,11
8.72E+02,462,-8263,1893,-277,103,-551,1,7,11
8.80E+02,437,-8235,1903,26,126,-520,1,7,11
8.88E+02,418,-8217,1910,57,127,-234,1,7,11
8.97E+02,419,-7930,1903,78,110,-217,1,7,11
9.05E+02,414,-7904,1910,70,84,-221,1,7,11
9.13E+02,427,-7906,1673,56,48,-232,1,7,11
9.22E+02,439,-7896,1674,55,11,-250,1,7,11
9.30E+02,465,-7909,1915,49,-270,-515,1,7,11
9.38E+02,483,-8206,1919,53,-287,-513,1,7,11
9.45E+02,789,-8239,1664,91,-317,-515,1,7,11
9.48E+02,837,-8216,1905,-117,-333,-544,1,7,11
9.45E+02,880,-8201,1888,-96,-327,-570,1,7,11
9.36E+02,888,-7925,1915,-101,-287,-589,1,7,11
9.22E+02,889,-7911,1912,-102,7,-578,1,7,11
9.09E+02,653,-7918,1669,-118,30,-554,1,7,11
9.00E+02,675,-7921,1687,-122,57,-533,1,7,11
8.96E+02,700,-7905,1698,-109,68,-517,1,7,11
8.94E+02,703,-7895,1706,-113,74,-253,1,7,11
8.91E+02,704,-7891,1717,125,67,-233,1,7,11
8.84E+02,699,-7871,1723,112,57,-200,1,7,11
8.73E+02,705,-7882,1731,78,39,-156,1,7,11
8.60E+02,704,-7880,1735,40,26,-372,1,7,11
8.49E+02,721,-7882,1732,5,8,-321,1,7,11
8.38E+02,734,-7883,1731,-278,6,-295,1,7,11
8.24E+02,739,-7898,1725,-303,12,-281,1,7,11
8.05E+02,746,-7918,1709,-309,23,-275,1,7,11
7.80E+02,744,-8214,1704,-296,62,-281,1,7,11
7.54E+02,751,-8223,1695,-260,91,-287,1,7,11
7.34E+02,753,-8204,1687,28,120,-310,1,7,11
7.24E+02,755,-7914,1682,48,-102,-326,1,7,11
7.18E+02,738,-7881,1689,42,-78,-344,1,7,11
7.13E+02,723,-7876,1700,-266,-98,-364,1,7,11
7.05E+02,718,-7882,1701,-280,-114,-360,1,7,11
6.96E+02,713,-7886,1706,-282,-128,-338,1,7,11
6.85E+02,730,-7885,1705,-275,108,-309,1,7,11
6.74E+02,751,-7888,1700,-269,91,-298,1,7,11
6.63E+02,1024,-7899,1703,-261,79,-296,1,7,11
6.54E+02,1036,-7901,1699,5,72,-301,1,7,11
6.46E+02,1052,-7899,1682,19,77,-295,1,7,11
6.41E+02,1063,-7888,1671,19,102,-287,1,7,11
6.39E+02,1053,-7869,1671,11,-121,-270,1,7,11
6.40E+02,1043,-7884,1672,-266,-100,12,1,7,11
6.46E+02,1032,-7907,1691,-278,-99,33,1,7,11
6.56E+02,754,-7899,1697,-277,-105,47,1,7,11
6.72E+02,754,-7889,1703,-275,-117,64,1,7,11
6.93E+02,752,-7872,1697,-286,-124,84,1,7,11
7.20E+02,1026,-7894,1684,-313,122,91,1,7,11
7.53E+02,1030,-7893,1672,-322,-123,78,1,7,11
7.91E+02,1026,-7908,1917,-327,-108,69,1,7,11
8.33E+02,1026,-7903,1893,-305,-93,67,1,7,11
8.73E+02,1026,-7933,1880,-306,-76,61,1,7,11
9.02E+02,749,-8215,1885,-286,-62,53,1,7,11
9.13E+02,716,-8229,1906,-257,-63,56,1,7,11
8.99E+02,705,-8223,1664,39,-85,68,1,7,11
8.71E+02,707,-8213,1675,76,-113,86,1,7,11
8.38E+02,734,-7918,1918,116,118,106,1,7,11
8.11E+02,764,-7895,1898,119,114,116,1,7,11
7.96E+02,762,-7881,1897,92,-116,-128,1,7,11
7.99E+02,738,-7877,1913,61,-91,-113,1,7,11
8.24E+02,736,-7871,1916,40,-86,-93,1,7,11
8.68E+02,747,-7866,1907,14,-85,-84,1,7,11
9.22E+02,750,-7879,1903,-269,-84,-92,1,7,11
9.75E+02,747,-7912,1900,-288,-78,-101,1,7,11
1.02E+03,731,-7928,1664,-285,-60,-95,1,7,11
1.05E+03,729,-8199,1918,-277,-52,-82,1,7,11
1.06E+03,737,-7932,1907,2,-47,-83,1,7,11
1.07E+03,746,-7908,1892,20,-40,-94,1,7,11
1.07E+03,741,-7891,1890,13,-24,-102,1,7,11
1.06E+03,736,-7911,1912,-262,-8,-92,1,7,11
1.04E+03,732,-7931,1673,3,-6,-86,1,7,11
1.03E+03,732,-7933,1671,22,-9,-82,1,7,11
1.02E+03,745,-7927,1910,33,-5,-71,1,7,11
1.01E+03,741,-7924,1665,34,275,-68,1,7,11
1.01E+03,739,-7934,1917,29,302,-64,1,7,11
1.01E+03,710,-7917,1676,32,339,-60,1,7,11
1.00E+03,691,-7913,1697,35,358,-45,1,7,11
1.00E+03,685,-7904,1686,46,369,-19,1,7,11
1.00E+03,680,-7893,1689,52,371,264,1,7,11
1.01E+03,672,-7887,1689,54,365,281,1,7,11
1.01E+03,683,-7920,1691,31,360,316,1,7,11
1.01E+03,695,-7930,1678,47,354,348,1,7,11
1.01E+03,713,-7935,1670,57,369,164,1,7,11
1.01E+03,702,-8210,1697,54,140,244,1,7,11
1.01E+03,691,-8212,1718,82,159,592,1,7,11
1.02E+03,697,-8205,1717,118,160,464,1,7,11
1.02E+03,713,-8198,1710,-119,167,835,1,7,11
1.02E+03,693,-8212,1708,-125,200,695,1,7,11
1.01E+03,651,-8227,1711,-106,223,1114,1,7,11
1.01E+03,864,-8248,1704,-83,217,1311,1,7,11
1.00E+03,771,-8226,1714,-41,220,1272,1,7,11
9.94E+02,466,-8230,1737,-36,148,1527,1,7,11
9.92E+02,404,-8203,1739,-7,364,1714,1,7,11
9.95E+02,608,-7886,1724,-22,340,2059,1,7,11
1.00E+03,588,-7847,1709,-99,309,2106,1,7,11
1.01E+03,545,-7852,1723,40,266,1929,1,7,11
1.03E+03,182,-7858,1766,-301,288,2315,1,7,11
1.04E+03,327,-8217,2073,-373,318,2250,1,7,11
1.06E+03,-68,-8272,2100,-327,146,2483,1,7,11
1.07E+03,95,-8277,2061,29,253,2773,1,7,11
1.08E+03,-333,-8248,2064,112,397,3029,1,7,11
1.08E+03,-198,-8234,2052,-72,480,3282,1,7,11
1.07E+03,-460,-8249,1732,362,862,3772,1,7,11
1.06E+03,-652,-7922,1706,202,894,4223,1,7,11
1.05E+03,-1048,-8202,1703,169,863,4448,1,7,11
1.04E+03,-974,-7873,1665,194,864,4630,1,7,11
1.03E+03,-1407,-8044,1898,171,871,4542,1,7,11
1.03E+03,-1583,-8023,1906,377,883,4969,1,7,11
1.02E+03,-1527,-8045,1917,330,892,4854,1,7,11
1.02E+03,-1765,-8063,1695,309,894,5219,1,7,11
1.02E+03,-2002,-7835,1745,305,876,5066,1,7,11
1.02E+03,-2194,-7817,2065,134,816,5444,1,7,11
1.02E+03,-2283,-7848,2126,216,453,5491,1,7,11
1.02E+03,-2663,-7855,1944,391,635,5107,1,7,11
1.02E+03,-2819,-7973,2160,846,618,5135,1,7,11
1.02E+03,-2785,-7682,2102,685,493,4915,1,7,11
1.01E+03,-3016,-7361,2113,883,655,4539,1,7,11
1.01E+03,-3404,-7517,2106,780,721,4499,1,7,11
1.00E+03,-3327,-7473,2144,423,1044,4491,1,7,11
9.93E+02,-3559,-7443,1970,399,1085,4550,1,7,11
9.74E+02,-3782,-7160,2018,476,1077,4949,1,7,11
9.46E+02,-4216,-7060,2026,889,1050,5139,1,7,11
9.10E+02,-4084,-6894,2017,1052,756,5081,1,7,11
8.74E+02,-4408,-6964,1991,1132,695,5490,1,7,11
8.46E+02,-4445,-6573,1991,1094,875,5288,1,7,11
8.31E+02,-4293,-6663,1962,1034,843,5458,1,7,11
8.28E+02,-4503,-6488,1954,677,870,5059,1,7,11
8.34E+02,-5128,-6022,2009,824,883,5184,1,7,11
8.44E+02,-5081,-6196,2317,415,787,4760,1,7,11
8.54E+02,-5499,-6149,2376,598,410,4909,1,7,11
8.59E+02,-5366,-5853,2421,575,524,4532,1,7,11
8.56E+02,-5738,-6006,2184,635,174,4650,1,7,11
8.43E+02,-5602,-5590,2423,458,130,4237,1,7,11
8.27E+02,-5960,-5724,2407,469,368,4075,1,7,11
8.15E+02,-5802,-5353,2391,461,359,4170,1,7,11
8.12E+02,-5888,-5275,2393,405,360,3740,1,7,11
8.14E+02,-6197,-5256,2407,584,347,3544,1,7,11
8.17E+02,-6231,-5468,2390,546,337,3298,1,7,11
8.14E+02,-6047,-5400,2364,250,129,3044,1,7,11
8.08E+02,-6128,-5101,2351,199,183,2811,1,7,11
8.07E+02,-6459,-5081,2334,150,216,2848,1,7,11
8.15E+02,-6520,-5069,2346,359,241,2628,1,7,11
8.30E+02,-6320,-5050,2353,340,521,2406,1,7,11
8.45E+02,-6665,-5001,2361,348,552,1937,1,7,11
8.50E+02,-6747,-5199,2381,361,554,1756,1,7,11
8.40E+02,-6554,-5142,2408,382,533,1845,1,7,11
8.27E+02,-6593,-4804,2402,146,244,1420,1,7,11
8.22E+02,-6621,-4745,2405,374,199,1237,1,7,11
8.38E+02,-6609,-4955,2401,321,133,1292,1,7,11
8.70E+02,-6596,-4917,2401,-8,328,1074,1,7,11
9.05E+02,-6563,-4883,2406,-100,270,859,1,7,11
9.34E+02,-6531,-4870,2398,41,-29,400,1,7,11
9.48E+02,-6757,-4891,2394,-329,-57,233,1,7,11
9.51E+02,-6746,-4910,2367,-157,-71,347,1,7,11
9.47E+02,-6737,-4933,2368,-215,-79,-16,1,7,11
9.41E+02,-6717,-4968,2368,-245,-88,-91,1,7,11
9.38E+02,-6697,-4984,2357,-224,-94,115,1,7,11
9.36E+02,-6696,-4985,2345,-174,-85,95,1,7,11
9.36E+02,-6722,-4968,2330,-361,-56,109,1,7,11
9.36E+02,-6754,-4954,2324,-285,-31,-94,1,7,11
9.38E+02,-6534,-4932,2330,64,-7,-18,1,7,11
9.39E+02,-6562,-4895,2335,-85,-2,329,1,7,11
9.41E+02,-6594,-4603,2348,271,257,154,1,7,11
9.43E+02,-6644,-4542,2358,131,-9,229,1,7,11
9.45E+02,-6943,-4726,2370,225,-50,564,1,7,11
9.47E+02,-6972,-4637,2353,546,-104,391,1,7,11
9.49E+02,-7004,-4331,2362,548,94,458,1,7,11
9.51E+02,-7029,-4278,2377,542,34,500,1,7,11
9.52E+02,-6792,-4237,2392,513,-270,509,1,7,11
9.52E+02,-6806,-4235,2179,207,-293,486,1,7,11
9.49E+02,-6820,-4464,2217,183,-302,435,1,7,11
9.44E+02,-6827,-4436,2231,168,-318,635,1,7,11
9.34E+02,-6839,-4431,2259,135,-308,580,1,7,11
9.20E+02,-6831,-4402,2256,367,-301,537,1,7,11
9.00E+02,-6792,-4411,2247,296,-291,237,1,7,11
8.75E+02,-7027,-4400,2230,-19,10,178,1,7,11
8.52E+02,-7005,-4415,2222,-104,50,371,1,7,11
8.36E+02,-6995,-4417,2201,82,94,301,1,7,11
8.32E+02,-6988,-4444,2201,4,-121,-14,1,7,11
8.34E+02,-6981,-4238,2207,-310,-83,-64,1,7,11
8.37E+02,-6986,-4275,2212,-335,-53,-107,1,7,11
8.33E+02,-6987,-4351,2216,-342,-22,99,1,7,11
8.22E+02,-7012,-4656,2223,-307,-18,58,1,7,11
8.10E+02,-6983,-4653,2182,-240,-51,20,1,7,11
8.03E+02,-6963,-4666,2425,33,-54,-294,1,7,11
8.01E+02,-6947,-4664,2423,65,-45,-353,1,7,11
8.02E+02,-6960,-4653,2418,103,-18,-162,1,7,11
8.04E+02,-6962,-4653,2422,118,-14,-203,1,7,11
8.06E+02,-6951,-4679,2179,118,-18,-229,1,7,11
8.07E+02,-6943,-4676,2178,-125,-26,-514,1,7,11
8.10E+02,-6945,-4675,2188,-123,-39,-529,1,7,11
8.17E+02,-6932,-4684,2176,-124,-54,-530,1,7,11
8.24E+02,-6932,-4695,2187,120,-55,-524,1,7,11
8.30E+02,-6941,-4724,2225,117,-65,-513,1,7,11
8.32E+02,-6933,-4720,2207,-120,-84,-250,1,7,11
8.29E+02,-6655,-4699,2176,-80,-92,-248,1,7,11
8.26E+02,-6914,-4681,2417,-57,-69,-245,1,7,11
8.25E+02,-6945,-4654,2414,-58,-51,-213,1,7,11
8.26E+02,-6974,-4630,2406,-41,-70,-134,1,7,11
8.28E+02,-6941,-4636,2399,-52,-122,-282,1,7,11
8.28E+02,-6924,-4640,2416,-66,105,46,1,7,11
8.23E+02,-6920,-4639,2415,-78,85,100,1,7,11
8.15E+02,-6931,-4648,2429,-88,93,109,1,7,11
8.05E+02,-6922,-4630,2418,-82,111,107,1,7,11
7.94E+02,-6925,-4624,2419,-102,-113,89,1,7,11
7.86E+02,-6943,-4633,2195,-119,-78,81,1,7,11
7.79E+02,-6942,-4633,2206,-124,-50,83,1,7,11
7.76E+02,-6963,-4635,2221,-115,256,83,1,7,11
7.76E+02,-6984,-4609,2205,-70,294,98,1,7,11
7.74E+02,-6995,-4325,2193,-53,322,108,1,7,11
7.68E+02,-7005,-4289,2431,-50,334,120,1,7,11
7.58E+02,-7018,-4285,2429,-96,336,-127,1,7,11
7.48E+02,-7036,-4295,2187,107,315,-127,1,7,11
7.42E+02,-6797,-4302,2190,59,278,111,1,7,11
7.38E+02,-6799,-4295,2184,23,-29,91,1,7,11
7.35E+02,-6800,-4293,2426,-258,-74,87,1,7,11
7.29E+02,-6793,-4314,2422,-270,-107,122,1,7,11
7.21E+02,-7022,-4352,2415,-263,102,-83,1,7,11
7.15E+02,-6967,-4618,2398,30,51,-44,1,7,11
7.12E+02,-6935,-4629,2403,56,20,-44,1,7,11
7.13E+02,-6915,-4622,2406,86,-261,-54,1,7,11
7.15E+02,-6926,-4619,2419,99,-280,-65,1,7,11
7.18E+02,-6947,-4615,2190,106,-305,-70,1,7,11
7.22E+02,-6975,-4342,2211,110,-314,-80,1,7,11
7.26E+02,-6986,-4300,2206,-125,-310,-88,1,7,11
7.31E+02,-7002,-4280,2212,-112,-294,-95,1,7,11
7.33E+02,-7033,-4245,2226,-115,1,-103,1,7,11
7.27E+02,-7037,-4244,2234,-104,2,-84,1,7,11
7.12E+02,-6800,-4474,2236,-97,-280,-40,1,7,11
6.98E+02,-6816,-4448,2237,115,-287,-3,1,7,11
6.95E+02,-6837,-4437,2233,36,-293,292,1,7,11
7.05E+02,-6830,-4452,2227,-300,-302,333,1,7,11
7.20E+02,-6810,-4225,2215,-362,-301,338,1,7,11
7.29E+02,-6788,-4242,2204,-160,-291,305,1,7,11
7.28E+02,-7030,-4272,2198,-182,-276,258,1,7,11
7.23E+02,-7026,-4302,2194,-177,0,-61,1,7,11
7.16E+02,-7018,-4308,2201,-151,16,-121,1,7,11
7.09E+02,-7002,-4347,2217,-135,36,85,1,7,11
7.00E+02,-6986,-4614,2216,-343,49,51,1,7,11
6.88E+02,-6959,-4676,2235,-302,73,17,1,7,11
6.77E+02,-6943,-4640,2227,49,98,-290,1,7,11
6.74E+02,-6951,-4657,2262,82,112,-304,1,7,11
6.82E+02,-6955,-4649,2285,-68,-126,-271,1,7,11
6.92E+02,-6950,-4624,2303,-22,-123,25,1,7,11
6.94E+02,-6968,-4346,2584,288,-116,68,1,7,11
6.84E+02,-6960,-4314,2576,351,-119,121,1,7,11
6.69E+02,-6965,-4272,2562,382,-106,-94,1,7,11
6.58E+02,-6961,-4242,2278,377,-108,-56,1,7,11
6.52E+02,-6955,-4474,2255,349,-101,-26,1,7,11
6.44E+02,-6947,-4453,2235,285,-80,-21,1,7,11
6.32E+02,-6960,-4474,2234,-68,-48,-32,1,7,11
6.21E+02,-6974,-4257,2254,116,-30,-39,1,7,11
6.16E+02,-6992,-4295,2272,75,-29,-50,1,7,11
6.20E+02,-7020,-4323,2288,66,-41,-62,1,7,11
6.27E+02,-6793,-4325,2303,99,-51,-59,1,7,11
6.33E+02,-6816,-4301,2295,-107,-66,-28,1,7,11
6.37E+02,-6838,-4260,2283,-61,-72,285,1,7,11
6.39E+02,-6855,-4479,2263,-34,-79,359,1,7,11
6.43E+02,-6884,-4437,2247,-12,-74,183,1,7,11
6.60E+02,-6906,-4397,2229,267,-73,512,1,7,11
6.97E+02,-7174,-4369,2214,281,-80,569,1,7,11
7.49E+02,-7186,-4373,2206,289,-95,601,1,7,11
8.08E+02,-7204,-4392,2217,319,-123,610,1,7,11
8.63E+02,-7242,-4414,2235,370,69,584,1,7,11
9.11E+02,-7204,-4226,2278,519,-153,182,1,7,11
9.54E+02,-7179,-4473,2277,429,-177,339,1,7,11
9.92E+02,-7214,-4385,2287,807,-216,-30,1,7,11
1.03E+03,-6910,-4394,2577,802,-584,118,1,7,11
1.06E+03,-6860,-4374,2582,701,-571,48,1,7,11
1.08E+03,-6850,-4366,2620,1038,-518,-280,1,7,11
1.10E+03,-6847,-4359,2672,1084,-238,-344,1,7,11
1.12E+03,-6826,-4092,2456,1116,-233,-151,1,7,11
1.14E+03,-6833,-4051,2488,1148,-213,-202,1,7,11
1.15E+03,-6857,-4032,2546,912,-191,-206,1,7,11
1.16E+03,-6868,-4006,2848,954,-187,-159,1,7,11
1.16E+03,-6838,-4003,2905,982,-196,-338,1,7,11
1.16E+03,-6808,-4211,2919,1281,-177,-287,1,7,11
1.16E+03,-6807,-4146,2939,1299,-368,0,1,7,11
1.16E+03,-6823,-3826,2715,1292,-293,37,1,7,11
1.16E+03,-6856,-3803,2762,966,14,90,1,7,11
1.15E+03,-6875,-3780,2794,1144,28,-95,1,7,11
1.14E+03,-6896,-3751,3076,1056,29,-45,1,7,11
1.13E+03,-6896,-3723,3099,699,20,-24,1,7,11
1.12E+03,-6890,-3961,3099,833,10,-34,1,7,11
1.10E+03,-6866,-3953,3109,435,-262,-77,1,7,11
1.09E+03,-6853,-3967,3125,532,-281,110,1,7,11
1.07E+03,-6836,-3728,3159,131,-315,43,1,7,11
1.05E+03,-6836,-3752,3199,263,-362,-278,1,7,11
1.04E+03,-6824,-3763,2949,-73,-164,-310,1,7,11
1.02E+03,-6813,-3773,2959,110,-219,-329,1,7,11
9.96E+02,-6801,-3777,2982,52,-519,-331,1,7,11
9.73E+02,-6826,-3767,3025,2,-566,-312,1,7,11
9.49E+02,-6821,-3758,3033,-295,-624,5,1,7,11
9.23E+02,-7040,-3762,3020,-350,-640,62,1,7,11
8.95E+02,-6994,-3735,2981,-140,-602,87,1,7,11
8.66E+02,-6962,-3745,2954,-190,-233,100,1,7,11
8.36E+02,-6924,-3724,3160,-227,-346,105,1,7,11
8.04E+02,-6978,-3768,3173,-589,66,85,1,7,11
7.75E+02,-7014,-3819,3177,-620,-99,88,1,7,11
7.50E+02,-6791,-4119,3157,-627,-45,53,1,7,11
7.35E+02,-6803,-4176,3150,-624,-29,12,1,7,11
7.25E+02,-6805,-4221,3155,-599,-22,-292,1,7,11
7.16E+02,-6798,-4031,3169,-580,-45,-340,1,7,11
7.06E+02,-6804,-4078,3174,-252,-82,-368,1,7,11
6.95E+02,-6801,-4095,3181,-168,-119,-130,1,7,11
6.85E+02,-6794,-4353,3193,-350,102,-378,1,7,11
6.77E+02,-6981,-3992,3197,101,46,-125,1,7,11
6.71E+02,-6990,-4218,3198,-128,71,-55,1,7,11
6.68E+02,-7011,-4139,2986,-120,-116,-5,1,7,11
6.66E+02,-7039,-4100,2972,-105,-98,-63,1,7,11
6.66E+02,-7040,-3799,3182,-120,-98,-107,1,7,11
6.68E+02,-7030,-3786,3154,64,-100,109,1,7,11
6.71E+02,-7037,-3789,3144,-270,-91,78,1,7,11
6.75E+02,-7033,-3815,3159,-344,-108,59,1,7,11
6.80E+02,-7030,-4117,3190,-141,-125,38,1,7,11
6.86E+02,-6794,-4165,2971,-146,116,30,1,7,11
6.92E+02,-6797,-4192,2984,-348,106,38,1,7,11
6.98E+02,-7025,-4183,2969,-291,100,44,1,7,11
7.04E+02,-7006,-4177,2957,-274,116,42,1,7,11
7.11E+02,-6998,-4176,2973,-277,-114,34,1,7,11
7.17E+02,-6990,-4211,2977,-304,-111,27,1,7,11
7.22E+02,-6979,-4202,3195,-314,-109,16,1,7,11
7.27E+02,-6993,-4191,3162,-352,-97,-257,1,7,11
7.31E+02,-7032,-4146,3133,-384,-75,5,1,7,11
7.37E+02,-6809,-4123,3121,-183,-55,64,1,7,11
7.45E+02,-6844,-4118,3117,-238,-49,-105,1,7,11
7.55E+02,-6859,-4136,3110,-537,-56,-10,1,7,11
7.69E+02,-6852,-4163,3103,-561,-69,305,1,7,11
7.87E+02,-6845,-4185,3106,-564,-79,315,1,7,11
8.09E+02,-6847,-4198,3110,-554,-94,295,1,7,11
8.33E+02,-6848,-4204,3113,-521,-107,-1,1,7,11
8.57E+02,-6854,-4199,3118,-218,-122,-41,1,7,11
8.78E+02,-6855,-4188,3117,-160,115,-71,1,7,11
8.92E+02,-6850,-4197,3124,-364,97,-95,1,7,11
8.92E+02,-6835,-4194,3130,-290,75,-116,1,7,11
8.72E+02,-6824,-4181,3128,34,68,117,1,7,11
8.37E+02,-6804,-4148,3124,93,65,115,1,7,11
8.03E+02,-6786,-4112,3114,-126,79,-128,1,7,11
7.83E+02,-7026,-3818,3084,-113,112,-97,1,7,11
7.83E+02,-6998,-3791,2800,117,-96,-61,1,7,11
7.96E+02,-6958,-3766,2780,61,-31,-33,1,7,11
8.13E+02,-6945,-3761,2786,2,299,-9,1,7,11
8.28E+02,-6929,-3781,2807,-321,133,-8,1,7,11
8.39E+02,-6949,-3827,3113,-361,232,-2,1,7,11
8.45E+02,-6988,-3832,3142,-337,576,272,1,7,11
8.44E+02,-7026,-3825,3147,-306,396,300,1,7,11
8.41E+02,-6810,-3822,3138,-289,450,335,1,7,11
8.39E+02,-6849,-3836,3103,-292,486,358,1,7,11
8.44E+02,-6869,-3840,2767,-309,500,355,1,7,11
8.57E+02,-6889,-3837,2705,-347,510,327,1,7,11
8.76E+02,-7190,-3806,2890,-142,770,297,1,7,11
8.96E+02,-7248,-3778,2836,-208,503,291,1,7,11
9.14E+02,-7054,-3756,2547,-532,471,307,1,7,11
9.30E+02,-7120,-3742,2525,-582,413,343,1,7,11
9.42E+02,-7439,-3752,2521,-594,543,151,1,7,11
9.49E+02,-7451,-3768,2531,-551,180,186,1,7,11
9.50E+02,-7435,-3788,2537,-223,326,200,1,7,11
9.48E+02,-7155,-3810,2541,-140,-34,182,1,7,11
9.41E+02,-7107,-3827,2546,-308,121,382,1,7,11
9.33E+02,-7056,-3828,2825,31,36,290,1,7,11
9.24E+02,-7270,-3823,2841,104,-273,-75,1,7,11
9.15E+02,-7235,-3784,2846,-83,-304,81,1,7,11
9.09E+02,-7213,-3728,2835,-39,-305,10,1,7,11
9.08E+02,-7185,-3923,2544,-33,-279,-277,1,7,11
9.10E+02,-6906,-3886,2529,-86,32,-284,1,7,11
9.12E+02,-6905,-3876,2546,101,101,-266,1,7,11
9.09E+02,-7176,-3894,2840,40,-90,30,1,7,11
8.98E+02,-7207,-3918,2889,18,-43,90,1,7,11
8.78E+02,-7225,-3934,2898,21,-26,-98,1,7,11
8.52E+02,-7227,-3937,2890,20,-32,-46,1,7,11
8.25E+02,-7229,-3922,2857,-260,-48,-30,1,7,11
7.98E+02,-7246,-3916,2558,-323,-64,-42,1,7,11
7.75E+02,-7278,-3917,2533,-163,-80,-67,1,7,11
7.61E+02,-7059,-3937,2509,-532,-106,-84,1,7,11
7.56E+02,-7090,-3952,2488,-613,115,-85,1,7,11
7.59E+02,-7104,-3968,2457,-402,86,-73,1,7,11
7.68E+02,-7110,-3728,2447,-425,77,-49,1,7,11
7.82E+02,-7116,-3753,2450,-403,78,-21,1,7,11
8.00E+02,-7119,-3765,2452,-584,89,262,1,7,11
8.23E+02,-7116,-3773,2464,-208,102,286,1,7,11
8.49E+02,-7109,-3773,2480,-324,113,298,1,7,11
8.76E+02,-7101,-3772,2498,78,118,291,1,7,11
9.03E+02,-7083,-3764,2527,-33,117,260,1,7,11
9.27E+02,-7052,-3735,2538,352,112,-54,1,7,11
9.46E+02,-7285,-3945,2541,197,111,125,1,7,11
9.62E+02,-7269,-3897,2544,252,119,46,1,7,11
9.73E+02,-7263,-3844,2550,520,125,-276,1,7,11
9.82E+02,-7261,-3534,2554,241,-117,-318,1,7,11
9.88E+02,-7271,-3501,2539,178,-97,-327,1,7,11
9.91E+02,-7275,-3494,2523,333,-80,-317,1,7,11
9.91E+02,-7293,-3499,2534,-30,-58,-296,1,7,11
9.86E+02,-7060,-3517,2558,-121,-43,-265,1,7,11
9.78E+02,-7078,-3566,2832,68,-38,25,1,7,11
9.66E+02,-7085,-3579,2825,28,-46,59,1,7,11
9.53E+02,-7091,-3849,2821,6,-56,86,1,7,11
9.40E+02,-7100,-3879,2812,-279,-67,100,1,7,11
9.27E+02,-7111,-3912,2546,-309,-86,94,1,7,11
9.16E+02,-7097,-3931,2531,-330,124,71,1,7,11
9.05E+02,-7078,-3951,2526,-375,76,15,1,7,11
8.95E+02,-7069,-3730,2536,-169,31,-299,1,7,11
8.86E+02,-7062,-3765,2559,-192,-271,-347,1,7,11
8.75E+02,-7044,-3798,2849,-179,-311,-373,1,7,11
8.63E+02,-7281,-3826,2875,-130,-343,-366,1,7,11
8.48E+02,-7253,-4098,2892,-314,-359,-341,1,7,11
8.35E+02,-7233,-3839,2918,26,-351,-309,1,7,11
8.27E+02,-7200,-3795,2924,121,-328,-276,1,7,11
8.25E+02,-7173,-3739,2916,-15,-265,27,1,7,11
8.30E+02,-7170,-3931,2895,271,57,57,1,7,11
8.38E+02,-7176,-3887,2899,265,124,94,1,7,11
8.48E+02,-7189,-3866,2899,-32,-69,-128,1,7,11
8.58E+02,-7205,-3854,2901,-76,-16,-106,1,7,11
8.69E+02,-7222,-3841,2896,127,280,-97,1,7,11
8.83E+02,-7236,-3574,2896,67,308,-103,1,7,11
8.97E+02,-7254,-3578,2898,2,327,-116,1,7,11
9.12E+02,-7282,-3574,2892,-305,342,-126,1,7,11
9.24E+02,-7044,-3572,2873,-360,346,-128,1,7,11
9.32E+02,-7041,-3575,2851,-172,332,127,1,7,11
9.35E+02,-7289,-3848,2827,-248,319,116,1,7,11
