timestamp,ax,ay,az,gx,gy,gz,Label1,Label2,Label3
1.23E+00,-1822,7881,-523,97,-105,64,1,7,11
1.48E+00,-1813,7866,-575,53,-123,46,1,7,11
1.73E+00,-1804,7847,-591,26,98,46,1,7,11
1.98E+00,-1796,7868,-577,-259,80,47,1,7,11
2.23E+00,-1812,7875,-564,-259,30,76,1,7,11
2.48E+00,-1832,7883,-526,-307,28,56,1,7,11
2.73E+00,-1850,7884,-208,-338,21,79,1,7,11
2.98E+00,-1840,7895,-183,-316,7,69,1,7,11
3.23E+00,-1836,7890,-142,14,-290,88,1,7,11
3.48E+00,-1837,7849,-198,43,-308,64,1,7,11
3.73E+00,-1843,7814,-183,-358,7,39,1,7,11
3.98E+00,-1842,7821,-361,-198,55,23,1,7,11
4.23E+00,-1827,7857,-275,-169,72,82,1,7,11
4.48E+00,-1825,7909,21,-303,62,-121,1,7,11
4.73E+00,-1811,8214,-271,67,54,-91,1,7,11
4.98E+00,-1816,8264,-268,21,115,-101,1,7,11
5.23E+00,-1824,8288,-283,29,-117,120,1,7,11
5.48E+00,-1832,8232,-319,96,124,99,1,7,11
5.73E+00,-1827,7925,-339,117,-109,59,1,7,11
5.98E+00,-1806,7903,-348,-83,-109,66,1,7,11
6.23E+00,-1533,7924,-136,-42,-118,86,1,7,11
6.48E+00,-1517,8227,-196,-72,-101,35,1,7,11
6.73E+00,-1530,8210,-249,-51,105,26,1,7,11
6.98E+00,-1813,7898,-516,-83,85,-263,1,7,11
7.23E+00,-1845,8037,-529,-103,53,-277,1,7,11
7.48E+00,-1881,7938,-255,29,87,8,1,7,11
7.73E+00,-1902,7664,-191,-309,117,52,1,7,11
7.98E+00,-1892,7960,-131,-287,120,102,1,7,11
8.23E+00,-1853,7835,-131,10,123,-106,1,7,11
8.48E+00,-1839,7912,-152,18,-119,-93,1,7,11
8.73E+00,-1805,8214,-182,62,111,-83,1,7,11
8.98E+00,-1800,8247,-162,37,106,-107,1,7,11
9.23E+00,-1537,8267,-377,69,81,-120,1,7,11
9.48E+00,-1808,8236,-378,-111,55,91,1,7,11
9.73E+00,-1807,8211,-380,99,109,14,1,7,11
9.98E+00,-1536,8240,-355,100,124,7,1,7,11
1.02E+01,-1808,8230,-364,-100,113,12,1,7,11
1.05E+01,-1835,7891,-376,-102,-126,-283,1,7,11
1.07E+01,-1863,7831,-333,116,-94,-284,1,7,11
1.10E+01,-1888,8052,-284,126,-57,-267,1,7,11
1.12E+01,-1876,8049,-282,-10,-35,28,1,7,11
1.15E+01,-1844,7853,-330,325,-19,60,1,7,11
1.17E+01,-1829,7921,-359,381,-18,93,1,7,11
1.20E+01,-1830,8214,-155,381,256,62,1,7,11
1.22E+01,-1846,7907,-225,132,257,20,1,7,11
1.25E+01,-1856,7855,-516,373,258,11,1,7,11
1.27E+01,-1854,7829,-566,162,-28,47,1,7,11
1.30E+01,-1832,7811,-402,159,-32,45,1,7,11
1.32E+01,-1810,7816,-508,356,-65,54,1,7,11
1.35E+01,-1803,7831,-791,273,-110,52,1,7,11
1.37E+01,-1810,7831,-491,-47,85,64,1,7,11
1.40E+01,-1814,8060,-431,-101,47,66,1,7,11
1.42E+01,-1829,8013,-389,79,46,75,1,7,11
1.45E+01,-1836,8033,-566,1,74,51,1,7,11
1.47E+01,-1857,7816,-218,53,41,101,1,7,11
1.50E+01,-1849,7859,-175,-105,17,-103,1,7,11
1.52E+01,-1846,7891,-171,-103,57,-125,1,7,11
1.55E+01,-1835,7897,-173,113,108,87,1,7,11
1.57E+01,-1843,7899,-147,117,127,103,1,7,11
1.60E+01,-1837,7909,-180,-95,-98,90,1,7,11
1.62E+01,-1815,8202,-234,-29,-77,75,1,7,11
1.65E+01,-1818,7901,-591,326,119,114,1,7,11
1.67E+01,-1830,7819,-609,-42,-113,54,1,7,11
1.70E+01,-1861,7810,-556,71,-73,68,1,7,11
1.72E+01,-1859,7825,-545,68,-51,62,1,7,11
1.75E+01,-1847,7843,-591,-113,-48,84,1,7,11
1.77E+01,-1821,7871,-394,-30,-82,115,1,7,11
1.80E+01,-1794,7893,-389,-59,-94,89,1,7,11
1.82E+01,-1794,7903,-401,-115,-108,95,1,7,11
1.85E+01,-1532,7897,-635,71,-94,54,1,7,11
1.87E+01,-1529,7869,-406,59,-111,48,1,7,11
1.90E+01,-1538,7857,-416,82,112,36,1,7,11
1.92E+01,-1811,7850,-390,73,79,46,1,7,11
1.95E+01,-1826,7850,-577,52,60,46,1,7,11
1.97E+01,-1838,7841,-555,21,78,84,1,7,11
2.00E+01,-1837,7857,-547,-262,115,65,1,7,11
2.02E+01,-1840,7859,-570,14,93,105,1,7,11
2.05E+01,-1821,7872,-612,51,103,97,1,7,11
2.07E+01,-1807,7900,-623,3,103,95,1,7,11
2.10E+01,-1794,7926,-614,-275,101,85,1,7,11
2.12E+01,-1536,8206,-600,-280,98,79,1,7,11
2.15E+01,-1526,8213,-618,9,73,50,1,7,11
2.17E+01,-1801,7914,-611,14,42,32,1,7,11
2.20E+01,-1830,7866,-606,26,31,14,1,7,11
2.22E+01,-1865,8029,-601,13,11,24,1,7,11
2.25E+01,-1866,8016,-555,-299,44,34,1,7,11
2.27E+01,-1868,8023,-526,-290,50,84,1,7,11
2.30E+01,-1847,8044,-250,-304,92,89,1,7,11
2.32E+01,-1831,7864,-249,-348,-122,113,1,7,11
2.35E+01,-1819,8215,-232,-355,-100,98,1,7,11
2.37E+01,-1822,8207,-516,-296,117,94,1,7,11
2.40E+01,-1835,7914,-519,-321,121,33,1,7,11
2.42E+01,-1853,7870,-207,-330,-128,22,1,7,11
2.45E+01,-1847,7870,-167,-273,-109,31,1,7,11
2.47E+01,-1839,7895,-197,47,-94,31,1,7,11
2.50E+01,-1832,7892,-239,54,-70,48,1,7,11
2.52E+01,-1830,7895,-549,28,-55,35,1,7,11
2.55E+01,-1843,7882,-547,-280,-46,11,1,7,11
2.57E+01,-1862,7847,-534,27,-91,31,1,7,11
2.60E+01,-1868,8053,-544,73,-110,30,1,7,11
2.62E+01,-1860,8003,-589,116,119,58,1,7,11
2.65E+01,-1836,8018,-621,59,-113,82,1,7,11
2.67E+01,-1828,7817,-620,-283,-90,72,1,7,11
2.70E+01,-1820,7867,-612,-318,-106,66,1,7,11
2.72E+01,-1835,7907,-581,-345,115,71,1,7,11
2.75E+01,-1831,7934,-543,-377,117,13,1,7,11
2.77E+01,-1823,8210,-525,-371,110,2,1,7,11
2.80E+01,-1800,8232,-225,-381,-121,-306,1,7,11
2.82E+01,-1813,8223,-177,-331,125,-354,1,7,11
2.85E+01,-1793,8233,-194,-269,-127,-149,1,7,11
2.87E+01,-1818,8294,-189,68,123,-384,1,7,11
2.90E+01,-1844,8225,-570,-29,25,-366,1,7,11
2.92E+01,-1866,7867,-549,84,79,-198,1,7,11
2.95E+01,-1910,8052,-241,30,67,-142,1,7,11
2.97E+01,-1673,8000,-198,16,113,-151,1,7,11
3.00E+01,-1676,7986,-223,114,94,-370,1,7,11
3.02E+01,-1902,8036,-549,-117,80,-133,1,7,11
3.05E+01,-1867,7878,-525,20,120,-216,1,7,11
3.07E+01,-1824,8207,-232,-340,-90,-468,1,7,11
3.10E+01,-1874,8191,-214,-357,-39,-961,1,7,11
3.12E+01,-1813,8527,-370,-45,-33,-1362,1,7,11
3.15E+01,-1425,8789,-515,514,-31,-1186,1,7,11
3.17E+01,-1160,9118,-790,560,-3,-1493,1,7,11
3.20E+01,-969,9694,-699,787,102,-1942,1,7,11
3.22E+01,-1054,10207,-1082,1256,-158,-2497,1,7,11
3.25E+01,-794,10676,-1209,2178,-449,-3282,1,7,11
3.27E+01,-240,11377,-1757,3065,-1305,-4443,1,7,11
3.30E+01,-180,11086,-1996,5162,-2271,-5628,1,7,11
3.32E+01,-232,10242,-2394,5943,-3225,-6468,1,7,11
3.35E+01,-433,8862,-2272,5900,-4416,-7016,1,7,11
3.37E+01,-649,8214,-2050,4546,-4492,-7487,1,7,11
3.40E+01,-1330,7719,-1146,4155,-4878,-7118,1,7,11
3.42E+01,-1895,7289,-410,4254,-4588,-6710,1,7,11
3.45E+01,-2272,6542,-478,5018,-4272,-6254,1,7,11
3.47E+01,-3035,5946,-1117,6260,-4456,-5690,1,7,11
3.50E+01,-2852,4684,-1797,6593,-4099,-6336,1,7,11
3.52E+01,-2468,3550,-1994,6188,-3800,-6672,1,7,11
3.55E+01,-2977,3484,-1865,5263,-4667,-5185,1,7,11
3.57E+01,-3598,4540,-1403,4677,-4023,-4638,1,7,11
3.60E+01,-3949,6301,-1301,3565,-3333,-4008,1,7,11
3.62E+01,-3977,8071,-1853,3799,-2727,-3720,1,7,11
3.65E+01,-4275,9484,-2944,5027,-3421,-3496,1,7,11
3.67E+01,-4984,9185,-4122,5825,-4470,-4614,1,7,11
3.70E+01,-5689,8725,-4453,5305,-5536,-5441,1,7,11
3.72E+01,-6200,7461,-3729,4223,-6640,-6664,1,7,11
3.75E+01,-6439,6140,-3104,1531,-7049,-8518,1,7,11
3.77E+01,-6913,5590,-1849,-1587,-6808,-9304,1,7,11
3.80E+01,-7078,5430,-223,-3059,-7033,-8587,1,7,11
3.82E+01,-7485,4664,1045,-3223,-7048,-7333,1,7,11
3.85E+01,-7518,3572,2321,-3178,-7443,-7456,1,7,11
3.87E+01,-7522,2689,3414,-2660,-6817,-8398,1,7,11
3.90E+01,-7480,1099,4301,-898,-6463,-9604,1,7,11
3.92E+01,-7736,-1160,5106,567,-5278,-10912,1,7,11
3.95E+01,-7586,-4014,5719,557,-3449,-11574,1,7,11
3.97E+01,-7726,-7008,5544,-1537,-488,-9356,1,7,11
4.00E+01,-7131,-8535,5683,-5395,1034,-5516,1,7,11
4.02E+01,-6654,-9238,5716,-9938,1793,-1055,1,7,11
4.05E+01,-5799,-8876,5071,-15104,2396,2997,1,7,11
4.07E+01,-5200,-7725,4945,-20731,3141,6753,1,7,11
4.10E+01,-4617,-5438,4274,-24770,3528,9682,1,7,11
4.12E+01,-3917,-2736,3706,-26301,4280,12631,1,7,11
4.15E+01,-1678,5220,1271,-25629,5697,13992,1,7,11
4.17E+01,-1841,12842,1013,-19765,4640,13981,1,7,11
4.20E+01,-1954,18943,918,-7605,1257,14061,1,7,11
4.22E+01,-3126,22038,927,4439,-1600,12676,1,7,11
4.25E+01,-3469,20469,266,13784,-4637,11016,1,7,11
4.27E+01,-4392,17258,-1336,18164,-7309,8473,1,7,11
4.30E+01,-4486,13099,-1916,16102,-8990,4608,1,7,11
4.32E+01,-5265,9491,-1084,9521,-8476,-420,1,7,11
4.35E+01,-6308,6318,486,2003,-7177,-4383,1,7,11
4.37E+01,-7373,4315,2318,-3889,-5324,-6389,1,7,11
4.40E+01,-8176,2718,3643,-6319,-3840,-7695,1,7,11
4.42E+01,-8679,1207,4360,-6414,-2732,-7219,1,7,11
4.45E+01,-8916,-542,4317,-4973,-1988,-5572,1,7,11
4.47E+01,-9280,-2828,4312,-3234,-1798,-3612,1,7,11
4.50E+01,-8933,-4636,4243,-3123,-911,-170,1,7,11
4.52E+01,-8489,-4765,4157,-3945,414,2010,1,7,11
4.55E+01,-7528,-3998,3921,-4148,2066,4176,1,7,11
4.57E+01,-6303,-2696,3642,-2921,3079,6405,1,7,11
4.60E+01,-4238,1655,2982,-876,4370,9381,1,7,11
4.62E+01,-2218,8173,2068,1125,6507,10595,1,7,11
4.65E+01,-606,16329,-450,2724,8223,9171,1,7,11
4.67E+01,55,21532,-3334,4204,7841,7240,1,7,11
4.70E+01,-626,21643,-5718,5348,4782,4490,1,7,11
4.72E+01,-1299,19196,-6262,4606,-1493,990,1,7,11
4.75E+01,-1818,15672,-4998,3275,-5476,-2092,1,7,11
4.77E+01,-2279,11392,-3599,1901,-8150,-4144,1,7,11
4.80E+01,-3071,7783,-1613,-271,-9731,-6609,1,7,11
4.82E+01,-4058,4266,541,-1742,-9653,-9411,1,7,11
4.85E+01,-5423,1675,2398,-3363,-9326,-10418,1,7,11
4.87E+01,-6144,-198,3894,-3804,-8224,-10288,1,7,11
4.90E+01,-7258,-2073,4837,-4192,-6372,-8772,1,7,11
4.92E+01,-7597,-2967,5720,-3710,-4917,-6151,1,7,11
4.95E+01,-7828,-4102,5602,-3135,-3169,-3259,1,7,11
4.97E+01,-7649,-4687,5283,-2719,-1581,-1067,1,7,11
5.00E+01,-7445,-4583,5185,-3382,-90,712,1,7,11
5.02E+01,-6582,-4441,4972,-3574,1571,2409,1,7,11
5.05E+01,-6210,-3607,4601,-3645,2903,3718,1,7,11
5.07E+01,-5665,-2013,4272,-2684,3957,6227,1,7,11
5.10E+01,-4925,503,4010,-1204,5383,8382,1,7,11
5.12E+01,-3733,5487,3713,-52,6909,9950,1,7,11
5.15E+01,-2718,11482,2552,2183,8619,10312,1,7,11
5.17E+01,-2595,17115,509,3035,9214,8486,1,7,11
5.20E+01,-2460,19395,-1130,4125,7677,6910,1,7,11
5.22E+01,-2768,18539,-2605,5368,4616,5902,1,7,11
5.25E+01,-3398,15260,-2972,6096,1135,3245,1,7,11
5.27E+01,-3866,11662,-2902,4738,-1440,196,1,7,11
5.30E+01,-4271,8491,-1699,2441,-3200,-2151,1,7,11
5.32E+01,-5020,5370,-678,374,-3520,-3275,1,7,11
5.35E+01,-6150,3244,355,-1366,-3527,-3582,1,7,11
5.37E+01,-6600,1902,1123,-1911,-3241,-3012,1,7,11
5.40E+01,-7271,434,1577,-1930,-2941,-2216,1,7,11
5.42E+01,-7045,-210,1482,-2319,-2241,-1269,1,7,11
5.45E+01,-6848,-497,1759,-2302,-1785,-215,1,7,11
5.47E+01,-6775,-130,2572,-2247,-1396,669,1,7,11
5.50E+01,-6068,715,3152,-1595,-565,1923,1,7,11
5.52E+01,-5563,1966,3430,304,189,3635,1,7,11
5.55E+01,-5452,3502,3193,1484,1002,4249,1,7,11
5.57E+01,-4815,5013,2451,2655,2053,4751,1,7,11
5.60E+01,-4642,6332,2072,3602,2588,4993,1,7,11
5.62E+01,-4200,7301,900,4090,2521,5415,1,7,11
5.65E+01,-3547,8452,317,3779,2844,5026,1,7,11
5.67E+01,-3636,8879,-615,3038,2621,4497,1,7,11
5.70E+01,-3631,8924,-704,2247,2130,4257,1,7,11
5.72E+01,-3669,8781,-1000,997,1625,3554,1,7,11
5.75E+01,-4120,9725,-1246,-613,1305,3182,1,7,11
5.77E+01,-4873,13317,120,-1541,1285,3328,1,7,11
5.80E+01,-5640,12346,291,1126,102,2437,1,7,11
5.82E+01,-5074,9538,-536,2676,-185,-764,1,7,11
5.85E+01,-5170,7175,-726,985,-268,-2162,1,7,11
5.87E+01,-5171,5278,-907,845,-190,-1349,1,7,11
5.90E+01,-5165,4887,-977,552,-581,60,1,7,11
5.92E+01,-4978,5102,-981,116,-457,927,1,7,11
5.95E+01,-4555,6537,-408,-577,-876,1704,1,7,11
5.97E+01,-4326,8030,309,-371,-1086,1938,1,7,11
6.00E+01,-4355,8129,781,38,-1135,1177,1,7,11
6.02E+01,-4130,7949,794,-295,-1058,402,1,7,11
6.05E+01,-3930,7077,578,-424,-678,-18,1,7,11
6.07E+01,-3870,6797,157,-1051,-873,93,1,7,11
6.10E+01,-3928,6910,159,-1115,-884,110,1,7,11
6.12E+01,-3778,7145,210,-461,-1032,265,1,7,11
6.15E+01,-4136,7316,596,-516,-1086,296,1,7,11
6.17E+01,-4031,7360,486,-530,-740,-106,1,7,11
6.20E+01,-4424,7513,838,-513,-792,-294,1,7,11
6.22E+01,-4263,7076,774,-364,-593,-129,1,7,11
6.25E+01,-4348,6877,397,89,-169,-316,1,7,11
6.27E+01,-4659,7021,232,-15,-301,44,1,7,11
6.30E+01,-4659,7004,331,328,10,-65,1,7,11
6.32E+01,-4635,6869,-14,-43,45,-32,1,7,11
6.35E+01,-4327,7241,-28,102,15,-51,1,7,11
6.37E+01,-4291,7252,314,10,-299,-107,1,7,11
6.40E+01,-4240,7200,365,-284,-353,71,1,7,11
6.42E+01,-4426,7171,380,-178,-359,37,1,7,11
6.45E+01,-4374,7218,190,-496,-306,-318,1,7,11
6.47E+01,-4357,7266,544,-651,-303,-129,1,7,11
6.50E+01,-4095,7054,394,-665,-311,-241,1,7,11
6.52E+01,-4393,7061,482,-888,-302,-607,1,7,11
6.55E+01,-4421,7264,510,-454,-328,-386,1,7,11
6.57E+01,-4245,7251,852,-402,-286,-441,1,7,11
6.60E+01,-4319,7238,673,-430,90,-763,1,7,11
6.62E+01,-4610,6897,697,-186,-122,-418,1,7,11
6.65E+01,-4670,7031,685,20,13,-537,1,7,11
6.67E+01,-4682,6646,801,38,362,-131,1,7,11
6.70E+01,-4668,6615,384,299,180,32,1,7,11
6.72E+01,-4636,6997,512,261,201,-80,1,7,11
6.75E+01,-4346,6832,212,-88,210,280,1,7,11
6.77E+01,-4272,6901,153,-85,379,-33,1,7,11
6.80E+01,-4262,7210,177,111,280,-36,1,7,11
6.82E+01,-4258,7173,170,-107,-114,273,1,7,11
6.85E+01,-4245,6878,172,97,74,-2,1,7,11
6.87E+01,-4245,7173,193,1,10,-27,1,7,11
6.90E+01,-4473,7200,199,-375,-272,-78,1,7,11
6.92E+01,-4472,7217,224,-251,-267,-80,1,7,11
6.95E+01,-4463,7230,532,-583,-258,-77,1,7,11
6.97E+01,-4463,7267,593,-627,8,-95,1,7,11
7.00E+01,-4230,7279,424,-638,15,-124,1,7,11
7.02E+01,-4239,7205,768,-571,22,51,1,7,11
7.05E+01,-4230,7177,505,-210,19,-313,1,7,11
7.07E+01,-4479,7204,771,-519,-111,-331,1,7,11
7.10E+01,-4248,7250,778,-191,-21,-326,1,7,11
7.12E+01,-4256,7246,481,-283,284,-177,1,7,11
7.15E+01,-4242,7239,431,-307,138,-169,1,7,11
7.17E+01,-4242,7239,439,-136,227,-142,1,7,11
7.20E+01,-4260,7277,430,-130,526,-220,1,7,11
7.22E+01,-4255,7246,473,-349,613,-537,1,7,11
7.25E+01,-4305,7196,450,-275,398,-148,1,7,11
7.27E+01,-4323,6794,431,-353,444,100,1,7,11
7.30E+01,-4331,6653,418,-375,585,244,1,7,11
7.32E+01,-4624,6915,621,-184,170,828,1,7,11
7.35E+01,-4339,6803,399,-407,383,644,1,7,11
7.37E+01,-4291,7188,473,-424,307,879,1,7,11
7.40E+01,-4259,7191,504,-594,-42,807,1,7,11
7.42E+01,-4444,7212,473,-622,-41,199,1,7,11
7.45E+01,-4450,7277,779,-414,-22,-70,1,7,11
7.47E+01,-4440,7247,506,-222,-107,-124,1,7,11
7.50E+01,-4445,7257,485,-353,126,-118,1,7,11
7.52E+01,-4410,7294,768,1,91,-40,1,7,11
7.55E+01,-4450,7057,644,81,89,264,1,7,11
7.57E+01,-4472,7253,683,-22,114,350,1,7,11
7.60E+01,-4451,6874,767,307,-86,353,1,7,11
7.62E+01,-4427,6810,460,-48,-4,-72,1,7,11
7.65E+01,-4424,6878,417,63,305,44,1,7,11
7.67E+01,-4390,7237,404,98,257,23,1,7,11
7.70E+01,-4353,7065,427,107,-67,4,1,7,11
7.72E+01,-4372,7113,466,82,-120,58,1,7,11
7.75E+01,-4360,7435,828,69,126,85,1,7,11
7.77E+01,-4384,7499,708,-112,-93,22,1,7,11
7.80E+01,-4087,7706,1100,326,319,-332,1,7,11
7.82E+01,-3974,7814,1143,433,637,-424,1,7,11
7.85E+01,-3806,8405,730,900,1099,-1629,1,7,11
7.87E+01,-3537,8587,244,1703,1464,-2348,1,7,11
7.90E+01,-3658,8836,-3,2837,1744,-2631,1,7,11
7.92E+01,-3206,8958,-411,3950,1973,-1853,1,7,11
7.95E+01,-3414,10147,-1473,6141,2147,-313,1,7,11
7.97E+01,-3039,12377,-2692,7755,1649,1019,1,7,11
8.00E+01,-3005,13696,-4232,8458,215,1615,1,7,11
8.02E+01,-3356,14510,-5682,8805,-1279,1144,1,7,11
8.05E+01,-3634,15119,-5509,8045,-3503,316,1,7,11
8.07E+01,-3909,14855,-5147,7146,-5971,-1470,1,7,11
8.10E+01,-3815,14119,-4414,7256,-7785,-3222,1,7,11
8.12E+01,-3838,12955,-3262,6767,-8925,-5420,1,7,11
8.15E+01,-3862,11213,-2716,5920,-10346,-8109,1,7,11
8.17E+01,-3621,9792,-2296,4613,-10930,-12061,1,7,11
8.20E+01,-3034,8241,-1822,3420,-12057,-14278,1,7,11
8.22E+01,-2938,5871,-894,2212,-12826,-15787,1,7,11
8.25E+01,-2858,3790,560,1652,-12727,-16603,1,7,11
8.27E+01,-2735,1882,1274,1190,-12486,-16053,1,7,11
8.30E+01,-3195,-566,2174,1568,-12330,-14458,1,7,11
8.32E+01,-3305,-2024,2672,1136,-11894,-12114,1,7,11
8.35E+01,-3771,-3247,3004,146,-11119,-10309,1,7,11
8.37E+01,-4398,-4203,3471,-275,-9982,-8986,1,7,11
8.40E+01,-4565,-4442,3563,-229,-9363,-8014,1,7,11
8.42E+01,-4852,-4359,3943,-950,-8816,-7269,1,7,11
8.45E+01,-5459,-3963,4474,-2000,-7598,-6545,1,7,11
8.47E+01,-5704,-3064,4986,-2610,-6628,-6330,1,7,11
8.50E+01,-5563,-2265,5144,-2340,-5914,-6239,1,7,11
8.52E+01,-5774,-1619,4798,-2153,-4967,-5008,1,7,11
8.55E+01,-6112,-1059,4561,-1279,-4441,-3747,1,7,11
8.57E+01,-6479,-528,4025,-677,-3717,-3427,1,7,11
8.60E+01,-6373,486,4305,-929,-3232,-3398,1,7,11
8.62E+01,-6561,1543,4823,-1960,-5132,-950,1,7,11
8.65E+01,-6856,1245,5011,-4131,-5116,597,1,7,11
8.67E+01,-7197,648,5196,-5931,-4922,1544,1,7,11
8.70E+01,-6842,317,4554,-6393,-4244,2651,1,7,11
8.72E+01,-7235,600,5154,-6656,-3774,3451,1,7,11
8.75E+01,-7463,487,5274,-6193,-2668,3818,1,7,11
8.77E+01,-7962,508,6202,-4005,-146,4074,1,7,11
8.80E+01,-8229,795,5812,-1016,1600,3963,1,7,11
8.82E+01,-7646,755,5208,1619,3479,987,1,7,11
8.85E+01,-7481,1157,4113,2666,5281,-2497,1,7,11
8.87E+01,-7488,1395,2994,1977,5349,-4605,1,7,11
8.90E+01,-7448,506,1981,442,4825,-6446,1,7,11
8.92E+01,-7152,576,1706,-1804,4917,-8201,1,7,11
8.95E+01,-7409,331,2860,-3520,4271,-7878,1,7,11
8.97E+01,-8225,-156,3872,-4214,3447,-5019,1,7,11
9.00E+01,-8347,-880,4100,-3332,2257,684,1,7,11
9.02E+01,-8517,-1128,3618,-1606,1951,2495,1,7,11
9.05E+01,-8473,-1152,2796,-77,2023,5290,1,7,11
9.07E+01,-8003,-693,2352,1351,2097,7741,1,7,11
9.10E+01,-6905,25,1576,1506,2319,8672,1,7,11
9.12E+01,-6653,508,1350,144,3108,6217,1,7,11
9.15E+01,-7297,894,2138,-833,4908,2053,1,7,11
9.17E+01,-8448,904,3244,1255,7536,-651,1,7,11
9.20E+01,-8999,1056,3398,1871,6897,-2933,1,7,11
9.22E+01,-8720,681,2448,2034,6196,-3178,1,7,11
9.25E+01,-8840,888,1954,2404,5155,-1699,1,7,11
9.27E+01,-9020,484,1878,2235,3735,2009,1,7,11
9.30E+01,-8135,681,1598,2483,3586,3310,1,7,11
9.32E+01,-7626,1573,1108,2480,3619,3559,1,7,11
9.35E+01,-7630,1625,880,1207,3376,1584,1,7,11
9.37E+01,-7991,1474,666,-184,2761,-1528,1,7,11
9.40E+01,-7978,1655,644,-1524,2555,-5781,1,7,11
9.42E+01,-8267,970,699,-2502,1956,-8991,1,7,11
9.45E+01,-8498,392,1025,-3036,1943,-9513,1,7,11
9.47E+01,-8554,11,1048,-2856,2365,-9864,1,7,11
9.50E+01,-8384,-713,1090,-1495,2180,-10851,1,7,11
9.52E+01,-8619,-1629,1097,-108,2357,-10354,1,7,11
9.55E+01,-8382,-1744,859,1816,1686,-9009,1,7,11
9.57E+01,-8468,-1708,451,2632,1883,-8160,1,7,11
9.60E+01,-8478,-1900,407,2687,1474,-6481,1,7,11
9.62E+01,-8337,-1832,392,2366,1004,-3035,1,7,11
9.65E+01,-8535,-1488,228,1632,-639,-1069,1,7,11
9.67E+01,-8119,-1594,-23,300,-1110,-125,1,7,11
9.70E+01,-8095,-1212,-73,-2128,-1868,1551,1,7,11
9.72E+01,-8098,-1341,-40,-4585,-2035,3522,1,7,11
9.75E+01,-7885,-1305,-16,-7323,-2095,5434,1,7,11
9.77E+01,-8024,-1339,332,-9687,-1008,6207,1,7,11
9.80E+01,-7822,-1347,185,-11172,634,7340,1,7,11
9.82E+01,-8239,-1349,596,-11599,2617,7718,1,7,11
9.85E+01,-8160,-1303,386,-10298,3102,6754,1,7,11
9.87E+01,-8375,-1117,401,-7370,3145,5833,1,7,11
9.90E+01,-8788,-694,408,-4056,2822,4484,1,7,11
9.92E+01,-8712,-434,608,-875,2146,3658,1,7,11
9.95E+01,-8466,-319,542,2379,1431,2905,1,7,11
9.97E+01,-8782,-48,321,4517,1296,2262,1,7,11
1.00E+02,-8718,231,44,6093,150,2114,1,7,11
1.00E+02,-8429,364,-293,6667,-1132,1312,1,7,11
1.00E+02,-10049,-69,400,6363,-2235,790,1,7,11
1.01E+02,-8542,809,-288,8046,-6589,2315,1,7,11
1.01E+02,-7578,594,18,7143,-7914,4840,1,7,11
1.01E+02,-7418,437,-33,6230,-6424,4053,1,7,11
1.01E+02,-8017,880,170,4815,-4177,2639,1,7,11
1.02E+02,-8224,687,538,3601,-2300,1000,1,7,11
1.02E+02,-8038,1093,250,2052,-2386,-536,1,7,11
1.02E+02,-8123,566,876,-354,-2083,-2124,1,7,11
1.02E+02,-8187,663,677,-1552,-1672,-2809,1,7,11
1.03E+02,-8338,869,1151,-2505,-1212,-2196,1,7,11
1.03E+02,-8179,-109,1207,-3231,-174,-926,1,7,11
1.03E+02,-8718,-378,1553,-1603,132,-873,1,7,11
1.03E+02,-8821,-282,1547,623,-88,-345,1,7,11
1.04E+02,-8566,202,970,1701,-456,-61,1,7,11
1.04E+02,-8162,411,1070,1795,-428,-53,1,7,11
1.04E+02,-8492,473,1098,1118,-514,110,1,7,11
1.04E+02,-8182,490,1130,-39,-579,14,1,7,11
1.05E+02,-8175,208,1312,-409,-640,-278,1,7,11
1.05E+02,-8179,291,1162,-523,-786,31,1,7,11
1.05E+02,-8235,346,1174,289,-512,-120,1,7,11
1.05E+02,-8246,263,1136,1311,-209,-809,1,7,11
1.06E+02,-8067,835,1377,1071,610,-582,1,7,11
1.06E+02,-8148,400,1354,811,1560,314,1,7,11
1.06E+02,-8515,403,927,446,2033,940,1,7,11
1.06E+02,-8742,402,1074,374,2942,2550,1,7,11
1.07E+02,-9049,586,707,-372,2763,4842,1,7,11
1.07E+02,-8581,446,809,-865,2886,7046,1,7,11
1.07E+02,-8138,1367,803,-1199,2438,7988,1,7,11
1.07E+02,-7599,1815,434,-2367,2248,7022,1,7,11
1.08E+02,-7663,1689,393,-3021,2759,5021,1,7,11
1.08E+02,-8221,1839,246,-3283,3704,4115,1,7,11
1.08E+02,-8125,1910,146,-2811,4728,3959,1,7,11
1.08E+02,-8520,2353,183,-2024,5466,4294,1,7,11
1.09E+02,-8343,2687,241,-1248,4487,5137,1,7,11
1.09E+02,-8460,2847,158,-775,3191,5074,1,7,11
1.09E+02,-8265,2929,261,-109,1663,4792,1,7,11
1.09E+02,-7843,3075,-71,612,568,4992,1,7,11
1.10E+02,-7564,3002,87,497,134,5932,1,7,11
1.10E+02,-7548,3235,-290,210,1032,6586,1,7,11
1.10E+02,-7113,3463,-141,-380,2037,7877,1,7,11
1.10E+02,-7141,3915,-549,-970,3385,9590,1,7,11
1.11E+02,-7202,4019,-609,-2016,3016,9101,1,7,11
1.11E+02,-6844,4242,-577,-3408,2445,8008,1,7,11
1.11E+02,-6960,4296,-515,-4069,2318,6339,1,7,11
1.11E+02,-6654,4618,-131,-4696,2358,5084,1,7,11
1.12E+02,-6779,4687,-329,-4708,2593,4327,1,7,11
1.12E+02,-6384,4714,-337,-4613,2557,3880,1,7,11
1.12E+02,-6360,4682,-343,-3971,2541,2499,1,7,11
1.12E+02,-6352,4332,-323,-3353,2421,1349,1,7,11
1.13E+02,-6336,4348,-302,-1670,1796,-542,1,7,11
1.13E+02,-6327,4639,-331,-336,1064,-2016,1,7,11
1.13E+02,-6665,4677,-337,1159,128,-3811,1,7,11
1.13E+02,-6978,4668,-378,2663,-601,-5329,1,7,11
1.14E+02,-7229,4699,-330,3295,-1011,-6272,1,7,11
1.14E+02,-7148,4638,-355,3830,-1710,-6069,1,7,11
1.14E+02,-7458,4329,-199,4114,-2881,-6720,1,7,11
1.14E+02,-7483,4398,-580,3605,-3607,-7036,1,7,11
1.15E+02,-7826,4683,-489,2268,-3860,-6273,1,7,11
1.15E+02,-8059,3997,-631,516,-3940,-3470,1,7,11
1.15E+02,-7752,3652,-220,-892,-3277,-1509,1,7,11
1.15E+02,-7794,3273,20,-680,-2827,-1039,1,7,11
1.16E+02,-7562,3247,-80,-397,-2306,-522,1,7,11
1.16E+02,-7581,3201,305,38,-1762,124,1,7,11
1.16E+02,-7943,3365,161,627,-2061,145,1,7,11
1.16E+02,-7787,3239,128,990,-2212,537,1,7,11
1.17E+02,-7312,3701,302,1407,-2303,236,1,7,11
1.17E+02,-7529,3515,351,1053,-1927,349,1,7,11
1.17E+02,-7327,3502,192,469,-1796,279,1,7,11
1.17E+02,-7334,3491,250,534,-1280,289,1,7,11
1.18E+02,-7302,3707,540,143,-1322,261,1,7,11
1.18E+02,-7322,3665,596,334,-1128,-34,1,7,11
1.18E+02,-7341,3663,621,337,-730,-70,1,7,11
1.18E+02,-7456,3460,189,353,-613,-87,1,7,11
1.19E+02,-7694,3666,453,61,-608,11,1,7,11
1.19E+02,-7748,3653,801,-7,-244,72,1,7,11
1.19E+02,-7704,3472,461,331,-413,53,1,7,11
1.19E+02,-7712,3475,439,273,-402,85,1,7,11
1.20E+02,-7684,3504,430,-56,-637,126,1,7,11
1.20E+02,-7412,3509,421,89,-250,-95,1,7,11
1.20E+02,-7707,3515,461,-273,-161,-69,1,7,11
1.20E+02,-7694,3496,489,-156,-141,-40,1,7,11
1.21E+02,-7395,3473,494,-553,-181,-72,1,7,11
1.21E+02,-7333,3692,500,-397,-370,-124,1,7,11
1.21E+02,-7313,3663,769,-421,-257,62,1,7,11
1.21E+02,-7357,3410,790,-629,-62,-361,1,7,11
1.22E+02,-7704,2974,470,300,-264,-1016,1,7,11
1.22E+02,-7560,3420,191,833,271,-1235,1,7,11
1.22E+02,-7337,3445,169,467,1138,-1811,1,7,11
1.22E+02,-7471,3369,237,584,1498,-3354,1,7,11
1.23E+02,-7485,2961,233,422,2157,-5483,1,7,11
1.23E+02,-7775,3187,534,628,2149,-7257,1,7,11
1.23E+02,-8253,2550,590,225,1599,-8055,1,7,11
1.23E+02,-8467,2282,625,671,791,-7766,1,7,11
1.24E+02,-8162,2416,431,1364,-56,-6554,1,7,11
1.24E+02,-8174,2316,438,1621,-571,-5594,1,7,11
1.24E+02,-8181,1957,394,1464,-1109,-4518,1,7,11
1.24E+02,-8127,2084,627,1448,-1580,-3966,1,7,11
1.25E+02,-8148,1786,583,1549,-1819,-3345,1,7,11
1.25E+02,-8162,1769,605,1135,-1421,-2389,1,7,11
1.25E+02,-8175,1781,425,238,-1023,-1035,1,7,11
1.25E+02,-8112,2089,484,-605,-480,690,1,7,11
1.26E+02,-8293,2171,464,-1549,-41,2937,1,7,11
1.26E+02,-8307,1701,440,-2237,988,4508,1,7,11
1.26E+02,-8537,1778,832,-2506,2053,5996,1,7,11
1.26E+02,-8327,2122,871,-2352,1653,5770,1,7,11
1.27E+02,-8108,2034,859,-1328,551,5776,1,7,11
1.27E+02,-7398,2083,816,-529,-1195,4942,1,7,11
1.27E+02,-8014,2554,305,1405,-909,3270,1,7,11
1.27E+02,-7484,3464,2069,-289,-296,37,1,7,11
1.28E+02,-7473,3501,2059,5,-300,56,1,7,11
1.28E+02,-7463,3543,2061,21,-308,84,1,7,11
1.28E+02,-7463,3570,2065,19,-308,121,1,7,11
1.28E+02,-7460,3845,2078,18,-311,-92,1,7,11
1.29E+02,-7451,3854,2064,28,-318,-53,1,7,11
1.29E+02,-7167,3872,2048,52,-313,-36,1,7,11
1.29E+02,-7156,3892,2048,71,-275,-27,1,7,11
1.29E+02,-7159,3909,2048,88,30,-18,1,7,11
1.30E+02,-7428,3912,2058,97,71,-12,1,7,11
1.30E+02,-7438,3906,2052,110,96,-20,1,7,11
1.30E+02,-7443,3919,1781,-110,112,-59,1,7,11
1.30E+02,-7449,3943,1768,-69,122,-102,1,7,11
1.31E+02,-7433,3962,1745,-49,126,115,1,7,11
1.31E+02,-7434,3712,1738,-58,-110,75,1,7,11
1.31E+02,-7454,3964,1752,-76,-93,55,1,7,11
1.31E+02,-7482,3959,1760,-81,-98,51,1,7,11
1.32E+02,-7493,3962,1756,-74,-128,59,1,7,11
1.32E+02,-7479,3715,1737,-67,95,69,1,7,11
1.32E+02,-7469,3722,1726,-76,87,70,1,7,11
1.32E+02,-7469,3723,1729,-102,93,72,1,7,11
1.33E+02,-7471,3721,1729,-119,94,71,1,7,11
1.33E+02,-7482,3967,1733,124,92,68,1,7,11
1.33E+02,-7486,3956,1741,111,83,63,1,7,11
1.33E+02,-7485,3945,1744,100,74,64,1,7,11
1.34E+02,-7474,3949,1745,99,59,67,1,7,11
1.34E+02,-7458,3957,1738,92,64,69,1,7,11
1.34E+02,-7451,3959,1739,76,80,66,1,7,11
1.34E+02,-7462,3959,1739,52,104,58,1,7,11
1.35E+02,-7469,3965,1741,36,116,48,1,7,11
1.35E+02,-7476,3966,1733,16,123,36,1,7,11
1.35E+02,-7479,3954,1733,-274,125,22,1,7,11
1.35E+02,-7493,3941,1746,-306,122,10,1,7,11
1.36E+02,-7507,3934,1762,-323,99,2,1,7,11
1.36E+02,-7507,3924,1758,-331,64,3,1,7,11
1.36E+02,-7506,3921,1762,-338,48,4,1,7,11
1.36E+02,-7507,3914,1763,-343,41,25,1,7,11
1.37E+02,-7496,3919,1776,-347,47,60,1,7,11
1.37E+02,-7482,3890,2061,-358,60,124,1,7,11
1.37E+02,-7479,3866,2073,-347,62,-106,1,7,11
1.37E+02,-7474,3862,2085,-308,47,-99,1,7,11
1.38E+02,-7466,3855,2084,-271,30,-112,1,7,11
1.38E+02,-7469,3871,2086,23,27,123,1,7,11
1.38E+02,-7468,3889,2094,58,17,116,1,7,11
1.38E+02,-7454,3894,2095,73,10,113,1,7,11
1.39E+02,-7447,3905,2097,116,13,107,1,7,11
1.39E+02,-7438,3917,2098,-122,18,101,1,7,11
1.39E+02,-7434,3929,2102,-110,27,92,1,7,11
1.39E+02,-7432,3947,2095,-107,35,82,1,7,11
1.40E+02,-7442,3967,2096,-125,52,77,1,7,11
1.40E+02,-7453,3726,2106,110,66,80,1,7,11
1.40E+02,-7452,3723,2107,85,72,90,1,7,11
1.40E+02,-7454,3718,2113,55,78,103,1,7,11
1.41E+02,-7446,3719,2104,38,81,113,1,7,11
1.41E+02,-7453,3719,2095,16,96,121,1,7,11
1.41E+02,-7452,3712,2093,-257,99,-127,1,7,11
1.41E+02,-7454,3959,2095,-262,107,-121,1,7,11
1.42E+02,-7462,3939,2108,-259,107,-117,1,7,11
1.42E+02,-7463,3928,2117,21,96,-119,1,7,11
1.42E+02,-7454,3925,2110,50,81,125,1,7,11
1.42E+02,-7462,3920,2115,78,78,109,1,7,11
1.43E+02,-7452,3934,2102,119,67,98,1,7,11
1.43E+02,-7433,3937,2088,-116,56,91,1,7,11
1.43E+02,-7166,3928,2089,-114,60,67,1,7,11
1.43E+02,-7428,3929,2094,-114,64,44,1,7,11
1.44E+02,-7446,3941,2092,-102,61,19,1,7,11
1.44E+02,-7459,3947,2093,-99,54,9,1,7,11
1.44E+02,-7467,3955,2098,-98,47,21,1,7,11
1.44E+02,-7456,3955,2089,-103,50,48,1,7,11
1.45E+02,-7433,3945,2094,-113,63,71,1,7,11
1.45E+02,-7438,3944,2095,-110,75,76,1,7,11
1.45E+02,-7438,3932,2094,-105,76,83,1,7,11
1.45E+02,-7433,3938,2102,-86,77,75,1,7,11
1.46E+02,-7441,3944,2102,-80,80,73,1,7,11
1.46E+02,-7454,3959,2099,-73,77,76,1,7,11
1.46E+02,-7443,3713,2086,-72,72,80,1,7,11
1.46E+02,-7449,3713,2082,-87,78,78,1,7,11
1.47E+02,-7453,3718,2075,-100,79,91,1,7,11
1.47E+02,-7454,3724,2081,-108,79,94,1,7,11
1.47E+02,-7452,3730,2079,-112,77,100,1,7,11
1.47E+02,-7440,3731,2075,-126,76,113,1,7,11
1.48E+02,-7445,3725,2098,101,90,114,1,7,11
1.48E+02,-7441,3964,2109,80,92,117,1,7,11
1.48E+02,-7448,3961,2110,70,90,113,1,7,11
1.48E+02,-7454,3963,2109,70,84,106,1,7,11
1.49E+02,-7453,3714,2111,71,76,106,1,7,11
1.49E+02,-7443,3720,2108,70,68,102,1,7,11
1.49E+02,-7433,3731,2106,65,69,96,1,7,11
1.49E+02,-7428,3729,2105,54,74,92,1,7,11
1.50E+02,-7427,3733,2114,39,88,89,1,7,11
1.50E+02,-7431,3731,2121,22,90,88,1,7,11
1.50E+02,-7438,3732,2123,18,88,85,1,7,11
1.50E+02,-7439,3729,2122,21,83,85,1,7,11
1.51E+02,-7440,3728,2122,23,76,92,1,7,11
1.51E+02,-7168,3729,2115,31,74,99,1,7,11
1.51E+02,-7427,3723,2118,27,86,101,1,7,11
1.51E+02,-7167,3722,2121,26,90,97,1,7,11
1.52E+02,-7434,3724,2126,23,91,88,1,7,11
1.52E+02,-7436,3723,2128,37,85,77,1,7,11
1.52E+02,-7431,3731,2125,54,81,74,1,7,11
1.52E+02,-7431,3737,2124,59,85,81,1,7,11
1.53E+02,-7166,3738,2126,61,92,91,1,7,11
1.53E+02,-7163,3736,2129,55,99,98,1,7,11
1.53E+02,-7163,3737,2143,55,106,97,1,7,11
1.53E+02,-7162,3740,2140,47,105,90,1,7,11
1.54E+02,-7427,3734,2147,36,103,81,1,7,11
1.54E+02,-7166,3726,2144,34,93,78,1,7,11
1.54E+02,-7163,3719,2148,34,97,75,1,7,11
1.54E+02,-7166,3716,2156,36,103,78,1,7,11
1.55E+02,-7167,3714,2156,49,108,87,1,7,11
1.55E+02,-7161,3965,2152,66,108,91,1,7,11
1.55E+02,-7165,3964,2153,79,113,92,1,7,11
1.55E+02,-7160,3963,2147,99,115,94,1,7,11
1.56E+02,-7159,3713,2145,114,117,91,1,7,11
1.56E+02,-7161,3721,2144,118,117,91,1,7,11
1.56E+02,-7163,3721,2137,114,116,91,1,7,11
1.56E+02,-7161,3737,2138,120,115,92,1,7,11
1.57E+02,-7147,3748,2134,106,108,95,1,7,11
1.57E+02,-7128,3739,2127,81,110,92,1,7,11
1.57E+02,-7157,3727,2142,53,-125,79,1,7,11
1.57E+02,-7439,3723,2151,50,-126,68,1,7,11
1.58E+02,-7440,3733,2137,72,113,64,1,7,11
1.58E+02,-7433,3762,2124,87,110,65,1,7,11
1.58E+02,-7432,3775,2113,72,125,81,1,7,11
1.58E+02,-7167,3776,2119,49,-121,98,1,7,11
1.59E+02,-7159,3768,2122,32,-121,103,1,7,11
1.59E+02,-7156,3754,2119,28,-128,96,1,7,11
1.59E+02,-7157,3747,2120,33,-128,78,1,7,11
1.59E+02,-7165,3747,2116,36,123,59,1,7,11
1.60E+02,-7428,3747,2119,34,126,44,1,7,11
1.60E+02,-7439,3745,2124,31,120,39,1,7,11
1.60E+02,-7433,3738,2126,36,109,36,1,7,11
1.60E+02,-7438,3731,2131,41,100,34,1,7,11
1.61E+02,-7430,3734,2129,48,88,32,1,7,11
1.61E+02,-7166,3728,2140,50,81,29,1,7,11
1.61E+02,-7150,3734,2133,55,72,28,1,7,11
1.61E+02,-7154,3731,2131,42,83,24,1,7,11
1.62E+02,-7165,3716,2151,37,91,28,1,7,11
1.62E+02,-7426,3714,2162,44,87,41,1,7,11
1.62E+02,-7156,3713,2152,50,78,54,1,7,11
1.62E+02,-7155,3719,2149,47,79,60,1,7,11
1.63E+02,-7160,3713,2149,41,83,60,1,7,11
1.63E+02,-7168,3719,2152,44,89,57,1,7,11
1.63E+02,-7429,3718,2157,46,91,56,1,7,11
1.63E+02,-7433,3720,2161,52,95,53,1,7,11
1.64E+02,-7435,3724,2162,58,104,56,1,7,11
1.64E+02,-7435,3725,2162,62,109,62,1,7,11
1.64E+02,-7428,3724,2166,63,114,70,1,7,11
1.64E+02,-7429,3729,2171,61,115,69,1,7,11
1.65E+02,-7168,3738,2165,55,110,64,1,7,11
1.65E+02,-7426,3743,2169,41,105,56,1,7,11
1.65E+02,-7429,3746,2165,23,105,51,1,7,11
1.65E+02,-7167,3736,2173,9,110,52,1,7,11
1.66E+02,-7438,3729,2172,3,114,50,1,7,11
1.66E+02,-7434,3720,2169,9,111,50,1,7,11
1.66E+02,-7435,3967,2169,15,117,42,1,7,11
1.66E+02,-7432,3967,2173,25,115,33,1,7,11
1.67E+02,-7428,3967,2165,35,116,24,1,7,11
1.67E+02,-7159,3715,2165,34,119,16,1,7,11
1.67E+02,-7168,3718,2166,26,123,5,1,7,11
1.67E+02,-7426,3723,2162,14,121,-257,1,7,11
1.68E+02,-7433,3723,2156,0,119,-264,1,7,11
1.68E+02,-7431,3725,2163,-273,114,-264,1,7,11
1.68E+02,-7429,3724,2169,-290,110,-266,1,7,11
1.68E+02,-7427,3730,2171,-307,107,-269,1,7,11
1.69E+02,-7430,3728,1920,-339,103,-274,1,7,11
1.69E+02,-7435,3732,1921,-373,94,-267,1,7,11
1.69E+02,-7432,3741,1936,-156,88,15,1,7,11
1.69E+02,-7446,3724,1943,-232,86,48,1,7,11
1.70E+02,-7429,3712,1946,-569,72,70,1,7,11
1.70E+02,-7436,3739,1968,-393,85,36,1,7,11
1.70E+02,-7429,3723,1973,-484,93,-261,1,7,11
1.70E+02,-7427,3939,1999,-787,96,-373,1,7,11
1.71E+02,-7152,3932,1994,-770,103,-222,1,7,11
1.71E+02,-7441,3926,2013,-490,-111,-551,1,7,11
1.71E+02,-7473,3921,2035,-447,-106,-572,1,7,11
1.71E+02,-7500,3909,2045,-386,-123,-574,1,7,11
1.72E+02,-7494,3911,2044,-580,107,-555,1,7,11
1.72E+02,-7478,3935,2018,-529,93,-520,1,7,11
1.72E+02,-7471,3904,2018,-549,117,-220,1,7,11
1.72E+02,-7458,3844,2027,-561,-108,-168,1,7,11
1.73E+02,-7488,3565,2043,-536,-77,-136,1,7,11
1.73E+02,-7499,3551,2046,-527,-74,-343,1,7,11
1.73E+02,-7527,3543,2312,-245,-77,-272,1,7,11
1.73E+02,-7518,3564,2311,-213,-89,47,1,7,11
1.74E+02,-7502,3581,2318,-206,-93,92,1,7,11
1.74E+02,-7476,3853,2324,-214,-94,118,1,7,11
1.74E+02,-7444,3852,2328,-235,-87,124,1,7,11
1.74E+02,-7160,3844,2323,-253,-73,102,1,7,11
1.75E+02,-7165,3843,2317,-536,-33,85,1,7,11
1.75E+02,-7425,3883,2306,-521,-1,59,1,7,11
1.75E+02,-7437,3949,2044,-539,301,2,1,7,11
1.75E+02,-7448,3737,2024,-586,341,-285,1,7,11
1.76E+02,-7443,3753,2017,-425,133,-322,1,7,11
1.76E+02,-7469,3733,2011,-789,185,-358,1,7,11
1.76E+02,-7477,3957,2032,-871,207,-135,1,7,11
1.76E+02,-7483,3914,2039,-673,211,-185,1,7,11
1.77E+02,-7490,3857,2305,-703,205,-239,1,7,11
1.77E+02,-7509,3537,2314,-722,192,-550,1,7,11
1.77E+02,-7528,3486,2324,-719,173,-583,1,7,11
1.77E+02,-7539,3711,2333,-690,148,-580,1,7,11
1.78E+02,-7535,3685,2337,-692,140,-578,1,7,11
1.78E+02,-7538,3459,2342,-681,134,-528,1,7,11
1.78E+02,-7548,3507,2350,-692,137,-219,1,7,11
1.78E+02,-7496,3566,2333,-722,137,-160,1,7,11
1.79E+02,-7485,3863,2340,-1061,197,-130,1,7,11
1.79E+02,-7452,3900,2338,-915,517,-134,1,7,11
1.79E+02,-7471,3887,2365,-1343,611,-174,1,7,11
1.79E+02,-7504,3562,2387,-1253,420,-237,1,7,11
1.80E+02,-7511,3699,2425,-1647,470,-589,1,7,11
1.80E+02,-7544,3669,2427,-1473,504,-404,1,7,11
1.80E+02,-7542,3613,2427,-1532,773,-477,1,7,11
1.80E+02,-7550,3590,2420,-1825,788,-781,1,7,11
1.81E+02,-7516,3318,2388,-1874,797,-788,1,7,11
1.81E+02,-7319,3221,2396,-1750,888,-509,1,7,11
1.81E+02,-7500,3398,2355,-1775,644,-500,1,7,11
1.81E+02,-7311,3056,2346,-2064,1026,-785,1,7,11
1.82E+02,-7346,2983,2305,-1774,1114,-771,1,7,11
1.82E+02,-7400,3179,2032,-1711,955,-796,1,7,11
1.82E+02,-7426,3157,2023,-1895,1309,-826,1,7,11
1.82E+02,-7695,3108,2030,-1847,1380,-875,1,7,11
1.83E+02,-7724,2810,2019,-1802,1176,-661,1,7,11
1.83E+02,-7749,2765,2004,-1483,1231,-684,1,7,11
1.83E+02,-7767,2716,1975,-1426,1249,-692,1,7,11
1.83E+02,-7782,2934,1960,-1611,1293,-696,1,7,11
1.84E+02,-7794,2892,1935,-1560,1560,-692,1,7,11
1.84E+02,-7579,2835,2172,-1261,1584,-672,1,7,11
1.84E+02,-7572,2549,2128,-1195,1593,-855,1,7,11
1.84E+02,-7594,2529,2077,-1379,1597,-811,1,7,11
1.85E+02,-7609,2482,1789,-1341,1612,-785,1,7,11
1.85E+02,-7645,2445,1738,-1297,1600,-478,1,7,11
1.85E+02,-7679,2449,1681,-964,1557,-432,1,7,11
1.85E+02,-7967,2455,1880,-921,1268,-635,1,7,11
1.86E+02,-7984,2499,1819,-1151,1222,-623,1,7,11
1.86E+02,-8027,2558,1518,-920,1173,-636,1,7,11
1.86E+02,-7836,2856,1503,-1015,1381,-634,1,7,11
1.86E+02,-7883,2869,1486,-1397,1306,-603,1,7,11
1.87E+02,-7930,2852,1483,-1271,951,-552,1,7,11
1.87E+02,-7928,2834,1462,-1635,1088,-219,1,7,11
1.87E+02,-8200,2816,1449,-1458,712,-155,1,7,11
1.87E+02,-8198,2531,1435,-1526,798,-349,1,7,11
1.88E+02,-7901,2522,1412,-1826,484,-321,1,7,11
1.88E+02,-7860,2546,1642,-1862,633,-306,1,7,11
1.88E+02,-7857,2820,1640,-1683,559,-337,1,7,11
1.88E+02,-7872,2860,1637,-2052,243,-379,1,7,11
1.89E+02,-7881,2917,1638,-1945,148,-166,1,7,11
1.89E+02,-7904,2925,1414,-2248,352,-175,1,7,11
1.89E+02,-7921,2863,1463,-2450,300,-383,1,7,11
1.89E+02,-7933,2462,1806,-2842,-12,-280,1,7,11
1.90E+02,-7911,2280,1895,-2828,-83,114,1,7,11
1.90E+02,-7846,2369,1698,-2642,101,-14,1,7,11
1.90E+02,-8035,1972,1748,-2347,77,319,1,7,11
1.90E+02,-7963,2117,1783,-1708,78,349,1,7,11
1.91E+02,-7624,2065,1773,-1259,107,326,1,7,11
1.91E+02,-7581,2076,1766,-1081,-67,-27,1,7,11
1.91E+02,-7585,2116,1763,-423,290,116,1,7,11
1.91E+02,-7598,1941,1747,-313,129,17,1,7,11
1.92E+02,-7635,2028,1737,-26,218,-315,1,7,11
1.92E+02,-7678,2381,1720,206,540,-353,1,7,11
1.92E+02,-7955,2218,1674,630,577,-357,1,7,11
1.92E+02,-7970,2303,1887,465,612,-360,1,7,11
1.93E+02,-8012,2614,1861,479,398,-364,1,7,11
1.93E+02,-8041,2653,1839,464,412,-349,1,7,11
1.93E+02,-7816,2684,1806,422,412,-343,1,7,11
1.93E+02,-7858,2439,1799,602,403,-338,1,7,11
1.94E+02,-7902,2436,1795,525,627,-335,1,7,11
1.94E+02,-7934,2682,1531,204,571,-320,1,7,11
1.94E+02,-7934,2676,1509,145,254,-300,1,7,11
1.94E+02,-7916,2654,1495,338,201,-273,1,7,11
1.95E+02,-7879,2641,1470,294,164,16,1,7,11
1.95E+02,-7854,2613,1453,-7,152,43,1,7,11
1.95E+02,-7829,2601,1443,-33,154,68,1,7,11
1.95E+02,-8064,2581,1437,-63,173,86,1,7,11
1.96E+02,-8058,2562,1432,-78,200,105,1,7,11
1.96E+02,-7813,2287,1447,-83,226,118,1,7,11
1.96E+02,-7822,2273,1456,-70,233,-127,1,7,11
1.96E+02,-7814,2278,1456,-42,221,-117,1,7,11
1.97E+02,-7818,2294,1459,-13,203,-123,1,7,11
1.97E+02,-7830,2568,1452,265,176,126,1,7,11
1.97E+02,-7828,2592,1437,273,154,124,1,7,11
1.97E+02,-7834,2603,1418,273,143,-127,1,7,11
1.98E+02,-7840,2609,1654,279,136,-109,1,7,11
1.98E+02,-7846,2611,1630,278,133,-88,1,7,11
1.98E+02,-7837,2610,1604,285,375,-67,1,7,11
1.98E+02,-7825,2605,1576,290,369,-60,1,7,11
1.99E+02,-7822,2601,1553,291,371,-68,1,7,11
1.99E+02,-7833,2599,1541,294,377,-79,1,7,11
1.99E+02,-7841,2602,1272,316,375,-90,1,7,11
1.99E+02,-7846,2604,1269,339,365,-88,1,7,11
2.00E+02,-7844,2616,1264,370,352,-76,1,7,11
2.00E+02,-7843,2624,1247,145,341,-57,1,7,11
2.00E+02,-7839,2617,1243,172,335,-34,1,7,11
2.00E+02,-7816,2611,1228,209,329,-3,1,7,11
2.01E+02,-7809,2589,1227,249,344,272,1,7,11
2.01E+02,-8062,2576,1226,563,362,301,1,7,11
2.01E+02,-7811,2566,1219,635,128,337,1,7,11
2.01E+02,-8054,2567,1206,466,145,379,1,7,11
2.02E+02,-8036,2300,1179,803,158,170,1,7,11
2.02E+02,-8028,2302,1401,890,179,186,1,7,11
2.02E+02,-8017,2586,1369,725,189,189,1,7,11
2.02E+02,-7998,2617,1325,1053,186,187,1,7,11
2.03E+02,-7991,2655,1016,1093,198,164,1,7,11
2.03E+02,-8024,2685,999,1102,225,140,1,7,11
2.03E+02,-7810,2487,979,1115,222,380,1,7,11
2.03E+02,-7828,2820,945,1107,206,376,1,7,11
2.04E+02,-7840,2915,910,1074,187,373,1,7,11
2.04E+02,-7847,2746,1143,733,171,378,1,7,11
2.04E+02,-7843,2814,1106,864,149,128,1,7,11
2.04E+02,-7843,3082,1093,469,382,136,1,7,11
2.05E+02,-7829,3077,1058,586,358,149,1,7,11
2.05E+02,-7818,2801,1028,204,344,145,1,7,11
2.05E+02,-7828,2769,1032,350,336,133,1,7,11
2.05E+02,-7832,2738,1037,261,318,379,1,7,11
2.06E+02,-7816,2709,1052,-50,286,381,1,7,11
2.06E+02,-8035,2940,1050,-81,-21,137,1,7,11
2.06E+02,-8002,2941,1037,-84,-62,129,1,7,11
2.06E+02,-7967,2939,1032,-88,-95,371,1,7,11
2.07E+02,-7664,2698,758,-100,-116,345,1,7,11
2.07E+02,-7627,2726,738,-108,-127,298,1,7,11
2.07E+02,-7628,2749,738,96,-107,269,1,7,11
2.07E+02,-7669,2758,766,21,-66,-76,1,7,11
2.08E+02,-7942,2770,1036,-309,-65,-114,1,7,11
2.08E+02,-7945,2806,765,-358,-76,108,1,7,11
2.08E+02,-7961,3100,754,-224,-66,85,1,7,11
2.08E+02,-7986,3140,754,-580,-56,82,1,7,11
2.09E+02,-8025,3175,750,-454,-50,82,1,7,11
2.09E+02,-8054,2961,744,-855,-65,75,1,7,11
2.09E+02,-7843,3026,723,-1030,-103,43,1,7,11
2.09E+02,-7893,3384,688,-1010,92,4,1,7,11
2.10E+02,-8208,3452,676,-1585,3,-283,1,7,11
2.10E+02,-8263,3201,700,-1693,-374,-280,1,7,11
2.10E+02,-8290,3388,757,-2033,-514,23,1,7,11
2.10E+02,-8277,3020,1082,-2295,-401,93,1,7,11
2.11E+02,-8235,3161,913,-2455,-787,-107,1,7,11
2.11E+02,-7908,2769,1011,-2524,-641,-64,1,7,11
2.11E+02,-7813,2906,1359,-2499,-723,-55,1,7,11
2.11E+02,-7979,2543,1204,-2669,-757,-82,1,7,11
2.12E+02,-7639,2458,1555,-2267,-747,-124,1,7,11
2.12E+02,-7568,2634,1640,-2334,-704,84,1,7,11
2.12E+02,-7787,2587,1455,-2116,-878,14,1,7,11
2.12E+02,-7778,2296,1527,-1887,-777,-301,1,7,11
2.13E+02,-7780,2255,1847,-1631,-420,-340,1,7,11
2.13E+02,-7771,2231,1882,-1345,-592,-364,1,7,11
2.13E+02,-7785,2242,1900,-1070,-249,-145,1,7,11
2.13E+02,-7567,2256,1670,-825,-170,-170,1,7,11
2.14E+02,-7604,2256,1700,-585,-373,-168,1,7,11
2.14E+02,-7632,2272,1708,-334,-340,-148,1,7,11
2.14E+02,-7654,2279,1713,-99,-310,-365,1,7,11
2.14E+02,-7653,2297,1703,132,-292,-307,1,7,11
2.15E+02,-7631,2590,1680,610,-271,3,1,7,11
2.15E+02,-7618,2640,1907,796,29,41,1,7,11
2.15E+02,-7622,2677,1894,697,85,73,1,7,11
2.15E+02,-7629,2437,1880,1087,-104,103,1,7,11
2.16E+02,-7642,2436,1868,968,-38,126,1,7,11
2.16E+02,-7650,2446,1844,1374,275,-124,1,7,11
2.16E+02,-7672,2452,1822,1261,328,-126,1,7,11
2.16E+02,-7942,2459,1523,1663,360,114,1,7,11
2.17E+02,-7625,2543,1636,1817,371,84,1,7,11
2.17E+02,-7634,2862,1576,1893,159,15,1,7,11
2.17E+02,-7678,2919,1538,1891,220,-313,1,7,11
2.17E+02,-7978,2716,1230,1854,517,-371,1,7,11
2.18E+02,-7998,2770,1179,1535,535,-151,1,7,11
2.18E+02,-8018,2801,1400,1429,550,-140,1,7,11
2.18E+02,-8042,3078,1374,1547,570,-361,1,7,11
2.18E+02,-7811,3077,1367,1392,560,-306,1,7,11
2.19E+02,-7828,2805,1362,980,527,14,1,7,11
2.19E+02,-7835,2782,1352,1024,214,79,1,7,11
2.19E+02,-7830,2762,1352,646,147,-120,1,7,11
2.19E+02,-7814,2766,1347,798,328,-73,1,7,11
2.20E+02,-8043,2774,1346,442,-1,-28,1,7,11
2.20E+02,-8019,2779,1343,596,-55,265,1,7,11
2.20E+02,-7992,2782,1336,247,-88,294,1,7,11
2.20E+02,-7967,2765,1339,152,-99,316,1,7,11
2.21E+02,-7941,2734,1328,341,-92,318,1,7,11
2.21E+02,-7663,2721,1312,312,-78,300,1,7,11
2.21E+02,-7662,2701,1292,297,-40,266,1,7,11
2.21E+02,-7675,2940,1287,300,258,-34,1,7,11
2.22E+02,-7953,2936,1293,328,289,-78,1,7,11
2.22E+02,-7975,2942,1285,365,298,-127,1,7,11
2.22E+02,-7998,2692,1009,150,295,73,1,7,11
2.22E+02,-8019,2711,993,188,285,11,1,7,11
2.23E+02,-8038,2743,978,210,269,-308,1,7,11
2.23E+02,-8037,2786,950,221,-22,-355,1,7,11
2.23E+02,-8035,3072,944,192,-49,-141,1,7,11
2.23E+02,-8028,3081,929,144,-65,-160,1,7,11
2.24E+02,-8034,3093,916,349,-71,-169,1,7,11
2.24E+02,-8054,3086,925,288,-73,-164,1,7,11
2.24E+02,-7817,2802,943,-20,-93,-138,1,7,11
2.24E+02,-7813,2763,948,-57,127,-368,1,7,11
2.25E+02,-8047,2716,954,-72,90,-350,1,7,11
2.25E+02,-8019,2936,964,-91,62,-340,1,7,11
2.25E+02,-7993,2899,963,-100,39,-331,1,7,11
2.25E+02,-7975,2884,952,-103,37,-317,1,7,11
2.26E+02,-7969,2863,949,-115,57,-286,1,7,11
2.26E+02,-7974,2844,948,-116,86,20,1,7,11
2.26E+02,-7974,2826,957,-103,113,81,1,7,11
2.26E+02,-7976,2547,935,-75,-119,-103,1,7,11
2.27E+02,-7990,2540,934,-38,-90,-39,1,7,11
2.27E+02,-8024,2521,946,264,-73,275,1,7,11
2.27E+02,-8058,2520,945,340,-96,316,1,7,11
2.27E+02,-7822,2536,925,168,105,343,1,7,11
2.28E+02,-7836,2822,903,246,33,352,1,7,11
2.28E+02,-7848,2865,1144,564,-297,341,1,7,11
2.28E+02,-7862,2909,1142,593,-384,323,1,7,11
2.28E+02,-7893,2921,921,579,-230,291,1,7,11
2.29E+02,-7929,2917,942,552,-639,-24,1,7,11
2.29E+02,-8223,2706,922,541,-853,100,1,7,11
2.29E+02,-8288,2804,911,217,-1104,-330,1,7,11
2.29E+02,-8078,3151,906,381,-1394,-214,1,7,11
2.30E+02,-8097,2989,910,-9,-1411,-570,1,7,11
2.30E+02,-8089,3019,958,84,-1886,-573,1,7,11
2.30E+02,-8311,3012,1288,-308,-2049,-245,1,7,11
2.30E+02,-8246,2953,1371,-156,-2156,-377,1,7,11
2.31E+02,-7845,2808,1230,-205,-1963,22,1,7,11
2.31E+02,-8033,2938,1591,-229,-1951,-114,1,7,11
2.31E+02,-7987,2828,1446,-204,-2159,-33,1,7,11
2.31E+02,-7676,2510,1525,-355,-2114,283,1,7,11
2.32E+02,-7616,2497,1834,53,-2062,324,1,7,11
2.32E+02,-7561,2509,1893,-37,-1691,347,1,7,11
2.32E+02,-7768,2546,1701,376,-1849,383,1,7,11
2.32E+02,-7732,2842,1771,598,-1482,199,1,7,11
2.33E+02,-7420,2890,2073,476,-1626,541,1,7,11
2.33E+02,-7361,2700,2106,828,-1241,607,1,7,11
2.33E+02,-7321,3099,2170,875,-933,605,1,7,11
2.33E+02,-7347,3160,1956,857,-1038,550,1,7,11
2.34E+02,-7396,3024,2034,606,-546,-52,1,7,11
2.34E+02,-7375,2993,2021,532,-221,121,1,7,11
2.34E+02,-7379,2951,2035,198,-148,23,1,7,11
2.34E+02,-7416,3150,2316,140,-355,-332,1,7,11
2.35E+02,-7692,3106,2316,362,-337,-176,1,7,11
2.35E+02,-7716,3078,2313,345,-329,-532,1,7,11
2.35E+02,-7731,2792,2039,324,-325,-607,1,7,11
2.35E+02,-7724,2765,2035,296,-311,-477,1,7,11
2.36E+02,-7702,2781,2019,289,-280,-831,1,7,11
2.36E+02,-7701,2780,2023,264,23,-709,1,7,11
2.36E+02,-7715,2802,2020,272,76,-1110,1,7,11
2.36E+02,-7736,3109,2012,-3,-105,-979,1,7,11
2.37E+02,-7769,3085,2017,-101,266,-1286,1,7,11
2.37E+02,-7804,2780,2012,81,363,-1292,1,7,11
2.37E+02,-7776,2761,1971,48,181,-1010,1,7,11
2.37E+02,-7751,2724,1947,-290,562,-918,1,7,11
2.38E+02,-7783,2872,1979,-189,454,-1091,1,7,11
2.38E+02,-7595,2823,1982,-203,810,-1082,1,7,11
2.38E+02,-7655,2502,1994,-253,854,-1071,1,7,11
2.38E+02,-7667,2462,1992,-246,863,-1036,1,7,11
2.39E+02,-7961,2436,2000,-254,888,-726,1,7,11
2.39E+02,-7959,2666,1998,-516,876,-885,1,7,11
2.39E+02,-7945,2685,1944,-518,854,-790,1,7,11
2.39E+02,-7945,2441,2165,-575,863,-419,1,7,11
2.40E+02,-7943,2687,2111,-387,883,-541,1,7,11
2.40E+02,-7965,2671,2121,-496,677,-156,1,7,11
2.40E+02,-7948,2667,2072,-841,705,-261,1,7,11
2.40E+02,-7955,2609,2063,-715,1025,-87,1,7,11
2.41E+02,-7678,2296,2051,-1090,1098,336,1,7,11
2.41E+02,-7651,2220,2057,-947,953,245,1,7,11
2.41E+02,-7587,2207,1768,-1015,1323,415,1,7,11
2.41E+02,-7734,2564,1672,-1284,1225,670,1,7,11
2.42E+02,-7421,2641,1885,-1365,1482,1007,1,7,11
2.42E+02,-7708,2647,1861,-1214,1710,1540,1,7,11
2.42E+02,-7596,2651,1878,-1272,2082,1618,1,7,11
2.42E+02,-8002,2435,1864,-1201,1783,1544,1,7,11
2.43E+02,-7855,2527,1802,-1298,1875,1376,1,7,11
2.43E+02,-7900,2880,1471,-1105,1658,948,1,7,11
2.43E+02,-7898,2770,1623,-655,1233,1077,1,7,11
2.43E+02,-7889,3111,1546,-825,1391,759,1,7,11
2.44E+02,-7863,3145,1237,-778,1332,714,1,7,11
2.44E+02,-8195,3009,1153,-591,647,217,1,7,11
2.44E+02,-7925,2997,1363,-554,768,349,1,7,11
2.44E+02,-7892,2970,1314,-525,416,-56,1,7,11
2.45E+02,-7865,3191,1285,-248,597,38,1,7,11
2.45E+02,-7840,3131,1016,-218,532,-363,1,7,11
2.45E+02,-7813,2812,1016,-173,210,-247,1,7,11
2.45E+02,-8033,2760,1006,-353,377,-625,1,7,11
2.46E+02,-8007,2716,998,-270,290,-466,1,7,11
2.46E+02,-8009,2937,1003,69,-34,-775,1,7,11
2.46E+02,-8027,2917,1003,-99,-108,-803,1,7,11
2.46E+02,-8062,2903,1015,-35,76,-821,1,7,11
2.47E+02,-7832,2873,1282,272,-271,-828,1,7,11
2.47E+02,-7847,2845,1284,315,-374,-852,1,7,11
2.47E+02,-7849,2826,1022,343,-215,-874,1,7,11
2.47E+02,-8056,2501,1010,317,-560,-641,1,7,11
2.48E+02,-7975,2683,1003,284,-632,-729,1,7,11
2.48E+02,-7663,2668,995,264,-414,-1101,1,7,11
2.48E+02,-7676,2438,1000,258,-398,-936,1,7,11
2.48E+02,-8009,2685,1302,-27,-624,-971,1,7,11
2.49E+02,-7848,2464,1336,-5,-388,-969,1,7,11
2.49E+02,-8200,2494,1371,270,-433,-1145,1,7,11
2.49E+02,-8217,2504,1384,310,-509,-730,1,7,11
2.49E+02,-7928,2521,1402,319,-814,-385,1,7,11
2.50E+02,-8198,2528,1162,329,-814,-210,1,7,11
2.50E+02,-8220,2437,1226,315,-796,9,1,7,11
2.50E+02,-7923,2613,1254,329,-779,-11,1,7,11
2.50E+02,-7860,2581,1258,157,-484,163,1,7,11
2.51E+02,-8060,2298,1552,513,-418,547,1,7,11
2.51E+02,-8021,2301,1568,625,-634,616,1,7,11
2.51E+02,-8004,2590,1575,475,-607,601,1,7,11
2.51E+02,-8007,2629,1595,805,-588,493,1,7,11
2.52E+02,-7972,2649,1601,842,-577,155,1,7,11
2.52E+02,-7678,2437,1601,860,-566,303,1,7,11
2.52E+02,-7644,2488,1611,848,-526,-61,1,7,11
2.52E+02,-7619,2545,1635,823,-216,112,1,7,11
2.53E+02,-7637,2823,1420,772,-136,40,1,7,11
2.53E+02,-7943,2887,1462,460,-322,-295,1,7,11
2.53E+02,-7994,2923,1457,385,-310,-324,1,7,11
2.53E+02,-8039,2699,1454,559,-288,-304,1,7,11
2.54E+02,-8047,2695,1441,204,-286,-272,1,7,11
2.54E+02,-8043,2926,1434,364,-282,65,1,7,11
2.54E+02,-8024,2903,1437,280,-269,-110,1,7,11
2.54E+02,-8006,2865,1438,-63,-265,28,1,7,11
2.55E+02,-8002,2866,1442,-100,-264,346,1,7,11
2.55E+02,-7976,2858,1444,121,-268,141,1,7,11
2.55E+02,-7957,2885,1436,96,-267,159,1,7,11
2.55E+02,-7944,2908,1428,70,20,185,1,7,11
2.56E+02,-7664,2912,1422,30,43,201,1,7,11
2.56E+02,-7634,2915,1428,0,89,228,1,7,11
2.56E+02,-7616,2929,1435,-279,-97,219,1,7,11
2.56E+02,-7611,2930,1437,-294,-5,206,1,7,11
2.57E+02,-7613,2924,1431,-327,140,166,1,7,11
2.57E+02,-7620,2917,1413,-353,224,358,1,7,11
2.57E+02,-7625,2897,1649,-369,518,326,1,7,11
2.57E+02,-7659,2902,1623,-377,585,257,1,7,11
2.58E+02,-7940,2911,1601,-360,628,-99,1,7,11
2.58E+02,-7954,2926,1579,-337,419,127,1,7,11
2.58E+02,-8021,2937,1571,-300,443,59,1,7,11
2.58E+02,-7812,2688,1562,-268,447,8,1,7,11
2.59E+02,-7839,2911,1559,24,425,-267,1,7,11
2.59E+02,-7844,2876,1554,82,385,-264,1,7,11
2.59E+02,-7837,2868,1540,-102,583,-267,1,7,11
2.59E+02,-7822,2895,1249,-19,254,-287,1,7,11
2.60E+02,-8059,2911,1213,296,182,-270,1,7,11
2.60E+02,-8039,2924,1189,310,138,29,1,7,11
2.60E+02,-8027,2901,1182,273,144,82,1,7,11
2.60E+02,-7952,2875,1159,-76,130,123,1,7,11
2.61E+02,-7619,2834,1389,-121,139,-121,1,7,11
2.61E+02,-7577,2526,1379,17,154,-118,1,7,11
2.61E+02,-7559,2499,1360,-313,174,-92,1,7,11
2.61E+02,-7606,2466,1364,-377,210,258,1,7,11
2.62E+02,-7939,2669,1385,-200,237,383,1,7,11
2.62E+02,-8059,2432,1170,-223,194,243,1,7,11
2.62E+02,-7907,2472,1221,-130,349,607,1,7,11
2.62E+02,-8215,2841,1225,32,-51,392,1,7,11
2.63E+02,-7932,2694,1202,-116,83,416,1,7,11
2.63E+02,-7897,2763,1215,-55,16,414,1,7,11
2.63E+02,-7830,3076,1192,-8,-296,605,1,7,11
2.63E+02,-8010,3105,1190,-21,-309,186,1,7,11
2.64E+02,-7663,3086,1188,-89,-290,-28,1,7,11
2.64E+02,-7591,2758,1203,53,22,-265,1,7,11
2.64E+02,-7737,2693,1173,-292,79,-232,1,7,11
2.64E+02,-7401,2879,1156,-365,-62,-421,1,7,11
2.65E+02,-7337,2557,1378,-129,334,-781,1,7,11
2.65E+02,-7340,2468,1375,-375,244,-787,1,7,11
2.65E+02,-7402,2632,1378,-294,409,-437,1,7,11
2.65E+02,-7759,2582,1379,126,785,-522,1,7,11
2.66E+02,-7608,2578,1363,341,845,-290,1,7,11
2.66E+02,-7950,2615,1321,575,847,-10,1,7,11
2.66E+02,-8043,2669,1280,506,826,545,1,7,11
2.66E+02,-7880,2505,1003,654,511,818,1,7,11
2.67E+02,-8204,2870,992,750,399,1061,1,7,11
2.67E+02,-8222,2726,987,1042,243,1021,1,7,11
2.67E+02,-7881,3090,968,1067,325,1231,1,7,11
2.67E+02,-8051,2965,925,1071,-45,1651,1,7,11
2.68E+02,-8010,3049,914,740,-118,1523,1,7,11
2.68E+02,-7951,3384,896,668,47,1838,1,7,11
2.68E+02,-7603,3230,1118,882,-304,1831,1,7,11
2.68E+02,-7790,3614,1080,840,-359,1488,1,7,11
2.69E+02,-7737,3462,1045,507,-381,1612,1,7,11
2.69E+02,-7697,3565,740,418,-129,1186,1,7,11
2.69E+02,-7422,3897,706,566,-355,1013,1,7,11
2.69E+02,-7719,3960,694,198,-282,1095,1,7,11
2.70E+02,-7766,3752,692,366,23,691,1,7,11
2.70E+02,-7801,3799,664,298,49,827,1,7,11
2.70E+02,-7615,4111,667,-115,64,632,1,7,11
2.70E+02,-7638,4104,685,60,35,550,1,7,11
2.71E+02,-7625,3834,719,-259,-279,174,1,7,11
2.71E+02,-7590,3806,750,-321,-138,351,1,7,11
2.71E+02,-7808,3779,1064,-380,-199,283,1,7,11
2.71E+02,-7742,3742,1118,-167,-513,-32,1,7,11
2.72E+02,-7407,3953,906,-223,-559,-91,1,7,11
2.72E+02,-7358,3907,941,-585,-560,108,1,7,11
2.72E+02,-7313,3859,970,-399,-525,75,1,7,11
2.72E+02,-7539,3550,987,-476,-198,49,1,7,11
2.73E+02,-7512,3500,993,-811,-349,25,1,7,11
2.73E+02,-7486,3681,999,-889,35,17,1,7,11
2.73E+02,-7474,3604,1003,-696,-70,2,1,7,11
2.73E+02,-7487,3252,1289,-729,333,-270,1,7,11
2.74E+02,-7504,3438,1320,-689,186,-290,1,7,11
2.74E+02,-7514,3393,1332,-871,514,-307,1,7,11
2.74E+02,-7527,3364,1326,-769,556,-332,1,7,11
2.74E+02,-7308,3339,1318,-413,580,-349,1,7,11
2.75E+02,-7361,3071,1313,-554,578,-353,1,7,11
2.75E+02,-7394,3070,1295,-170,545,-346,1,7,11
2.75E+02,-7416,3332,1006,-296,242,-337,1,7,11
2.75E+02,-7698,3389,960,113,202,-331,1,7,11
2.76E+02,-7738,3438,931,-34,185,-298,1,7,11
2.76E+02,-7781,3229,922,325,158,7,1,7,11
2.76E+02,-7574,3291,918,163,130,64,1,7,11
2.76E+02,-7609,3615,916,246,344,120,1,7,11
2.77E+02,-7618,3662,897,555,282,-87,1,7,11
2.77E+02,-7598,3706,1122,589,-30,-71,1,7,11
2.77E+02,-7578,3491,1084,599,-68,-77,1,7,11
2.77E+02,-7773,3886,1034,318,32,114,1,7,11
2.78E+02,-7751,3880,1025,267,-292,111,1,7,11
2.78E+02,-7745,3877,1044,-28,-343,86,1,7,11
2.78E+02,-7732,3875,1050,-73,-138,34,1,7,11
2.78E+02,-7723,3849,1071,126,-173,-299,1,7,11
2.79E+02,-7717,3566,1091,84,-196,-135,1,7,11
2.79E+02,-7726,3534,1116,31,-202,-235,1,7,11
2.79E+02,-7729,3474,896,-283,-195,-580,1,7,11
2.79E+02,-7730,3675,935,-313,-186,-404,1,7,11
2.80E+02,-7717,3616,951,-340,-165,-455,1,7,11
2.80E+02,-7704,3310,975,-350,-142,-497,1,7,11
2.80E+02,-7716,3255,1002,-359,-366,-508,1,7,11
2.80E+02,-7715,3229,1003,-336,-349,-476,1,7,11
2.81E+02,-7691,3207,1017,-329,-329,-413,1,7,11
2.81E+02,-7419,3444,1289,-329,-301,-595,1,7,11
2.81E+02,-7404,3436,1285,-319,-275,-250,1,7,11
2.81E+02,-7389,3203,1016,-314,10,-160,1,7,11
2.82E+02,-7368,3217,1005,-336,40,-334,1,7,11
2.82E+02,-7371,3215,998,-371,80,-271,1,7,11
2.82E+02,-7406,3230,1001,-133,-128,25,1,7,11
2.82E+02,-7726,3264,1010,-153,-100,53,1,7,11
2.83E+02,-7768,3275,1013,-169,-99,85,1,7,11
2.83E+02,-7744,3279,999,-168,126,95,1,7,11
2.83E+02,-7735,3285,1005,-162,115,90,1,7,11
2.83E+02,-7730,3287,1009,-158,111,86,1,7,11
2.84E+02,-7729,3278,1009,-150,111,83,1,7,11
2.84E+02,-7728,3268,1006,-144,111,59,1,7,11
2.84E+02,-7747,3241,1280,-131,113,30,1,7,11
2.84E+02,-7754,3227,1291,-351,103,1,1,7,11
2.85E+02,-7775,3206,1308,-298,95,-281,1,7,11
2.85E+02,-7790,3208,1310,31,76,-299,1,7,11
2.85E+02,-7778,3206,1310,86,54,-306,1,7,11
2.85E+02,-7744,3441,1316,120,41,-318,1,7,11
2.86E+02,-7709,3411,1328,-100,37,-328,1,7,11
2.86E+02,-7396,3402,1304,-57,37,-343,1,7,11
2.86E+02,-7373,3406,1299,-40,71,-360,1,7,11
2.86E+02,-7374,3420,1282,-43,113,-370,1,7,11
2.87E+02,-7399,3436,1281,-64,-99,-368,1,7,11
2.87E+02,-7415,3446,1007,-93,-64,-360,1,7,11
2.87E+02,-7709,3447,1000,122,-15,-343,1,7,11
2.87E+02,-7757,3204,985,99,285,-310,1,7,11
2.88E+02,-7797,3217,982,78,315,-266,1,7,11
2.88E+02,-7570,3242,963,61,325,36,1,7,11
2.88E+02,-7595,3246,963,26,327,73,1,7,11
2.88E+02,-7603,3244,969,1,307,92,1,7,11
2.89E+02,-7626,3222,991,-280,273,92,1,7,11
2.89E+02,-7631,3202,1007,-270,-36,81,1,7,11
2.89E+02,-7629,3438,1016,11,-86,63,1,7,11
2.89E+02,-7627,3431,1011,38,123,44,1,7,11
2.90E+02,-7600,3429,1004,68,90,28,1,7,11
2.90E+02,-7803,3417,1000,82,74,-3,1,7,11
2.90E+02,-7786,3404,1009,82,84,-274,1,7,11
2.90E+02,-7777,3391,1014,80,99,-301,1,7,11
2.91E+02,-7774,3384,1012,86,113,-319,1,7,11
2.91E+02,-7766,3375,1017,98,124,-326,1,7,11
2.91E+02,-7754,3366,1012,108,-128,-318,1,7,11
2.91E+02,-7753,3374,1003,127,127,-285,1,7,11
2.92E+02,-7764,3380,984,-106,-126,-257,1,7,11
2.92E+02,-7778,3383,977,-92,-117,16,1,7,11
2.92E+02,-7804,3397,970,-89,-112,52,1,7,11
2.92E+02,-7571,3426,967,-89,-109,82,1,7,11
2.93E+02,-7590,3445,960,-91,-114,112,1,7,11
2.93E+02,-7601,3209,964,-105,-126,-121,1,7,11
2.93E+02,-7602,3215,969,-121,119,-106,1,7,11
2.93E+02,-7599,3222,963,114,108,-108,1,7,11
2.94E+02,-7599,3231,956,98,99,-115,1,7,11
2.94E+02,-7605,3235,967,75,95,-128,1,7,11
2.94E+02,-7599,3231,968,65,83,110,1,7,11
2.94E+02,-7588,3226,970,60,74,96,1,7,11
2.95E+02,-7574,3214,972,56,76,79,1,7,11
2.95E+02,-7554,3208,971,64,76,63,1,7,11
2.95E+02,-7772,3447,963,60,79,41,1,7,11
2.95E+02,-7758,3424,956,34,100,8,1,7,11
2.96E+02,-7759,3406,960,13,118,-277,1,7,11
2.96E+02,-7781,3400,968,12,-128,-311,1,7,11
2.96E+02,-7802,3395,960,8,-128,-320,1,7,11
2.96E+02,-7560,3404,939,21,127,-312,1,7,11
2.97E+02,-7581,3415,930,30,-118,-285,1,7,11
2.97E+02,-7598,3406,935,23,-123,12,1,7,11
2.97E+02,-7603,3398,953,26,114,48,1,7,11
2.97E+02,-7594,3385,962,39,80,63,1,7,11
2.98E+02,-7583,3380,968,57,44,62,1,7,11
2.98E+02,-7565,3383,969,78,16,55,1,7,11
2.98E+02,-7804,3391,976,92,-262,46,1,7,11
2.98E+02,-7781,3402,977,106,-269,39,1,7,11
2.99E+02,-7780,3405,984,107,0,36,1,7,11
2.99E+02,-7783,3403,990,109,16,40,1,7,11
2.99E+02,-7787,3405,1006,117,31,47,1,7,11
2.99E+02,-7803,3410,1007,-125,33,47,1,7,11
3.00E+02,-7802,3418,994,-114,27,47,1,7,11
3.00E+02,-7801,3421,994,-123,32,45,1,7,11
3.00E+02,-7803,3409,1019,109,37,47,1,7,11
3.00E+02,-7553,3398,1289,92,30,46,1,7,11
3.01E+02,-7799,3405,1291,87,19,42,1,7,11
3.01E+02,-7802,3405,1296,70,22,36,1,7,11
3.01E+02,-7802,3408,1303,60,29,38,1,7,11
3.01E+02,-7553,3399,1314,55,32,48,1,7,11
3.02E+02,-7805,3390,1313,64,35,55,1,7,11
3.02E+02,-7801,3384,1309,77,39,62,1,7,11
3.02E+02,-7798,3378,1318,90,49,70,1,7,11
3.02E+02,-7796,3385,1320,98,61,76,1,7,11
3.03E+02,-7792,3387,1325,103,76,82,1,7,11
3.03E+02,-7789,3381,1324,100,92,95,1,7,11
3.03E+02,-7797,3377,1328,103,108,106,1,7,11
3.03E+02,-7803,3366,1334,108,116,124,1,7,11
3.04E+02,-7802,3369,1337,127,110,-117,1,7,11
3.04E+02,-7793,3376,1333,-106,102,-106,1,7,11
3.04E+02,-7793,3388,1328,-96,105,-98,1,7,11
3.04E+02,-7791,3407,1325,-92,108,-97,1,7,11
3.05E+02,-7788,3431,1327,-97,109,-95,1,7,11
3.05E+02,-7778,3445,1324,-121,112,-95,1,7,11
3.05E+02,-7769,3201,1327,101,121,-101,1,7,11
3.05E+02,-7770,3213,1322,67,-125,-110,1,7,11
3.06E+02,-7771,3212,1311,33,-115,-115,1,7,11
3.06E+02,-7770,3204,1312,5,-104,-120,1,7,11
3.06E+02,-7778,3451,1323,-267,-97,-124,1,7,11
3.06E+02,-7785,3449,1316,-269,-93,118,1,7,11
3.07E+02,-7791,3433,1319,-286,-90,104,1,7,11
3.07E+02,-7785,3417,1325,-284,-96,77,1,7,11
3.07E+02,-7785,3416,1333,-281,-99,47,1,7,11
3.07E+02,-7779,3416,1322,-271,-100,26,1,7,11
3.08E+02,-7794,3428,1323,-258,-92,17,1,7,11
3.08E+02,-7797,3421,1311,-257,-85,28,1,7,11
3.08E+02,-7782,3429,1295,14,-82,51,1,7,11
3.08E+02,-7774,3407,1303,-262,-66,72,1,7,11
3.09E+02,-7781,3421,1298,0,-46,92,1,7,11
3.09E+02,-7795,3428,1291,9,-32,127,1,7,11
3.09E+02,-7803,3438,1023,18,-26,-72,1,7,11
3.09E+02,-7795,3207,1007,34,-24,-46,1,7,11
3.10E+02,-7794,3239,1004,36,-12,-35,1,7,11
3.10E+02,-7556,3264,1008,16,-7,-33,1,7,11
3.10E+02,-7804,3275,1000,-258,-22,-39,1,7,11
3.10E+02,-7800,3280,992,-284,-36,-69,1,7,11
3.11E+02,-7799,3285,987,-291,-49,-110,1,7,11
3.11E+02,-7800,3291,981,-292,-55,106,1,7,11
3.11E+02,-7806,3278,993,-304,-57,72,1,7,11
3.11E+02,-7804,3265,997,-298,-65,41,1,7,11
3.12E+02,-7799,3249,989,-289,-67,15,1,7,11
3.12E+02,-7798,3232,998,-270,-68,2,1,7,11
3.12E+02,-7797,3226,995,11,-68,2,1,7,11
3.12E+02,-7792,3225,982,34,-70,16,1,7,11
3.13E+02,-7778,3228,982,40,-62,43,1,7,11
3.13E+02,-7767,3224,992,29,-38,76,1,7,11
3.13E+02,-7756,3211,999,16,-12,120,1,7,11
3.13E+02,-7745,3213,996,16,273,-80,1,7,11
3.14E+02,-7722,3230,984,15,317,-7,1,7,11
3.14E+02,-7691,3272,960,26,378,338,1,7,11
3.14E+02,-7401,3613,918,53,224,208,1,7,11
3.14E+02,-7364,3482,1111,64,385,398,1,7,11
3.15E+02,-7312,3510,1100,-319,864,665,1,7,11
3.15E+02,-7533,3674,1128,-246,1086,1129,1,7,11
3.15E+02,-7323,3315,910,-387,980,904,1,7,11
3.15E+02,-7379,3250,918,-457,1001,1025,1,7,11
3.16E+02,-7708,3214,904,-453,927,499,1,7,11
3.16E+02,-7791,3218,1135,-631,1040,182,1,7,11
3.16E+02,-7614,3245,1096,-254,865,-82,1,7,11
3.16E+02,-7665,3281,1050,-384,432,3,1,7,11
3.17E+02,-7940,3292,760,-259,531,-326,1,7,11
3.17E+02,-7676,3307,734,127,136,-349,1,7,11
3.17E+02,-7644,3319,714,-12,276,-350,1,7,11
3.17E+02,-7602,3587,703,333,-74,-350,1,7,11
3.18E+02,-7571,3612,693,144,100,-360,1,7,11
3.18E+02,-7793,3637,689,166,39,-359,1,7,11
3.18E+02,-7763,3637,697,162,-262,-350,1,7,11
3.18E+02,-7749,3647,700,145,-286,-339,1,7,11
3.19E+02,-7735,3652,693,362,-305,-319,1,7,11
3.19E+02,-7724,3631,706,316,-318,-304,1,7,11
3.19E+02,-7723,3609,713,-4,-330,-297,1,7,11
3.19E+02,-7723,3603,725,-27,-340,-292,1,7,11
3.20E+02,-7739,3599,736,-45,-342,-286,1,7,11
3.20E+02,-7750,3591,756,-56,-350,-266,1,7,11
3.20E+02,-7745,3323,754,-38,-365,10,1,7,11
3.20E+02,-7746,3588,753,-13,-363,24,1,7,11
3.21E+02,-7740,3604,749,259,-358,43,1,7,11
3.21E+02,-7698,3623,730,273,-360,70,1,7,11
3.21E+02,-7689,3624,732,-5,-327,75,1,7,11
3.21E+02,-7709,3616,761,-33,-291,80,1,7,11
3.22E+02,-7729,3621,1036,-38,-276,82,1,7,11
3.22E+02,-7739,3645,1026,-33,-281,92,1,7,11
3.22E+02,-7733,3648,1024,-55,-279,105,1,7,11
3.22E+02,-7725,3641,766,-82,-271,112,1,7,11
3.23E+02,-7713,3624,1030,-109,-267,105,1,7,11
3.23E+02,-7710,3621,1028,-116,-268,81,1,7,11
3.23E+02,-7694,3609,1031,-116,-266,54,1,7,11
3.23E+02,-7689,3603,1024,-107,1,24,1,7,11
3.24E+02,-7703,3608,1034,-103,22,-257,1,7,11
3.24E+02,-7720,3615,1039,-102,34,-273,1,7,11
3.24E+02,-7736,3630,1039,-106,38,-276,1,7,11
3.24E+02,-7743,3643,1034,-117,41,-275,1,7,11
3.25E+02,-7743,3643,1033,108,44,-265,1,7,11
3.25E+02,-7750,3638,1044,71,46,1,1,7,11
3.25E+02,-7746,3638,1058,42,40,15,1,7,11
3.25E+02,-7730,3627,1064,8,39,29,1,7,11
3.26E+02,-7724,3607,1093,-276,44,37,1,7,11
3.26E+02,-7730,3326,1118,-294,46,43,1,7,11
3.26E+02,-7730,3312,1123,-285,39,44,1,7,11
3.26E+02,-7727,3306,1107,-267,41,50,1,7,11
3.27E+02,-7733,3299,1102,3,68,65,1,7,11
3.27E+02,-7738,3297,1098,30,98,105,1,7,11
3.27E+02,-7742,3311,1086,58,-122,-101,1,7,11
3.27E+02,-7743,3321,1084,73,-94,-55,1,7,11
3.28E+02,-7739,3324,1078,79,-86,-23,1,7,11
3.28E+02,-7727,3591,1077,91,-98,-18,1,7,11
3.28E+02,-7705,3643,1048,88,-114,-39,1,7,11
3.28E+02,-7711,3667,1050,18,-118,-101,1,7,11
3.29E+02,-7723,3681,1050,-293,-123,114,1,7,11
3.29E+02,-7720,3669,1057,-345,-128,83,1,7,11
3.29E+02,-7723,3639,1076,-383,-128,63,1,7,11
3.29E+02,-7720,3622,1092,-132,125,50,1,7,11
3.30E+02,-7720,3597,1103,-374,113,44,1,7,11
3.30E+02,-7719,3586,1107,-338,105,38,1,7,11
3.30E+02,-7725,3318,1109,-307,99,34,1,7,11
3.30E+02,-7719,3296,1106,-270,95,30,1,7,11
3.31E+02,-7716,3279,1112,26,92,24,1,7,11
3.31E+02,-7722,3272,1107,71,92,18,1,7,11
3.31E+02,-7718,3283,1095,119,90,17,1,7,11
3.31E+02,-7713,3301,1080,-104,92,17,1,7,11
3.32E+02,-7720,3324,1073,-85,106,30,1,7,11
3.32E+02,-7736,3594,1069,-86,120,50,1,7,11
3.32E+02,-7741,3599,1077,-93,123,74,1,7,11
3.32E+02,-7700,3645,1063,92,-119,107,1,7,11
3.33E+02,-7703,3637,1066,53,-104,85,1,7,11
3.33E+02,-7770,3640,1065,49,-127,9,1,7,11
3.33E+02,-7768,3639,1081,46,118,21,1,7,11
3.33E+02,-7751,3635,1086,51,94,29,1,7,11
3.34E+02,-7720,3636,1085,50,77,24,1,7,11
3.34E+02,-7702,3632,1081,36,78,13,1,7,11
3.34E+02,-7704,3617,1089,18,92,-257,1,7,11
3.34E+02,-7701,3600,1092,15,102,-265,1,7,11
3.35E+02,-7701,3585,1089,12,117,-273,1,7,11
3.35E+02,-7710,3322,1090,18,-124,-280,1,7,11
3.35E+02,-7722,3316,1096,25,-115,-278,1,7,11
3.35E+02,-7725,3322,1092,29,-114,-273,1,7,11
3.36E+02,-7727,3326,1087,18,-113,-263,1,7,11
3.36E+02,-7725,3323,1088,-258,-112,5,1,7,11
3.36E+02,-7737,3310,1088,-279,-109,12,1,7,11
3.36E+02,-7739,3302,1092,-289,-116,22,1,7,11
3.37E+02,-7737,3294,1090,-290,-121,32,1,7,11
3.37E+02,-7740,3286,1098,-287,-112,42,1,7,11
3.37E+02,-7747,3285,1110,-279,-103,56,1,7,11
3.37E+02,-7752,3281,1118,-267,-97,70,1,7,11
3.38E+02,-7758,3275,1120,11,-97,75,1,7,11
3.38E+02,-7757,3278,1112,42,-100,73,1,7,11
3.38E+02,-7762,3285,1102,67,-99,68,1,7,11
3.38E+02,-7758,3313,1097,88,-101,59,1,7,11
3.39E+02,-7749,3589,1089,83,-105,51,1,7,11
3.39E+02,-7756,3597,1085,63,-103,43,1,7,11
3.39E+02,-7768,3587,1094,38,-106,39,1,7,11
3.39E+02,-7763,3314,1099,25,-119,39,1,7,11
3.40E+02,-7750,3295,1093,32,-126,36,1,7,11
3.40E+02,-7752,3278,1097,36,-123,33,1,7,11
3.40E+02,-7748,3275,1091,54,-124,29,1,7,11
3.40E+02,-7747,3270,1099,73,127,23,1,7,11
3.41E+02,-7751,3277,1091,94,118,17,1,7,11
3.41E+02,-7759,3278,1093,112,112,14,1,7,11
3.41E+02,-7760,3287,1086,-111,100,13,1,7,11
3.41E+02,-7766,3300,1077,-108,96,20,1,7,11
3.42E+02,-7760,3307,1070,-110,92,36,1,7,11
3.42E+02,-7747,3311,1062,-119,93,45,1,7,11
3.42E+02,-7745,3319,1066,98,108,58,1,7,11
3.42E+02,-7750,3318,1069,80,113,59,1,7,11
3.43E+02,-7762,3314,1081,68,115,55,1,7,11
3.43E+02,-7762,3315,1072,59,111,53,1,7,11
3.43E+02,-7748,3310,1075,54,105,49,1,7,11
3.43E+02,-7744,3304,1078,46,113,33,1,7,11
3.44E+02,-7754,3306,1080,35,124,20,1,7,11
3.44E+02,-7761,3301,1095,29,-121,16,1,7,11
3.44E+02,-7762,3298,1091,28,-119,17,1,7,11
3.44E+02,-7766,3292,1090,33,-114,21,1,7,11
3.45E+02,-7770,3296,1080,38,-116,24,1,7,11
3.45E+02,-7758,3291,1082,36,-127,31,1,7,11
3.45E+02,-7744,3282,1076,17,-122,27,1,7,11
3.45E+02,-7753,3260,1087,4,-113,21,1,7,11
3.46E+02,-7776,3253,1105,14,-111,20,1,7,11
3.46E+02,-7776,3251,1097,33,126,35,1,7,11
3.46E+02,-7770,3270,1088,52,116,41,1,7,11
3.46E+02,-7774,3282,1083,50,120,46,1,7,11
3.47E+02,-7784,3295,1093,41,122,47,1,7,11
3.47E+02,-7784,3291,1098,33,114,53,1,7,11
3.47E+02,-7773,3283,1093,35,100,58,1,7,11
3.47E+02,-7758,3292,1093,39,94,54,1,7,11
3.48E+02,-7754,3291,1092,30,99,46,1,7,11
3.48E+02,-7752,3281,1092,23,97,33,1,7,11
3.48E+02,-7744,3276,1090,24,94,16,1,7,11
3.48E+02,-7741,3273,1083,18,98,-260,1,7,11
3.49E+02,-7751,3267,1097,13,107,-274,1,7,11
3.49E+02,-7761,3270,1113,9,111,-271,1,7,11
3.49E+02,-7761,3261,1121,12,108,-258,1,7,11
3.49E+02,-7755,3253,1113,9,102,11,1,7,11
3.50E+02,-7748,3235,1115,-259,100,15,1,7,11
3.50E+02,-7752,3218,1122,-269,101,10,1,7,11
3.50E+02,-7758,3211,1117,-264,97,7,1,7,11
3.50E+02,-7764,3203,1112,-258,94,7,1,7,11
3.51E+02,-7769,3454,1105,14,104,16,1,7,11
3.51E+02,-7800,3203,1112,36,113,40,1,7,11
3.51E+02,-7554,3211,1119,60,118,97,1,7,11
3.51E+02,-7801,3226,1117,116,103,-121,1,7,11
3.52E+02,-7794,3229,1125,-114,92,-91,1,7,11
3.52E+02,-7776,3242,1120,-95,78,-78,1,7,11
3.52E+02,-7764,3267,1121,-87,68,-78,1,7,11
3.52E+02,-7751,3292,1121,-92,70,-89,1,7,11
3.53E+02,-7743,3311,1109,-115,79,-99,1,7,11
3.53E+02,-7740,3312,1107,115,97,-106,1,7,11
3.53E+02,-7747,3309,1111,85,119,-112,1,7,11
3.53E+02,-7757,3297,1120,70,-122,-118,1,7,11
3.54E+02,-7756,3294,1114,74,-119,-125,1,7,11
3.54E+02,-7760,3287,1123,74,-121,123,1,7,11
3.54E+02,-7763,3275,1135,81,-126,110,1,7,11
3.54E+02,-7765,3277,1138,89,124,95,1,7,11
3.55E+02,-7760,3275,1128,100,114,87,1,7,11
3.55E+02,-7764,3276,1118,115,108,76,1,7,11
3.55E+02,-7755,3285,1100,124,104,70,1,7,11
3.55E+02,-7754,3291,1098,122,108,76,1,7,11
3.56E+02,-7748,3294,1092,119,110,84,1,7,11
3.56E+02,-7747,3292,1098,107,115,96,1,7,11
3.56E+02,-7750,3289,1102,89,120,103,1,7,11
3.56E+02,-7759,3284,1105,79,121,105,1,7,11
3.57E+02,-7763,3276,1115,74,116,106,1,7,11
3.57E+02,-7764,3270,1124,74,106,105,1,7,11
3.57E+02,-7751,3280,1121,80,94,104,1,7,11
3.57E+02,-7753,3279,1117,75,92,98,1,7,11
3.58E+02,-7754,3275,1108,79,89,87,1,7,11
3.58E+02,-7758,3275,1109,86,85,69,1,7,11
3.58E+02,-7771,3283,1114,93,81,62,1,7,11
3.58E+02,-7768,3290,1110,102,71,61,1,7,11
3.59E+02,-7775,3293,1116,105,67,64,1,7,11
3.59E+02,-7780,3292,1132,112,63,65,1,7,11
3.59E+02,-7771,3293,1139,127,47,69,1,7,11
3.59E+02,-7765,3294,1143,-123,35,52,1,7,11
3.60E+02,-7767,3303,1133,-114,24,30,1,7,11
3.60E+02,-7748,3304,1120,-114,9,5,1,7,11
3.60E+02,-7738,3293,1111,-121,-273,-277,1,7,11
3.60E+02,-7751,3272,1126,109,-259,-327,1,7,11
3.61E+02,-7780,3266,1134,99,1,-334,1,7,11
3.61E+02,-7795,3280,1130,112,-258,-324,1,7,11
3.61E+02,-7795,3267,1122,118,-259,-291,1,7,11
3.61E+02,-7791,3257,1128,113,-257,6,1,7,11
3.62E+02,-7786,3243,1146,112,-264,44,1,7,11
3.62E+02,-7775,3227,896,113,-279,66,1,7,11
3.62E+02,-7758,3213,1149,-128,-292,72,1,7,11
3.62E+02,-7736,3215,896,-115,-295,78,1,7,11
3.63E+02,-7728,3221,1148,-106,-281,88,1,7,11
3.63E+02,-7736,3235,897,-106,4,110,1,7,11
3.63E+02,-7749,3240,914,-107,32,-102,1,7,11
3.63E+02,-7761,3250,932,-103,58,-43,1,7,11
3.64E+02,-7763,3272,958,-87,80,295,1,7,11
3.64E+02,-7760,3298,980,-73,89,138,1,7,11
3.64E+02,-7719,3315,984,-75,86,237,1,7,11
3.64E+02,-7415,3327,958,-97,96,553,1,7,11
3.65E+02,-7380,3325,946,127,126,571,1,7,11
3.65E+02,-7364,3325,947,100,-83,544,1,7,11
3.65E+02,-7378,3598,932,99,-34,246,1,7,11
3.65E+02,-7393,3607,923,91,267,197,1,7,11
3.66E+02,-7421,3617,919,96,307,138,1,7,11
3.66E+02,-7713,3644,912,121,330,336,1,7,11
3.66E+02,-7737,3660,902,-110,318,286,1,7,11
3.66E+02,-7745,3690,1144,-81,291,-22,1,7,11
3.67E+02,-7748,3463,1127,-79,259,-69,1,7,11
3.67E+02,-7748,3487,1108,-86,-25,-117,1,7,11
3.67E+02,-7740,3513,1095,-108,-48,100,1,7,11
3.67E+02,-7740,3525,1096,111,-60,75,1,7,11
3.68E+02,-7733,3527,1105,63,-64,69,1,7,11
3.68E+02,-7728,3525,1128,15,-74,76,1,7,11
3.68E+02,-7714,3519,1136,-283,-87,87,1,7,11
3.68E+02,-7421,3492,901,-355,-99,99,1,7,11
3.69E+02,-7387,3470,901,-131,-103,90,1,7,11
3.69E+02,-7359,3710,905,-158,-89,63,1,7,11
3.69E+02,-7346,3670,900,-182,-56,45,1,7,11
3.69E+02,-7336,3631,908,-178,-17,26,1,7,11
3.70E+02,-7351,3327,1148,-162,285,9,1,7,11
3.70E+02,-7355,3319,1136,-374,329,-266,1,7,11
3.70E+02,-7388,3310,1122,-296,374,-282,1,7,11
3.70E+02,-7418,3321,1102,17,132,-292,1,7,11
3.71E+02,-7698,3606,1085,58,133,-286,1,7,11
3.71E+02,-7709,3616,1058,79,129,-274,1,7,11
3.71E+02,-7728,3628,1036,94,376,-262,1,7,11
3.71E+02,-7743,3642,1024,99,362,8,1,7,11
3.72E+02,-7751,3655,756,104,341,12,1,7,11
3.72E+02,-7760,3668,740,99,322,14,1,7,11
3.72E+02,-7769,3675,728,87,301,23,1,7,11
3.72E+02,-7779,3671,715,78,284,30,1,7,11
3.73E+02,-7791,3671,708,73,266,33,1,7,11
3.73E+02,-7802,3667,711,72,-16,38,1,7,11
3.73E+02,-7555,3670,703,82,-53,36,1,7,11
3.73E+02,-7568,3678,696,89,-92,26,1,7,11
3.74E+02,-7590,3689,677,94,-123,10,1,7,11
3.74E+02,-7615,3473,654,99,109,-265,1,7,11
3.74E+02,-7675,3498,664,77,86,-292,1,7,11
3.74E+02,-7964,3521,665,64,26,-324,1,7,11
3.75E+02,-7960,3527,667,37,-315,-368,1,7,11
3.75E+02,-7679,3506,685,9,-159,-173,1,7,11
3.75E+02,-7640,3478,697,-275,-516,-249,1,7,11
3.75E+02,-7601,3689,723,-312,-600,-573,1,7,11
3.76E+02,-7804,3626,1031,-340,-417,-618,1,7,11
3.76E+02,-7754,3301,1081,-352,-470,-388,1,7,11
3.76E+02,-7708,3239,1124,-344,-499,-399,1,7,11
3.76E+02,-7419,3440,908,-324,-510,-388,1,7,11
3.77E+02,-7379,3389,925,-297,-507,-626,1,7,11
3.77E+02,-7356,3351,951,-270,-491,-604,1,7,11
3.77E+02,-7347,3039,996,8,-468,-580,1,7,11
3.77E+02,-7343,3005,1023,57,-445,-560,1,7,11
3.78E+02,-7349,2986,1302,108,-426,-540,1,7,11
3.78E+02,-7372,2978,1322,-107,-409,-256,1,7,11
3.78E+02,-7406,3004,1333,-64,-400,-210,1,7,11
3.78E+02,-7719,3024,1348,-63,-394,-144,1,7,11
3.79E+02,-7742,3070,1350,-36,-423,-336,1,7,11
3.79E+02,-7717,3355,1347,-39,-443,-310,1,7,11
3.79E+02,-7722,3395,1355,-11,-424,-303,1,7,11
3.79E+02,-7728,3206,1357,261,-634,-287,1,7,11
3.80E+02,-7759,3260,1367,260,-571,0,1,7,11
3.80E+02,-7806,3311,1384,-24,-521,23,1,7,11
3.80E+02,-7571,3598,1161,-78,-251,57,1,7,11
3.80E+02,-7563,3622,1166,118,-250,79,1,7,11
3.81E+02,-7553,3627,1173,45,-232,86,1,7,11
3.81E+02,-7556,3615,1187,-291,-204,84,1,7,11
3.81E+02,-7556,3599,1191,-356,-178,80,1,7,11
3.81E+02,-7554,3313,1204,-164,-152,83,1,7,11
3.82E+02,-7796,3269,1217,-202,-382,96,1,7,11
3.82E+02,-7777,3225,1229,-219,-345,105,1,7,11
3.82E+02,-7764,3436,1262,-219,-303,88,1,7,11
3.82E+02,-7760,3407,1277,-185,-265,61,1,7,11
3.83E+02,-7753,3383,1559,-138,17,36,1,7,11
3.83E+02,-7740,3380,1563,-336,33,20,1,7,11
3.83E+02,-7732,3387,1565,-291,50,16,1,7,11
3.83E+02,-7721,3393,1566,-257,70,18,1,7,11
3.84E+02,-7710,3413,1562,18,93,26,1,7,11
3.84E+02,-7707,3440,1549,21,120,38,1,7,11
3.84E+02,-7704,3218,1540,15,-99,57,1,7,11
3.84E+02,-7710,3250,1537,-267,-59,77,1,7,11
3.85E+02,-7745,3275,1555,-299,-11,94,1,7,11
3.85E+02,-7786,3299,1581,-302,281,123,1,7,11
3.85E+02,-7801,3607,1585,-263,298,-103,1,7,11
3.85E+02,-7555,3678,1585,16,323,-86,1,7,11
3.86E+02,-7587,3495,1581,20,349,-81,1,7,11
3.86E+02,-7571,3584,1273,-262,371,-89,1,7,11
3.86E+02,-7777,3897,1174,-304,150,124,1,7,11
3.86E+02,-7711,3581,1158,-190,237,20,1,7,11
3.87E+02,-7696,3474,1401,-613,596,-289,1,7,11
3.87E+02,-7702,3664,1155,-475,410,-167,1,7,11
3.87E+02,-7701,3287,1407,-787,436,-561,1,7,11
3.87E+02,-7713,3434,1159,-801,437,-461,1,7,11
3.88E+02,-7740,3343,1156,-776,415,-838,1,7,11
3.88E+02,-7729,3027,1396,-481,626,-645,1,7,11
3.88E+02,-7721,3196,1395,-466,611,-664,1,7,11
3.88E+02,-7708,3167,1366,-449,605,-656,1,7,11
3.89E+02,-7697,3099,1349,-468,618,-851,1,7,11
3.89E+02,-7724,2776,1350,-493,399,-832,1,7,11
3.89E+02,-7758,2701,1349,-510,441,-791,1,7,11
3.89E+02,-7780,2939,1331,-471,470,-487,1,7,11
3.90E+02,-7565,2896,1327,-416,493,-419,1,7,11
3.90E+02,-7632,2883,1314,-609,504,-589,1,7,11
3.90E+02,-7674,2850,1337,-552,507,-173,1,7,11
3.90E+02,-7954,2853,1331,-195,479,-329,1,7,11
3.91E+02,-7970,2860,1306,-322,406,43,1,7,11
3.91E+02,-7977,2837,1285,78,621,-87,1,7,11
3.91E+02,-7973,2843,1012,-69,576,262,1,7,11
3.91E+02,-7976,2876,990,33,523,321,1,7,11
3.92E+02,-7982,2930,963,368,210,340,1,7,11
3.92E+02,-7982,2723,927,170,153,348,1,7,11
3.92E+02,-7982,2774,1144,219,358,336,1,7,11
3.92E+02,-7995,3084,1112,248,319,299,1,7,11
3.93E+02,-8004,3152,1089,519,283,277,1,7,11
3.93E+02,-8016,2965,1069,521,-5,266,1,7,11
3.93E+02,-8015,3015,1057,221,-45,258,1,7,11
3.93E+02,-8000,3034,1054,162,-84,-10,1,7,11
3.94E+02,-7970,3057,1030,375,-123,-34,1,7,11
3.94E+02,-7959,3338,764,307,121,-64,1,7,11
3.94E+02,-7959,3069,1027,-33,109,-86,1,7,11
3.94E+02,-7951,3064,1025,-86,92,-107,1,7,11
3.95E+02,-7942,3054,1038,112,72,125,1,7,11
3.95E+02,-7673,3023,1057,73,53,99,1,7,11
3.95E+02,-7652,2997,1067,54,33,72,1,7,11
3.95E+02,-7644,2966,1084,41,18,37,1,7,11
3.96E+02,-7627,2954,1087,56,-265,8,1,7,11
3.96E+02,-7621,3196,1102,68,-271,-265,1,7,11
3.96E+02,-7604,2945,1101,91,-275,-268,1,7,11
3.96E+02,-7599,2948,1104,98,-263,-260,1,7,11
3.97E+02,-7598,2947,1120,101,9,5,1,7,11
3.97E+02,-7608,3192,1149,104,29,21,1,7,11
3.97E+02,-7620,2961,914,-121,29,41,1,7,11
3.97E+02,-7636,3006,918,-103,13,78,1,7,11
3.98E+02,-7637,3056,919,-99,-266,-124,1,7,11
3.98E+02,-7636,3357,905,-126,-283,-62,1,7,11
3.98E+02,-7637,3413,1142,85,-302,258,1,7,11
3.98E+02,-7625,3433,1138,-266,-321,323,1,7,11
3.99E+02,-7621,3426,1128,-382,-349,330,1,7,11
3.99E+02,-7622,3384,1126,-247,-135,-2,1,7,11
3.99E+02,-7624,3067,1140,-545,-158,-98,1,7,11
3.99E+02,-7636,3042,900,-516,-170,61,1,7,11
4.00E+02,-7624,3001,926,-217,-183,-284,1,7,11
4.00E+02,-7612,2966,951,-378,-182,-369,1,7,11
4.00E+02,-7614,2950,970,-278,-160,-169,1,7,11
4.00E+02,-7617,3168,1001,76,-143,-204,1,7,11
4.01E+02,-7611,3164,1023,-49,-382,-232,1,7,11
4.01E+02,-7606,3174,1291,302,-352,-219,1,7,11
4.01E+02,-7615,3163,1308,346,-317,-177,1,7,11
4.01E+02,-7617,3158,1312,136,-300,-379,1,7,11
4.02E+02,-7620,3176,1315,165,-302,-332,1,7,11
4.02E+02,-7623,3192,1311,160,-314,-289,1,7,11
4.02E+02,-7596,2959,1293,373,-332,22,1,7,11
4.02E+02,-7590,2979,1296,289,-326,87,1,7,11
4.03E+02,-7605,3009,1309,-64,-308,-100,1,7,11
4.03E+02,-7619,3026,1312,98,-294,260,1,7,11
4.03E+02,-7628,3026,1318,-267,-282,295,1,7,11
4.03E+02,-7626,3028,1332,-334,-277,315,1,7,11
4.04E+02,-7620,3034,1354,-366,-281,319,1,7,11
4.04E+02,-7606,3037,1370,-148,-285,315,1,7,11
4.04E+02,-7589,3030,1381,-177,-295,283,1,7,11
4.04E+02,-7566,3027,1376,-177,-296,-18,1,7,11
4.05E+02,-7804,3007,1375,-180,-277,-74,1,7,11
4.05E+02,-7802,3013,1387,-142,12,108,1,7,11
4.05E+02,-7803,3023,1393,-352,41,45,1,7,11
4.05E+02,-7562,3030,1386,-312,70,-270,1,7,11
4.06E+02,-7582,3041,1381,-270,98,-310,1,7,11
4.06E+02,-7594,3058,1376,32,124,-325,1,7,11
4.06E+02,-7607,3069,1372,72,-102,-324,1,7,11
4.06E+02,-7605,3346,1341,109,-79,-313,1,7,11
4.07E+02,-7621,3343,1331,114,-42,-293,1,7,11
4.07E+02,-7621,3065,1332,118,-15,-257,1,7,11
4.07E+02,-7632,3043,1345,127,-11,34,1,7,11
4.07E+02,-7636,3033,1342,-123,-26,68,1,7,11
4.08E+02,-7632,3022,1335,-128,-51,92,1,7,11
4.08E+02,-7631,3038,1328,-116,-79,103,1,7,11
4.08E+02,-7627,3064,1322,-125,-99,125,1,7,11
4.08E+02,-7627,3065,1321,99,-108,-88,1,7,11
4.09E+02,-7622,3044,1324,61,-106,-61,1,7,11
4.09E+02,-7622,3006,1346,43,-95,-80,1,7,11
4.09E+02,-7585,3002,1334,66,-107,-123,1,7,11
4.09E+02,-7606,3012,1350,72,-93,93,1,7,11
4.10E+02,-7600,3010,1354,58,-95,51,1,7,11
4.10E+02,-7599,3013,1348,64,-93,12,1,7,11
4.10E+02,-7573,3062,1324,76,-90,0,1,7,11
4.10E+02,-7581,3041,1336,31,-53,19,1,7,11
4.11E+02,-7565,2999,1329,15,-47,40,1,7,11
4.11E+02,-7574,3005,1335,12,-18,56,1,7,11
4.11E+02,-7589,2995,1325,11,-10,47,1,7,11
4.11E+02,-7604,2997,1319,-264,263,45,1,7,11
4.12E+02,-7610,2997,1320,-269,266,36,1,7,11
4.12E+02,-7620,2969,1320,-279,269,28,1,7,11
4.12E+02,-7605,2987,1291,6,-5,25,1,7,11
4.12E+02,-7606,2985,1289,12,261,32,1,7,11
4.13E+02,-7619,2989,1287,20,274,41,1,7,11
4.13E+02,-7628,2979,1285,23,277,52,1,7,11
4.13E+02,-7633,2964,1018,40,265,56,1,7,11
4.13E+02,-7647,2967,1019,55,-4,58,1,7,11
4.14E+02,-7650,2958,1015,57,-30,60,1,7,11
4.14E+02,-7634,3197,1007,45,-62,58,1,7,11
4.14E+02,-7615,2956,988,64,-99,37,1,7,11
4.14E+02,-7620,2952,998,60,-99,19,1,7,11
4.15E+02,-7637,2950,1005,62,-103,17,1,7,11
4.15E+02,-7645,2970,990,100,-114,26,1,7,11
4.15E+02,-7646,2960,990,105,-117,44,1,7,11
4.15E+02,-7657,2954,1006,119,126,43,1,7,11
4.16E+02,-7648,2982,999,-111,96,45,1,7,11
4.16E+02,-7634,2988,1000,-105,82,65,1,7,11
4.16E+02,-7632,2996,1003,-109,69,72,1,7,11
4.16E+02,-7616,2996,995,-110,56,81,1,7,11
4.17E+02,-7612,3001,997,-127,51,75,1,7,11
4.17E+02,-7610,3001,1004,113,51,63,1,7,11
4.17E+02,-7605,3005,1007,97,50,53,1,7,11
4.17E+02,-7605,2994,1004,78,55,47,1,7,11
4.18E+02,-7608,2995,1009,69,63,45,1,7,11
4.18E+02,-7608,2995,1016,69,59,48,1,7,11
4.18E+02,-7604,3001,1016,63,60,51,1,7,11
4.18E+02,-7612,3001,1286,52,68,60,1,7,11
4.19E+02,-7630,2989,1305,41,78,66,1,7,11
4.19E+02,-7646,2972,1313,44,72,80,1,7,11
4.19E+02,-7643,2966,1299,62,60,86,1,7,11
4.19E+02,-7639,2967,1293,90,56,83,1,7,11
4.20E+02,-7637,2969,1293,116,55,80,1,7,11
4.20E+02,-7636,2988,1292,-114,52,77,1,7,11
4.20E+02,-7633,2991,1297,-105,52,77,1,7,11
4.20E+02,-7623,2993,1302,-97,44,70,1,7,11
4.21E+02,-7608,2997,1302,-92,42,53,1,7,11
4.21E+02,-7604,3000,1296,-101,48,44,1,7,11
4.21E+02,-7595,2998,1300,-121,51,42,1,7,11
4.21E+02,-7600,3003,1310,115,55,37,1,7,11
4.22E+02,-7601,2995,1323,93,56,32,1,7,11
4.22E+02,-7600,2983,1321,69,50,25,1,7,11
4.22E+02,-7603,2972,1339,55,48,12,1,7,11
4.22E+02,-7602,2960,1345,38,51,7,1,7,11
4.23E+02,-7594,2962,1339,44,48,0,1,7,11
4.23E+02,-7589,2959,1330,46,61,-259,1,7,11
4.23E+02,-7601,2963,1335,52,79,-257,1,7,11
4.23E+02,-7602,2960,1335,57,93,4,1,7,11
4.24E+02,-7597,2960,1334,62,97,4,1,7,11
4.24E+02,-7609,2958,1328,80,112,-259,1,7,11
4.24E+02,-7614,2967,1325,106,-121,0,1,7,11
4.24E+02,-7613,2969,1314,104,-110,7,1,7,11
4.25E+02,-7609,2962,1301,100,-109,-264,1,7,11
4.25E+02,-7608,2954,1307,89,-106,-284,1,7,11
4.25E+02,-7621,3197,1305,74,-104,-308,1,7,11
4.25E+02,-7637,3190,1304,75,-109,-328,1,7,11
4.26E+02,-7647,3187,1292,85,-116,-347,1,7,11
4.26E+02,-7663,2947,1293,108,-114,-360,1,7,11
4.26E+02,-7671,2957,1282,102,-109,-346,1,7,11
4.26E+02,-7674,2946,1290,92,-107,-308,1,7,11
4.27E+02,-7664,3186,1303,81,126,-287,1,7,11
4.27E+02,-7659,3180,1286,83,108,-285,1,7,11
4.27E+02,-7656,3176,1292,82,99,-295,1,7,11
4.27E+02,-7652,3183,1299,85,87,-301,1,7,11
4.28E+02,-7641,3177,1289,84,84,-300,1,7,11
4.28E+02,-7641,3179,1283,76,95,-295,1,7,11
4.28E+02,-7645,3176,1296,64,101,-289,1,7,11
4.28E+02,-7656,3173,1306,58,107,-295,1,7,11
4.29E+02,-7666,3175,1307,50,98,-293,1,7,11
4.29E+02,-7656,3168,1309,39,81,-291,1,7,11
4.29E+02,-7650,3158,1318,19,68,-299,1,7,11
4.29E+02,-7659,3152,1315,12,59,-314,1,7,11
4.30E+02,-7658,3135,1321,-262,44,-309,1,7,11
4.30E+02,-7644,3113,1332,-260,43,-301,1,7,11
4.30E+02,-7637,3104,1337,11,53,-298,1,7,11
4.30E+02,-7638,3098,1343,29,62,-292,1,7,11
4.31E+02,-7635,3101,1345,58,72,-284,1,7,11
4.31E+02,-7630,3104,1352,81,72,-283,1,7,11
4.31E+02,-7635,3099,1348,106,74,-286,1,7,11
4.31E+02,-7649,3103,1344,-125,81,-292,1,7,11
4.32E+02,-7666,3105,1354,-109,86,-294,1,7,11
4.32E+02,-7947,3119,1354,-85,91,-286,1,7,11
4.32E+02,-7954,3132,1341,-75,90,-264,1,7,11
4.32E+02,-7947,3128,1334,-84,98,25,1,7,11
4.33E+02,-7947,3130,1330,-87,107,70,1,7,11
4.33E+02,-7942,3135,1323,-104,113,115,1,7,11
4.33E+02,-7939,3130,1327,117,111,-108,1,7,11
4.33E+02,-7680,3136,1327,89,101,-91,1,7,11
4.34E+02,-7666,3138,1325,60,93,-88,1,7,11
4.34E+02,-7657,3127,1335,29,100,-102,1,7,11
4.34E+02,-7649,3123,1334,13,107,-120,1,7,11
4.34E+02,-7642,3100,1341,1,127,126,1,7,11
4.35E+02,-7637,3092,1346,14,-115,118,1,7,11
4.35E+02,-7636,3088,1349,40,-106,110,1,7,11
4.35E+02,-7643,3096,1348,64,-87,112,1,7,11
4.35E+02,-7654,3112,1352,83,-72,113,1,7,11
4.36E+02,-7655,3123,1350,90,-68,126,1,7,11
4.36E+02,-7651,3128,1347,98,-60,-116,1,7,11
4.36E+02,-7650,3140,1344,106,-53,-107,1,7,11
4.36E+02,-7658,3145,1335,108,-49,-91,1,7,11
4.37E+02,-7639,3157,1316,109,-57,-88,1,7,11
4.37E+02,-7653,3156,1310,88,-44,-106,1,7,11
4.37E+02,-7672,3168,1324,81,-49,-119,1,7,11
4.37E+02,-7945,3176,1318,86,-70,127,1,7,11
4.38E+02,-7952,2944,1296,97,-88,-128,1,7,11
4.38E+02,-7949,3198,1305,80,-98,-112,1,7,11
4.38E+02,-7678,3192,1301,75,-109,-104,1,7,11
4.38E+02,-7667,3182,1301,68,-115,-106,1,7,11
4.39E+02,-7646,3158,1297,72,-126,-117,1,7,11
4.39E+02,-7631,3149,1294,84,126,113,1,7,11
4.39E+02,-7632,3149,1300,89,-121,79,1,7,11
4.39E+02,-7633,3158,1291,105,-112,55,1,7,11
4.40E+02,-7638,3167,1285,116,-110,46,1,7,11
4.40E+02,-7644,3159,1293,109,-100,40,1,7,11
4.40E+02,-7654,3148,1297,96,-91,43,1,7,11
4.40E+02,-7669,3150,1301,92,-90,53,1,7,11
4.41E+02,-7663,3141,1282,92,-109,70,1,7,11
4.41E+02,-7648,3131,1017,93,120,75,1,7,11
4.41E+02,-7650,3131,1282,90,110,72,1,7,11
4.41E+02,-7657,3122,1288,85,101,82,1,7,11
4.42E+02,-7652,3126,1285,103,89,91,1,7,11
4.42E+02,-7659,3154,1288,125,95,101,1,7,11
4.42E+02,-7665,3182,1298,-128,106,126,1,7,11
4.42E+02,-7669,2948,1301,122,116,-107,1,7,11
4.43E+02,-7668,2952,1304,101,113,-86,1,7,11
4.43E+02,-7660,2950,1301,92,108,-75,1,7,11
4.43E+02,-7657,2950,1315,86,105,-80,1,7,11
4.43E+02,-7648,2956,1311,91,99,-91,1,7,11
4.44E+02,-7648,2948,1315,91,99,-114,1,7,11
4.44E+02,-7653,2951,1309,106,96,119,1,7,11
4.44E+02,-7663,2961,1304,115,99,101,1,7,11
4.44E+02,-7665,2965,1302,110,97,86,1,7,11
4.45E+02,-7656,2965,1299,105,93,77,1,7,11
4.45E+02,-7645,2958,1299,95,90,72,1,7,11
4.45E+02,-7642,2952,1309,80,90,67,1,7,11
4.45E+02,-7630,3193,1317,75,82,66,1,7,11
4.46E+02,-7626,3184,1320,75,82,56,1,7,11
4.46E+02,-7617,3173,1321,78,83,54,1,7,11
4.46E+02,-7610,3185,1323,82,91,45,1,7,11
4.46E+02,-7611,3186,1317,70,101,37,1,7,11
4.47E+02,-7598,3181,1313,59,119,39,1,7,11
4.47E+02,-7595,3170,1313,43,-118,40,1,7,11
4.47E+02,-7608,3164,1314,37,-101,41,1,7,11
4.47E+02,-7625,3165,1313,36,-95,45,1,7,11
4.48E+02,-7634,3168,1316,41,-99,56,1,7,11
4.48E+02,-7646,3166,1315,41,-107,69,1,7,11
4.48E+02,-7650,3179,1311,45,-116,92,1,7,11
4.48E+02,-7656,3176,1307,45,-116,118,1,7,11
4.49E+02,-7657,3171,1299,62,-118,-110,1,7,11
4.49E+02,-7654,3166,1289,78,-113,-94,1,7,11
4.49E+02,-7672,3169,1288,108,-98,-92,1,7,11
4.49E+02,-7949,3194,1300,-115,-97,-93,1,7,11
4.50E+02,-7946,2957,1021,-88,-120,-84,1,7,11
4.50E+02,-7660,2977,1002,-78,110,-84,1,7,11
4.50E+02,-7644,2991,1008,-97,106,-95,1,7,11
4.50E+02,-7670,3006,1289,-126,105,-112,1,7,11
4.51E+02,-7678,3016,1294,121,79,-97,1,7,11
4.51E+02,-7663,3027,1022,117,51,-64,1,7,11
4.51E+02,-7945,3016,1297,91,58,-7,1,7,11
4.51E+02,-7675,3009,1294,71,52,286,1,7,11
4.52E+02,-7658,3020,1290,88,14,269,1,7,11
4.52E+02,-7616,3024,1010,104,-6,-43,1,7,11
4.52E+02,-7587,3038,996,127,-260,-119,1,7,11
4.52E+02,-7596,3067,996,-109,15,76,1,7,11
4.53E+02,-7621,3070,1281,-110,19,95,1,7,11
4.53E+02,-7638,3068,1308,-117,6,-115,1,7,11
4.53E+02,-7628,3038,1330,-124,-276,-52,1,7,11
4.53E+02,-7602,3017,1331,-118,-309,267,1,7,11
4.54E+02,-7580,3011,1343,-126,-329,296,1,7,11
4.54E+02,-7806,2995,1346,117,-353,329,1,7,11
4.54E+02,-7756,2991,1346,108,-358,339,1,7,11
4.54E+02,-7737,2984,1363,74,-336,330,1,7,11
4.55E+02,-7754,2967,1373,46,-292,318,1,7,11
4.55E+02,-7745,2967,1381,46,-267,320,1,7,11
4.55E+02,-7753,2972,1399,48,13,320,1,7,11
4.55E+02,-7764,2983,1401,69,27,334,1,7,11
4.56E+02,-7761,3005,1392,91,34,362,1,7,11
4.56E+02,-7754,3024,1387,105,52,133,1,7,11
4.56E+02,-7760,3052,1378,122,81,152,1,7,11
4.56E+02,-7776,3063,1387,-124,118,186,1,7,11
4.57E+02,-7790,3343,1392,-97,-116,201,1,7,11
4.57E+02,-7554,3389,1397,-85,-105,207,1,7,11
4.57E+02,-7554,3421,1395,-97,-111,202,1,7,11
4.57E+02,-7556,3448,1400,-123,-126,183,1,7,11
4.58E+02,-7806,3449,1400,72,126,167,1,7,11
4.58E+02,-7764,3435,1388,28,114,152,1,7,11
4.58E+02,-7750,3444,1387,14,113,352,1,7,11
4.58E+02,-7747,3452,1377,-257,110,309,1,7,11
4.59E+02,-7754,3200,1373,-275,-117,280,1,7,11
4.59E+02,-7766,3209,1378,-302,-73,278,1,7,11
4.59E+02,-7791,3444,1393,-320,-40,285,1,7,11
4.59E+02,-7800,3425,1395,-298,-31,303,1,7,11
4.60E+02,-7553,3409,1406,22,-53,306,1,7,11
4.60E+02,-7557,3438,1398,115,-85,299,1,7,11
4.60E+02,-7562,3208,1382,-80,-91,311,1,7,11
4.60E+02,-7553,3223,1368,-38,-98,324,1,7,11
4.61E+02,-7800,3231,1374,-4,-114,313,1,7,11
4.61E+02,-7779,3265,1349,291,118,295,1,7,11
4.61E+02,-7758,3290,1332,294,125,275,1,7,11
4.61E+02,-7722,3304,1318,268,-116,271,1,7,11
4.62E+02,-7696,3312,1303,-34,-85,258,1,7,11
4.62E+02,-7413,3305,1300,-73,-55,-11,1,7,11
4.62E+02,-7386,3285,1292,-100,-29,-27,1,7,11
4.62E+02,-7363,3270,1017,-104,-13,-49,1,7,11
4.63E+02,-7367,3260,1008,-85,258,-94,1,7,11
4.63E+02,-7385,3278,991,-30,258,115,1,7,11
4.63E+02,-7411,3287,1004,-14,289,117,1,7,11
4.63E+02,-7701,3310,999,271,300,117,1,7,11
4.64E+02,-7730,3604,979,299,289,-127,1,7,11
4.64E+02,-7760,3660,959,297,273,-121,1,7,11
4.64E+02,-7794,3702,945,264,-5,-117,1,7,11
4.64E+02,-7559,3467,961,-31,-58,119,1,7,11
4.65E+02,-7575,3511,933,-51,-123,63,1,7,11
4.65E+02,-7630,3530,927,109,102,22,1,7,11
4.65E+02,-7657,3507,933,23,47,6,1,7,11
4.65E+02,-7941,3485,948,-307,1,-290,1,7,11
4.66E+02,-7959,3705,971,-365,-301,-313,1,7,11
4.66E+02,-7962,3671,991,-133,-366,-323,1,7,11
4.66E+02,-7944,3629,1289,-156,-178,-323,1,7,11
4.66E+02,-7621,3592,1297,-149,-249,-315,1,7,11
4.67E+02,-7796,3283,1312,-157,-555,-306,1,7,11
4.67E+02,-7718,3229,1349,-156,-579,-309,1,7,11
4.67E+02,-7401,3438,1363,-150,-595,-320,1,7,11
4.67E+02,-7331,3400,1389,-134,-606,-317,1,7,11
4.68E+02,-7316,3380,1161,-373,-593,-317,1,7,11
4.68E+02,-7549,3362,1198,-335,-590,-293,1,7,11
4.68E+02,-7297,3399,1187,6,-591,-289,1,7,11
4.68E+02,-7308,3431,1193,13,-536,9,1,7,11
4.69E+02,-7330,3240,1205,35,-209,30,1,7,11
4.69E+02,-7358,3616,1211,61,-381,35,1,7,11
4.69E+02,-7384,3539,1200,57,-280,41,1,7,11
4.69E+02,-7388,3960,1216,-291,58,44,1,7,11
4.70E+02,-7346,3821,1201,-252,-81,41,1,7,11
4.70E+02,-7333,3792,1250,-852,362,38,1,7,11
4.70E+02,-7311,3958,1538,-1132,554,-286,1,7,11
4.70E+02,-7319,3570,1583,-1360,503,-159,1,7,11
4.71E+02,-7355,3554,1608,-1235,696,-551,1,7,11
4.71E+02,-7416,3381,1599,-1236,1147,-475,1,7,11
4.71E+02,-7696,2965,1582,-1398,979,-839,1,7,11
4.71E+02,-7736,3097,1570,-1111,1281,-669,1,7,11
4.72E+02,-7762,2757,1273,-846,1003,-722,1,7,11
4.72E+02,-7768,2703,1212,-578,938,-747,1,7,11
4.72E+02,-7795,2926,1159,-323,1113,-751,1,7,11
4.72E+02,-7579,2914,1364,-96,765,-722,1,7,11
4.73E+02,-7644,2933,1303,361,656,-654,1,7,11
4.73E+02,-7953,2709,991,525,792,-810,1,7,11
4.73E+02,-8000,2770,932,416,410,-434,1,7,11
4.73E+02,-8028,3115,1116,772,556,-557,1,7,11
4.74E+02,-8043,2949,1064,809,200,-166,1,7,11
4.74E+02,-7810,3035,1027,770,368,-293,1,7,11
4.74E+02,-7811,3338,763,420,262,70,1,7,11
4.74E+02,-7817,3400,729,583,-105,119,1,7,11
4.75E+02,-7813,3430,728,142,78,-85,1,7,11
4.75E+02,-8059,3407,764,-33,6,-52,1,7,11
4.75E+02,-8043,3363,1039,95,-306,-48,1,7,11
4.75E+02,-8030,3051,1073,13,-342,-65,1,7,11
4.76E+02,-8009,3002,1107,-259,-375,-78,1,7,11
4.76E+02,-7961,2967,1130,24,-150,-98,1,7,11
4.76E+02,-7664,3198,1146,79,-160,-121,1,7,11
4.76E+02,-7614,3173,897,-117,-163,114,1,7,11
4.77E+02,-7577,3156,908,-48,-160,86,1,7,11
4.77E+02,-7556,3149,932,278,-151,47,1,7,11
4.77E+02,-7556,3169,940,352,-143,12,1,7,11
4.77E+02,-7562,3196,942,147,-135,-272,1,7,11
4.78E+02,-7582,2974,948,169,-381,-291,1,7,11
4.78E+02,-7597,3002,946,167,-379,-293,1,7,11
4.78E+02,-7622,3038,945,145,-372,-284,1,7,11
4.78E+02,-7636,3053,952,342,-371,4,1,7,11
4.79E+02,-7643,3058,956,284,-377,25,1,7,11
4.79E+02,-7634,3064,947,-29,-139,29,1,7,11
4.79E+02,-7622,3060,941,-96,-149,15,1,7,11
4.79E+02,-7622,3046,947,93,-146,-279,1,7,11
4.80E+02,-7614,3027,956,39,-153,-304,1,7,11
4.80E+02,-7554,3005,941,-261,-164,-320,1,7,11
4.80E+02,-7795,2967,940,-297,-149,-370,1,7,11
4.80E+02,-7571,3186,964,-339,-344,-143,1,7,11
4.81E+02,-7625,3167,999,-328,-293,-147,1,7,11
4.81E+02,-7651,3164,1005,-281,-265,-382,1,7,11
4.81E+02,-7662,3171,997,35,20,-346,1,7,11
4.81E+02,-7671,3181,997,89,59,-294,1,7,11
4.82E+02,-7672,3198,995,-102,91,37,1,7,11
4.82E+02,-7671,2963,993,-63,109,108,1,7,11
4.82E+02,-7656,2972,993,-32,113,-80,1,7,11
4.82E+02,-7663,2999,987,-36,119,-46,1,7,11
4.83E+02,-7671,3018,990,-65,114,-29,1,7,11
4.83E+02,-7666,3049,1004,-109,90,-25,1,7,11
4.83E+02,-7670,3328,1011,99,55,-63,1,7,11
4.83E+02,-7660,3061,1020,28,-2,-87,1,7,11
4.84E+02,-7650,3050,1294,-327,-298,125,1,7,11
4.84E+02,-7650,3030,1310,-379,-327,89,1,7,11
4.84E+02,-7627,3010,1326,-149,-357,76,1,7,11
4.84E+02,-7590,2971,1337,-156,-374,57,1,7,11
4.85E+02,-7572,3195,1368,-148,-372,24,1,7,11
4.85E+02,-7561,3158,1387,-373,-365,0,1,7,11
4.85E+02,-7799,3141,1393,-316,-350,-269,1,7,11
4.85E+02,-7789,3124,1405,-263,-316,-277,1,7,11
4.86E+02,-7797,3106,1164,60,-276,-280,1,7,11
4.86E+02,-7567,3115,1167,-123,11,-271,1,7,11
4.86E+02,-7582,3141,1164,-54,25,3,1,7,11
4.86E+02,-7596,3168,1160,-5,37,22,1,7,11
4.87E+02,-7607,2952,1398,274,45,36,1,7,11
4.87E+02,-7630,2980,1394,256,53,45,1,7,11
4.87E+02,-7651,3001,1404,-32,50,53,1,7,11
4.87E+02,-7660,3019,1160,-61,40,69,1,7,11
4.88E+02,-7651,3032,1156,-107,23,82,1,7,11
4.88E+02,-7633,3025,1165,99,15,90,1,7,11
4.88E+02,-7617,3022,1166,58,14,86,1,7,11
4.88E+02,-7600,3009,1167,25,22,73,1,7,11
4.89E+02,-7576,2990,1174,11,38,53,1,7,11
4.89E+02,-7566,2973,1174,-257,71,30,1,7,11
4.89E+02,-7561,2958,1176,-260,106,15,1,7,11
4.89E+02,-7580,3199,1185,-259,-120,5,1,7,11
4.90E+02,-7587,3192,1188,7,-102,3,1,7,11
4.90E+02,-7587,3196,1177,26,-89,5,1,7,11
4.90E+02,-7595,2952,1172,27,-69,6,1,7,11
4.90E+02,-7617,2960,1160,22,-55,12,1,7,11
4.91E+02,-7626,2962,1155,16,-59,38,1,7,11
4.91E+02,-7630,2957,1404,6,-62,56,1,7,11
4.91E+02,-7639,2955,1392,0,-62,63,1,7,11
4.91E+02,-7647,2948,1384,2,-66,69,1,7,11
4.92E+02,-7648,2948,1383,8,-71,75,1,7,11
4.92E+02,-7651,2951,1386,19,-82,74,1,7,11
4.92E+02,-7651,2963,1383,34,-96,69,1,7,11
4.92E+02,-7645,2969,1373,38,-104,56,1,7,11
4.93E+02,-7641,2973,1376,37,-108,44,1,7,11
4.93E+02,-7630,2972,1373,29,-110,32,1,7,11
4.93E+02,-7627,2961,1369,16,-101,17,1,7,11
4.93E+02,-7635,2959,1385,3,-90,6,1,7,11
4.94E+02,-7633,2946,1370,-265,-89,9,1,7,11
4.94E+02,-7614,3176,1355,-278,-95,2,1,7,11
4.94E+02,-7618,3157,1357,-286,-84,-277,1,7,11
4.94E+02,-7650,3145,1379,-285,-72,-302,1,7,11
4.95E+02,-7680,3151,1386,-259,-86,-297,1,7,11
4.95E+02,-7677,3155,1368,10,-111,-275,1,7,11
4.95E+02,-7669,3168,1363,9,-120,3,1,7,11
4.95E+02,-7658,3173,1367,-260,-128,28,1,7,11
4.96E+02,-7649,3166,1377,-268,113,36,1,7,11
4.96E+02,-7619,3153,1376,-266,97,33,1,7,11
4.96E+02,-7600,3149,1369,-258,92,24,1,7,11
4.96E+02,-7597,3142,1375,4,106,9,1,7,11
4.97E+02,-7609,3144,1385,16,116,-260,1,7,11
4.97E+02,-7621,3143,1389,23,117,-264,1,7,11
4.97E+02,-7631,3144,1379,32,112,-264,1,7,11
4.97E+02,-7653,3153,1386,40,115,-260,1,7,11
4.98E+02,-7665,3174,1385,47,114,4,1,7,11
4.98E+02,-7942,3191,1385,39,117,11,1,7,11
4.98E+02,-7945,3199,1382,34,107,32,1,7,11
4.98E+02,-7948,3195,1378,16,107,46,1,7,11
4.99E+02,-7942,3179,1391,5,107,54,1,7,11
4.99E+02,-7954,3168,1397,-258,104,50,1,7,11
4.99E+02,-7957,3172,1394,8,85,47,1,7,11
4.99E+02,-7948,3164,1392,-262,61,50,1,7,11
5.00E+02,-7677,3138,1398,-280,42,51,1,7,11
5.00E+02,-7670,3122,1407,-277,30,48,1,7,11
5.00E+02,-7650,3115,1163,-269,23,44,1,7,11
5.00E+02,-7621,3106,1164,1,25,31,1,7,11
5.01E+02,-7619,3105,1171,13,45,10,1,7,11
5.01E+02,-7621,3091,1177,34,66,-266,1,7,11
5.01E+02,-7621,3092,1184,49,84,-283,1,7,11
5.01E+02,-7631,3104,1185,85,111,-293,1,7,11
5.02E+02,-7628,3112,1177,97,125,-280,1,7,11
5.02E+02,-7633,3116,1169,91,-116,-274,1,7,11
5.02E+02,-7642,3122,1162,76,-100,-273,1,7,11
5.02E+02,-7641,3126,1406,61,-92,-268,1,7,11
5.03E+02,-7645,3131,1395,35,-87,-269,1,7,11
5.03E+02,-7661,3119,1389,18,-82,-271,1,7,11
5.03E+02,-7680,3119,1394,0,-80,-268,1,7,11
5.03E+02,-7944,3109,1402,-263,-87,4,1,7,11
5.04E+02,-7944,3095,1154,-258,-100,23,1,7,11
5.04E+02,-7940,3080,1154,10,-115,40,1,7,11
5.04E+02,-7675,3078,1159,30,124,47,1,7,11
5.04E+02,-7676,3079,1166,45,114,45,1,7,11
5.05E+02,-7939,3086,1166,65,100,42,1,7,11
5.05E+02,-7669,3090,1165,81,83,38,1,7,11
5.05E+02,-7670,3097,1153,96,76,25,1,7,11
5.05E+02,-7680,3101,1406,95,74,17,1,7,11
5.06E+02,-7941,3098,1165,97,71,19,1,7,11
5.06E+02,-7675,3101,1178,105,65,32,1,7,11
5.06E+02,-7667,3100,1182,104,65,47,1,7,11
5.06E+02,-7665,3099,1186,105,74,56,1,7,11
5.07E+02,-7675,3103,1187,104,87,69,1,7,11
5.07E+02,-7944,3108,1196,103,96,74,1,7,11
5.07E+02,-7945,3111,1194,100,93,91,1,7,11
5.07E+02,-7939,3119,1193,98,98,95,1,7,11
5.08E+02,-7674,3131,1189,94,101,93,1,7,11
5.08E+02,-7654,3134,1184,79,102,94,1,7,11
5.08E+02,-7624,3122,1167,49,106,83,1,7,11
5.08E+02,-7629,3093,1180,22,-123,51,1,7,11
5.09E+02,-7664,3072,1191,27,-105,10,1,7,11
5.09E+02,-7954,3079,1197,59,-110,-258,1,7,11
5.09E+02,-7954,3091,1183,91,127,8,1,7,11
5.09E+02,-7955,3104,1178,102,117,19,1,7,11
5.10E+02,-7968,3098,1195,100,112,34,1,7,11
5.10E+02,-7959,3089,1190,115,87,68,1,7,11
5.10E+02,-7941,3073,1183,-119,68,85,1,7,11
5.10E+02,-7646,2813,1181,-96,57,95,1,7,11
5.11E+02,-7640,2801,1182,-84,65,88,1,7,11
5.11E+02,-7646,2800,1184,-62,82,90,1,7,11
5.11E+02,-7645,2801,1188,-38,86,100,1,7,11
5.11E+02,-7647,2806,1191,-16,92,112,1,7,11
5.12E+02,-7663,3074,1187,257,93,-123,1,7,11
5.12E+02,-7669,3088,1178,270,85,-104,1,7,11
5.12E+02,-7677,3112,1163,280,68,-89,1,7,11
5.12E+02,-7649,3146,1388,268,47,-76,1,7,11
5.13E+02,-7625,3165,1383,-34,50,-83,1,7,11
5.13E+02,-7632,3176,1387,-95,69,-99,1,7,11
5.13E+02,-7637,3183,1397,107,77,-108,1,7,11
5.13E+02,-7640,3182,1400,59,93,-117,1,7,11
5.14E+02,-7652,3169,1162,21,114,-122,1,7,11
5.14E+02,-7660,3155,1168,5,-128,-121,1,7,11
5.14E+02,-7660,3147,1174,9,-121,-116,1,7,11
5.14E+02,-7656,3142,1187,14,-116,-119,1,7,11
5.15E+02,-7655,3134,1195,16,-103,123,1,7,11
5.15E+02,-7657,3136,1198,27,-95,109,1,7,11
5.15E+02,-7669,3143,1191,39,-99,101,1,7,11
5.15E+02,-7663,3154,1175,40,-115,99,1,7,11
5.16E+02,-7655,3148,1174,33,-127,103,1,7,11
5.16E+02,-7651,3141,1172,20,123,100,1,7,11
5.16E+02,-7655,3128,1183,11,123,98,1,7,11
5.16E+02,-7650,3119,1182,24,117,105,1,7,11
5.17E+02,-7639,3110,1198,40,115,111,1,7,11
5.17E+02,-7637,3116,1198,68,123,110,1,7,11
5.17E+02,-7645,3130,1198,94,-121,108,1,7,11
5.17E+02,-7660,3149,1201,105,-113,108,1,7,11
5.18E+02,-7656,3168,1201,120,-117,113,1,7,11
5.18E+02,-7655,3195,1195,121,-117,107,1,7,11
5.18E+02,-7652,3199,1196,102,-117,111,1,7,11
5.18E+02,-7636,2952,1191,88,-112,112,1,7,11
5.19E+02,-7628,2953,1186,66,-103,110,1,7,11
5.19E+02,-7615,2953,1187,52,-90,103,1,7,11
5.19E+02,-7615,2961,1187,39,-75,89,1,7,11
5.19E+02,-7605,2959,1181,21,-61,85,1,7,11
5.20E+02,-7614,3199,1176,7,-43,72,1,7,11
5.20E+02,-7611,3182,1175,1,-33,60,1,7,11
5.20E+02,-7623,3171,1181,-263,-27,44,1,7,11
5.20E+02,-7617,3140,1173,0,-35,33,1,7,11
5.21E+02,-7615,3126,1161,25,-44,14,1,7,11
5.21E+02,-7612,3115,1406,56,-52,-260,1,7,11
5.21E+02,-7627,3096,1406,72,-48,-263,1,7,11
5.21E+02,-7642,3098,1404,90,-44,-264,1,7,11
5.22E+02,-7659,3098,1399,106,-48,0,1,7,11
5.22E+02,-7937,3108,1392,111,-48,14,1,7,11
5.22E+02,-7955,3105,1391,109,-48,42,1,7,11
5.22E+02,-7677,3111,1369,99,-59,104,1,7,11
5.23E+02,-7672,3111,1361,85,-59,-123,1,7,11
5.23E+02,-7666,3102,1359,55,-55,-89,1,7,11
5.23E+02,-7677,3107,1360,48,-32,-64,1,7,11
5.23E+02,-7945,3132,1338,60,-27,-40,1,7,11
5.24E+02,-7937,3132,1351,56,-35,-7,1,7,11
5.24E+02,-7666,3128,1359,72,-49,-3,1,7,11
5.24E+02,-7680,3141,1364,123,-61,-31,1,7,11
5.24E+02,-7625,3190,1328,-95,-99,-57,1,7,11
5.25E+02,-7654,2950,1326,-106,-91,-96,1,7,11
5.25E+02,-7639,2965,1310,-125,-113,-120,1,7,11
5.25E+02,-7653,2975,1313,103,-114,110,1,7,11
5.25E+02,-7663,2970,1323,59,-125,107,1,7,11
5.26E+02,-7668,2946,1342,31,115,110,1,7,11
5.26E+02,-7639,3193,1345,27,95,106,1,7,11
5.26E+02,-7623,2945,1333,18,85,108,1,7,11
5.26E+02,-7657,3190,1342,-267,95,-117,1,7,11
5.27E+02,-7626,3183,1335,2,72,-77,1,7,11
5.27E+02,-7620,3181,1337,19,92,-88,1,7,11
5.27E+02,-7623,3187,1347,37,96,-86,1,7,11
5.27E+02,-7607,3182,1352,51,92,-104,1,7,11
5.28E+02,-7612,3183,1371,80,85,-128,1,7,11
5.28E+02,-7607,3186,1370,103,86,117,1,7,11
5.28E+02,-7619,3190,1375,-126,98,103,1,7,11
5.28E+02,-7638,3188,1390,-103,107,101,1,7,11
5.29E+02,-7645,3185,1391,-66,109,101,1,7,11
5.29E+02,-7641,3197,1386,-24,115,84,1,7,11
5.29E+02,-7636,3194,1398,-4,124,71,1,7,11
5.29E+02,-7630,2948,1396,262,-122,55,1,7,11
5.30E+02,-7634,2966,1385,261,124,67,1,7,11
5.30E+02,-7621,2994,1367,-13,116,89,1,7,11
5.30E+02,-7627,2998,1366,-53,-128,105,1,7,11
5.30E+02,-7629,2982,1374,-76,-122,120,1,7,11
5.31E+02,-7635,2981,1375,-84,-116,123,1,7,11
5.31E+02,-7636,2971,1372,-91,-117,-121,1,7,11
5.31E+02,-7635,2964,1362,-92,-117,-98,1,7,11
5.31E+02,-7641,2953,1359,-89,-114,-58,1,7,11
5.32E+02,-7638,3197,1354,-83,-117,-14,1,7,11
5.32E+02,-7643,3175,1344,-56,-110,275,1,7,11
5.32E+02,-7663,3155,1351,-15,-105,326,1,7,11
5.32E+02,-7656,3117,1356,278,-106,225,1,7,11
5.33E+02,-7638,3077,1362,348,-95,384,1,7,11
5.33E+02,-7604,3078,1334,218,-55,841,1,7,11
5.33E+02,-7586,3082,1315,623,33,1119,1,7,11
5.33E+02,-7780,3122,1284,644,156,1219,1,7,11
5.34E+02,-7742,2959,1009,1067,588,1870,1,7,11
5.34E+02,-7386,2949,1022,1089,445,2305,1,7,11
5.34E+02,-7552,2996,987,935,769,2292,1,7,11
5.34E+02,-7549,3408,912,1005,800,2602,1,7,11
5.35E+02,-7538,3305,1100,1009,795,2584,1,7,11
5.35E+02,-7522,3474,1045,986,782,2263,1,7,11
5.35E+02,-7485,3846,754,912,494,2420,1,7,11
5.35E+02,-7529,3754,678,1104,486,1981,1,7,11
5.36E+02,-7551,4135,659,718,429,2120,1,7,11
5.36E+02,-7527,3992,859,875,614,1736,1,7,11
5.36E+02,-7529,4094,830,788,562,1837,1,7,11
5.36E+02,-7515,4437,806,459,251,1443,1,7,11
5.37E+02,-7510,4251,794,385,200,1590,1,7,11
5.37E+02,-7450,4262,791,552,129,1241,1,7,11
5.37E+02,-7158,4322,510,519,336,1341,1,7,11
5.37E+02,-7122,4634,480,204,268,936,1,7,11
5.38E+02,-7084,4661,460,365,-46,1024,1,7,11
5.38E+02,-7086,4646,479,267,-97,852,1,7,11
5.38E+02,-7069,4627,501,-47,91,455,1,7,11
5.38E+02,-7072,4615,506,-63,21,585,1,7,11
5.39E+02,-7051,4612,491,-78,-312,240,1,7,11
5.39E+02,-7295,4334,504,-106,-373,154,1,7,11
5.39E+02,-7294,4310,817,121,-221,284,1,7,11
5.39E+02,-7268,4294,840,125,-542,261,1,7,11
5.40E+02,-7224,4281,849,-128,-584,-10,1,7,11
5.40E+02,-7190,4266,856,120,-600,-12,1,7,11
5.40E+02,-6890,4257,866,108,-598,-8,1,7,11
5.40E+02,-6856,4252,890,97,-579,-4,1,7,11
5.41E+02,-6827,4246,647,88,-559,256,1,7,11
5.41E+02,-6806,4262,650,86,-533,-5,1,7,11
5.41E+02,-6797,4277,656,72,-242,-11,1,7,11
5.41E+02,-6810,4298,671,62,-202,-24,1,7,11
5.42E+02,-6833,4324,677,49,-168,-41,1,7,11
5.42E+02,-6862,4340,682,34,-133,-71,1,7,11
5.42E+02,-6895,4618,697,13,-360,-114,1,7,11
5.42E+02,-7188,4636,704,8,-341,91,1,7,11
5.43E+02,-7214,4670,714,4,-330,26,1,7,11
5.43E+02,-7232,4685,726,-262,-320,-305,1,7,11
5.43E+02,-7274,4703,737,-273,-313,-137,1,7,11
5.43E+02,-7286,4683,740,-298,-311,-212,1,7,11
5.44E+02,-7053,4646,758,-330,-305,-545,1,7,11
5.44E+02,-7077,4613,1032,-358,-296,-386,1,7,11
5.44E+02,-7098,4315,1054,-380,-286,-433,1,7,11
5.44E+02,-7094,4259,1069,-146,-290,-455,1,7,11
5.45E+02,-7078,4453,1085,-166,-318,-458,1,7,11
5.45E+02,-7054,4397,1100,-175,-338,-452,1,7,11
5.45E+02,-7285,4088,1110,-175,-360,-435,1,7,11
5.45E+02,-7260,4051,1116,-160,-379,-393,1,7,11
5.46E+02,-7215,4010,1137,-380,-137,-587,1,7,11
5.46E+02,-7182,3979,1140,-350,-136,-244,1,7,11
5.46E+02,-6897,4212,904,-317,-370,-146,1,7,11
5.46E+02,-6884,4208,907,-275,-334,-314,1,7,11
5.47E+02,-6883,3975,903,32,-294,18,1,7,11
5.47E+02,-6899,4016,1148,58,10,65,1,7,11
5.47E+02,-7185,4072,1151,76,55,76,1,7,11
5.47E+02,-7195,4387,1135,75,73,50,1,7,11
5.48E+02,-7227,4237,1098,69,98,-325,1,7,11
5.48E+02,-7288,4325,1076,1,118,-228,1,7,11
5.48E+02,-7097,4639,1063,-338,116,-391,1,7,11
5.48E+02,-7151,4677,1054,-173,93,-788,1,7,11
5.49E+02,-7462,4660,1058,-540,87,-649,1,7,11
5.49E+02,-7529,4335,1089,-623,92,-710,1,7,11
5.49E+02,-7308,4251,1115,-400,94,-697,1,7,11
5.49E+02,-7337,4418,1148,-616,99,-873,1,7,11
5.50E+02,-7299,4361,1142,-236,106,-418,1,7,11
5.50E+02,-7545,3999,918,-145,-94,-382,1,7,11
5.50E+02,-7486,4110,952,-289,-43,-18,1,7,11
5.50E+02,-7157,3774,966,-121,288,582,1,7,11
5.51E+02,-7170,3879,979,-7,326,1043,1,7,11
5.51E+02,-6852,3889,957,373,134,1081,1,7,11
5.51E+02,-7036,3913,951,145,143,1062,1,7,11
5.51E+02,-7021,3743,918,147,132,865,1,7,11
5.52E+02,-6797,4107,1137,321,344,564,1,7,11
5.52E+02,-6878,3982,1118,-40,293,-83,1,7,11
5.52E+02,-7212,4424,1074,124,-33,-239,1,7,11
5.52E+02,-7066,4310,1050,-283,-101,-857,1,7,11
5.53E+02,-7114,4643,767,-168,71,-1132,1,7,11
5.53E+02,-7480,4691,756,-549,50,-1361,1,7,11
5.53E+02,-7317,4669,1035,-405,34,-1188,1,7,11
5.53E+02,-7368,4609,1051,-449,20,-1163,1,7,11
5.54E+02,-7387,4284,1059,-443,24,-1309,1,7,11
5.54E+02,-7413,4453,1072,-413,72,-1128,1,7,11
5.54E+02,-7683,4094,1104,-598,-128,-838,1,7,11
5.54E+02,-7361,3978,1128,-242,-93,-210,1,7,11
5.55E+02,-7550,3823,925,-373,-21,91,1,7,11
5.55E+02,-7457,3738,923,37,303,491,1,7,11
5.55E+02,-7284,3865,931,93,322,1046,1,7,11
5.55E+02,-7207,3841,922,-72,377,1110,1,7,11
5.56E+02,-6901,3560,927,-56,140,1050,1,7,11
5.56E+02,-6906,3851,926,-49,372,823,1,7,11
5.56E+02,-6903,3936,905,-67,308,516,1,7,11
5.56E+02,-7184,3745,906,99,-26,-100,1,7,11
5.57E+02,-7219,4139,1127,35,-108,-517,1,7,11
5.57E+02,-7254,3990,1104,-335,56,-658,1,7,11
5.57E+02,-7108,4377,1086,-145,16,-1351,1,7,11
5.57E+02,-7504,4226,1080,-219,-278,-1644,1,7,11
5.58E+02,-7344,4247,1084,-530,-328,-1495,1,7,11
5.58E+02,-7376,4468,1088,-554,-367,-1437,1,7,11
5.58E+02,-7386,4399,1098,-551,-348,-1279,1,7,11
5.58E+02,-7408,4055,1118,-256,-281,-1299,1,7,11
5.59E+02,-7693,3987,1122,-133,74,-720,1,7,11
5.59E+02,-7422,4170,1126,-275,-78,-532,1,7,11
5.59E+02,-7393,3794,905,95,297,-44,1,7,11
5.59E+02,-7308,3922,929,-70,371,444,1,7,11
5.60E+02,-7471,3517,947,-42,159,1037,1,7,11
5.60E+02,-7141,3696,948,269,163,1145,1,7,11
5.60E+02,-7095,3703,926,323,381,1084,1,7,11
5.60E+02,-7285,3468,897,352,308,885,1,7,11
5.61E+02,-7289,3581,1109,364,-12,547,1,7,11
5.61E+02,-7074,3966,1088,310,-76,-50,1,7,11
5.61E+02,-7140,3839,1069,-22,123,-353,1,7,11
5.61E+02,-7463,4199,1050,-108,73,-589,1,7,11
5.62E+02,-7522,4005,1046,53,46,-477,1,7,11
5.62E+02,-7321,4027,1051,-272,34,-783,1,7,11
5.62E+02,-7340,4012,1059,-322,24,-484,1,7,11
5.62E+02,-7362,3980,1082,-334,40,-396,1,7,11
5.63E+02,-7371,4200,1093,-312,61,-513,1,7,11
5.63E+02,-7357,4151,1102,-293,71,-333,1,7,11
5.63E+02,-7304,3823,1115,-276,83,81,1,7,11
5.63E+02,-7532,3783,1121,8,101,-86,1,7,11
5.64E+02,-7494,3741,1134,28,91,-56,1,7,11
5.64E+02,-7473,3756,1132,76,72,-110,1,7,11
5.64E+02,-7459,3779,1124,90,50,58,1,7,11
5.64E+02,-7476,3800,1119,79,40,-304,1,7,11
5.65E+02,-7491,3809,1112,48,31,-382,1,7,11
5.65E+02,-7496,3795,1119,9,25,-172,1,7,11
5.65E+02,-7497,3770,1125,-273,18,-198,1,7,11
5.65E+02,-7496,3749,1132,-282,19,-221,1,7,11
5.66E+02,-7495,3735,1133,-284,25,-227,1,7,11
5.66E+02,-7501,3718,1143,-287,33,-222,1,7,11
5.66E+02,-7504,3963,1144,-286,40,-202,1,7,11
5.66E+02,-7503,3717,1135,-285,54,-183,1,7,11
5.67E+02,-7517,3731,1137,-298,78,-160,1,7,11
5.67E+02,-7525,3757,1138,-323,87,-369,1,7,11
5.67E+02,-7515,3775,1118,-366,85,-312,1,7,11
5.67E+02,-7518,3812,1110,-167,105,-293,1,7,11
5.68E+02,-7552,4154,1077,-519,126,-288,1,7,11
5.68E+02,-7331,3978,1060,-438,120,-263,1,7,11
5.68E+02,-7381,4006,1089,-681,106,17,1,7,11
5.68E+02,-7683,3970,1141,-932,56,77,1,7,11
5.69E+02,-7688,4127,973,-1393,-285,-107,1,7,11
5.69E+02,-7693,3713,1366,-1249,-378,-86,1,7,11
5.69E+02,-7696,3479,1277,-1244,-519,-89,1,7,11
5.69E+02,-7403,3416,1458,-1004,-449,107,1,7,11
5.70E+02,-7391,2783,1862,-496,-647,-313,1,7,11
5.70E+02,-7513,2489,1482,195,-1090,-237,1,7,11
5.70E+02,-7073,2855,1278,1617,-1103,-804,1,7,11
5.70E+02,-7230,3119,1313,2666,-649,-912,1,7,11
5.71E+02,-7221,3424,896,3411,-585,-1212,1,7,11
5.71E+02,-7068,3697,1053,3488,47,-1428,1,7,11
5.71E+02,-7429,3730,666,3557,366,-1506,1,7,11
5.71E+02,-7504,4039,787,3654,597,-1426,1,7,11
5.72E+02,-7390,4281,417,3173,847,-1572,1,7,11
5.72E+02,-7768,4702,608,1733,643,-1347,1,7,11
5.72E+02,-7631,4524,588,1029,895,-1051,1,7,11
5.72E+02,-7952,4489,601,17,805,-393,1,7,11
5.73E+02,-7984,4615,624,-929,434,16,1,7,11
5.73E+02,-7998,4469,401,-1725,563,144,1,7,11
5.73E+02,-7998,4087,439,-2645,171,482,1,7,11
5.73E+02,-7999,4197,773,-2956,286,750,1,7,11
5.74E+02,-7984,4120,846,-3613,-122,978,1,7,11
5.74E+02,-7676,3813,649,-3961,-274,1155,1,7,11
5.74E+02,-7576,3749,743,-4006,-154,1553,1,7,11
5.74E+02,-7769,3898,1150,-4267,-245,1596,1,7,11
5.75E+02,-7710,3492,1328,-4640,-592,1609,1,7,11
5.75E+02,-7374,3610,1239,-4329,-418,1567,1,7,11
5.75E+02,-7533,3203,1652,-4394,-484,1198,1,7,11
5.75E+02,-7457,3055,1804,-3771,-772,1004,1,7,11
5.76E+02,-7145,3155,1711,-3273,-780,756,1,7,11
5.76E+02,-7094,2718,2113,-2871,-778,469,1,7,11
5.76E+02,-7050,2824,1965,-1745,-490,166,1,7,11
5.76E+02,-7272,2447,2023,-736,-419,113,1,7,11
5.77E+02,-7221,2667,2001,140,-583,-190,1,7,11
5.77E+02,-7206,2491,1925,1536,-171,-503,1,7,11
5.77E+02,-7195,2798,1666,2584,-264,-752,1,7,11
5.77E+02,-7191,3013,1507,3359,-60,-971,1,7,11
5.78E+02,-7245,3263,1603,3893,158,-1407,1,7,11
5.78E+02,-7129,3493,1205,4169,614,-1543,1,7,11
5.78E+02,-7481,3966,1313,4213,505,-1627,1,7,11
5.78E+02,-7323,4152,925,3819,884,-1608,1,7,11
5.79E+02,-7422,4038,1071,3490,663,-1274,1,7,11
5.79E+02,-7764,4374,732,3029,640,-1376,1,7,11
5.79E+02,-7807,4429,886,2221,836,-907,1,7,11
5.79E+02,-7578,4462,813,1879,789,-689,1,7,11
5.80E+02,-7609,4450,771,978,490,-463,1,7,11
5.80E+02,-7646,4408,772,593,433,-236,1,7,11
5.80E+02,-7651,4065,789,-264,593,-260,1,7,11
5.80E+02,-7652,3981,811,-783,238,-67,1,7,11
5.81E+02,-7629,4122,856,-991,130,354,1,7,11
5.81E+02,-7610,3737,675,-1604,293,210,1,7,11
5.81E+02,-7609,3859,761,-1838,-66,547,1,7,11
5.81E+02,-7572,3464,1091,-1679,69,607,1,7,11
5.82E+02,-7789,3616,900,-1896,-283,609,1,7,11
5.82E+02,-7747,3265,956,-1521,-360,575,1,7,11
5.82E+02,-7683,3422,1018,-1575,-168,255,1,7,11
5.82E+02,-7358,3353,1308,-1023,-195,151,1,7,11
5.83E+02,-7321,3050,1357,-686,-174,266,1,7,11
5.83E+02,-7309,3061,1376,-549,-133,-124,1,7,11
5.83E+02,-7315,3386,1365,98,-341,28,1,7,11
5.83E+02,-7325,3212,1340,144,-296,-298,1,7,11
5.84E+02,-7330,3289,1310,384,1,-344,1,7,11
5.84E+02,-7341,3646,1014,803,42,-377,1,7,11
5.84E+02,-7338,3477,971,863,67,-143,1,7,11
5.84E+02,-7351,3561,946,856,97,-164,1,7,11
5.85E+02,-7357,3904,915,779,126,-165,1,7,11
5.85E+02,-7370,3967,1141,620,-105,-147,1,7,11
5.85E+02,-7385,3746,1116,144,-79,-373,1,7,11
5.85E+02,-7402,3741,1123,-106,-63,-316,1,7,11
5.86E+02,-7412,3954,1132,-340,-57,7,1,7,11
5.86E+02,-7408,3899,1150,-528,-48,69,1,7,11
5.86E+02,-7418,3843,923,-425,-31,110,1,7,11
5.86E+02,-7417,3528,953,-781,-35,-102,1,7,11
5.87E+02,-7400,3473,968,-837,-55,-71,1,7,11
5.87E+02,-7405,3675,995,-858,-62,-72,1,7,11
5.87E+02,-7408,3620,1286,-837,-69,-88,1,7,11
5.87E+02,-7681,3311,1312,-505,-81,-116,1,7,11
5.88E+02,-7424,3264,1320,-392,-107,115,1,7,11
5.88E+02,-7418,3239,1319,-246,126,69,1,7,11
5.88E+02,-7417,3263,1306,-338,109,14,1,7,11
5.88E+02,-7681,3307,1293,45,99,-294,1,7,11
5.89E+02,-7423,3593,1288,121,80,-316,1,7,11
5.89E+02,-7682,3626,1015,-93,67,-339,1,7,11
5.89E+02,-7697,3665,1009,-70,52,-347,1,7,11
5.89E+02,-7704,3705,1006,-64,35,-329,1,7,11
5.90E+02,-7711,3474,991,-79,14,-295,1,7,11
5.90E+02,-7720,3484,989,-112,-258,2,1,7,11
5.90E+02,-7718,3496,999,115,-268,50,1,7,11
5.90E+02,-7709,3506,1015,89,-277,97,1,7,11
5.91E+02,-7692,3491,1280,61,-283,-123,1,7,11
5.91E+02,-7420,3470,1293,33,-282,-103,1,7,11
5.91E+02,-7397,3468,1296,36,-278,-100,1,7,11
5.91E+02,-7397,3709,1310,44,0,-117,1,7,11
5.92E+02,-7390,3711,1311,72,12,-120,1,7,11
5.92E+02,-7366,3468,1306,109,26,-126,1,7,11
5.92E+02,-7359,3478,1296,124,50,105,1,7,11
5.92E+02,-7353,3493,1295,-120,77,87,1,7,11
5.93E+02,-7349,3503,1021,-116,105,74,1,7,11
5.93E+02,-7355,3509,1023,127,-127,50,1,7,11
5.93E+02,-7367,3510,1011,102,-101,36,1,7,11
5.93E+02,-7377,3516,1001,81,-86,22,1,7,11
5.94E+02,-7394,3524,1001,53,-77,12,1,7,11
5.94E+02,-7407,3521,1002,25,-76,6,1,7,11
5.94E+02,-7414,3510,1008,-265,-87,6,1,7,11
5.94E+02,-7690,3488,1007,-292,-94,-260,1,7,11
5.95E+02,-7696,3478,1016,-299,-111,-258,1,7,11
5.95E+02,-7701,3464,1290,-299,-120,7,1,7,11
5.95E+02,-7702,3706,1291,-293,123,17,1,7,11
5.95E+02,-7694,3685,1296,-286,113,26,1,7,11
5.96E+02,-7686,3675,1298,-267,104,24,1,7,11
5.96E+02,-7697,3666,1297,7,101,8,1,7,11
5.96E+02,-7702,3663,1306,30,97,-259,1,7,11
5.96E+02,-7710,3652,1315,48,83,-265,1,7,11
5.97E+02,-7705,3649,1316,67,67,-268,1,7,11
5.97E+02,-7718,3651,1324,89,64,-282,1,7,11
5.97E+02,-7727,3657,1322,121,48,-270,1,7,11
5.97E+02,-7688,3656,1315,-124,14,18,1,7,11
5.98E+02,-7394,3647,1306,116,17,8,1,7,11
5.98E+02,-7407,3635,1336,110,44,-274,1,7,11
5.98E+02,-7421,3646,1333,-126,55,-281,1,7,11
5.98E+02,-7687,3674,1321,-112,54,-262,1,7,11
5.99E+02,-7419,3686,1302,123,54,24,1,7,11
5.99E+02,-7414,3692,1306,97,73,43,1,7,11
5.99E+02,-7406,3689,1315,72,84,63,1,7,11
5.99E+02,-7403,3678,1320,60,88,70,1,7,11
6.00E+02,-7393,3670,1315,57,89,63,1,7,11
6.00E+02,-7389,3660,1304,63,94,45,1,7,11
6.00E+02,-7402,3668,1303,69,110,25,1,7,11
6.00E+02,-7421,3670,1308,72,123,16,1,7,11
6.01E+02,-7689,3684,1303,83,126,14,1,7,11
6.01E+02,-7690,3686,1301,86,121,17,1,7,11
6.01E+02,-7690,3687,1301,81,114,14,1,7,11
6.01E+02,-7698,3682,1301,75,110,-257,1,7,11
6.02E+02,-7714,3683,1313,67,100,-266,1,7,11
6.02E+02,-7711,3685,1307,64,75,-260,1,7,11
6.02E+02,-7704,3670,1302,49,60,-260,1,7,11
6.02E+02,-7709,3654,1326,38,47,-259,1,7,11
6.03E+02,-7713,3641,1341,45,34,0,1,7,11
6.03E+02,-7701,3630,1342,55,22,-257,1,7,11
6.03E+02,-7694,3621,1348,71,23,-258,1,7,11
6.03E+02,-7687,3618,1362,82,32,-257,1,7,11
6.04E+02,-7692,3618,1368,96,40,3,1,7,11
6.04E+02,-7693,3623,1369,107,47,13,1,7,11
6.04E+02,-7685,3629,1358,103,61,20,1,7,11
6.04E+02,-7686,3632,1352,95,78,18,1,7,11
6.05E+02,-7693,3631,1361,78,97,13,1,7,11
6.05E+02,-7700,3630,1361,62,102,11,1,7,11
6.05E+02,-7704,3632,1365,49,100,13,1,7,11
6.05E+02,-7705,3627,1374,31,98,18,1,7,11
6.06E+02,-7705,3619,1380,21,92,22,1,7,11
6.06E+02,-7705,3622,1376,20,83,26,1,7,11
6.06E+02,-7697,3620,1378,18,81,28,1,7,11
6.06E+02,-7699,3616,1379,23,88,28,1,7,11
6.07E+02,-7697,3617,1381,32,96,32,1,7,11
6.07E+02,-7703,3618,1383,45,105,35,1,7,11
6.07E+02,-7700,3620,1378,59,113,41,1,7,11
6.07E+02,-7697,3623,1371,66,121,46,1,7,11
6.08E+02,-7695,3635,1370,68,-127,49,1,7,11
6.08E+02,-7702,3646,1365,59,-124,59,1,7,11
6.08E+02,-7701,3642,1371,46,-123,68,1,7,11
6.08E+02,-7693,3641,1371,33,-121,77,1,7,11
6.09E+02,-7691,3634,1372,21,-114,75,1,7,11
6.09E+02,-7695,3630,1374,12,-108,78,1,7,11
6.09E+02,-7693,3615,1381,10,-102,75,1,7,11
6.09E+02,-7711,3607,1374,22,-94,61,1,7,11
6.10E+02,-7713,3612,1373,30,-97,60,1,7,11
6.10E+02,-7711,3614,1380,36,-102,61,1,7,11
6.10E+02,-7713,3617,1372,43,-102,61,1,7,11
6.10E+02,-7710,3619,1364,43,-103,63,1,7,11
6.11E+02,-7713,3616,1367,41,-102,62,1,7,11
6.11E+02,-7728,3608,1369,39,-102,66,1,7,11
6.11E+02,-7727,3608,1368,42,-115,76,1,7,11
6.11E+02,-7719,3612,1364,47,-127,78,1,7,11
6.12E+02,-7716,3626,1356,54,127,80,1,7,11
6.12E+02,-7702,3640,1355,54,-128,77,1,7,11
6.12E+02,-7692,3642,1350,36,-122,70,1,7,11
6.12E+02,-7683,3624,1361,8,-125,66,1,7,11
6.13E+02,-7690,3603,1368,-275,-111,38,1,7,11
6.13E+02,-7697,3588,1370,-277,-96,30,1,7,11
6.13E+02,-7690,3327,1351,-258,-82,37,1,7,11
6.13E+02,-7687,3317,1348,20,-39,41,1,7,11
6.14E+02,-7699,3309,1361,39,2,45,1,7,11
6.14E+02,-7718,3305,1366,82,283,50,1,7,11
6.14E+02,-7733,3302,1367,121,276,58,1,7,11
6.14E+02,-7741,3321,1360,-90,-3,54,1,7,11
6.15E+02,-7733,3599,1338,-62,-40,59,1,7,11
6.15E+02,-7731,3637,1307,-61,-68,46,1,7,11
6.15E+02,-7735,3656,1300,-95,-91,41,1,7,11
6.15E+02,-7738,3665,1292,112,-113,45,1,7,11
6.16E+02,-7738,3658,1294,58,123,54,1,7,11
6.16E+02,-7745,3640,1314,20,107,58,1,7,11
6.16E+02,-7743,3624,1329,4,84,74,1,7,11
6.16E+02,-7725,3610,1346,11,69,86,1,7,11
6.17E+02,-7704,3613,1337,25,57,100,1,7,11
6.17E+02,-7689,3608,1335,24,63,101,1,7,11
6.17E+02,-7683,3593,1346,20,80,96,1,7,11
6.17E+02,-7687,3588,1359,34,94,90,1,7,11
6.18E+02,-7421,3588,1356,52,107,83,1,7,11
6.18E+02,-7423,3592,1356,65,-128,72,1,7,11
6.18E+02,-7688,3602,1351,80,-103,59,1,7,11
6.18E+02,-7698,3603,1346,91,-83,60,1,7,11
6.19E+02,-7695,3599,1327,101,-69,69,1,7,11
6.19E+02,-7682,3588,1312,113,-50,73,1,7,11
6.19E+02,-7423,3319,1309,127,-15,57,1,7,11
6.19E+02,-7696,3308,1293,-96,277,38,1,7,11
6.20E+02,-7708,3307,1287,-54,297,16,1,7,11
6.20E+02,-7737,3311,1282,-11,301,5,1,7,11
6.20E+02,-7755,3327,1005,277,289,8,1,7,11
6.20E+02,-7758,3327,988,288,263,27,1,7,11
6.21E+02,-7750,3584,979,284,-24,53,1,7,11
6.21E+02,-7751,3319,984,273,-56,66,1,7,11
6.21E+02,-7755,3319,983,272,-93,72,1,7,11
6.21E+02,-7758,3326,983,271,115,83,1,7,11
6.22E+02,-7763,3592,992,259,71,94,1,7,11
6.22E+02,-7760,3611,1004,-13,24,118,1,7,11
6.22E+02,-7752,3631,1008,-35,-273,-108,1,7,11
6.22E+02,-7745,3647,1281,-68,-312,-77,1,7,11
6.23E+02,-7728,3649,1297,-105,-340,-53,1,7,11
6.23E+02,-7725,3645,1336,120,-359,-40,1,7,11
6.23E+02,-7730,3644,1356,112,-137,-36,1,7,11
6.23E+02,-7720,3661,1353,121,-177,-35,1,7,11
6.24E+02,-7707,3662,1359,112,-208,-42,1,7,11
6.24E+02,-7690,3678,1354,111,-222,-65,1,7,11
6.24E+02,-7422,3703,1352,93,-212,-98,1,7,11
6.24E+02,-7422,3708,1365,58,-198,-123,1,7,11
6.25E+02,-7392,3477,1357,52,-184,119,1,7,11
6.25E+02,-7382,3482,1357,5,-137,90,1,7,11
6.25E+02,-7376,3466,1357,-285,-336,74,1,7,11
6.25E+02,-7375,3698,1374,-317,-274,53,1,7,11
6.26E+02,-7391,3667,1400,-349,37,28,1,7,11
6.26E+02,-7408,3642,1158,-371,91,-286,1,7,11
6.26E+02,-7682,3630,1161,-370,102,-326,1,7,11
6.26E+02,-7712,3619,1173,-371,99,-358,1,7,11
6.27E+02,-7744,3604,1203,-139,76,-130,1,7,11
6.27E+02,-7790,3316,1245,-200,11,-179,1,7,11
6.27E+02,-7585,3315,1273,-228,-373,-521,1,7,11
6.27E+02,-7670,3660,1245,-515,-534,-605,1,7,11
6.28E+02,-7953,3466,1206,-609,-488,-566,1,7,11
6.28E+02,-7661,3529,1172,-469,-676,-187,1,7,11
6.28E+02,-7618,3535,1182,-646,-1045,-263,1,7,11
6.28E+02,-7558,3708,1251,-1070,-1107,-47,1,7,11
6.29E+02,-7737,3597,1590,-1133,-1113,134,1,7,11
6.29E+02,-7386,3250,1410,-1055,-1075,251,1,7,11
6.29E+02,-7543,3449,1462,-886,-724,541,1,7,11
6.29E+02,-7456,3416,1525,-411,-843,517,1,7,11
6.30E+02,-7154,3409,1814,-174,-404,193,1,7,11
6.30E+02,-7147,3428,1840,53,-209,361,1,7,11
6.30E+02,-7142,3232,1827,278,-280,267,1,7,11
6.30E+02,-7164,3301,1802,181,-109,-74,1,7,11
6.31E+02,-7467,3604,1525,519,303,103,1,7,11
6.31E+02,-7523,3645,1508,562,162,48,1,7,11
6.31E+02,-7315,3668,1478,567,236,12,1,7,11
6.31E+02,-7370,3689,1453,552,529,-274,1,7,11
6.32E+02,-7408,3704,1413,523,533,-305,1,7,11
6.32E+02,-7713,3707,1637,232,523,-335,1,7,11
6.32E+02,-7743,3711,1615,212,233,-329,1,7,11
6.32E+02,-7767,3699,1584,187,197,-294,1,7,11
6.33E+02,-7553,3649,1586,168,150,12,1,7,11
6.33E+02,-7566,3632,1597,199,325,70,1,7,11
6.33E+02,-7576,3625,1606,517,-29,100,1,7,11
6.33E+02,-7565,3645,1595,585,122,110,1,7,11
6.34E+02,-7786,3675,1581,403,31,99,1,7,11
6.34E+02,-7752,3469,1583,464,-282,52,1,7,11
6.34E+02,-7727,3537,1563,507,-316,-262,1,7,11
6.34E+02,-7692,3856,1278,779,-338,-324,1,7,11
6.35E+02,-7689,3914,1257,505,-323,-158,1,7,11
6.35E+02,-7704,3720,1242,462,-299,-225,1,7,11
6.35E+02,-7722,3738,1226,620,-276,-559,1,7,11
6.35E+02,-7753,3738,1206,255,-262,-394,1,7,11
6.36E+02,-7774,3729,1198,135,0,-505,1,7,11
6.36E+02,-7808,3947,1206,271,-271,-887,1,7,11
6.36E+02,-7567,3883,1230,-103,-316,-747,1,7,11
6.36E+02,-7587,3538,1275,51,-378,-1118,1,7,11
6.37E+02,-7570,3456,1557,-273,-204,-933,1,7,11
6.37E+02,-7791,3613,1580,-347,-522,-992,1,7,11
6.37E+02,-7775,3276,1612,-139,-555,-1297,1,7,11
6.37E+02,-7760,3200,1637,-183,-573,-1316,1,7,11
6.38E+02,-7737,3388,1414,-226,-580,-1318,1,7,11
6.38E+02,-7716,3066,1429,-542,-578,-1297,1,7,11
6.38E+02,-7698,3000,1442,-605,-551,-1024,1,7,11
6.38E+02,-7696,2944,1474,-401,-235,-1013,1,7,11
6.39E+02,-7703,3160,1483,-450,-167,-1005,1,7,11
6.39E+02,-7731,3100,1484,-778,-352,-996,1,7,11
6.39E+02,-7739,2775,1489,-824,-284,-968,1,7,11
6.39E+02,-7780,2713,1499,-867,62,-962,1,7,11
6.40E+02,-7806,2917,1499,-863,-121,-923,1,7,11
6.40E+02,-7584,2884,1490,-850,-41,-1143,1,7,11
6.40E+02,-7605,2843,1485,-847,287,-1097,1,7,11
6.40E+02,-7617,2544,1476,-843,354,-1054,1,7,11
6.41E+02,-7630,2494,1466,-847,154,-760,1,7,11
6.41E+02,-7644,2452,1451,-838,208,-738,1,7,11
6.41E+02,-7662,2673,1427,-827,513,-714,1,7,11
6.41E+02,-7951,2625,1410,-809,557,-689,1,7,11
6.42E+02,-7974,2596,1643,-505,587,-890,1,7,11
6.42E+02,-7998,2574,1625,-462,627,-834,1,7,11
6.42E+02,-8059,2256,1631,-427,407,-769,1,7,11
6.42E+02,-7827,2244,1630,-607,400,-411,1,7,11
6.43E+02,-7832,2217,1610,-522,621,-576,1,7,11
6.43E+02,-7845,2210,1630,-188,589,-526,1,7,11
6.43E+02,-7879,2182,1412,-375,543,-229,1,7,11
6.43E+02,-7915,2180,1661,-268,209,-184,1,7,11
6.44E+02,-7904,2261,1613,-68,311,-323,1,7,11
6.44E+02,-7888,2568,1579,-9,-13,9,1,7,11
6.44E+02,-7874,2597,1562,265,-66,85,1,7,11
6.44E+02,-7847,2600,1564,279,-114,-100,1,7,11
6.45E+02,-7810,2609,1563,318,91,-45,1,7,11
6.45E+02,-8024,2640,1574,356,60,-14,1,7,11
6.45E+02,-8029,2677,1590,371,61,-9,1,7,11
6.45E+02,-8032,2453,1604,363,38,282,1,7,11
6.46E+02,-8019,2475,1600,351,11,323,1,7,11
6.46E+02,-8001,2491,1613,335,1,357,1,7,11
6.46E+02,-7998,2515,1616,342,6,129,1,7,11
6.46E+02,-7996,2545,1612,332,14,155,1,7,11
6.47E+02,-7987,2817,1623,327,27,177,1,7,11
6.47E+02,-7981,2853,1618,324,38,192,1,7,11
6.47E+02,-7941,2874,1619,294,45,203,1,7,11
6.47E+02,-7670,2873,1641,-17,85,163,1,7,11
6.48E+02,-7940,2878,1408,-39,125,381,1,7,11
6.48E+02,-7937,2882,1658,-53,-116,371,1,7,11
6.48E+02,-7663,2872,1648,-51,-100,372,1,7,11
6.48E+02,-7635,2892,1621,-23,-59,378,1,7,11
6.49E+02,-7635,2909,1612,-15,266,377,1,7,11
6.49E+02,-7667,2927,1617,-11,328,144,1,7,11
6.49E+02,-7938,2928,1611,-33,366,191,1,7,11
6.49E+02,-7676,2893,1599,-80,131,221,1,7,11
6.50E+02,-7628,2870,1551,-94,148,208,1,7,11
6.50E+02,-7644,2855,1262,-123,207,373,1,7,11
6.50E+02,-7959,2843,1541,97,240,281,1,7,11
6.50E+02,-7992,2863,1556,-128,211,-37,1,7,11
6.51E+02,-7995,2921,1537,-106,160,-75,1,7,11
6.51E+02,-7993,2940,1253,123,365,-93,1,7,11
6.51E+02,-7949,2708,1183,120,339,-94,1,7,11
6.51E+02,-7966,2720,1160,70,371,-128,1,7,11
6.52E+02,-8027,2942,1169,1,130,123,1,7,11
6.52E+02,-8032,2896,1175,-306,360,-110,1,7,11
6.52E+02,-8032,2841,1189,-344,337,-117,1,7,11
6.52E+02,-8039,2518,1228,-380,313,122,1,7,11
6.53E+02,-7995,2456,1273,-140,274,119,1,7,11
6.53E+02,-7655,2650,1566,-185,-12,98,1,7,11
6.53E+02,-7803,2587,1600,-237,-27,49,1,7,11
6.53E+02,-7714,2582,1619,-247,-1,-281,1,7,11
6.54E+02,-7700,2646,1623,-197,312,-332,1,7,11
6.54E+02,-7723,2501,1580,-377,370,-270,1,7,11
6.54E+02,-7741,2902,1218,-319,173,-93,1,7,11
6.54E+02,-7585,3100,1343,-312,552,381,1,7,11
6.55E+02,-7960,3193,1296,-322,457,784,1,7,11
6.55E+02,-8046,2987,1280,-339,833,672,1,7,11
6.55E+02,-7886,2997,1282,-336,660,983,1,7,11
6.55E+02,-7929,3023,1014,-279,858,1322,1,7,11
6.56E+02,-8229,3054,1004,41,492,1012,1,7,11
6.56E+02,-8226,3345,971,111,571,1146,1,7,11
6.56E+02,-8195,3380,956,-88,143,707,1,7,11
6.56E+02,-7904,3436,936,-32,-9,776,1,7,11
6.57E+02,-7856,3220,914,-9,95,633,1,7,11
6.57E+02,-8027,3230,1147,-16,-292,519,1,7,11
6.57E+02,-7948,3231,1133,-38,-364,144,1,7,11
6.57E+02,-7660,3224,906,-73,-140,292,1,7,11
6.58E+02,-7650,3452,944,-106,-171,-34,1,7,11
6.58E+02,-7644,3426,986,-120,-204,-82,1,7,11
6.58E+02,-7637,3385,1285,124,-249,-105,1,7,11
6.58E+02,-7625,3365,1331,-113,-541,-126,1,7,11
6.59E+02,-7627,3355,1370,-104,-582,-127,1,7,11
6.59E+02,-7594,3339,1396,-88,-629,-105,1,7,11
6.59E+02,-7571,3349,1155,-67,-396,-86,1,7,11
6.59E+02,-7800,3361,1179,-50,-411,-43,1,7,11
6.60E+02,-7765,3372,1203,-45,-413,-1,1,7,11
6.60E+02,-7751,3381,1228,-46,-406,275,1,7,11
6.60E+02,-7748,3390,1246,-28,-410,304,1,7,11
6.60E+02,-7727,3418,1230,-19,-408,324,1,7,11
6.61E+02,-7710,3444,1222,-33,-387,318,1,7,11
6.61E+02,-7702,3214,1218,-70,-599,298,1,7,11
6.61E+02,-7694,3228,1236,-115,-541,273,1,7,11
6.61E+02,-7708,3229,1241,109,-233,257,1,7,11
6.62E+02,-7720,3233,1241,82,-184,-6,1,7,11
6.62E+02,-7738,3218,1267,50,-144,-10,1,7,11
6.62E+02,-7763,3211,1541,31,-373,-20,1,7,11
6.62E+02,-7775,3211,1551,30,-369,-22,1,7,11
6.63E+02,-7800,3217,1556,28,-352,-45,1,7,11
6.63E+02,-7801,3249,1551,44,-353,-46,1,7,11
6.63E+02,-7566,3260,1565,26,-341,-62,1,7,11
6.63E+02,-7570,3258,1576,16,-344,-58,1,7,11
6.64E+02,-7558,3278,1578,28,-348,-54,1,7,11
6.64E+02,-7561,3305,1591,33,-343,-64,1,7,11
6.64E+02,-7565,3595,1604,51,-356,-59,1,7,11
6.64E+02,-7569,3636,1612,56,-363,-67,1,7,11
6.65E+02,-7580,3667,1614,44,-377,-64,1,7,11
6.65E+02,-7581,3678,1619,17,-384,-74,1,7,11
6.65E+02,-7599,3680,1616,-270,-380,-110,1,7,11
6.65E+02,-7615,3671,1627,-309,-381,106,1,7,11
6.66E+02,-7605,3647,1622,-343,-378,56,1,7,11
6.66E+02,-7607,3596,1629,-136,-369,-278,1,7,11
6.66E+02,-7561,3274,1644,-170,-139,-352,1,7,11
6.66E+02,-7723,3455,1420,-185,-177,-192,1,7,11
6.67E+02,-7404,3395,1434,-161,-182,-560,1,7,11
6.67E+02,-7365,3333,1450,-139,-176,-386,1,7,11
6.67E+02,-7333,3026,1465,-351,-160,-433,1,7,11
6.67E+02,-7313,2996,1460,-305,-382,-450,1,7,11
6.68E+02,-7314,2973,1454,-266,-342,-434,1,7,11
6.68E+02,-7299,2978,1440,36,-310,-388,1,7,11
6.68E+02,-7324,2992,1428,34,15,-618,1,7,11
6.68E+02,-7379,2993,1437,18,75,-566,1,7,11
6.69E+02,-7699,3010,1419,8,112,-254,1,7,11
6.69E+02,-7762,3004,1411,-293,119,-198,1,7,11
6.69E+02,-7797,3000,1411,-327,101,-146,1,7,11
6.69E+02,-7554,3003,1424,-375,78,-369,1,7,11
6.70E+02,-7618,3002,1458,-167,60,-360,1,7,11
6.70E+02,-7669,3004,1488,-190,1,-310,1,7,11
6.70E+02,-7678,3016,1492,-209,-336,-257,1,7,11
6.70E+02,-7677,3011,1489,-251,-147,38,1,7,11
6.71E+02,-7638,2980,1505,-566,-204,66,1,7,11
6.71E+02,-7626,3184,1800,-607,-225,37,1,7,11
6.71E+02,-7596,3130,1859,-603,-255,-260,1,7,11
6.71E+02,-7586,2807,1898,-566,-522,-320,1,7,11
6.72E+02,-7562,2789,1667,-246,-536,-371,1,7,11
6.72E+02,-7789,2775,1710,-159,-547,-135,1,7,11
6.72E+02,-7799,3075,1739,-312,-520,-172,1,7,11
6.72E+02,-7792,3114,1755,40,-248,-142,1,7,11
6.73E+02,-7789,3142,1775,108,-224,-361,1,7,11
6.73E+02,-7807,2954,1751,-44,-181,-321,1,7,11
6.73E+02,-7585,3011,1724,272,-379,4,1,7,11
6.73E+02,-7592,3068,1694,299,-301,68,1,7,11
6.74E+02,-7633,3365,1666,291,-224,97,1,7,11
6.74E+02,-7654,3373,1905,-41,84,112,1,7,11
6.74E+02,-7952,3357,1913,-120,118,80,1,7,11
6.74E+02,-7987,3348,1671,67,116,30,1,7,11
6.75E+02,-8007,3071,1679,23,39,6,1,7,11
6.75E+02,-7642,3044,1913,-295,-338,-269,1,7,11
6.75E+02,-7625,2981,1698,-371,-129,-355,1,7,11
6.75E+02,-7622,3195,1732,-144,-178,-138,1,7,11
6.76E+02,-7614,3159,1755,-153,-231,-148,1,7,11
6.76E+02,-7573,3139,1780,-150,-545,-129,1,7,11
6.76E+02,-7776,3118,2050,-155,-569,-377,1,7,11
6.76E+02,-7797,3116,2056,-140,-544,-375,1,7,11
