timestamp,ax,ay,az,gx,gy,gz,Label1,Label2,Label3
2.57E+03,-8121,-709,861,38,-289,27,1,7,11
2.57E+03,-8096,-683,851,19,-261,27,1,7,11
2.57E+03,-8118,-695,865,-279,46,31,1,7,11
2.58E+03,-8146,-717,876,-292,86,51,1,7,11
2.58E+03,-8170,-729,879,-270,122,79,1,7,11
2.58E+03,-8188,-726,877,23,-99,100,1,7,11
2.58E+03,-8485,-704,894,54,-67,112,1,7,11
2.58E+03,-8498,-681,895,84,-70,125,1,7,11
2.58E+03,-8507,-649,885,101,-77,-125,1,7,11
2.58E+03,-8503,-869,873,97,-91,-121,1,7,11
2.58E+03,-8498,-846,864,68,-108,-122,1,7,11
2.58E+03,-8483,-833,850,29,-123,-116,1,7,11
2.58E+03,-8459,-825,824,-268,126,-108,1,7,11
2.58E+03,-8184,-840,825,-311,-120,-110,1,7,11
2.58E+03,-8171,-869,829,-337,-105,-123,1,7,11
2.58E+03,-8177,-659,822,-336,-80,103,1,7,11
2.58E+03,-8192,-689,807,-300,-59,68,1,7,11
2.58E+03,-8473,-714,813,9,-49,39,1,7,11
2.58E+03,-8501,-716,810,67,-49,23,1,7,11
2.58E+03,-8520,-707,823,115,-68,20,1,7,11
2.58E+03,-8539,-695,839,-103,-103,32,1,7,11
2.58E+03,-8542,-678,852,-80,101,52,1,7,11
2.58E+03,-8539,-890,854,-59,49,85,1,7,11
2.58E+03,-8512,-857,851,-78,6,119,1,7,11
2.58E+03,-8488,-842,853,-117,-270,-107,1,7,11
2.58E+03,-8462,-854,843,89,-260,-80,1,7,11
2.58E+03,-8192,-876,848,47,20,-70,1,7,11
2.58E+03,-8184,-649,860,26,50,-67,1,7,11
2.58E+03,-8185,-669,869,39,85,-77,1,7,11
2.58E+03,-8455,-666,887,70,113,-98,1,7,11
2.58E+03,-8465,-656,648,103,-127,-120,1,7,11
2.58E+03,-8473,-895,645,-128,-123,111,1,7,11
2.58E+03,-8482,-870,657,-124,-125,89,1,7,11
2.58E+03,-8479,-844,652,-126,119,88,1,7,11
2.58E+03,-8470,-817,643,116,110,102,1,7,11
2.58E+03,-8465,-805,876,85,113,124,1,7,11
2.58E+03,-8191,-800,843,50,126,-112,1,7,11
2.58E+03,-8172,-803,797,5,-103,-106,1,7,11
2.58E+03,-8189,-829,791,-299,-65,-116,1,7,11
2.58E+03,-8474,-860,793,-322,-40,-126,1,7,11
2.58E+03,-8494,-896,795,-314,-32,127,1,7,11
2.58E+03,-8503,-660,796,-273,-39,124,1,7,11
2.58E+03,-8505,-661,797,38,-47,111,1,7,11
2.59E+03,-8517,-646,796,88,-62,94,1,7,11
2.59E+03,-8520,-875,792,123,-81,80,1,7,11
2.59E+03,-8529,-838,809,-116,-110,78,1,7,11
2.59E+03,-8523,-792,829,-124,106,92,1,7,11
2.59E+03,-8518,-503,859,100,63,113,1,7,11
2.59E+03,-8522,-471,890,57,23,-119,1,7,11
2.59E+03,-8501,-440,894,-259,-271,-93,1,7,11
2.59E+03,-8462,-442,641,-346,-287,-87,1,7,11
2.59E+03,-8159,-475,644,-185,-275,-104,1,7,11
2.59E+03,-8111,-777,866,-517,23,109,1,7,11
2.59E+03,-8081,-836,828,-567,98,45,1,7,11
2.59E+03,-8087,-878,791,-577,-61,-280,1,7,11
2.59E+03,-8107,-697,506,-584,277,-334,1,7,11
2.59E+03,-8171,-742,474,-523,367,-367,1,7,11
2.59E+03,-8504,-759,474,-194,135,-355,1,7,11
2.59E+03,-8574,-764,490,-278,357,-293,1,7,11
2.59E+03,-8374,-742,774,126,288,48,1,7,11
2.59E+03,-8401,-702,800,280,-64,-98,1,7,11
2.59E+03,-8398,-895,810,154,89,261,1,7,11
2.59E+03,-8385,-822,839,235,-259,334,1,7,11
2.59E+03,-8321,-488,857,515,-363,372,1,7,11
2.59E+03,-8499,-420,873,215,-173,346,1,7,11
2.59E+03,-8175,-628,890,360,-197,266,1,7,11
2.59E+03,-8104,-619,655,-45,-199,-88,1,7,11
2.59E+03,-8069,-409,695,48,-143,48,1,7,11
2.59E+03,-8066,-448,707,-297,-321,-284,1,7,11
2.59E+03,-8070,-479,691,-366,27,-328,1,7,11
2.59E+03,-8081,-770,672,-146,123,-326,1,7,11
2.59E+03,-8122,-821,653,-160,-28,-300,1,7,11
2.59E+03,-8178,-859,891,-131,307,14,1,7,11
2.59E+03,-8498,-694,649,-331,352,75,1,7,11
2.59E+03,-8553,-1030,649,81,351,-117,1,7,11
2.59E+03,-8326,-1069,868,312,343,-60,1,7,11
2.59E+03,-8351,-1091,833,554,341,-21,1,7,11
2.59E+03,-8332,-1124,824,803,316,264,1,7,11
2.59E+03,-8516,-1118,810,1069,279,-8,1,7,11
2.59E+03,-8487,-1069,823,1301,266,-82,1,7,11
2.59E+03,-8488,-700,847,1251,-16,83,1,7,11
2.59E+03,-8478,-510,838,1648,-57,4,1,7,11
2.59E+03,-8493,-570,839,1624,-78,-316,1,7,11
2.60E+03,-8496,-158,834,1188,-98,-344,1,7,11
2.60E+03,-8510,-317,827,1149,-100,-356,1,7,11
2.60E+03,-8512,-269,814,781,-102,-364,1,7,11
2.60E+03,-8521,-279,811,366,-96,-384,1,7,11
2.60E+03,-8529,-377,818,-316,-108,-154,1,7,11
2.60E+03,-8509,-541,821,-410,-128,-181,1,7,11
2.60E+03,-8455,-797,789,-711,-122,-225,1,7,11
2.60E+03,-8166,-703,494,-1040,-99,-515,1,7,11
2.60E+03,-8129,-1129,472,-1026,-62,-558,1,7,11
2.60E+03,-8123,-1285,475,-667,-15,-610,1,7,11
2.60E+03,-8142,-1386,485,-458,282,-388,1,7,11
2.60E+03,-8177,-1156,484,-171,306,-640,1,7,11
2.60E+03,-8482,-1351,471,125,314,-585,1,7,11
2.60E+03,-8522,-1000,483,367,288,-221,1,7,11
2.60E+03,-8524,-1146,490,543,-15,-337,1,7,11
2.60E+03,-8519,-767,476,635,-55,51,1,7,11
2.60E+03,-8531,-891,477,387,-76,-95,1,7,11
2.60E+03,-8545,-490,469,564,-104,257,1,7,11
2.60E+03,-8547,-634,476,133,125,331,1,7,11
2.60E+03,-8521,-594,491,-111,94,128,1,7,11
2.60E+03,-8483,-610,498,-368,79,130,1,7,11
2.60E+03,-8175,-410,503,-599,68,338,1,7,11
2.60E+03,-8126,-507,772,-778,73,-23,1,7,11
2.60E+03,-8096,-853,503,-880,86,110,1,7,11
2.60E+03,-8082,-677,481,-656,115,-259,1,7,11
2.60E+03,-8093,-759,467,-885,-98,-332,1,7,11
2.60E+03,-8102,-1083,446,-804,-54,-357,1,7,11
2.60E+03,-8128,-1130,430,-422,-2,-349,1,7,11
2.60E+03,-8171,-1152,413,-518,298,-302,1,7,11
2.60E+03,-8480,-1145,413,-349,321,25,1,7,11
2.60E+03,-8541,-1110,415,66,306,104,1,7,11
2.60E+03,-8329,-1060,414,-64,-5,-81,1,7,11
2.60E+03,-8366,-745,437,281,-91,-29,1,7,11
2.60E+03,-8364,-661,454,339,59,268,1,7,11
2.60E+03,-8332,-834,510,333,-296,285,1,7,11
2.60E+03,-8540,-797,792,301,-133,287,1,7,11
2.60E+03,-8495,-780,828,-11,-188,-4,1,7,11
2.60E+03,-8460,-503,849,-65,-212,-42,1,7,11
2.60E+03,-8176,-488,855,-122,-191,-83,1,7,11
2.60E+03,-8145,-480,857,67,-146,-116,1,7,11
2.61E+03,-8127,-477,849,-306,-331,105,1,7,11
2.61E+03,-8129,-494,857,-138,-267,70,1,7,11
2.61E+03,-8153,-781,863,-197,49,43,1,7,11
2.61E+03,-8179,-809,861,-224,84,21,1,7,11
2.61E+03,-8470,-828,871,-228,110,7,1,7,11
2.61E+03,-8494,-844,877,-220,118,5,1,7,11
2.61E+03,-8501,-858,862,-204,114,12,1,7,11
2.61E+03,-8497,-878,858,-177,112,17,1,7,11
2.61E+03,-8490,-643,859,-150,110,21,1,7,11
2.61E+03,-8474,-654,854,-360,107,24,1,7,11
2.61E+03,-8468,-658,856,-316,117,13,1,7,11
2.61E+03,-8454,-649,848,-270,117,9,1,7,11
2.61E+03,-8176,-641,836,12,-118,-258,1,7,11
2.61E+03,-8166,-888,837,19,-92,-266,1,7,11
2.61E+03,-8167,-879,833,16,-64,-280,1,7,11
2.61E+03,-8178,-875,823,5,-46,-292,1,7,11
2.61E+03,-8187,-878,819,-274,-31,-305,1,7,11
2.61E+03,-8462,-885,819,-309,-23,-318,1,7,11
2.61E+03,-8469,-647,815,-333,-34,-322,1,7,11
2.61E+03,-8471,-660,812,-348,-41,-322,1,7,11
2.61E+03,-8474,-675,804,-358,-42,-308,1,7,11
2.61E+03,-8480,-695,791,-365,-40,-280,1,7,11
2.61E+03,-8468,-699,776,-356,-41,15,1,7,11
2.61E+03,-8466,-705,770,-349,-28,52,1,7,11
2.61E+03,-8459,-710,498,-341,-21,81,1,7,11
2.61E+03,-8480,-704,503,-330,-11,90,1,7,11
2.61E+03,-8496,-691,493,-305,-23,96,1,7,11
2.61E+03,-8505,-666,481,-288,-39,90,1,7,11
2.61E+03,-8510,-644,478,-289,-55,83,1,7,11
2.61E+03,-8510,-887,475,-305,-70,79,1,7,11
2.61E+03,-8474,-891,460,-317,-91,74,1,7,11
2.61E+03,-8191,-649,458,-335,-91,59,1,7,11
2.61E+03,-8181,-676,462,-353,-84,39,1,7,11
2.61E+03,-8185,-695,465,-347,-74,16,1,7,11
2.61E+03,-8190,-707,454,-330,-69,5,1,7,11
2.61E+03,-8457,-725,455,-309,-71,7,1,7,11
2.61E+03,-8470,-729,449,-264,-66,24,1,7,11
2.61E+03,-8483,-737,438,37,-70,46,1,7,11
2.61E+03,-8491,-736,433,94,-82,67,1,7,11
2.61E+03,-8496,-712,421,-103,-98,79,1,7,11
2.62E+03,-8501,-677,414,-65,-113,86,1,7,11
2.62E+03,-8493,-895,402,-53,127,86,1,7,11
2.62E+03,-8484,-842,394,-57,119,74,1,7,11
2.62E+03,-8502,-805,393,-99,120,52,1,7,11
2.62E+03,-8524,-794,407,89,106,25,1,7,11
2.62E+03,-8521,-797,416,26,74,-264,1,7,11
2.62E+03,-8511,-811,417,-292,51,-309,1,7,11
2.62E+03,-8515,-846,432,-351,39,-358,1,7,11
2.62E+03,-8497,-888,447,-132,27,-141,1,7,11
2.62E+03,-8481,-677,466,-148,24,-162,1,7,11
2.62E+03,-8461,-726,483,-149,32,-157,1,7,11
2.62E+03,-8452,-766,490,-383,50,-378,1,7,11
2.62E+03,-8185,-1054,497,-356,70,-313,1,7,11
2.62E+03,-8177,-1063,491,-314,90,32,1,7,11
2.62E+03,-8178,-1049,485,-263,116,127,1,7,11
2.62E+03,-8192,-768,483,36,-118,-44,1,7,11
2.62E+03,-8192,-729,472,76,-117,272,1,7,11
2.62E+03,-8459,-700,469,107,-116,281,1,7,11
2.62E+03,-8474,-666,469,-119,127,-8,1,7,11
2.62E+03,-8485,-881,463,-86,108,-83,1,7,11
2.62E+03,-8503,-848,468,-70,89,72,1,7,11
2.62E+03,-8514,-823,471,-66,65,-294,1,7,11
2.62E+03,-8532,-796,477,-76,49,-141,1,7,11
2.62E+03,-8544,-774,483,-111,25,-221,1,7,11
2.62E+03,-8539,-773,495,92,12,-536,1,7,11
2.62E+03,-8531,-778,503,23,21,-580,1,7,11
2.62E+03,-8516,-790,770,-322,30,-597,1,7,11
2.62E+03,-8490,-821,776,-180,50,-609,1,7,11
2.62E+03,-8467,-867,794,-556,70,-611,1,7,11
2.62E+03,-8189,-663,799,-406,88,-607,1,7,11
2.62E+03,-8148,-748,807,-502,115,-583,1,7,11
2.62E+03,-8126,-1065,804,-842,-122,-553,1,7,11
2.62E+03,-8116,-1097,793,-883,-95,-253,1,7,11
2.62E+03,-8104,-1144,784,-649,-73,-201,1,7,11
2.62E+03,-8106,-952,786,-896,-50,-160,1,7,11
2.62E+03,-8118,-1019,780,-832,-35,-384,1,7,11
2.62E+03,-8125,-1320,775,-457,-32,-364,1,7,11
2.62E+03,-8138,-1351,502,-570,-36,-353,1,7,11
2.62E+03,-8152,-1352,478,-166,-39,-344,1,7,11
2.62E+03,-8167,-1340,471,-290,-42,-324,1,7,11
2.63E+03,-8449,-1326,463,82,-40,-287,1,7,11
2.63E+03,-8470,-1299,459,-74,-42,37,1,7,11
2.63E+03,-8464,-1003,452,269,-52,122,1,7,11
2.63E+03,-8452,-974,448,314,-56,-63,1,7,11
2.63E+03,-8459,-917,440,343,-45,-22,1,7,11
2.63E+03,-8472,-1130,447,343,-38,-2,1,7,11
2.63E+03,-8483,-1091,438,326,-44,262,1,7,11
2.63E+03,-8487,-1033,424,285,-49,-2,1,7,11
2.63E+03,-8489,-748,431,-48,-58,-18,1,7,11
2.63E+03,-8492,-737,430,116,-70,-42,1,7,11
2.63E+03,-8487,-743,436,31,-92,-75,1,7,11
2.63E+03,-8469,-760,439,-287,-115,-110,1,7,11
2.63E+03,-8452,-1033,437,-335,-122,108,1,7,11
2.63E+03,-8191,-1053,440,-372,-121,77,1,7,11
2.63E+03,-8187,-1080,447,-141,-111,54,1,7,11
2.63E+03,-8180,-1112,449,-143,-96,37,1,7,11
2.63E+03,-8172,-1124,444,-383,-80,34,1,7,11
2.63E+03,-8169,-1137,442,-363,-64,40,1,7,11
2.63E+03,-8162,-1145,441,-334,-54,61,1,7,11
2.63E+03,-8163,-1147,439,-299,-41,88,1,7,11
2.63E+03,-8163,-1127,422,-257,-43,127,1,7,11
2.63E+03,-8157,-1112,404,26,-49,-93,1,7,11
2.63E+03,-8124,-1085,635,30,-56,-73,1,7,11
2.63E+03,-8109,-1076,606,17,-46,-70,1,7,11
2.63E+03,-8125,-1066,599,-264,-23,-87,1,7,11
2.63E+03,-8165,-1061,600,-276,-8,-98,1,7,11
2.63E+03,-8452,-1043,591,-276,-8,-89,1,7,11
2.63E+03,-8493,-1034,575,-275,-9,-72,1,7,11
2.63E+03,-8524,-1031,576,-260,-22,-42,1,7,11
2.63E+03,-8539,-1025,576,26,-46,-23,1,7,11
2.63E+03,-8555,-738,566,71,-74,-16,1,7,11
2.63E+03,-8545,-709,553,114,-116,-20,1,7,11
2.63E+03,-8535,-690,568,127,99,-40,1,7,11
2.63E+03,-8536,-690,581,101,52,-66,1,7,11
2.63E+03,-8497,-696,582,76,-257,-115,1,7,11
2.63E+03,-8481,-699,578,39,-294,122,1,7,11
2.63E+03,-8169,-726,592,3,-305,76,1,7,11
2.63E+03,-8161,-746,605,-275,-277,55,1,7,11
2.63E+03,-8173,-759,620,-283,-247,54,1,7,11
2.63E+03,-8184,-1026,632,-271,37,61,1,7,11
2.64E+03,-8463,-1029,399,-263,60,69,1,7,11
2.64E+03,-8481,-1028,426,8,68,77,1,7,11
2.64E+03,-8492,-1026,457,15,61,82,1,7,11
2.64E+03,-8494,-1027,469,24,41,78,1,7,11
2.64E+03,-8476,-744,456,38,17,69,1,7,11
2.64E+03,-8178,-703,419,20,9,50,1,7,11
2.64E+03,-8150,-700,391,-296,32,26,1,7,11
2.64E+03,-8147,-712,617,-353,75,7,1,7,11
2.64E+03,-8153,-731,611,-132,121,7,1,7,11
2.64E+03,-8455,-1029,631,-384,-94,27,1,7,11
2.64E+03,-8497,-1070,404,-334,-90,64,1,7,11
2.64E+03,-8539,-1108,448,5,-110,93,1,7,11
2.64E+03,-8545,-1118,478,118,86,114,1,7,11
2.64E+03,-8525,-1100,472,-32,33,111,1,7,11
2.64E+03,-8488,-1056,455,289,4,97,1,7,11
2.64E+03,-8190,-766,432,294,-260,77,1,7,11
2.64E+03,-8154,-753,411,-13,17,62,1,7,11
2.64E+03,-8140,-755,405,-86,53,52,1,7,11
2.64E+03,-8160,-1034,422,105,100,59,1,7,11
2.64E+03,-8191,-1049,457,89,122,101,1,7,11
2.64E+03,-8467,-1036,456,116,120,-97,1,7,11
2.64E+03,-8500,-753,478,-113,104,-35,1,7,11
2.64E+03,-8512,-723,498,-92,62,277,1,7,11
2.64E+03,-8494,-668,496,-74,9,312,1,7,11
2.64E+03,-8463,-868,481,-104,-282,319,1,7,11
2.64E+03,-8179,-840,466,87,-291,309,1,7,11
2.64E+03,-8152,-824,457,8,-278,291,1,7,11
2.64E+03,-8136,-837,449,-333,20,256,1,7,11
2.64E+03,-8137,-872,452,-384,71,-33,1,7,11
2.64E+03,-8148,-648,445,-132,-125,-64,1,7,11
2.64E+03,-8178,-673,441,-355,-63,-80,1,7,11
2.64E+03,-8471,-694,438,-304,-20,-80,1,7,11
2.64E+03,-8488,-702,437,45,264,-84,1,7,11
2.64E+03,-8501,-693,441,111,259,-102,1,7,11
2.64E+03,-8525,-674,440,-91,-18,126,1,7,11
2.64E+03,-8524,-648,440,-48,-64,101,1,7,11
2.64E+03,-8515,-874,447,-34,-107,81,1,7,11
2.64E+03,-8524,-853,459,-46,117,70,1,7,11
2.64E+03,-8510,-820,449,-68,84,67,1,7,11
2.64E+03,-8500,-781,441,-122,66,61,1,7,11
2.65E+03,-8488,-510,442,43,61,57,1,7,11
2.65E+03,-8468,-511,435,-319,63,57,1,7,11
2.65E+03,-8187,-772,426,-164,74,57,1,7,11
2.65E+03,-8185,-809,441,-518,104,42,1,7,11
2.65E+03,-8181,-828,437,-572,-125,22,1,7,11
2.65E+03,-8169,-839,418,-623,-115,-258,1,7,11
2.65E+03,-8145,-885,418,-427,-107,-297,1,7,11
2.65E+03,-8139,-688,406,-455,-81,-329,1,7,11
2.65E+03,-8154,-741,388,-449,-44,-350,1,7,11
2.65E+03,-8451,-1038,636,-404,-2,-342,1,7,11
2.65E+03,-8464,-1070,626,-593,264,-312,1,7,11
2.65E+03,-8471,-1101,606,-252,268,-275,1,7,11
2.65E+03,-8490,-1114,601,-163,264,7,1,7,11
2.65E+03,-8513,-1107,607,-316,-9,26,1,7,11
2.65E+03,-8537,-1069,622,43,-46,47,1,7,11
2.65E+03,-8561,-756,393,114,-91,76,1,7,11
2.65E+03,-8564,-697,413,-101,109,121,1,7,11
2.65E+03,-8549,-878,426,-87,50,-92,1,7,11
2.65E+03,-8524,-802,414,126,-258,-68,1,7,11
2.65E+03,-8478,-499,391,34,-300,-74,1,7,11
2.65E+03,-8190,-461,607,-337,-307,-96,1,7,11
2.65E+03,-8171,-468,600,-227,-290,125,1,7,11
2.65E+03,-8176,-515,598,-621,-268,85,1,7,11
2.65E+03,-8468,-833,611,-479,1,50,1,7,11
2.65E+03,-8478,-643,628,-482,-259,39,1,7,11
2.65E+03,-8507,-714,415,-446,-259,23,1,7,11
2.65E+03,-8536,-1037,461,-614,-271,6,1,7,11
2.65E+03,-8539,-1086,492,-230,-300,-267,1,7,11
2.65E+03,-8511,-1098,496,-329,-324,-284,1,7,11
2.65E+03,-8465,-1101,492,67,-325,-300,1,7,11
2.65E+03,-8178,-1109,483,-85,-301,-324,1,7,11
2.65E+03,-8157,-1110,468,261,-266,-347,1,7,11
2.65E+03,-8160,-1099,473,316,23,-360,1,7,11
2.65E+03,-8160,-1082,472,360,38,-348,1,7,11
2.65E+03,-8184,-1042,478,379,44,-317,1,7,11
2.65E+03,-8458,-734,497,367,46,-266,1,7,11
2.65E+03,-8487,-692,792,324,37,54,1,7,11
2.65E+03,-8510,-644,823,285,11,-120,1,7,11
2.65E+03,-8491,-842,837,-16,-290,-32,1,7,11
2.65E+03,-8185,-778,816,-103,-322,283,1,7,11
2.66E+03,-8150,-490,809,9,-309,293,1,7,11
2.66E+03,-8119,-498,795,-155,-261,258,1,7,11
2.66E+03,-8117,-784,784,-558,75,-61,1,7,11
2.66E+03,-8139,-827,764,-410,-88,123,1,7,11
2.66E+03,-8165,-888,505,-470,-8,69,1,7,11
2.66E+03,-8190,-686,503,-476,307,19,1,7,11
2.66E+03,-8476,-749,499,-430,342,-275,1,7,11
2.66E+03,-8499,-1047,493,-600,340,-302,1,7,11
2.66E+03,-8516,-1073,475,-233,312,-319,1,7,11
2.66E+03,-8526,-1063,455,-378,261,-327,1,7,11
2.66E+03,-8525,-1049,448,-291,-56,-325,1,7,11
2.66E+03,-8490,-1029,430,42,-127,-318,1,7,11
2.66E+03,-8473,-760,412,95,103,-310,1,7,11
2.66E+03,-8456,-738,410,-111,88,-284,1,7,11
2.66E+03,-8450,-720,417,-83,92,2,1,7,11
2.66E+03,-8471,-708,449,-63,111,37,1,7,11
2.66E+03,-8495,-691,467,-41,124,77,1,7,11
2.66E+03,-8502,-671,475,-30,126,108,1,7,11
2.66E+03,-8509,-657,500,-57,127,115,1,7,11
2.66E+03,-8498,-653,509,-90,113,111,1,7,11
2.66E+03,-8470,-647,503,120,93,87,1,7,11
2.66E+03,-8174,-882,481,55,84,59,1,7,11
2.66E+03,-8139,-864,458,-294,100,47,1,7,11
2.66E+03,-8138,-870,441,-146,-119,46,1,7,11
2.66E+03,-8145,-654,409,-233,-81,62,1,7,11
2.66E+03,-8159,-682,639,-540,-50,90,1,7,11
2.66E+03,-8201,-697,625,-557,-17,116,1,7,11
2.66E+03,-8503,-712,631,-543,267,-115,1,7,11
2.66E+03,-8529,-741,395,-515,268,-75,1,7,11
2.66E+03,-8540,-764,429,-200,-19,-72,1,7,11
2.66E+03,-8533,-1028,449,-368,-71,-87,1,7,11
2.66E+03,-8510,-750,446,-262,123,-122,1,7,11
2.66E+03,-8470,-710,434,80,57,94,1,7,11
2.66E+03,-8186,-682,421,117,49,55,1,7,11
2.66E+03,-8172,-671,412,85,68,22,1,7,11
2.66E+03,-8156,-681,419,49,97,-257,1,7,11
2.66E+03,-8163,-693,423,20,124,-269,1,7,11
2.66E+03,-8169,-707,430,1,-111,-273,1,7,11
2.66E+03,-8183,-713,427,-262,-97,-262,1,7,11
2.66E+03,-8453,-710,430,-262,-93,15,1,7,11
2.67E+03,-8477,-691,450,-259,-95,50,1,7,11
2.67E+03,-8505,-672,469,-259,-106,95,1,7,11
2.67E+03,-8524,-887,470,4,127,-104,1,7,11
2.67E+03,-8512,-852,450,-264,103,-45,1,7,11
2.67E+03,-8496,-846,426,-308,106,-11,1,7,11
2.67E+03,-8489,-853,413,-355,118,-8,1,7,11
2.67E+03,-8480,-876,400,-138,-126,-41,1,7,11
2.67E+03,-8475,-653,393,-159,-115,-102,1,7,11
2.67E+03,-8484,-691,406,-152,-117,81,1,7,11
2.67E+03,-8485,-725,418,-376,123,20,1,7,11
2.67E+03,-8476,-744,424,-320,93,-282,1,7,11
2.67E+03,-8455,-748,428,-260,64,-308,1,7,11
2.67E+03,-8450,-742,436,39,48,-313,1,7,11
2.67E+03,-8449,-739,445,71,38,-290,1,7,11
2.67E+03,-8454,-725,460,107,38,14,1,7,11
2.67E+03,-8450,-699,467,-119,44,73,1,7,11
2.67E+03,-8453,-674,479,-114,71,126,1,7,11
2.67E+03,-8454,-657,498,-124,100,-87,1,7,11
2.67E+03,-8454,-644,499,124,127,-56,1,7,11
2.67E+03,-8458,-641,487,109,-105,-45,1,7,11
2.67E+03,-8455,-888,465,91,-78,-55,1,7,11
2.67E+03,-8171,-870,423,74,-63,-87,1,7,11
2.67E+03,-8165,-870,386,43,-27,107,1,7,11
2.67E+03,-8185,-880,623,19,256,50,1,7,11
2.67E+03,-8460,-886,607,14,268,6,1,7,11
2.67E+03,-8462,-641,590,19,-4,-278,1,7,11
2.67E+03,-8479,-663,588,23,-19,-301,1,7,11
2.67E+03,-8509,-682,600,44,-47,-309,1,7,11
2.67E+03,-8538,-690,612,72,-93,-303,1,7,11
2.67E+03,-8559,-686,636,95,115,-281,1,7,11
2.67E+03,-8321,-691,409,102,65,11,1,7,11
2.67E+03,-8573,-689,435,110,10,52,1,7,11
2.67E+03,-8538,-674,451,108,-294,79,1,7,11
2.67E+03,-8486,-652,443,95,-325,94,1,7,11
2.67E+03,-8171,-886,425,59,-327,90,1,7,11
2.67E+03,-8144,-874,407,-258,-295,80,1,7,11
2.67E+03,-8121,-870,400,-317,3,82,1,7,11
2.67E+03,-8120,-896,394,-362,66,80,1,7,11
2.67E+03,-8168,-685,412,-134,-103,91,1,7,11
2.67E+03,-8458,-715,436,-342,-78,92,1,7,11
2.68E+03,-8489,-731,459,-281,-79,84,1,7,11
2.68E+03,-8490,-720,461,44,-109,77,1,7,11
2.68E+03,-8465,-688,439,85,118,60,1,7,11
2.68E+03,-8462,-673,430,81,108,49,1,7,11
2.68E+03,-8457,-662,420,58,102,57,1,7,11
2.68E+03,-8451,-658,422,34,101,81,1,7,11
2.68E+03,-8189,-662,422,17,109,115,1,7,11
2.68E+03,-8188,-652,411,21,-124,-107,1,7,11
2.68E+03,-8458,-656,406,36,-98,-76,1,7,11
2.68E+03,-8472,-647,403,62,-78,-54,1,7,11
2.68E+03,-8480,-882,394,94,-65,-45,1,7,11
2.68E+03,-8496,-860,639,116,-56,-53,1,7,11
2.68E+03,-8523,-841,639,121,-59,-72,1,7,11
2.68E+03,-8552,-824,396,114,-79,-94,1,7,11
2.68E+03,-8559,-816,408,98,-118,-109,1,7,11
2.68E+03,-8549,-811,426,64,87,-128,1,7,11
2.68E+03,-8531,-813,440,19,36,102,1,7,11
2.68E+03,-8502,-819,454,-282,-267,70,1,7,11
2.68E+03,-8464,-831,457,-327,-296,34,1,7,11
2.68E+03,-8163,-839,453,-359,-304,4,1,7,11
2.68E+03,-8120,-856,444,-136,-283,-268,1,7,11
2.68E+03,-8108,-895,427,-153,24,-277,1,7,11
2.68E+03,-8123,-674,416,-144,91,-280,1,7,11
2.68E+03,-8162,-713,420,-357,-98,-270,1,7,11
2.68E+03,-8461,-748,428,-286,-57,10,1,7,11
2.68E+03,-8498,-765,421,65,-43,37,1,7,11
2.68E+03,-8523,-760,422,-95,-54,57,1,7,11
2.68E+03,-8539,-734,422,-6,-84,59,1,7,11
2.68E+03,-8541,-679,417,314,122,50,1,7,11
2.68E+03,-8530,-863,404,326,71,36,1,7,11
2.68E+03,-8530,-823,413,285,30,26,1,7,11
2.68E+03,-8530,-810,450,-35,-264,26,1,7,11
2.68E+03,-8520,-800,484,-83,-305,25,1,7,11
2.68E+03,-8490,-781,770,116,-336,10,1,7,11
2.68E+03,-8455,-781,775,42,-354,-274,1,7,11
2.68E+03,-8164,-801,771,-304,-356,-317,1,7,11
2.68E+03,-8134,-833,490,-129,-325,-369,1,7,11
2.68E+03,-8113,-871,463,-200,-272,-164,1,7,11
2.68E+03,-8124,-670,436,-254,67,-206,1,7,11
2.68E+03,-8144,-721,423,-521,-112,-219,1,7,11
2.69E+03,-8189,-1076,433,-250,-59,-211,1,7,11
2.69E+03,-8490,-1118,452,-184,-33,-173,1,7,11
2.69E+03,-8545,-1130,488,-273,-55,-130,1,7,11
2.69E+03,-8336,-1121,769,98,-109,-331,1,7,11
2.69E+03,-8328,-1085,780,-54,63,2,1,7,11
2.69E+03,-8532,-1037,769,263,-261,66,1,7,11
2.69E+03,-8485,-719,498,285,-285,117,1,7,11
2.69E+03,-8162,-678,482,-14,-293,-115,1,7,11
2.69E+03,-8127,-669,486,-90,-264,-128,1,7,11
2.69E+03,-8123,-666,495,105,33,103,1,7,11
2.69E+03,-8124,-661,486,57,64,86,1,7,11
2.69E+03,-8140,-662,488,2,102,76,1,7,11
2.69E+03,-8168,-678,496,-299,-125,77,1,7,11
2.69E+03,-8451,-696,510,-317,-114,89,1,7,11
2.69E+03,-8473,-709,774,-329,-122,93,1,7,11
2.69E+03,-8478,-713,777,-328,111,84,1,7,11
2.69E+03,-8473,-717,772,-330,85,65,1,7,11
2.69E+03,-8192,-720,489,-330,58,38,1,7,11
2.69E+03,-8169,-713,464,-339,55,11,1,7,11
2.69E+03,-8163,-728,449,-363,69,-268,1,7,11
2.69E+03,-8172,-745,459,-365,89,-276,1,7,11
2.69E+03,-8450,-749,457,-324,108,-262,1,7,11
2.69E+03,-8476,-735,458,-263,-127,30,1,7,11
2.69E+03,-8500,-717,464,59,-116,86,1,7,11
2.69E+03,-8511,-706,495,107,-117,-121,1,7,11
2.69E+03,-8519,-699,778,-119,120,-117,1,7,11
2.69E+03,-8512,-690,786,-104,79,91,1,7,11
2.69E+03,-8499,-680,790,-117,35,7,1,7,11
2.69E+03,-8463,-656,772,105,-270,-337,1,7,11
2.69E+03,-8169,-647,509,30,-289,-176,1,7,11
2.69E+03,-8158,-663,509,-327,-277,-253,1,7,11
2.69E+03,-8157,-699,508,-151,9,-555,1,7,11
2.69E+03,-8449,-747,781,-194,48,-558,1,7,11
2.69E+03,-8470,-1055,796,-183,75,-517,1,7,11
2.69E+03,-8465,-1105,804,-378,106,-204,1,7,11
2.69E+03,-8478,-1130,818,-299,-112,-154,1,7,11
2.69E+03,-8479,-1145,836,31,-92,-369,1,7,11
2.69E+03,-8450,-1133,805,92,-95,-344,1,7,11
2.69E+03,-8167,-1089,508,116,-97,-334,1,7,11
2.69E+03,-8141,-1044,483,77,-91,-329,1,7,11
2.70E+03,-8150,-748,464,-261,-72,-321,1,7,11
2.70E+03,-8153,-758,461,-363,-70,-300,1,7,11
2.70E+03,-8156,-1034,458,-189,-72,-275,1,7,11
2.70E+03,-8179,-1056,459,-233,-74,2,1,7,11
2.70E+03,-8180,-1065,449,-248,-84,22,1,7,11
2.70E+03,-8211,-1060,441,-245,-88,22,1,7,11
2.70E+03,-8505,-1062,458,-246,-96,0,1,7,11
2.70E+03,-8530,-1061,470,-238,126,-276,1,7,11
2.70E+03,-8520,-1068,463,-226,75,-309,1,7,11
2.70E+03,-8492,-1082,466,-214,26,-337,1,7,11
2.70E+03,-8452,-1111,464,-216,-262,-368,1,7,11
2.70E+03,-8179,-1139,460,-217,-264,-383,1,7,11
2.70E+03,-8179,-908,463,-206,22,-145,1,7,11
2.70E+03,-8176,-916,465,-170,60,-378,1,7,11
2.70E+03,-8188,-905,471,-384,104,-335,1,7,11
2.70E+03,-8450,-902,478,-341,-116,-285,1,7,11
2.70E+03,-8463,-908,501,-315,-72,13,1,7,11
2.70E+03,-8477,-915,779,-286,-59,36,1,7,11
2.70E+03,-8492,-918,801,14,-63,45,1,7,11
2.70E+03,-8499,-900,798,35,-84,50,1,7,11
2.70E+03,-8475,-1124,779,26,-115,47,1,7,11
2.70E+03,-8180,-1103,505,-272,107,35,1,7,11
2.70E+03,-8142,-1098,459,-339,89,12,1,7,11
2.70E+03,-8115,-1109,425,-175,94,-271,1,7,11
2.70E+03,-8111,-1152,405,-525,110,-289,1,7,11
2.70E+03,-8122,-960,391,-572,-126,-284,1,7,11
2.70E+03,-8135,-1285,388,-555,-103,-257,1,7,11
2.70E+03,-8182,-1349,398,-219,-75,36,1,7,11
2.70E+03,-8487,-1375,420,-329,-72,92,1,7,11
2.70E+03,-8524,-1359,430,110,-104,-105,1,7,11
2.70E+03,-8557,-1303,444,281,100,-51,1,7,11
2.70E+03,-8572,-967,459,159,36,256,1,7,11
2.70E+03,-8568,-1117,460,240,-289,305,1,7,11
2.70E+03,-8570,-1037,489,238,-337,344,1,7,11
2.70E+03,-8542,-725,784,186,-133,371,1,7,11
2.70E+03,-8521,-712,821,359,-163,364,1,7,11
2.70E+03,-8475,-711,858,291,-189,332,1,7,11
2.70E+03,-8169,-703,883,-27,-191,269,1,7,11
2.70E+03,-8106,-682,871,-87,-162,-65,1,7,11
2.70E+03,-8067,-683,867,72,-346,106,1,7,11
2.71E+03,-8313,-709,867,-285,8,36,1,7,11
2.71E+03,-8314,-735,846,-364,102,-264,1,7,11
2.71E+03,-8067,-764,827,-157,-69,-287,1,7,11
2.71E+03,-8103,-1057,797,-189,263,-290,1,7,11
2.71E+03,-8141,-1093,779,-189,317,-271,1,7,11
2.71E+03,-8192,-1122,769,-161,352,19,1,7,11
2.71E+03,-8503,-1146,771,-368,363,61,1,7,11
2.71E+03,-8548,-913,789,-296,338,109,1,7,11
2.71E+03,-8567,-922,798,58,278,-109,1,7,11
2.71E+03,-8569,-903,796,-109,-47,-91,1,7,11
2.71E+03,-8541,-1127,802,-36,-125,-89,1,7,11
2.71E+03,-8483,-1063,806,-13,54,-123,1,7,11
2.71E+03,-8451,-1031,807,-49,25,112,1,7,11
2.71E+03,-8149,-748,791,-95,8,95,1,7,11
2.71E+03,-8126,-739,770,95,25,75,1,7,11
2.71E+03,-8107,-750,493,28,58,63,1,7,11
2.71E+03,-8123,-1038,470,-284,119,51,1,7,11
2.71E+03,-8161,-1079,471,-306,-75,46,1,7,11
2.71E+03,-8470,-1112,479,-290,-30,59,1,7,11
2.71E+03,-8526,-1146,489,16,-9,75,1,7,11
2.71E+03,-8566,-903,508,98,-19,91,1,7,11
2.71E+03,-8326,-1143,791,-65,-60,99,1,7,11
2.71E+03,-8330,-1120,809,265,-126,92,1,7,11
2.71E+03,-8544,-1067,805,316,43,74,1,7,11
2.71E+03,-8484,-751,798,304,-281,43,1,7,11
2.71E+03,-8177,-708,788,-20,-318,15,1,7,11
2.71E+03,-8125,-687,773,-119,-324,1,1,7,11
2.71E+03,-8086,-712,509,15,-287,-268,1,7,11
2.71E+03,-8075,-760,781,-338,33,-276,1,7,11
2.71E+03,-8085,-1070,805,-381,111,-278,1,7,11
2.71E+03,-8106,-1122,814,-366,-73,-276,1,7,11
2.71E+03,-8138,-907,808,-316,-22,-276,1,7,11
2.71E+03,-8165,-924,792,-266,276,-288,1,7,11
2.71E+03,-8474,-943,796,42,303,-298,1,7,11
2.71E+03,-8511,-922,784,101,286,-291,1,7,11
2.71E+03,-8540,-1142,507,-126,256,-266,1,7,11
2.71E+03,-8547,-1103,504,120,-41,40,1,7,11
2.71E+03,-8536,-1093,506,95,-96,105,1,7,11
2.71E+03,-8488,-1081,498,80,101,-100,1,7,11
2.71E+03,-8452,-1072,489,60,71,-86,1,7,11
2.72E+03,-8179,-1072,492,53,58,-90,1,7,11
2.72E+03,-8163,-1049,481,61,54,-103,1,7,11
2.72E+03,-8174,-1040,492,47,66,-125,1,7,11
2.72E+03,-8449,-1047,506,35,73,104,1,7,11
2.72E+03,-8456,-1074,509,39,71,68,1,7,11
2.72E+03,-8462,-1087,775,56,63,22,1,7,11
2.72E+03,-8458,-1086,772,73,47,-273,1,7,11
2.72E+03,-8449,-1087,772,74,36,-310,1,7,11
2.72E+03,-8189,-1084,776,62,30,-326,1,7,11
2.72E+03,-8169,-1082,772,47,27,-326,1,7,11
2.72E+03,-8170,-1098,788,22,43,-317,1,7,11
2.72E+03,-8177,-1125,806,22,59,-291,1,7,11
2.72E+03,-8173,-1132,807,49,74,3,1,7,11
2.72E+03,-8162,-1128,800,82,97,41,1,7,11
2.72E+03,-8168,-1119,798,114,-105,81,1,7,11
2.72E+03,-8176,-1113,790,123,-73,94,1,7,11
2.72E+03,-8187,-1093,791,-124,-49,98,1,7,11
2.72E+03,-8450,-1078,785,125,-36,96,1,7,11
2.72E+03,-8462,-1058,775,107,-36,89,1,7,11
2.72E+03,-8471,-1053,771,77,-42,75,1,7,11
2.72E+03,-8473,-1053,511,45,-62,57,1,7,11
2.72E+03,-8462,-1060,501,11,-78,35,1,7,11
2.72E+03,-8461,-1076,495,-274,-84,16,1,7,11
2.72E+03,-8460,-1105,505,-290,-86,8,1,7,11
2.72E+03,-8451,-1137,505,-277,-84,9,1,7,11
2.72E+03,-8189,-903,501,10,-79,12,1,7,11
2.72E+03,-8189,-916,490,58,-71,19,1,7,11
2.72E+03,-8460,-915,474,108,-64,28,1,7,11
2.72E+03,-8473,-907,472,-105,-65,43,1,7,11
2.72E+03,-8488,-902,479,-63,-78,63,1,7,11
2.72E+03,-8494,-1152,477,-16,-105,86,1,7,11
2.72E+03,-8489,-1138,476,276,122,100,1,7,11
2.72E+03,-8475,-1123,491,311,96,104,1,7,11
2.72E+03,-8466,-1102,506,330,75,95,1,7,11
2.72E+03,-8191,-1071,508,340,53,74,1,7,11
2.72E+03,-8176,-1044,771,330,43,49,1,7,11
2.72E+03,-8165,-1026,500,287,46,26,1,7,11
2.72E+03,-8154,-755,769,-41,58,3,1,7,11
2.72E+03,-8161,-762,794,126,78,-273,1,7,11
2.72E+03,-8159,-1034,804,50,92,-288,1,7,11
2.73E+03,-8166,-1067,820,-272,113,-299,1,7,11
2.73E+03,-8167,-1105,835,-309,-124,-296,1,7,11
2.73E+03,-8172,-1139,832,-318,-97,-286,1,7,11
2.73E+03,-8180,-907,825,-301,-72,-269,1,7,11
2.73E+03,-8184,-922,812,-269,-55,-257,1,7,11
2.73E+03,-8187,-924,805,19,-39,10,1,7,11
2.73E+03,-8450,-919,802,57,-35,24,1,7,11
2.73E+03,-8192,-901,784,88,-44,39,1,7,11
2.73E+03,-8186,-1140,772,97,-61,51,1,7,11
2.73E+03,-8173,-1133,497,82,-76,48,1,7,11
2.73E+03,-8175,-1133,501,58,-84,32,1,7,11
2.73E+03,-8179,-1136,493,33,-102,7,1,7,11
2.73E+03,-8185,-1142,495,18,-115,-274,1,7,11
2.73E+03,-8190,-901,483,8,-122,-285,1,7,11
2.73E+03,-8450,-909,473,4,-127,-282,1,7,11
2.73E+03,-8186,-920,468,1,122,-278,1,7,11
2.73E+03,-8193,-924,468,-265,122,-283,1,7,11
2.73E+03,-8459,-935,478,-273,120,-282,1,7,11
2.73E+03,-8458,-946,485,-268,110,-263,1,7,11
2.73E+03,-8452,-946,486,1,103,24,1,7,11
2.73E+03,-8191,-935,480,19,103,57,1,7,11
2.73E+03,-8192,-931,479,27,112,83,1,7,11
2.73E+03,-8456,-931,487,32,119,102,1,7,11
2.73E+03,-8460,-912,488,37,108,110,1,7,11
2.73E+03,-8465,-897,494,42,93,105,1,7,11
2.73E+03,-8186,-1133,488,44,73,100,1,7,11
2.73E+03,-8169,-1116,481,23,71,86,1,7,11
2.73E+03,-8156,-1112,472,-269,78,67,1,7,11
2.73E+03,-8156,-1138,473,-310,91,46,1,7,11
2.73E+03,-8151,-925,478,-336,102,23,1,7,11
2.73E+03,-8163,-961,472,-340,118,-8,1,7,11
2.73E+03,-8176,-989,473,-303,-121,-271,1,7,11
2.73E+03,-8180,-997,471,-258,-104,-264,1,7,11
2.73E+03,-8186,-994,464,41,-92,9,1,7,11
2.73E+03,-8455,-981,467,78,-83,28,1,7,11
2.73E+03,-8467,-966,463,103,-87,46,1,7,11
2.73E+03,-8477,-939,459,123,-108,64,1,7,11
2.73E+03,-8476,-903,463,127,120,80,1,7,11
2.73E+03,-8471,-1130,462,103,95,95,1,7,11
2.73E+03,-8463,-1125,471,55,77,105,1,7,11
2.74E+03,-8449,-1132,487,14,56,109,1,7,11
2.74E+03,-8173,-897,497,-264,48,92,1,7,11
2.74E+03,-8166,-918,504,-270,51,68,1,7,11
2.74E+03,-8156,-937,494,-260,66,44,1,7,11
2.74E+03,-8161,-948,488,5,96,24,1,7,11
2.74E+03,-8178,-960,486,21,122,19,1,7,11
2.74E+03,-8451,-962,483,47,-120,26,1,7,11
2.74E+03,-8482,-958,497,75,-122,42,1,7,11
2.74E+03,-8510,-945,777,113,102,81,1,7,11
2.74E+03,-8516,-917,787,-100,53,-126,1,7,11
2.74E+03,-8506,-1131,768,-62,8,-71,1,7,11
2.74E+03,-8477,-1081,489,-53,-276,-18,1,7,11
2.74E+03,-8451,-1047,473,-84,-272,277,1,7,11
2.74E+03,-8173,-1045,461,114,6,290,1,7,11
2.74E+03,-8161,-1073,459,52,34,275,1,7,11
2.74E+03,-8143,-1102,485,7,55,-21,1,7,11
2.74E+03,-8140,-1147,503,-272,70,-87,1,7,11
2.74E+03,-8148,-920,768,2,81,89,1,7,11
2.74E+03,-8165,-937,792,36,91,12,1,7,11
2.74E+03,-8465,-930,818,91,93,-289,1,7,11
2.74E+03,-8483,-1150,821,-97,67,-287,1,7,11
2.74E+03,-8481,-1101,805,-55,43,-257,1,7,11
2.74E+03,-8471,-1054,794,-54,33,39,1,7,11
2.74E+03,-8465,-767,777,-88,33,72,1,7,11
2.74E+03,-8468,-1026,777,99,46,84,1,7,11
2.74E+03,-8470,-1048,796,34,55,79,1,7,11
2.74E+03,-8478,-1077,806,-269,62,61,1,7,11
2.74E+03,-8473,-1132,810,-287,61,33,1,7,11
2.74E+03,-8172,-904,799,-276,47,-263,1,7,11
2.74E+03,-8173,-937,807,-266,52,-319,1,7,11
2.74E+03,-8188,-951,835,39,52,-142,1,7,11
2.74E+03,-8451,-943,836,91,36,-167,1,7,11
2.74E+03,-8190,-918,831,120,19,-165,1,7,11
2.74E+03,-8185,-911,849,113,14,-138,1,7,11
2.74E+03,-8171,-924,866,86,12,-362,1,7,11
2.74E+03,-8150,-943,871,57,19,-336,1,7,11
2.74E+03,-8136,-966,861,34,41,-323,1,7,11
2.74E+03,-8145,-993,857,4,77,-313,1,7,11
2.74E+03,-8151,-1003,859,-268,110,-284,1,7,11
2.74E+03,-8152,-1289,859,-288,-117,1,1,7,11
2.75E+03,-8164,-1290,852,-285,-100,29,1,7,11
2.75E+03,-8174,-1284,850,-275,-97,52,1,7,11
2.75E+03,-8188,-1013,861,1,-101,75,1,7,11
2.75E+03,-8461,-976,870,21,-126,109,1,7,11
2.75E+03,-8467,-921,866,27,92,-103,1,7,11
2.75E+03,-8187,-1129,851,10,53,-48,1,7,11
2.75E+03,-8159,-1109,864,-297,45,-17,1,7,11
2.75E+03,-8140,-1124,862,-343,49,-6,1,7,11
2.75E+03,-8116,-1145,858,-365,65,-26,1,7,11
2.75E+03,-8119,-1152,857,-371,107,-71,1,7,11
2.75E+03,-8140,-909,839,-374,-100,-119,1,7,11
2.75E+03,-8161,-923,828,-374,-61,97,1,7,11
2.75E+03,-8177,-937,816,-363,-47,72,1,7,11
2.75E+03,-8181,-952,806,-333,-39,51,1,7,11
2.75E+03,-8452,-956,803,-290,-33,42,1,7,11
2.75E+03,-8467,-946,808,14,-41,51,1,7,11
2.75E+03,-8481,-928,820,56,-55,64,1,7,11
2.75E+03,-8498,-912,829,89,-80,82,1,7,11
2.75E+03,-8500,-1137,824,117,-118,105,1,7,11
2.75E+03,-8504,-1111,833,115,101,120,1,7,11
2.75E+03,-8503,-1091,851,85,67,-123,1,7,11
2.75E+03,-8473,-1079,850,47,38,-114,1,7,11
2.75E+03,-8452,-1085,851,-263,29,-124,1,7,11
2.75E+03,-8167,-1099,847,-309,35,115,1,7,11
2.75E+03,-8141,-1106,828,-346,57,84,1,7,11
2.75E+03,-8126,-1128,811,-383,94,53,1,7,11
2.75E+03,-8121,-1143,802,-152,-114,25,1,7,11
2.75E+03,-8137,-916,810,-168,-63,6,1,7,11
2.75E+03,-8174,-950,806,-149,-25,4,1,7,11
2.75E+03,-8455,-969,809,-357,-9,19,1,7,11
2.75E+03,-8468,-984,806,-300,-11,31,1,7,11
2.75E+03,-8480,-985,803,24,-29,42,1,7,11
2.75E+03,-8478,-938,786,118,-91,34,1,7,11
2.75E+03,-8475,-910,771,120,-118,25,1,7,11
2.75E+03,-8465,-1145,773,105,120,26,1,7,11
2.75E+03,-8454,-1134,779,77,110,36,1,7,11
2.75E+03,-8188,-1140,789,50,110,51,1,7,11
2.75E+03,-8166,-1148,792,35,113,63,1,7,11
2.75E+03,-8154,-1150,795,22,126,62,1,7,11
2.75E+03,-8155,-909,788,18,-114,59,1,7,11
2.76E+03,-8152,-915,783,11,-100,48,1,7,11
2.76E+03,-8164,-921,507,4,-84,38,1,7,11
2.76E+03,-8176,-922,495,-258,-74,32,1,7,11
2.76E+03,-8452,-918,491,-257,-71,38,1,7,11
2.76E+03,-8467,-920,491,2,-82,56,1,7,11
2.76E+03,-8462,-915,493,14,-113,75,1,7,11
2.76E+03,-8452,-932,499,18,114,84,1,7,11
2.76E+03,-8457,-933,502,41,94,82,1,7,11
2.76E+03,-8479,-932,509,62,82,64,1,7,11
2.76E+03,-8495,-915,772,88,69,70,1,7,11
2.76E+03,-8491,-897,789,107,51,83,1,7,11
2.76E+03,-8484,-1148,812,103,37,97,1,7,11
2.76E+03,-8456,-1145,825,90,20,98,1,7,11
2.76E+03,-8183,-1135,833,64,14,81,1,7,11
2.76E+03,-8160,-1117,817,46,16,66,1,7,11
2.76E+03,-8145,-1110,799,6,36,52,1,7,11
2.76E+03,-8134,-1117,793,-291,73,45,1,7,11
2.76E+03,-8130,-1139,779,-318,118,42,1,7,11
2.76E+03,-8154,-919,784,-324,-89,40,1,7,11
2.76E+03,-8187,-951,797,-291,-62,45,1,7,11
2.76E+03,-8474,-963,808,23,-61,49,1,7,11
2.76E+03,-8503,-958,817,84,-83,51,1,7,11
2.76E+03,-8498,-939,816,126,-124,57,1,7,11
2.76E+03,-8483,-929,840,-123,89,56,1,7,11
2.76E+03,-8455,-914,847,126,54,47,1,7,11
2.76E+03,-8165,-1149,841,107,34,36,1,7,11
2.76E+03,-8124,-1133,816,68,40,31,1,7,11
2.76E+03,-8097,-1133,793,22,76,33,1,7,11
2.76E+03,-8096,-1148,511,-278,125,45,1,7,11
2.76E+03,-8132,-921,502,-305,-69,60,1,7,11
2.76E+03,-8183,-948,495,-286,-32,95,1,7,11
2.76E+03,-8468,-956,483,33,-24,-117,1,7,11
2.76E+03,-8509,-952,485,101,-26,-92,1,7,11
2.76E+03,-8554,-935,502,-96,-60,-78,1,7,11
2.76E+03,-8343,-913,790,-54,127,-78,1,7,11
2.76E+03,-8356,-1150,825,-27,31,-83,1,7,11
2.76E+03,-8574,-1109,854,-17,-320,-99,1,7,11
2.76E+03,-8525,-1070,894,-53,-129,126,1,7,11
2.76E+03,-8471,-1040,655,-110,-161,95,1,7,11
2.76E+03,-8150,-762,650,74,-160,65,1,7,11
2.77E+03,-8083,-739,878,-277,-133,40,1,7,11
2.77E+03,-8066,-1025,872,-251,44,-273,1,7,11
2.77E+03,-8090,-1073,860,-586,-124,-274,1,7,11
2.77E+03,-8123,-1125,841,-617,-50,1,1,7,11
2.77E+03,-8157,-930,831,-608,261,30,1,7,11
2.77E+03,-8453,-974,828,-557,293,46,1,7,11
2.77E+03,-8476,-1008,820,-218,288,53,1,7,11
2.77E+03,-8488,-1005,811,-381,262,36,1,7,11
2.77E+03,-8491,-994,792,-296,-37,11,1,7,11
2.77E+03,-8487,-968,788,24,-84,-270,1,7,11
2.77E+03,-8494,-953,809,55,-122,-279,1,7,11
2.77E+03,-8501,-936,824,89,93,-263,1,7,11
2.77E+03,-8477,-913,836,126,54,23,1,7,11
2.77E+03,-8432,-1150,847,-114,34,50,1,7,11
2.77E+03,-8151,-1141,866,-118,26,64,1,7,11
2.77E+03,-8140,-1140,889,106,35,51,1,7,11
2.77E+03,-8114,-1127,868,72,42,22,1,7,11
2.77E+03,-8098,-1123,854,15,69,-10,1,7,11
2.77E+03,-8090,-1139,832,-321,115,-286,1,7,11
2.77E+03,-8083,-902,806,-140,-90,-296,1,7,11
2.77E+03,-8099,-945,790,-207,-4,-308,1,7,11
2.77E+03,-8125,-984,771,-241,289,-302,1,7,11
2.77E+03,-8147,-1015,500,-230,313,-283,1,7,11
2.77E+03,-8165,-1285,477,-186,318,7,1,7,11
2.77E+03,-8460,-1306,462,-355,330,47,1,7,11
2.77E+03,-8519,-1321,486,-291,322,89,1,7,11
2.77E+03,-8566,-1314,768,61,275,-120,1,7,11
2.77E+03,-8569,-1282,776,-95,-52,-82,1,7,11
2.77E+03,-8549,-981,794,-38,-122,-61,1,7,11
2.77E+03,-8511,-928,802,-21,69,-62,1,7,11
2.77E+03,-8191,-1132,776,-45,15,-81,1,7,11
2.77E+03,-8147,-1091,775,-119,8,-115,1,7,11
2.77E+03,-8113,-1073,773,50,28,124,1,7,11
2.77E+03,-8077,-1063,495,-293,74,121,1,7,11
2.77E+03,-8071,-1101,495,-375,-108,121,1,7,11
2.77E+03,-8089,-1119,493,-166,-28,122,1,7,11
2.77E+03,-8130,-900,501,-164,293,122,1,7,11
2.77E+03,-8180,-926,492,-378,330,120,1,7,11
2.77E+03,-8477,-929,470,-314,336,118,1,7,11
2.77E+03,-8518,-925,461,-266,321,104,1,7,11
2.78E+03,-8535,-912,450,38,265,95,1,7,11
2.78E+03,-8532,-1147,440,58,-53,76,1,7,11
2.78E+03,-8518,-1137,454,55,-121,60,1,7,11
2.78E+03,-8500,-1138,472,50,80,54,1,7,11
2.78E+03,-8459,-1120,486,47,26,72,1,7,11
2.78E+03,-8165,-1110,485,49,19,100,1,7,11
2.78E+03,-8137,-1105,489,39,33,-125,1,7,11
2.78E+03,-8104,-1112,482,20,60,-110,1,7,11
2.78E+03,-8099,-1130,470,-296,98,124,1,7,11
2.78E+03,-8123,-1142,453,-323,-118,84,1,7,11
2.78E+03,-8161,-901,446,-331,-85,53,1,7,11
2.78E+03,-8185,-914,444,-327,-63,48,1,7,11
2.78E+03,-8467,-932,432,-288,-41,61,1,7,11
2.78E+03,-8487,-939,426,-236,-28,84,1,7,11
2.78E+03,-8504,-939,421,79,-18,95,1,7,11
2.78E+03,-8531,-929,428,-112,-17,97,1,7,11
2.78E+03,-8554,-904,452,-43,-42,98,1,7,11
2.78E+03,-8560,-1128,476,258,-83,93,1,7,11
2.78E+03,-8555,-1104,500,278,125,76,1,7,11
2.78E+03,-8542,-1067,782,274,68,52,1,7,11
2.78E+03,-8499,-1045,804,-20,8,13,1,7,11
2.78E+03,-8181,-766,796,-96,-298,-283,1,7,11
2.78E+03,-8107,-757,779,47,-323,-327,1,7,11
2.78E+03,-8303,-1036,488,-343,-310,-364,1,7,11
2.78E+03,-8279,-1083,453,-226,0,-130,1,7,11
2.78E+03,-8274,-1141,425,-583,69,-377,1,7,11
2.78E+03,-8294,-962,412,-386,-111,-348,1,7,11
2.78E+03,-8098,-1305,421,-640,-44,-307,1,7,11
2.78E+03,-8175,-1364,446,-557,-7,10,1,7,11
2.78E+03,-8502,-1405,478,-162,-11,71,1,7,11
2.78E+03,-8551,-1402,502,18,-69,-124,1,7,11
2.78E+03,-8558,-1357,772,-68,104,-82,1,7,11
2.78E+03,-8567,-1295,790,301,13,-66,1,7,11
2.78E+03,-8548,-960,809,362,-331,-57,1,7,11
2.78E+03,-8505,-1132,812,366,-144,-50,1,7,11
2.78E+03,-8461,-1077,817,312,-171,-42,1,7,11
2.78E+03,-8151,-1032,812,-17,-167,-30,1,7,11
2.78E+03,-8107,-760,818,-103,-370,-33,1,7,11
2.78E+03,-8068,-760,808,83,-296,-49,1,7,11
2.78E+03,-8078,-765,803,17,64,-86,1,7,11
2.79E+03,-8118,-1041,810,-292,-93,-121,1,7,11
2.79E+03,-8182,-1075,808,-324,-28,107,1,7,11
2.79E+03,-8495,-1099,806,-330,-7,88,1,7,11
2.79E+03,-8544,-1125,834,-327,-19,71,1,7,11
2.79E+03,-8556,-1136,846,-301,-75,60,1,7,11
2.79E+03,-8515,-1119,824,-275,111,37,1,7,11
2.79E+03,-8451,-1115,804,-274,72,6,1,7,11
2.79E+03,-8141,-1108,772,-284,75,-280,1,7,11
2.79E+03,-8120,-1105,508,-306,105,-308,1,7,11
2.79E+03,-8128,-1124,504,-326,-121,-316,1,7,11
2.79E+03,-8134,-1141,502,-324,-103,-306,1,7,11
2.79E+03,-8149,-905,503,-313,-91,-288,1,7,11
2.79E+03,-8169,-924,501,-289,-93,-268,1,7,11
2.79E+03,-8452,-940,510,-261,-103,8,1,7,11
2.79E+03,-8485,-949,800,25,-128,29,1,7,11
2.79E+03,-8476,-945,796,60,90,53,1,7,11
2.79E+03,-8459,-940,792,76,67,71,1,7,11
2.79E+03,-8171,-915,789,78,54,82,1,7,11
2.79E+03,-8160,-913,784,47,66,82,1,7,11
2.79E+03,-8156,-901,511,20,74,91,1,7,11
2.79E+03,-8164,-1147,505,-269,92,105,1,7,11
2.79E+03,-8455,-899,768,-296,113,-94,1,7,11
2.79E+03,-8461,-904,775,-297,116,-45,1,7,11
2.79E+03,-8462,-924,790,-272,122,-11,1,7,11
2.79E+03,-8457,-943,809,20,125,-2,1,7,11
2.79E+03,-8455,-941,813,77,122,-22,1,7,11
2.79E+03,-8454,-911,800,-122,117,-59,1,7,11
2.79E+03,-8185,-1123,769,-102,119,-89,1,7,11
2.79E+03,-8167,-1085,493,-90,-116,-113,1,7,11
2.79E+03,-8163,-1073,482,127,-79,-122,1,7,11
2.79E+03,-8150,-1111,488,106,-40,-114,1,7,11
2.79E+03,-8152,-1124,487,-106,281,-105,1,7,11
2.79E+03,-8166,-1137,482,-62,323,-105,1,7,11
2.79E+03,-8168,-1139,471,273,347,-109,1,7,11
2.79E+03,-8450,-1121,459,332,362,124,1,7,11
2.79E+03,-8473,-1098,455,370,364,99,1,7,11
2.79E+03,-8496,-1072,452,132,344,79,1,7,11
2.79E+03,-8508,-1052,453,135,313,67,1,7,11
2.79E+03,-8524,-1035,466,367,272,65,1,7,11
2.79E+03,-8512,-764,454,333,-38,75,1,7,11
2.80E+03,-8485,-734,440,280,-80,78,1,7,11
2.80E+03,-8453,-724,422,-54,-110,74,1,7,11
2.80E+03,-8182,-716,411,116,-115,63,1,7,11
2.80E+03,-8178,-733,418,22,-115,54,1,7,11
2.80E+03,-8451,-1025,427,-302,-106,41,1,7,11
2.80E+03,-8464,-1080,442,-324,-103,34,1,7,11
2.80E+03,-8456,-1099,441,-295,-97,33,1,7,11
2.80E+03,-8459,-1112,432,-259,-82,29,1,7,11
2.80E+03,-8467,-1115,429,31,-69,22,1,7,11
2.80E+03,-8481,-1116,423,58,-67,16,1,7,11
2.80E+03,-8493,-1118,428,84,-79,8,1,7,11
2.80E+03,-8502,-1113,427,108,-99,1,1,7,11
2.80E+03,-8496,-1095,423,-122,127,1,1,7,11
2.80E+03,-8491,-1080,430,-118,100,-258,1,7,11
2.80E+03,-8461,-1067,417,126,67,-262,1,7,11
2.80E+03,-8186,-1073,419,94,56,-273,1,7,11
2.80E+03,-8183,-1088,427,67,56,-291,1,7,11
2.80E+03,-8451,-1110,445,54,58,-301,1,7,11
2.80E+03,-8466,-1132,463,61,53,-299,1,7,11
2.80E+03,-8470,-1147,475,80,44,-285,1,7,11
2.80E+03,-8464,-1151,481,98,35,-273,1,7,11
2.80E+03,-8454,-904,478,106,27,-266,1,7,11
2.80E+03,-8185,-902,483,109,19,-263,1,7,11
2.80E+03,-8189,-900,492,100,15,-257,1,7,11
2.80E+03,-8187,-1144,503,77,15,14,1,7,11
2.80E+03,-8178,-1142,772,48,12,32,1,7,11
2.80E+03,-8167,-1150,774,18,25,47,1,7,11
2.80E+03,-8140,-902,773,-264,42,57,1,7,11
2.80E+03,-8117,-908,503,-280,73,54,1,7,11
2.80E+03,-8101,-904,482,-294,105,45,1,7,11
2.80E+03,-8103,-897,447,-326,-112,26,1,7,11
2.80E+03,-8134,-902,421,-365,-89,14,1,7,11
2.80E+03,-8180,-916,431,-143,-82,23,1,7,11
2.80E+03,-8470,-947,455,-158,-92,54,1,7,11
2.80E+03,-8498,-992,478,-141,-108,97,1,7,11
2.80E+03,-8501,-991,488,-344,126,-120,1,7,11
2.80E+03,-8497,-986,510,-275,108,-96,1,7,11
2.80E+03,-8488,-982,774,41,89,-98,1,7,11
2.80E+03,-8461,-951,504,96,64,-113,1,7,11
2.80E+03,-8160,-1139,486,120,49,113,1,7,11
2.81E+03,-8137,-1096,459,107,63,85,1,7,11
2.81E+03,-8124,-1076,441,69,91,74,1,7,11
2.81E+03,-8130,-1077,428,12,121,79,1,7,11
2.81E+03,-8154,-1095,426,-294,-107,103,1,7,11
2.81E+03,-8185,-1124,435,-318,-83,-128,1,7,11
2.81E+03,-8459,-1147,431,-302,-82,-104,1,7,11
2.81E+03,-8484,-1150,427,1,-90,-89,1,7,11
2.81E+03,-8496,-1136,428,81,-119,-82,1,7,11
2.81E+03,-8525,-1121,452,-128,111,-78,1,7,11
2.81E+03,-8554,-1091,476,-89,69,-70,1,7,11
2.81E+03,-8562,-1052,498,-62,11,-52,1,7,11
2.81E+03,-8537,-760,780,-65,-302,-38,1,7,11
2.81E+03,-8497,-727,796,-87,-349,-37,1,7,11
2.81E+03,-8190,-705,797,118,-373,-56,1,7,11
2.81E+03,-8145,-700,787,53,-366,-93,1,7,11
2.81E+03,-8108,-705,769,-271,-330,123,1,7,11
2.81E+03,-8100,-733,509,-328,-267,92,1,7,11
2.81E+03,-8117,-1049,778,-359,62,74,1,7,11
2.81E+03,-8144,-1115,782,-335,120,64,1,7,11
2.81E+03,-8187,-902,786,-263,-98,53,1,7,11
2.81E+03,-8508,-936,795,87,-89,42,1,7,11
2.81E+03,-8547,-929,805,-56,-114,55,1,7,11
2.81E+03,-8546,-897,795,286,96,78,1,7,11
2.81E+03,-8527,-1121,804,327,55,103,1,7,11
2.81E+03,-8494,-1088,815,342,22,124,1,7,11
2.81E+03,-8478,-1061,819,336,10,-124,1,7,11
2.81E+03,-8460,-1036,828,322,3,-110,1,7,11
2.81E+03,-8189,-766,828,292,5,-86,1,7,11
2.81E+03,-8157,-762,825,262,12,-58,1,7,11
2.81E+03,-8136,-1036,833,-28,47,-42,1,7,11
2.81E+03,-8140,-1066,848,-40,89,-35,1,7,11
2.81E+03,-8137,-1118,848,-6,116,-24,1,7,11
2.81E+03,-8098,-931,846,312,-105,-16,1,7,11
2.81E+03,-8093,-946,824,175,-25,-29,1,7,11
2.81E+03,-8107,-932,799,543,315,-41,1,7,11
2.81E+03,-8148,-913,795,385,133,-48,1,7,11
2.81E+03,-8191,-1129,781,480,179,-29,1,7,11
2.81E+03,-8496,-1066,769,801,202,258,1,7,11
2.81E+03,-8550,-754,774,828,198,307,1,7,11
2.81E+03,-8325,-706,779,821,162,370,1,7,11
2.82E+03,-8567,-649,769,780,363,174,1,7,11
2.82E+03,-8545,-858,770,439,321,222,1,7,11
2.82E+03,-8499,-803,497,575,286,514,1,7,11
2.82E+03,-8455,-793,498,160,273,533,1,7,11
2.82E+03,-8159,-799,490,-1,272,539,1,7,11
2.82E+03,-8133,-809,470,125,283,538,1,7,11
2.82E+03,-8089,-824,433,14,312,530,1,7,11
2.82E+03,-8111,-843,411,-326,368,515,1,7,11
2.82E+03,-8152,-867,414,-381,171,235,1,7,11
2.82E+03,-8192,-889,407,-133,207,222,1,7,11
2.82E+03,-8489,-646,403,-355,230,214,1,7,11
2.82E+03,-8543,-649,404,-299,236,218,1,7,11
2.82E+03,-8560,-890,415,60,209,245,1,7,11
2.82E+03,-8549,-854,425,127,174,549,1,7,11
2.82E+03,-8527,-794,410,-76,147,609,1,7,11
2.82E+03,-8524,-499,409,-65,383,419,1,7,11
2.82E+03,-8487,-453,390,-66,352,472,1,7,11
2.82E+03,-8466,-399,617,-82,349,492,1,7,11
2.82E+03,-8187,-604,585,-116,351,488,1,7,11
2.82E+03,-8174,-553,546,116,370,465,1,7,11
2.82E+03,-8463,-524,522,64,142,413,1,7,11
2.82E+03,-8502,-516,239,18,130,608,1,7,11
2.82E+03,-8521,-247,217,-263,348,529,1,7,11
2.82E+03,-8536,-241,196,-286,307,189,1,7,11
2.82E+03,-8542,-233,190,-302,269,376,1,7,11
2.82E+03,-8551,-247,217,-329,-15,324,1,7,11
2.82E+03,-8558,-524,241,-334,-41,297,1,7,11
2.82E+03,-8540,-539,246,-298,-67,289,1,7,11
2.82E+03,-8506,-534,523,7,-74,284,1,7,11
2.82E+03,-8488,-524,543,50,-58,275,1,7,11
2.82E+03,-8475,-246,545,87,-38,267,1,7,11
2.82E+03,-8459,-219,533,112,-19,-5,1,7,11
2.82E+03,-8197,-202,516,124,263,-33,1,7,11
2.82E+03,-8453,-193,237,124,290,-58,1,7,11
2.82E+03,-8453,-182,219,111,305,-102,1,7,11
2.82E+03,-8466,-173,202,88,317,-128,1,7,11
2.82E+03,-8478,-179,191,50,323,105,1,7,11
2.82E+03,-8479,-201,177,-267,314,85,1,7,11
2.82E+03,-8485,-231,170,-290,300,55,1,7,11
2.82E+03,-8492,-517,163,-297,284,21,1,7,11
2.83E+03,-8488,-540,158,-289,257,-271,1,7,11
2.83E+03,-8501,-559,162,-270,-18,-306,1,7,11
2.83E+03,-8524,-553,161,23,-44,-323,1,7,11
2.83E+03,-8552,-529,157,48,-80,-328,1,7,11
2.83E+03,-8574,-242,147,58,-124,-310,1,7,11
2.83E+03,-8338,-197,139,54,80,-267,1,7,11
2.83E+03,-8344,-167,132,18,23,49,1,7,11
2.83E+03,-8561,-156,128,-283,-303,111,1,7,11
2.83E+03,-8540,-162,137,-345,-335,-119,1,7,11
2.83E+03,-8550,-160,157,-144,-364,-118,1,7,11
2.83E+03,-8565,-181,177,-194,-160,121,1,7,11
2.83E+03,-8561,-179,196,-210,-215,101,1,7,11
2.83E+03,-8545,-175,205,-229,-514,82,1,7,11
2.83E+03,-8520,-174,220,-244,-539,65,1,7,11
2.83E+03,-8502,-188,242,-514,-550,43,1,7,11
2.83E+03,-8483,-211,532,-515,-554,8,1,7,11
2.83E+03,-8466,-230,541,-241,-547,-291,1,7,11
2.83E+03,-8461,-250,556,-222,-526,-345,1,7,11
2.83E+03,-8449,-522,571,-193,-240,-133,1,7,11
2.83E+03,-8455,-552,603,-173,-196,-172,1,7,11
2.83E+03,-8453,-590,629,-139,-164,-192,1,7,11
2.83E+03,-8192,-616,403,-335,-138,-207,1,7,11
2.83E+03,-8183,-630,434,-267,-369,-222,1,7,11
2.83E+03,-8183,-630,453,65,-346,-234,1,7,11
2.83E+03,-8188,-616,443,-126,-320,-235,1,7,11
2.83E+03,-8461,-587,448,-93,-286,-229,1,7,11
2.83E+03,-8483,-568,446,-91,-266,-200,1,7,11
2.83E+03,-8500,-558,444,-108,0,-159,1,7,11
2.83E+03,-8506,-573,430,116,-257,-365,1,7,11
2.83E+03,-8499,-585,413,84,-258,-319,1,7,11
2.83E+03,-8492,-613,411,51,12,-278,1,7,11
2.83E+03,-8500,-405,414,18,29,16,1,7,11
2.83E+03,-8474,-450,408,6,35,47,1,7,11
2.83E+03,-8461,-492,415,27,45,59,1,7,11
2.83E+03,-8457,-774,412,104,68,51,1,7,11
2.83E+03,-8462,-503,414,-78,82,50,1,7,11
2.83E+03,-8493,-457,439,-17,91,63,1,7,11
2.83E+03,-8522,-400,479,277,73,102,1,7,11
2.83E+03,-8526,-587,503,290,28,-105,1,7,11
2.83E+03,-8533,-517,771,275,-271,-57,1,7,11
2.84E+03,-8510,-204,496,-33,-311,-17,1,7,11
2.84E+03,-8483,-178,464,-125,-313,257,1,7,11
2.84E+03,-8459,-186,452,17,-276,-8,1,7,11
2.84E+03,-8189,-207,450,-343,39,-36,1,7,11
2.84E+03,-8189,-250,466,-174,110,-83,1,7,11
2.84E+03,-8453,-551,482,-212,-92,118,1,7,11
2.84E+03,-8467,-587,487,-211,-55,69,1,7,11
2.84E+03,-8474,-594,479,-169,-37,35,1,7,11
2.84E+03,-8481,-583,480,-377,-19,18,1,7,11
2.84E+03,-8495,-581,495,-342,-9,19,1,7,11
2.84E+03,-8523,-577,506,-305,-14,26,1,7,11
2.84E+03,-8526,-558,499,0,-42,47,1,7,11
2.84E+03,-8510,-535,489,18,-71,62,1,7,11
2.84E+03,-8495,-517,483,13,-87,68,1,7,11
2.84E+03,-8472,-253,463,-278,-89,60,1,7,11
2.84E+03,-8461,-525,452,-321,-79,42,1,7,11
2.84E+03,-8190,-546,433,-359,-61,15,1,7,11
2.84E+03,-8188,-573,416,-131,-30,-276,1,7,11
2.84E+03,-8175,-588,635,-132,258,-300,1,7,11
2.84E+03,-8454,-605,619,-137,302,-321,1,7,11
2.84E+03,-8469,-613,594,-379,324,-323,1,7,11
2.84E+03,-8501,-628,587,-355,336,-315,1,7,11
2.84E+03,-8519,-636,567,-316,313,-294,1,7,11
2.84E+03,-8547,-386,564,-274,290,-277,1,7,11
2.84E+03,-8326,-634,569,16,-7,-272,1,7,11
2.84E+03,-8349,-632,586,46,-67,-263,1,7,11
2.84E+03,-8345,-622,586,82,123,11,1,7,11
2.84E+03,-8545,-611,583,109,69,32,1,7,11
2.84E+03,-8492,-613,577,111,36,41,1,7,11
2.84E+03,-8458,-617,573,92,36,3,1,7,11
2.84E+03,-8189,-625,571,69,53,-287,1,7,11
2.84E+03,-8463,-622,575,58,86,-303,1,7,11
2.84E+03,-8490,-616,569,66,-106,-290,1,7,11
2.84E+03,-8513,-615,581,95,-69,-261,1,7,11
2.84E+03,-8543,-621,601,113,-53,21,1,7,11
2.84E+03,-8568,-619,626,-119,-67,22,1,7,11
2.84E+03,-8574,-624,390,-103,-118,3,1,7,11
2.84E+03,-8560,-618,387,-93,72,-291,1,7,11
2.84E+03,-8511,-607,624,-110,8,-332,1,7,11
2.84E+03,-8455,-590,582,122,-271,-380,1,7,11
2.85E+03,-8181,-598,559,66,9,-162,1,7,11
2.85E+03,-8465,-624,564,8,48,-179,1,7,11
2.85E+03,-8508,-401,574,-269,68,-149,1,7,11
2.85E+03,-8559,-417,583,-257,76,-335,1,7,11
2.85E+03,-8365,-459,638,13,74,27,1,7,11
2.85E+03,-8411,-499,431,68,41,-92,1,7,11
2.85E+03,-8420,-778,458,-117,-267,302,1,7,11
2.85E+03,-8382,-787,471,-34,-318,173,1,7,11
2.85E+03,-8569,-467,445,335,-331,561,1,7,11
2.85E+03,-8478,-416,413,135,-309,454,1,7,11
2.85E+03,-8169,-618,397,159,8,813,1,7,11
2.85E+03,-8151,-547,396,161,73,846,1,7,11
2.85E+03,-8153,-205,395,144,107,800,1,7,11
2.85E+03,-8164,-146,411,368,99,429,1,7,11
2.85E+03,-8165,-348,408,342,73,528,1,7,11
2.85E+03,-8171,-334,408,271,39,335,1,7,11
2.85E+03,-8169,-347,412,-48,11,-114,1,7,11
2.85E+03,-8162,-379,417,-110,-263,-293,1,7,11
2.85E+03,-8158,-179,429,87,-261,-176,1,7,11
2.85E+03,-8159,-229,426,47,15,-515,1,7,11
2.85E+03,-8178,-546,446,23,50,-544,1,7,11
2.85E+03,-8476,-606,467,31,75,-514,1,7,11
2.85E+03,-8515,-631,469,78,75,-178,1,7,11
2.85E+03,-8522,-633,467,126,60,-320,1,7,11
2.85E+03,-8531,-639,468,-107,46,55,1,7,11
2.85E+03,-8518,-628,473,-88,19,-95,1,7,11
2.85E+03,-8503,-618,477,-86,-267,-27,1,7,11
2.85E+03,-8469,-609,478,-85,-292,266,1,7,11
2.85E+03,-8454,-591,469,-80,-301,269,1,7,11
2.85E+03,-8187,-565,456,-77,-292,-3,1,7,11
2.85E+03,-8449,-555,446,-86,-263,-27,1,7,11
2.85E+03,-8472,-553,449,-76,26,-43,1,7,11
2.85E+03,-8495,-539,460,-51,58,-48,1,7,11
2.85E+03,-8526,-523,473,-23,81,-32,1,7,11
2.85E+03,-8537,-246,483,267,89,-5,1,7,11
2.85E+03,-8531,-223,492,274,96,260,1,7,11
2.85E+03,-8543,-201,776,-1,102,-5,1,7,11
2.85E+03,-8517,-166,774,-33,88,-27,1,7,11
2.85E+03,-8477,-137,510,-89,75,-68,1,7,11
2.85E+03,-8173,-365,495,80,82,-121,1,7,11
2.86E+03,-8164,-369,488,-281,120,85,1,7,11
2.86E+03,-8163,-383,482,-372,-98,56,1,7,11
2.86E+03,-8185,-149,472,-193,-58,43,1,7,11
2.86E+03,-8463,-181,450,-244,-23,53,1,7,11
2.86E+03,-8471,-225,433,-523,275,68,1,7,11
2.86E+03,-8485,-529,430,-517,296,68,1,7,11
2.86E+03,-8510,-567,433,-234,312,56,1,7,11
2.86E+03,-8531,-591,428,-130,303,39,1,7,11
2.86E+03,-8545,-573,416,-295,277,28,1,7,11
2.86E+03,-8566,-534,403,33,-13,31,1,7,11
2.86E+03,-8569,-227,402,73,-62,54,1,7,11
2.86E+03,-8564,-181,406,80,-105,85,1,7,11
2.86E+03,-8555,-139,428,63,111,122,1,7,11
2.86E+03,-8537,-379,457,36,72,-107,1,7,11
2.86E+03,-8531,-363,488,11,48,-98,1,7,11
2.86E+03,-8517,-341,497,-270,29,-97,1,7,11
2.86E+03,-8490,-324,490,-313,29,-110,1,7,11
2.86E+03,-8463,-341,491,-130,54,111,1,7,11
2.86E+03,-8452,-133,482,-192,89,58,1,7,11
2.86E+03,-8179,-170,454,-230,124,-262,1,7,11
2.86E+03,-8160,-215,406,-256,-87,-324,1,7,11
2.86E+03,-8157,-513,626,-521,-26,-373,1,7,11
2.86E+03,-8449,-577,611,-253,297,-149,1,7,11
2.86E+03,-8495,-631,615,-193,342,-157,1,7,11
2.86E+03,-8545,-411,620,-343,357,-136,1,7,11
2.86E+03,-8341,-424,398,55,331,-344,1,7,11
2.86E+03,-8385,-411,426,-50,266,-273,1,7,11
2.86E+03,-8394,-625,432,347,-97,68,1,7,11
2.86E+03,-8378,-550,431,189,51,-111,1,7,11
2.86E+03,-8363,-207,437,223,-296,-52,1,7,11
2.86E+03,-8325,-131,429,197,-374,256,1,7,11
2.86E+03,-8534,-341,429,373,-162,283,1,7,11
2.86E+03,-8494,-322,449,269,-171,282,1,7,11
2.86E+03,-8452,-336,476,-80,-155,-3,1,7,11
2.86E+03,-8152,-355,489,122,-377,-54,1,7,11
2.86E+03,-8135,-380,498,83,-311,-127,1,7,11
2.86E+03,-8126,-153,501,69,10,55,1,7,11
2.86E+03,-8131,-169,484,80,76,-278,1,7,11
2.86E+03,-8161,-165,458,106,-117,-345,1,7,11
2.86E+03,-8470,-165,461,116,-49,-147,1,7,11
2.87E+03,-8525,-183,496,108,-29,-148,1,7,11
2.87E+03,-8564,-187,794,-126,-43,-372,1,7,11
2.87E+03,-8322,-192,815,-105,-85,-335,1,7,11
2.87E+03,-8340,-177,821,-81,124,-295,1,7,11
2.87E+03,-8328,-151,816,-96,72,-264,1,7,11
2.87E+03,-8563,-131,789,107,37,7,1,7,11
2.87E+03,-8527,-376,510,25,21,14,1,7,11
2.87E+03,-8490,-158,500,-328,26,12,1,7,11
2.87E+03,-8454,-189,480,-379,33,5,1,7,11
2.87E+03,-8174,-218,467,-153,67,-272,1,7,11
2.87E+03,-8449,-520,478,-149,105,-299,1,7,11
2.87E+03,-8470,-548,477,-353,-120,-319,1,7,11
2.87E+03,-8526,-551,480,-284,-92,-330,1,7,11
2.87E+03,-8572,-550,492,33,-86,-330,1,7,11
2.87E+03,-8364,-542,491,91,-100,-325,1,7,11
2.87E+03,-8369,-532,484,-120,119,-312,1,7,11
2.87E+03,-8351,-537,475,-108,78,-306,1,7,11
2.87E+03,-8561,-558,473,-124,41,-321,1,7,11
2.87E+03,-8520,-590,477,122,29,-361,1,7,11
2.87E+03,-8491,-605,483,-125,38,-155,1,7,11
2.87E+03,-8476,-594,476,-109,57,-194,1,7,11
2.87E+03,-8467,-572,464,-111,90,-207,1,7,11
2.87E+03,-8468,-565,468,114,-128,-191,1,7,11
2.87E+03,-8459,-570,489,79,-107,-155,1,7,11
2.87E+03,-8192,-582,507,54,-93,-373,1,7,11
2.87E+03,-8177,-566,778,46,-86,-339,1,7,11
2.87E+03,-8163,-533,786,30,-77,-306,1,7,11
2.87E+03,-8156,-243,774,-271,-61,-278,1,7,11
2.87E+03,-8141,-204,491,-342,-38,8,1,7,11
2.87E+03,-8123,-183,454,-195,263,25,1,7,11
2.87E+03,-8112,-187,426,-581,329,27,1,7,11
2.87E+03,-8115,-222,635,-433,147,24,1,7,11
2.87E+03,-8117,-524,587,-509,216,17,1,7,11
2.87E+03,-8125,-588,556,-802,538,-261,1,7,11
2.87E+03,-8163,-401,533,-791,595,-292,1,7,11
2.87E+03,-8465,-445,254,-469,620,-326,1,7,11
2.87E+03,-8519,-485,248,-631,620,-354,1,7,11
2.87E+03,-8571,-509,244,-517,588,-363,1,7,11
2.87E+03,-8357,-510,241,-131,522,-351,1,7,11
2.87E+03,-8390,-500,242,-264,174,-323,1,7,11
2.88E+03,-8404,-460,248,98,322,-284,1,7,11
2.88E+03,-8397,-439,252,-78,-44,19,1,7,11
2.88E+03,-8378,-401,523,-34,113,67,1,7,11
2.88E+03,-8346,-617,544,-17,39,115,1,7,11
2.88E+03,-8323,-601,560,-16,-267,-101,1,7,11
2.88E+03,-8537,-577,556,-20,-310,-79,1,7,11
2.88E+03,-8501,-553,570,-41,-332,-84,1,7,11
2.88E+03,-8475,-543,588,-85,-338,125,1,7,11
2.88E+03,-8459,-552,617,114,-336,74,1,7,11
2.88E+03,-8449,-570,388,56,-336,25,1,7,11
2.88E+03,-8183,-587,403,-260,-321,-277,1,7,11
2.88E+03,-8180,-606,412,-284,-302,-312,1,7,11
2.88E+03,-8181,-620,411,-301,-283,-335,1,7,11
2.88E+03,-8180,-630,426,-318,4,-346,1,7,11
2.88E+03,-8179,-640,436,-338,33,-346,1,7,11
2.88E+03,-8179,-398,435,-359,59,-332,1,7,11
2.88E+03,-8451,-421,439,-379,83,-318,1,7,11
2.88E+03,-8466,-438,445,-382,94,-297,1,7,11
2.88E+03,-8465,-438,437,-370,105,-278,1,7,11
2.88E+03,-8464,-435,426,-359,125,-261,1,7,11
2.88E+03,-8467,-434,414,-361,-106,11,1,7,11
2.88E+03,-8469,-439,391,-360,-78,18,1,7,11
2.88E+03,-8479,-432,638,-357,-51,17,1,7,11
2.88E+03,-8499,-435,634,-358,-28,6,1,7,11
2.88E+03,-8529,-445,634,-353,-18,-263,1,7,11
2.88E+03,-8538,-447,389,-337,-30,-276,1,7,11
2.88E+03,-8533,-448,638,-319,-53,-280,1,7,11
2.88E+03,-8525,-446,634,-312,-78,-289,1,7,11
2.88E+03,-8489,-447,624,-314,-120,-298,1,7,11
2.88E+03,-8466,-454,605,-342,111,-324,1,7,11
2.88E+03,-8451,-452,584,-378,98,-352,1,7,11
2.88E+03,-8190,-461,571,-171,91,-371,1,7,11
2.88E+03,-8187,-462,554,-206,90,-365,1,7,11
2.88E+03,-8187,-463,545,-235,102,-335,1,7,11
2.88E+03,-8465,-481,555,-516,-125,-298,1,7,11
2.88E+03,-8471,-492,560,-249,-111,8,1,7,11
2.88E+03,-8489,-512,573,-227,-98,44,1,7,11
2.88E+03,-8500,-779,598,-180,-94,67,1,7,11
2.88E+03,-8500,-510,609,-373,-105,78,1,7,11
2.88E+03,-8481,-484,588,-324,-122,71,1,7,11
2.89E+03,-8453,-460,556,-317,-122,45,1,7,11
2.89E+03,-8192,-455,540,-368,-84,-268,1,7,11
2.89E+03,-8459,-473,533,-142,-64,-287,1,7,11
2.89E+03,-8467,-486,521,-148,-53,-293,1,7,11
2.89E+03,-8475,-497,517,-134,-41,-288,1,7,11
2.89E+03,-8486,-506,515,-359,-33,-266,1,7,11
2.89E+03,-8509,-773,533,-316,-22,18,1,7,11
2.89E+03,-8532,-775,543,-260,-34,48,1,7,11
2.89E+03,-8538,-498,539,56,-57,70,1,7,11
2.89E+03,-8536,-472,532,91,-87,81,1,7,11
2.89E+03,-8550,-445,543,96,-110,77,1,7,11
2.89E+03,-8553,-424,556,77,111,72,1,7,11
2.89E+03,-8546,-420,567,45,73,72,1,7,11
2.89E+03,-8525,-432,569,17,43,75,1,7,11
2.89E+03,-8501,-434,570,0,28,79,1,7,11
2.89E+03,-8476,-455,576,-272,27,86,1,7,11
2.89E+03,-8461,-461,573,-272,27,97,1,7,11
2.89E+03,-8455,-469,566,-268,25,105,1,7,11
2.89E+03,-8453,-467,552,-260,17,103,1,7,11
2.89E+03,-8462,-460,549,-264,3,89,1,7,11
2.89E+03,-8482,-470,567,-272,-274,71,1,7,11
2.89E+03,-8502,-484,584,-261,-302,63,1,7,11
2.89E+03,-8513,-494,627,22,-325,70,1,7,11
2.89E+03,-8508,-503,404,67,-342,92,1,7,11
2.89E+03,-8483,-495,420,123,-347,117,1,7,11
2.89E+03,-8456,-471,431,-88,-327,-125,1,7,11
2.89E+03,-8455,-436,441,-64,-283,-119,1,7,11
2.89E+03,-8191,-385,427,-63,19,-117,1,7,11
2.89E+03,-8457,-610,437,-101,73,-128,1,7,11
2.89E+03,-8476,-593,444,106,121,120,1,7,11
2.89E+03,-8476,-591,448,51,-108,110,1,7,11
2.89E+03,-8454,-605,438,-260,-86,80,1,7,11
2.89E+03,-8181,-630,427,-312,-74,6,1,7,11
2.89E+03,-8172,-403,395,-365,-73,-315,1,7,11
2.89E+03,-8172,-427,613,-155,-61,-375,1,7,11
2.89E+03,-8155,-471,575,-198,-51,-159,1,7,11
2.89E+03,-8150,-776,537,-232,-14,-182,1,7,11
2.89E+03,-8172,-842,531,-253,280,-187,1,7,11
2.89E+03,-8469,-645,549,-230,307,-168,1,7,11
2.89E+03,-8518,-685,568,-158,307,-131,1,7,11
2.90E+03,-8566,-696,580,22,272,-331,1,7,11
2.90E+03,-8337,-668,592,-111,-52,-276,1,7,11
2.90E+03,-8340,-869,589,-15,104,39,1,7,11
2.90E+03,-8546,-804,591,273,9,77,1,7,11
2.90E+03,-8531,-501,629,-11,-302,95,1,7,11
2.90E+03,-8516,-450,393,-50,-345,115,1,7,11
2.90E+03,-8498,-402,398,-111,-362,-120,1,7,11
2.90E+03,-8471,-628,393,59,-352,-103,1,7,11
2.90E+03,-8183,-633,636,-298,-314,-99,1,7,11
2.90E+03,-8166,-408,604,-379,6,-113,1,7,11
2.90E+03,-8143,-448,574,-173,79,106,1,7,11
2.90E+03,-8148,-497,547,-209,-94,51,1,7,11
2.90E+03,-8157,-799,546,-217,-24,-260,1,7,11
2.90E+03,-8457,-844,561,-196,288,-311,1,7,11
2.90E+03,-8490,-868,569,-377,299,-341,1,7,11
2.90E+03,-8529,-875,607,-290,285,-365,1,7,11
2.90E+03,-8563,-858,387,70,-15,-368,1,7,11
2.90E+03,-8327,-792,406,-83,-77,-348,1,7,11
2.90E+03,-8324,-449,420,-24,113,-302,1,7,11
2.90E+03,-8559,-635,413,-39,59,12,1,7,11
2.90E+03,-8504,-582,628,-115,16,67,1,7,11
2.90E+03,-8191,-575,612,7,4,88,1,7,11
2.90E+03,-8130,-617,576,-151,31,71,1,7,11
2.90E+03,-8102,-435,542,-553,99,22,1,7,11
2.90E+03,-8088,-787,523,-394,-72,-287,1,7,11
2.90E+03,-8096,-886,236,-420,271,-327,1,7,11
2.90E+03,-8128,-714,214,-633,349,-354,1,7,11
2.90E+03,-8187,-1035,217,-533,141,-366,1,7,11
2.90E+03,-8519,-1060,225,-380,145,-351,1,7,11
2.90E+03,-8348,-1045,245,46,350,-306,1,7,11
2.90E+03,-8416,-736,529,-45,-12,33,1,7,11
2.90E+03,-8439,-658,538,348,90,-119,1,7,11
2.90E+03,-8430,-830,557,173,-325,-17,1,7,11
2.90E+03,-8407,-500,585,197,-209,324,1,7,11
2.90E+03,-8346,-437,590,176,-572,381,1,7,11
2.90E+03,-8533,-391,602,364,-622,144,1,7,11
2.90E+03,-8477,-632,616,269,-615,380,1,7,11
2.90E+03,-8183,-387,415,-78,-571,327,1,7,11
2.90E+03,-8144,-407,447,115,-253,-10,1,7,11
2.90E+03,-8117,-428,459,80,-174,-106,1,7,11
2.91E+03,-8110,-441,448,59,-341,51,1,7,11
2.91E+03,-8112,-457,429,35,-259,-289,1,7,11
2.91E+03,-8125,-477,409,8,70,-351,1,7,11
2.91E+03,-8167,-502,392,-272,125,-131,1,7,11
2.91E+03,-8202,-789,412,-293,-92,-146,1,7,11
2.91E+03,-8494,-815,422,-298,-80,-136,1,7,11
2.91E+03,-8521,-829,440,-272,-95,-360,1,7,11
2.91E+03,-8528,-831,441,31,121,-289,1,7,11
2.91E+03,-8513,-828,444,81,62,13,1,7,11
2.91E+03,-8492,-808,443,127,47,31,1,7,11
2.91E+03,-8480,-780,433,-90,33,60,1,7,11
2.91E+03,-8470,-504,430,-103,37,66,1,7,11
2.91E+03,-8468,-501,442,127,50,65,1,7,11
2.91E+03,-8472,-501,446,99,61,61,1,7,11
2.91E+03,-8470,-511,439,82,70,62,1,7,11
2.91E+03,-8467,-774,427,73,83,62,1,7,11
2.91E+03,-8473,-783,435,62,90,68,1,7,11
2.91E+03,-8491,-800,454,58,99,70,1,7,11
2.91E+03,-8500,-796,463,82,79,77,1,7,11
2.91E+03,-8504,-779,483,105,53,78,1,7,11
2.91E+03,-8491,-502,479,118,18,84,1,7,11
2.91E+03,-8496,-490,485,110,4,81,1,7,11
2.91E+03,-8497,-475,500,89,-261,82,1,7,11
2.91E+03,-8492,-469,495,66,-269,82,1,7,11
2.91E+03,-8469,-475,486,34,-262,78,1,7,11
2.91E+03,-8455,-486,484,0,22,71,1,7,11
2.91E+03,-8192,-772,485,-293,62,50,1,7,11
2.91E+03,-8451,-802,484,-308,98,18,1,7,11
2.91E+03,-8455,-822,482,-302,-123,-271,1,7,11
2.91E+03,-8465,-837,485,-289,-105,-294,1,7,11
2.91E+03,-8468,-842,470,-261,-100,-298,1,7,11
2.91E+03,-8478,-837,459,14,-94,-295,1,7,11
2.91E+03,-8479,-836,461,27,-100,-275,1,7,11
2.91E+03,-8483,-839,471,41,-109,5,1,7,11
2.91E+03,-8489,-828,471,56,-116,25,1,7,11
2.91E+03,-8491,-812,481,64,-123,43,1,7,11
2.91E+03,-8490,-798,479,67,-127,58,1,7,11
2.91E+03,-8480,-782,470,56,-126,67,1,7,11
2.91E+03,-8468,-792,468,26,-120,62,1,7,11
2.91E+03,-8467,-814,463,-257,-108,43,1,7,11
2.92E+03,-8468,-823,454,-273,-104,15,1,7,11
2.92E+03,-8468,-833,461,-287,-101,-264,1,7,11
2.92E+03,-8473,-851,462,-295,-101,-274,1,7,11
2.92E+03,-8466,-864,456,-269,-107,1,1,7,11
2.92E+03,-8451,-865,448,12,-112,24,1,7,11
2.92E+03,-8458,-863,448,30,-113,42,1,7,11
2.92E+03,-8461,-851,447,44,-117,66,1,7,11
2.92E+03,-8460,-829,429,56,-124,83,1,7,11
2.92E+03,-8453,-796,416,47,-115,98,1,7,11
2.92E+03,-8463,-795,408,12,-92,109,1,7,11
2.92E+03,-8487,-809,421,-270,-67,112,1,7,11
2.92E+03,-8507,-819,428,-261,-56,116,1,7,11
2.92E+03,-8516,-816,417,33,-54,117,1,7,11
2.92E+03,-8505,-793,392,65,-67,115,1,7,11
2.92E+03,-8501,-786,631,70,-77,100,1,7,11
2.92E+03,-8511,-789,635,66,-92,80,1,7,11
2.92E+03,-8527,-796,639,78,-115,63,1,7,11
2.92E+03,-8531,-792,390,96,112,56,1,7,11
2.92E+03,-8518,-785,397,116,93,61,1,7,11
2.92E+03,-8499,-779,414,126,79,68,1,7,11
2.92E+03,-8476,-775,428,126,78,53,1,7,11
2.92E+03,-8481,-771,462,120,85,22,1,7,11
2.92E+03,-8474,-496,487,113,82,-266,1,7,11
2.92E+03,-8487,-478,501,83,85,-296,1,7,11
2.92E+03,-8484,-473,769,30,73,-308,1,7,11
2.92E+03,-8450,-480,504,-296,62,-319,1,7,11
2.92E+03,-8149,-507,476,-378,65,-343,1,7,11
2.92E+03,-8123,-802,447,-208,88,-376,1,7,11
2.92E+03,-8121,-855,410,-544,122,-150,1,7,11
2.92E+03,-8125,-661,628,-596,-96,-158,1,7,11
2.92E+03,-8130,-723,586,-605,-54,-138,1,7,11
2.92E+03,-8153,-1045,576,-577,260,-359,1,7,11
2.92E+03,-8465,-1093,582,-237,315,-301,1,7,11
2.92E+03,-8557,-1123,619,-366,342,32,1,7,11
2.92E+03,-8351,-1100,631,65,296,123,1,7,11
2.92E+03,-8386,-1043,391,-30,-33,-59,1,7,11
2.92E+03,-8398,-705,423,343,122,-5,1,7,11
2.92E+03,-8378,-863,449,162,3,287,1,7,11
2.92E+03,-8351,-500,463,173,-350,304,1,7,11
2.92E+03,-8566,-403,469,129,-174,328,1,7,11
2.93E+03,-8492,-582,461,291,-217,340,1,7,11
2.93E+03,-8171,-554,465,-104,-209,322,1,7,11
2.93E+03,-8116,-569,480,6,-158,276,1,7,11
2.93E+03,-8077,-619,485,-364,-342,-57,1,7,11
2.93E+03,-8066,-417,482,-179,2,105,1,7,11
2.93E+03,-8072,-483,462,-215,95,13,1,7,11
2.93E+03,-8093,-811,430,-221,-67,-318,1,7,11
2.93E+03,-8135,-877,394,-196,278,-370,1,7,11
2.93E+03,-8192,-687,391,-142,345,-138,1,7,11
2.93E+03,-8507,-727,394,-301,380,-383,1,7,11
2.93E+03,-8567,-742,416,77,373,-344,1,7,11
2.93E+03,-8359,-703,437,-49,324,-270,1,7,11
2.93E+03,-8389,-886,450,322,-11,84,1,7,11
2.93E+03,-8374,-815,485,138,-116,-66,1,7,11
2.93E+03,-8393,-501,797,142,42,276,1,7,11
2.93E+03,-8338,-419,794,137,-339,354,1,7,11
2.93E+03,-8516,-588,508,351,-190,146,1,7,11
2.93E+03,-8161,-531,469,-7,-238,136,1,7,11
2.93E+03,-8109,-524,424,88,-220,364,1,7,11
2.93E+03,-8292,-582,415,-196,-315,-50,1,7,11
2.93E+03,-8079,-406,429,-571,73,92,1,7,11
2.93E+03,-8124,-481,439,-592,-88,7,1,7,11
2.93E+03,-8454,-797,452,-548,-21,-313,1,7,11
2.93E+03,-8534,-847,484,-219,260,-346,1,7,11
2.93E+03,-8355,-878,506,-370,-30,-345,1,7,11
2.93E+03,-8364,-857,488,5,-119,-323,1,7,11
2.93E+03,-8325,-819,472,71,56,-311,1,7,11
2.93E+03,-8550,-808,488,84,8,-302,1,7,11
2.93E+03,-8519,-800,771,81,-275,-290,1,7,11
2.93E+03,-8491,-802,804,82,-282,-277,1,7,11
2.93E+03,-8464,-793,822,95,-268,-257,1,7,11
2.93E+03,-8169,-512,818,111,14,12,1,7,11
2.93E+03,-8155,-497,825,88,61,5,1,7,11
2.93E+03,-8139,-484,809,57,97,-270,1,7,11
2.93E+03,-8124,-477,777,9,-120,-308,1,7,11
2.93E+03,-8137,-491,488,-317,-77,-350,1,7,11
2.93E+03,-8154,-512,470,-380,-29,-371,1,7,11
2.93E+03,-8181,-811,465,-175,270,-375,1,7,11
2.93E+03,-8192,-871,478,-204,298,-367,1,7,11
2.93E+03,-8476,-677,507,-184,316,-365,1,7,11
2.94E+03,-8519,-697,783,-358,310,-362,1,7,11
2.94E+03,-8528,-678,506,6,272,-354,1,7,11
2.94E+03,-8502,-879,458,82,-23,-341,1,7,11
2.94E+03,-8477,-856,428,81,-40,-333,1,7,11
2.94E+03,-8471,-852,411,55,-45,-325,1,7,11
2.94E+03,-8456,-855,386,25,-56,-311,1,7,11
2.94E+03,-8475,-893,394,-274,-65,-303,1,7,11
2.94E+03,-8485,-675,406,-293,-80,-284,1,7,11
2.94E+03,-8485,-697,404,-274,-110,-263,1,7,11
2.94E+03,-8498,-700,425,16,-128,14,1,7,11
2.94E+03,-8499,-710,441,48,109,31,1,7,11
2.94E+03,-8484,-699,451,82,86,36,1,7,11
2.94E+03,-8189,-682,439,111,55,33,1,7,11
2.94E+03,-8186,-666,446,110,49,19,1,7,11
2.94E+03,-8189,-648,452,95,52,19,1,7,11
2.94E+03,-8189,-887,439,69,54,29,1,7,11
2.94E+03,-8183,-860,423,27,80,55,1,7,11
2.94E+03,-8450,-844,410,9,102,92,1,7,11
2.94E+03,-8455,-853,416,-286,-90,-121,1,7,11
2.94E+03,-8463,-877,427,-320,-53,-91,1,7,11
2.94E+03,-8474,-894,441,-316,-26,-85,1,7,11
2.94E+03,-8484,-894,451,-282,-22,-100,1,7,11
2.94E+03,-8510,-877,463,34,-37,124,1,7,11
2.94E+03,-8516,-848,466,52,-66,96,1,7,11
2.94E+03,-8519,-806,454,40,-91,72,1,7,11
2.94E+03,-8511,-509,437,-270,-106,59,1,7,11
2.94E+03,-8501,-502,428,-356,-112,63,1,7,11
2.94E+03,-8483,-771,414,-185,-106,79,1,7,11
2.94E+03,-8463,-816,396,-517,-85,90,1,7,11
2.94E+03,-8174,-868,625,-548,-58,91,1,7,11
2.94E+03,-8154,-685,598,-562,-11,59,1,7,11
2.94E+03,-8167,-742,588,-522,293,17,1,7,11
2.94E+03,-8459,-1029,572,-182,323,-272,1,7,11
2.94E+03,-8474,-756,553,-334,325,-283,1,7,11
2.94E+03,-8475,-752,539,-268,316,-289,1,7,11
2.94E+03,-8504,-755,569,50,306,-284,1,7,11
2.94E+03,-8510,-745,595,111,261,-262,1,7,11
2.94E+03,-8532,-724,631,-92,-44,20,1,7,11
2.94E+03,-8536,-683,411,-49,-107,67,1,7,11
2.94E+03,-8533,-873,425,-22,96,123,1,7,11
2.95E+03,-8515,-805,418,-41,62,-70,1,7,11
2.95E+03,-8478,-482,398,-105,50,-15,1,7,11
2.95E+03,-8185,-441,625,47,61,273,1,7,11
2.95E+03,-8149,-425,591,-328,89,274,1,7,11
2.95E+03,-8125,-431,555,-190,-127,-11,1,7,11
2.95E+03,-8117,-469,526,-543,-82,-62,1,7,11
2.95E+03,-8140,-785,255,-597,-39,-118,1,7,11
2.95E+03,-8181,-858,251,-588,-12,95,1,7,11
2.95E+03,-8481,-652,255,-256,-4,67,1,7,11
2.95E+03,-8526,-691,252,-140,-22,52,1,7,11
2.95E+03,-8546,-706,512,-262,-66,43,1,7,11
2.95E+03,-8553,-695,255,123,-124,31,1,7,11
2.95E+03,-8546,-659,513,-41,71,18,1,7,11
2.95E+03,-8551,-878,536,-2,21,4,1,7,11
2.95E+03,-8560,-858,587,262,-277,11,1,7,11
2.95E+03,-8570,-841,637,271,-314,43,1,7,11
2.95E+03,-8562,-806,418,284,-347,99,1,7,11
2.95E+03,-8533,-510,446,271,-372,-103,1,7,11
2.95E+03,-8486,-476,449,-25,-131,-70,1,7,11
2.95E+03,-8185,-463,444,-109,-378,-77,1,7,11
2.95E+03,-8155,-462,423,51,-349,-117,1,7,11
2.95E+03,-8124,-475,407,-310,-302,79,1,7,11
2.95E+03,-8116,-775,388,-159,23,14,1,7,11
2.95E+03,-8101,-854,636,-228,86,-295,1,7,11
2.95E+03,-8115,-689,405,-244,-98,-353,1,7,11
2.95E+03,-8154,-756,425,-177,-45,-129,1,7,11
2.95E+03,-8458,-1034,435,-310,-19,-379,1,7,11
2.95E+03,-8489,-756,432,78,-23,-341,1,7,11
2.95E+03,-8519,-720,415,-83,-37,-283,1,7,11
2.95E+03,-8538,-682,407,-25,-81,29,1,7,11
2.95E+03,-8550,-652,397,261,127,74,1,7,11
2.95E+03,-8541,-878,384,268,76,104,1,7,11
2.95E+03,-8530,-850,389,-12,44,127,1,7,11
2.95E+03,-8522,-832,404,-54,24,-116,1,7,11
2.95E+03,-8507,-816,413,-89,3,-107,1,7,11
2.95E+03,-8501,-794,419,-123,-257,-106,1,7,11
2.95E+03,-8501,-779,422,102,-259,-104,1,7,11
2.95E+03,-8490,-769,420,72,-260,-100,1,7,11
2.95E+03,-8473,-512,404,42,1,-100,1,7,11
2.95E+03,-8450,-793,396,12,21,-118,1,7,11
2.96E+03,-8180,-851,388,-264,47,100,1,7,11
2.96E+03,-8187,-889,389,-258,77,54,1,7,11
2.96E+03,-8183,-663,386,34,101,16,1,7,11
2.96E+03,-8454,-676,413,78,122,-286,1,7,11
2.96E+03,-8466,-675,426,-123,-125,-291,1,7,11
2.96E+03,-8490,-656,451,-69,124,-285,1,7,11
2.96E+03,-8487,-862,484,-37,88,-262,1,7,11
2.96E+03,-8484,-816,768,-34,47,27,1,7,11
2.96E+03,-8457,-781,794,-58,4,60,1,7,11
2.96E+03,-8464,-482,798,-106,-271,83,1,7,11
2.96E+03,-8173,-436,782,90,-285,114,1,7,11
2.96E+03,-8147,-404,504,-264,-273,-111,1,7,11
2.96E+03,-8137,-406,484,-133,29,-103,1,7,11
2.96E+03,-8138,-435,483,-518,102,-97,1,7,11
2.96E+03,-8178,-484,485,-614,-76,-98,1,7,11
2.96E+03,-8467,-785,476,-403,-6,-104,1,7,11
2.96E+03,-8499,-821,480,-398,303,-115,1,7,11
2.96E+03,-8527,-843,487,-617,328,124,1,7,11
2.96E+03,-8559,-869,491,-524,322,67,1,7,11
2.96E+03,-8567,-864,459,-188,290,16,1,7,11
2.96E+03,-8556,-858,428,-382,-2,-298,1,7,11
2.96E+03,-8526,-859,391,-343,-24,-354,1,7,11
2.96E+03,-8496,-884,605,-329,-15,-136,1,7,11
2.96E+03,-8459,-677,579,-331,265,-165,1,7,11
2.96E+03,-8470,-739,570,-330,302,-193,1,7,11
2.96E+03,-8495,-1032,557,-285,332,-209,1,7,11
2.96E+03,-8517,-1042,559,40,349,-200,1,7,11
2.96E+03,-8550,-1038,580,125,337,-156,1,7,11
2.96E+03,-8571,-1025,602,-46,292,-345,1,7,11
2.96E+03,-8572,-736,633,274,-30,-282,1,7,11
2.96E+03,-8547,-666,392,345,-117,35,1,7,11
2.96E+03,-8532,-841,405,369,61,76,1,7,11
2.96E+03,-8472,-491,627,353,-266,-106,1,7,11
2.96E+03,-8171,-449,611,-3,-307,-84,1,7,11
2.96E+03,-8149,-445,608,94,-297,-79,1,7,11
2.96E+03,-8101,-483,596,-316,-269,-87,1,7,11
2.96E+03,-8303,-541,588,-193,37,-128,1,7,11
2.96E+03,-8275,-869,576,-547,117,66,1,7,11
2.96E+03,-8280,-671,562,-591,-49,-257,1,7,11
2.96E+03,-8091,-723,572,-584,292,-308,1,7,11
2.97E+03,-8155,-765,578,-533,362,-328,1,7,11
2.97E+03,-8477,-765,588,-175,148,-296,1,7,11
2.97E+03,-8530,-742,565,-251,140,14,1,7,11
2.97E+03,-8560,-696,537,54,380,42,1,7,11
2.97E+03,-8563,-645,235,-126,327,109,1,7,11
2.97E+03,-8333,-874,217,-113,283,127,1,7,11
2.97E+03,-8360,-878,220,118,-40,-114,1,7,11
2.97E+03,-8355,-646,219,84,-103,-113,1,7,11
2.97E+03,-8322,-690,234,90,96,119,1,7,11
2.97E+03,-8530,-739,248,-125,45,67,1,7,11
2.97E+03,-8492,-1025,523,-60,11,-270,1,7,11
2.97E+03,-8464,-1038,540,273,-262,-358,1,7,11
2.97E+03,-8477,-762,570,352,3,-162,1,7,11
2.97E+03,-8494,-709,582,163,6,-160,1,7,11
2.97E+03,-8512,-644,606,176,1,-363,1,7,11
2.97E+03,-8522,-847,622,140,-268,-280,1,7,11
2.97E+03,-8530,-795,635,333,-295,72,1,7,11
2.97E+03,-8498,-457,628,-16,-323,-101,1,7,11
2.97E+03,-8476,-440,624,103,-336,-49,1,7,11
2.97E+03,-8181,-451,635,-313,-342,-22,1,7,11
2.97E+03,-8133,-493,637,-217,-329,-31,1,7,11
2.97E+03,-8082,-806,384,-590,-302,-111,1,7,11
2.97E+03,-8066,-878,404,-409,10,59,1,7,11
2.97E+03,-8304,-681,403,-419,74,-275,1,7,11
2.97E+03,-8298,-718,629,-623,-75,-341,1,7,11
2.97E+03,-8076,-749,599,-550,14,-382,1,7,11
2.97E+03,-8137,-1029,562,-214,353,-133,1,7,11
2.97E+03,-8464,-1043,547,-132,150,-365,1,7,11
2.97E+03,-8529,-1030,524,-300,158,-319,1,7,11
2.97E+03,-8337,-753,526,45,131,-271,1,7,11
2.97E+03,-8365,-721,526,83,305,43,1,7,11
2.97E+03,-8371,-686,547,77,-49,81,1,7,11
2.97E+03,-8364,-652,560,49,110,113,1,7,11
2.97E+03,-8338,-876,579,-264,22,-125,1,7,11
2.97E+03,-8528,-859,579,-338,-314,126,1,7,11
2.97E+03,-8155,-863,553,-167,-361,77,1,7,11
2.97E+03,-8109,-883,542,-527,-318,-274,1,7,11
2.97E+03,-8115,-656,567,-595,14,-348,1,7,11
2.97E+03,-8149,-685,603,-619,90,-381,1,7,11
2.97E+03,-8163,-701,629,-593,-123,-373,1,7,11
2.98E+03,-8157,-706,634,-545,-109,-353,1,7,11
2.98E+03,-8165,-711,636,-250,-111,-349,1,7,11
2.98E+03,-8159,-692,602,-216,122,-352,1,7,11
2.98E+03,-8185,-671,587,-226,110,-354,1,7,11
2.98E+03,-8460,-676,560,-522,91,-300,1,7,11
2.98E+03,-8478,-712,570,-570,91,11,1,7,11
2.98E+03,-8493,-765,600,-593,125,66,1,7,11
2.98E+03,-8494,-1075,621,-536,-100,113,1,7,11
2.98E+03,-8487,-1094,389,-174,-64,-110,1,7,11
2.98E+03,-8496,-1093,404,-300,-24,-90,1,7,11
2.98E+03,-8505,-1051,391,94,266,-77,1,7,11
2.98E+03,-8513,-735,629,-54,288,-70,1,7,11
2.98E+03,-8533,-671,612,267,288,-60,1,7,11
2.98E+03,-8518,-891,583,285,-19,-58,1,7,11
2.98E+03,-8510,-873,538,261,-92,-89,1,7,11
2.98E+03,-8499,-861,239,-48,80,115,1,7,11
2.98E+03,-8508,-887,225,-118,8,74,1,7,11
2.98E+03,-8497,-666,219,88,-320,58,1,7,11
2.98E+03,-8525,-730,255,79,-349,77,1,7,11
2.98E+03,-8541,-1049,558,-109,-370,-120,1,7,11
2.98E+03,-8554,-1089,597,288,-129,-56,1,7,11
2.98E+03,-8562,-1088,632,209,-148,257,1,7,11
2.98E+03,-8564,-1060,410,389,-174,296,1,7,11
2.98E+03,-8546,-744,434,799,-224,313,1,7,11
2.98E+03,-8517,-666,450,895,-539,310,1,7,11
2.98E+03,-8485,-855,466,675,-589,294,1,7,11
2.98E+03,-8461,-807,491,656,-619,276,1,7,11
2.98E+03,-8181,-773,773,857,-624,256,1,7,11
2.98E+03,-8154,-482,805,787,-608,-19,1,7,11
2.98E+03,-8118,-469,824,456,-572,-30,1,7,11
2.98E+03,-8092,-450,844,625,-242,-44,1,7,11
2.98E+03,-8075,-454,868,527,-156,-56,1,7,11
2.98E+03,-8306,-487,882,175,-329,-78,1,7,11
2.98E+03,-8281,-472,857,130,41,-116,1,7,11
2.98E+03,-8275,-462,821,296,-92,77,1,7,11
2.98E+03,-8307,-487,808,-71,292,9,1,7,11
2.98E+03,-8091,-495,777,91,383,-307,1,7,11
2.98E+03,-8136,-778,497,-267,189,-359,1,7,11
2.98E+03,-8166,-816,468,-355,227,-139,1,7,11
2.98E+03,-8189,-850,440,-164,243,-164,1,7,11
2.99E+03,-8468,-873,400,-210,244,-169,1,7,11
2.99E+03,-8475,-653,625,-250,233,-160,1,7,11
2.99E+03,-8491,-694,616,-535,220,-146,1,7,11
2.99E+03,-8492,-737,609,-527,190,-379,1,7,11
2.99E+03,-8500,-1040,614,-234,156,-358,1,7,11
2.99E+03,-8505,-1057,580,-150,365,-336,1,7,11
2.99E+03,-8500,-1040,562,-321,325,-319,1,7,11
2.99E+03,-8508,-758,538,-268,299,-307,1,7,11
2.99E+03,-8538,-747,534,11,279,-292,1,7,11
2.99E+03,-8325,-754,551,31,-7,-265,1,7,11
2.99E+03,-8564,-758,559,79,-62,23,1,7,11
2.99E+03,-8538,-741,562,126,-106,35,1,7,11
2.99E+03,-8522,-722,570,-107,111,26,1,7,11
2.99E+03,-8516,-705,583,-113,72,0,1,7,11
2.99E+03,-8477,-685,583,112,23,-293,1,7,11
2.99E+03,-8192,-679,588,56,2,-333,1,7,11
2.99E+03,-8143,-704,601,-266,0,-357,1,7,11
2.99E+03,-8125,-728,607,-356,42,-356,1,7,11
2.99E+03,-8118,-758,598,-143,88,-352,1,7,11
2.99E+03,-8142,-1045,603,-161,-116,-340,1,7,11
2.99E+03,-8166,-1072,611,-147,-75,-312,1,7,11
2.99E+03,-8459,-1092,386,-353,-37,-264,1,7,11
2.99E+03,-8492,-1092,404,-272,-13,55,1,7,11
2.99E+03,-8514,-1077,420,78,-10,119,1,7,11
2.99E+03,-8524,-1032,419,-85,-28,-80,1,7,11
2.99E+03,-8496,-702,395,-24,-62,-43,1,7,11
2.99E+03,-8466,-872,613,-38,-80,-39,1,7,11
2.99E+03,-8468,-801,591,-126,-82,-53,1,7,11
2.99E+03,-8483,-499,575,2,-95,-70,1,7,11
2.99E+03,-8512,-482,552,-147,-110,-89,1,7,11
2.99E+03,-8513,-493,553,-538,117,-103,1,7,11
2.99E+03,-8500,-778,553,-388,91,-126,1,7,11
2.99E+03,-8498,-831,560,-464,76,88,1,7,11
2.99E+03,-8515,-888,581,-491,65,45,1,7,11
2.99E+03,-8530,-686,596,-465,41,3,1,7,11
2.99E+03,-8542,-724,617,-388,16,-291,1,7,11
2.99E+03,-8520,-730,595,-549,-262,-318,1,7,11
2.99E+03,-8495,-745,607,-219,-259,-348,1,7,11
2.99E+03,-8463,-753,629,-153,10,-374,1,7,11
2.99E+03,-8176,-750,385,-349,26,-142,1,7,11
3.00E+03,-8136,-745,636,-292,47,-155,1,7,11
3.00E+03,-8124,-740,384,3,86,-161,1,7,11
3.00E+03,-8125,-741,633,35,125,-146,1,7,11
3.00E+03,-8130,-749,634,59,-91,-377,1,7,11
3.00E+03,-8128,-755,623,90,-56,-352,1,7,11
3.00E+03,-8128,-1028,607,113,-25,-339,1,7,11
3.00E+03,-8156,-1071,604,-94,257,-340,1,7,11
3.00E+03,-8160,-1081,589,-37,-12,-342,1,7,11
3.00E+03,-8185,-1097,593,270,-30,-353,1,7,11
3.00E+03,-8187,-1102,585,327,-73,-356,1,7,11
3.00E+03,-8185,-1100,597,357,-121,-368,1,7,11
3.00E+03,-8452,-1098,587,362,79,-372,1,7,11
3.00E+03,-8462,-1101,607,340,25,-370,1,7,11
3.00E+03,-8461,-1108,603,312,-273,-349,1,7,11
3.00E+03,-8452,-1118,605,278,-294,-314,1,7,11
3.00E+03,-8462,-1143,389,-8,-276,-267,1,7,11
3.00E+03,-8487,-911,435,-3,7,50,1,7,11
3.00E+03,-8512,-906,460,293,35,117,1,7,11
3.00E+03,-8552,-1138,487,332,63,-79,1,7,11
3.00E+03,-8575,-1109,508,368,65,-18,1,7,11
3.00E+03,-8564,-1046,483,132,51,271,1,7,11
3.00E+03,-8530,-728,434,348,42,264,1,7,11
3.00E+03,-8518,-685,403,261,35,-27,1,7,11
3.00E+03,-8484,-662,620,-113,25,-81,1,7,11
3.00E+03,-8466,-680,613,12,20,112,1,7,11
3.00E+03,-8456,-732,622,-350,17,52,1,7,11
3.00E+03,-8459,-1064,391,-140,18,1,1,7,11
3.00E+03,-8459,-1135,431,-370,15,-291,1,7,11
3.00E+03,-8465,-910,457,-272,13,-302,1,7,11
3.00E+03,-8173,-1146,447,116,4,-295,1,7,11
3.00E+03,-8132,-1109,424,-56,22,-297,1,7,11
3.00E+03,-8135,-1075,424,-16,61,-303,1,7,11
3.00E+03,-8143,-1041,424,-6,76,-299,1,7,11
3.00E+03,-8155,-758,442,-30,75,-290,1,7,11
3.00E+03,-8169,-739,468,-69,54,-262,1,7,11
3.00E+03,-8160,-730,485,-124,27,28,1,7,11
3.00E+03,-8137,-724,491,65,16,55,1,7,11
3.00E+03,-8112,-725,469,-271,30,73,1,7,11
3.00E+03,-8080,-745,453,-352,68,84,1,7,11
3.00E+03,-8071,-1034,438,-165,127,86,1,7,11
3.01E+03,-8092,-1060,417,-198,-57,89,1,7,11
3.01E+03,-8131,-1084,407,-207,-1,93,1,7,11
3.01E+03,-8450,-1097,407,-191,297,102,1,7,11
3.01E+03,-8528,-1089,406,-146,299,-128,1,7,11
3.01E+03,-8546,-1080,401,-345,279,-86,1,7,11
3.01E+03,-8562,-1041,384,-287,-11,-49,1,7,11
3.01E+03,-8565,-1008,620,14,-58,-35,1,7,11
3.01E+03,-8567,-733,614,42,-115,-44,1,7,11
3.01E+03,-8554,-706,613,53,80,-70,1,7,11
3.01E+03,-8532,-697,624,52,27,-115,1,7,11
3.01E+03,-8516,-695,633,44,-271,96,1,7,11
3.01E+03,-8506,-714,407,32,-297,57,1,7,11
3.01E+03,-8482,-738,420,24,-316,16,1,7,11
3.01E+03,-8471,-747,447,26,-321,-9,1,7,11
3.01E+03,-8189,-754,457,37,-311,-288,1,7,11
3.01E+03,-8157,-759,467,33,-295,-309,1,7,11
3.01E+03,-8143,-765,477,5,-269,-340,1,7,11
3.01E+03,-8141,-1040,494,-287,11,-367,1,7,11
3.01E+03,-8139,-1051,502,-313,21,-129,1,7,11
3.01E+03,-8135,-1057,487,-328,31,-384,1,7,11
3.01E+03,-8120,-1062,468,-349,57,-364,1,7,11
3.01E+03,-8100,-1081,452,-380,105,-341,1,7,11
3.01E+03,-8116,-1117,448,-151,-87,-325,1,7,11
3.01E+03,-8132,-1143,441,-147,-52,-307,1,7,11
3.01E+03,-8149,-906,419,-130,-31,-303,1,7,11
3.01E+03,-8181,-911,399,-361,-17,-304,1,7,11
3.01E+03,-8471,-903,400,-333,-13,-295,1,7,11
3.01E+03,-8510,-1141,401,-299,-18,-267,1,7,11
3.01E+03,-8527,-1102,418,-262,-34,35,1,7,11
3.01E+03,-8539,-1069,436,16,-42,83,1,7,11
3.01E+03,-8550,-1040,478,19,-56,124,1,7,11
3.01E+03,-8549,-764,771,17,-84,-104,1,7,11
3.01E+03,-8549,-736,781,4,-117,-98,1,7,11
3.01E+03,-8525,-713,773,-290,97,-103,1,7,11
3.01E+03,-8478,-699,476,-357,67,-124,1,7,11
3.01E+03,-8170,-716,436,-190,68,95,1,7,11
3.01E+03,-8124,-761,388,-541,103,51,1,7,11
3.01E+03,-8096,-1089,604,-610,-95,0,1,7,11
3.01E+03,-8111,-919,583,-629,-19,-304,1,7,11
3.01E+03,-8127,-995,553,-584,296,-333,1,7,11
3.02E+03,-8168,-1322,541,-246,345,-355,1,7,11
3.02E+03,-8184,-1359,526,-372,357,-353,1,7,11
3.02E+03,-8457,-1395,539,4,350,-348,1,7,11
3.02E+03,-8507,-1165,583,-115,323,-331,1,7,11
3.02E+03,-8554,-1386,615,306,262,-281,1,7,11
3.02E+03,-8560,-1294,393,197,-82,58,1,7,11
3.02E+03,-8547,-944,404,521,96,-99,1,7,11
3.02E+03,-8503,-1100,396,533,41,268,1,7,11
3.02E+03,-8468,-746,414,212,16,357,1,7,11
3.02E+03,-8186,-883,430,366,2,172,1,7,11
3.02E+03,-8147,-826,427,-12,-258,216,1,7,11
3.02E+03,-8098,-788,399,116,10,228,1,7,11
3.02E+03,-8314,-512,630,-273,62,210,1,7,11
3.02E+03,-8282,-512,581,-148,-109,140,1,7,11
3.02E+03,-8295,-806,575,-535,258,361,1,7,11
3.02E+03,-8116,-868,560,-414,129,259,1,7,11
3.02E+03,-8178,-668,565,-441,165,-75,1,7,11
3.02E+03,-8496,-710,545,-407,162,112,1,7,11
3.02E+03,-8491,-715,224,-601,372,62,1,7,11
3.02E+03,-8497,-724,187,-575,349,9,1,7,11
3.02E+03,-8527,-718,180,-531,333,-257,1,7,11
3.02E+03,-8552,-691,185,-225,287,25,1,7,11
3.02E+03,-8330,-690,201,-201,-31,59,1,7,11
3.02E+03,-8381,-723,519,-198,-109,95,1,7,11
3.02E+03,-8398,-722,574,-176,51,121,1,7,11
3.02E+03,-8409,-719,636,-171,-290,-127,1,7,11
3.02E+03,-8372,-692,409,-165,-374,-120,1,7,11
3.02E+03,-8566,-654,418,-184,-157,120,1,7,11
3.02E+03,-8521,-874,432,-526,-146,88,1,7,11
3.02E+03,-8479,-643,462,-406,-134,32,1,7,11
3.02E+03,-8185,-664,471,-778,-378,-309,1,7,11
3.02E+03,-8132,-677,448,-887,-379,-144,1,7,11
3.02E+03,-8317,-692,389,-738,-366,-219,1,7,11
3.02E+03,-8263,-725,577,-1105,-307,-529,1,7,11
3.02E+03,-8255,-1063,545,-951,48,-554,1,7,11
3.02E+03,-8275,-918,530,-976,-110,-554,1,7,11
3.02E+03,-8306,-1021,518,-900,-26,-535,1,7,11
3.02E+03,-8085,-1348,236,-732,289,-242,1,7,11
3.02E+03,-8130,-1339,198,-790,325,-205,1,7,11
3.02E+03,-8449,-1369,210,-385,318,-162,1,7,11
3.03E+03,-8494,-1345,212,-188,288,-351,1,7,11
3.03E+03,-8543,-1012,210,-273,-13,-282,1,7,11
3.03E+03,-8575,-1146,240,94,-68,50,1,7,11
3.03E+03,-8353,-1056,562,99,110,110,1,7,11
3.03E+03,-8368,-752,406,59,1,-100,1,7,11
3.03E+03,-8329,-689,426,21,-381,-72,1,7,11
3.03E+03,-8522,-670,449,-290,-219,-63,1,7,11
3.03E+03,-8183,-663,462,-344,-513,-34,1,7,11
3.03E+03,-8156,-690,468,-383,-250,-3,1,7,11
3.03E+03,-8140,-746,467,-143,-193,297,1,7,11
3.03E+03,-8111,-1056,444,-362,-380,325,1,7,11
3.03E+03,-8095,-1111,422,-278,-289,323,1,7,11
3.03E+03,-8098,-1137,633,89,66,295,1,7,11
3.03E+03,-8106,-1145,567,-46,-105,-8,1,7,11
3.03E+03,-8135,-1139,255,308,-37,-91,1,7,11
3.03E+03,-8183,-1126,232,370,264,120,1,7,11
3.03E+03,-8493,-1108,240,152,272,90,1,7,11
3.03E+03,-8537,-1065,255,176,-13,80,1,7,11
3.03E+03,-8555,-1025,552,195,124,87,1,7,11
3.03E+03,-8529,-746,598,190,11,108,1,7,11
3.03E+03,-8478,-724,624,196,-345,-127,1,7,11
3.03E+03,-8176,-688,384,199,-129,-117,1,7,11
3.03E+03,-8127,-663,639,167,-377,-120,1,7,11
3.03E+03,-8121,-659,410,367,-329,112,1,7,11
3.03E+03,-8150,-665,441,342,-301,80,1,7,11
3.03E+03,-8181,-666,468,308,1,55,1,7,11
3.03E+03,-8190,-662,478,292,25,31,1,7,11
3.03E+03,-8453,-668,489,259,37,9,1,7,11
3.03E+03,-8462,-669,492,-54,47,-267,1,7,11
3.03E+03,-8467,-654,474,-104,46,-280,1,7,11
3.03E+03,-8477,-894,459,92,51,-280,1,7,11
3.03E+03,-8485,-875,446,-18,47,0,1,7,11
3.03E+03,-8485,-890,449,-374,31,19,1,7,11
3.03E+03,-8503,-672,472,-205,13,17,1,7,11
3.03E+03,-8531,-705,498,-515,-271,-260,1,7,11
3.03E+03,-8554,-734,771,-541,-308,-282,1,7,11
3.03E+03,-8554,-755,778,-546,-339,-301,1,7,11
3.03E+03,-8534,-1052,778,-552,-344,-314,1,7,11
3.03E+03,-8492,-1115,779,-542,-324,-330,1,7,11
3.03E+03,-8182,-941,799,-241,-279,-358,1,7,11
3.04E+03,-8130,-988,786,-130,48,-139,1,7,11
3.04E+03,-8107,-989,768,7,-108,-163,1,7,11
3.04E+03,-8104,-964,481,127,-12,-161,1,7,11
3.04E+03,-8125,-924,464,-49,318,-140,1,7,11
3.04E+03,-8160,-1139,475,261,350,-368,1,7,11
3.04E+03,-8452,-1073,482,309,336,-328,1,7,11
3.04E+03,-8469,-733,468,334,291,-283,1,7,11
3.04E+03,-8465,-643,434,303,-11,27,1,7,11
3.04E+03,-8190,-857,409,-63,-49,72,1,7,11
3.04E+03,-8160,-857,624,52,-49,96,1,7,11
3.04E+03,-8154,-657,608,-369,-35,79,1,7,11
3.04E+03,-8148,-751,608,-238,-13,27,1,7,11
3.04E+03,-8165,-1097,607,-551,262,-295,1,7,11
3.04E+03,-8181,-899,603,-541,266,-340,1,7,11
3.04E+03,-8450,-937,606,-245,258,-363,1,7,11
3.04E+03,-8456,-953,612,-191,-14,-362,1,7,11
3.04E+03,-8477,-990,612,-382,-27,-348,1,7,11
3.04E+03,-8495,-1000,598,-296,-39,-324,1,7,11
3.04E+03,-8526,-998,576,38,-48,-294,1,7,11
3.04E+03,-8531,-978,563,105,-72,4,1,7,11
3.04E+03,-8510,-974,552,-108,-92,47,1,7,11
3.04E+03,-8501,-960,560,-88,-102,67,1,7,11
3.04E+03,-8494,-959,589,-76,-116,80,1,7,11
3.04E+03,-8495,-949,611,-48,123,88,1,7,11
3.04E+03,-8506,-928,636,-27,103,100,1,7,11
3.04E+03,-8501,-1148,398,-21,70,117,1,7,11
3.04E+03,-8468,-1111,406,-35,27,-125,1,7,11
3.04E+03,-8147,-1082,639,-78,-263,122,1,7,11
3.04E+03,-8116,-1069,623,96,-257,88,1,7,11
3.04E+03,-8101,-1071,618,5,21,57,1,7,11
3.04E+03,-8106,-1093,633,-342,43,37,1,7,11
3.04E+03,-8109,-1132,408,-151,52,31,1,7,11
3.04E+03,-8108,-907,443,-176,49,27,1,7,11
3.04E+03,-8101,-927,465,-170,44,26,1,7,11
3.04E+03,-8107,-926,474,-146,57,32,1,7,11
3.04E+03,-8117,-898,465,-377,87,59,1,7,11
3.04E+03,-8150,-1100,448,-373,-121,110,1,7,11
3.04E+03,-8190,-1061,433,-144,-78,-79,1,7,11
3.04E+03,-8469,-1031,424,-190,-61,-10,1,7,11
3.04E+03,-8467,-757,399,-240,-57,300,1,7,11
3.05E+03,-8187,-748,623,-538,-59,324,1,7,11
3.05E+03,-8178,-764,581,-567,-42,310,1,7,11
3.05E+03,-8466,-1041,597,-585,-21,272,1,7,11
3.05E+03,-8508,-1049,595,-560,-21,-26,1,7,11
3.05E+03,-8542,-1027,596,-231,-45,-63,1,7,11
3.05E+03,-8560,-742,592,-157,-88,-96,1,7,11
3.05E+03,-8519,-726,580,-356,111,-116,1,7,11
3.05E+03,-8498,-1031,622,3,-264,-306,1,7,11
3.05E+03,-8512,-1040,638,31,18,-307,1,7,11
3.05E+03,-8507,-1058,421,56,34,-292,1,7,11
3.05E+03,-8486,-1090,456,93,36,-291,1,7,11
3.05E+03,-8458,-1108,485,-106,32,-311,1,7,11
3.05E+03,-8183,-1105,489,-41,26,-334,1,7,11
3.05E+03,-8151,-1092,474,264,20,-346,1,7,11
3.05E+03,-8124,-1083,447,270,31,-348,1,7,11
3.05E+03,-8104,-1074,438,-4,53,-338,1,7,11
3.05E+03,-8085,-1073,393,-30,77,-324,1,7,11
3.05E+03,-8078,-1086,606,-79,113,-309,1,7,11
3.05E+03,-8111,-1116,587,-124,-105,-285,1,7,11
3.05E+03,-8151,-1144,569,113,-83,14,1,7,11
3.05E+03,-8451,-903,559,117,-84,65,1,7,11
3.05E+03,-8504,-915,565,125,-100,113,1,7,11
3.05E+03,-8528,-925,577,-109,113,-100,1,7,11
3.05E+03,-8554,-925,592,-81,69,-85,1,7,11
3.05E+03,-8564,-922,619,-48,26,-81,1,7,11
3.05E+03,-8567,-909,403,-16,-274,-85,1,7,11
3.05E+03,-8555,-1143,440,262,-310,-91,1,7,11
3.05E+03,-8522,-1121,473,274,-346,-100,1,7,11
3.05E+03,-8460,-1098,467,271,-373,-126,1,7,11
3.05E+03,-8163,-1074,463,-20,-362,77,1,7,11
3.05E+03,-8136,-1056,462,-83,-340,23,1,7,11
3.05E+03,-8120,-1061,455,109,-312,-272,1,7,11
3.05E+03,-8100,-1074,447,52,-281,-291,1,7,11
3.05E+03,-8093,-1099,431,-260,17,-306,1,7,11
3.05E+03,-8108,-1136,443,-310,68,-314,1,7,11
3.05E+03,-8134,-915,447,-327,114,-309,1,7,11
3.05E+03,-8159,-936,451,-318,-108,-290,1,7,11
3.05E+03,-8168,-945,455,-294,-85,-259,1,7,11
3.05E+03,-8169,-919,452,-281,-68,23,1,7,11
3.05E+03,-8177,-1146,450,-305,-58,34,1,7,11
3.06E+03,-8188,-1118,469,-370,-62,35,1,7,11
3.06E+03,-8172,-1096,486,-196,-98,39,1,7,11
3.06E+03,-8153,-1094,480,-583,-116,45,1,7,11
3.06E+03,-8120,-1101,461,-395,-118,62,1,7,11
3.06E+03,-8109,-1119,441,-448,-95,84,1,7,11
3.06E+03,-8117,-1151,410,-461,-61,115,1,7,11
3.06E+03,-8148,-937,638,-439,-31,-108,1,7,11
3.06E+03,-8188,-981,386,-621,-5,-76,1,7,11
3.06E+03,-8489,-1004,400,-246,-3,-51,1,7,11
3.06E+03,-8521,-996,420,-342,-25,-26,1,7,11
3.06E+03,-8536,-957,450,62,-78,-18,1,7,11
3.06E+03,-8566,-1152,506,-59,101,-18,1,7,11
3.06E+03,-8561,-1025,784,305,-272,-9,1,7,11
3.06E+03,-8537,-655,807,314,-132,258,1,7,11
3.06E+03,-8503,-831,775,-4,-224,290,1,7,11
3.06E+03,-8456,-775,465,114,-514,327,1,7,11
3.06E+03,-8158,-792,426,-342,-213,345,1,7,11
3.06E+03,-8132,-892,418,-535,-372,342,1,7,11
3.06E+03,-8145,-719,403,-623,9,307,1,7,11
3.06E+03,-8160,-1085,416,-400,100,-1,1,7,11
3.06E+03,-8466,-940,451,-611,-103,-88,1,7,11
3.06E+03,-8477,-1013,477,-211,-117,95,1,7,11
3.06E+03,-8463,-1313,485,-297,102,7,1,7,11
3.06E+03,-8190,-1324,506,-117,64,-336,1,7,11
3.06E+03,-8456,-1281,805,310,35,-154,1,7,11
3.06E+03,-8482,-945,839,200,-259,-183,1,7,11
3.06E+03,-8498,-1080,857,551,-304,-155,1,7,11
3.06E+03,-8508,-706,893,552,-328,-338,1,7,11
3.06E+03,-8524,-844,663,221,-329,31,1,7,11
3.06E+03,-8514,-787,660,383,-324,-88,1,7,11
3.06E+03,-8167,-512,881,-67,-277,324,1,7,11
3.06E+03,-8112,-773,830,32,68,361,1,7,11
3.06E+03,-8075,-800,792,-382,-66,343,1,7,11
3.06E+03,-8067,-852,491,-522,320,277,1,7,11
3.06E+03,-8073,-661,427,-617,175,-64,1,7,11
3.06E+03,-8096,-727,627,-421,527,91,1,7,11
3.06E+03,-8163,-1050,588,-432,584,0,1,7,11
3.06E+03,-8477,-1106,558,-640,577,-314,1,7,11
3.06E+03,-8513,-1141,551,-555,253,-343,1,7,11
3.06E+03,-8522,-902,544,-194,153,-345,1,7,11
3.07E+03,-8530,-906,540,-338,299,-331,1,7,11
3.07E+03,-8524,-902,540,22,-61,-300,1,7,11
3.07E+03,-8519,-1143,554,108,115,-257,1,7,11
3.07E+03,-8507,-1135,575,-81,56,50,1,7,11
3.07E+03,-8492,-1133,599,-20,19,89,1,7,11
3.07E+03,-8486,-1130,629,296,6,110,1,7,11
3.07E+03,-8486,-1111,401,349,7,115,1,7,11
3.07E+03,-8485,-1079,438,141,10,112,1,7,11
3.07E+03,-8481,-1040,449,161,11,107,1,7,11
3.07E+03,-8478,-730,453,152,5,103,1,7,11
3.07E+03,-8474,-687,441,347,-258,99,1,7,11
3.07E+03,-8463,-651,439,262,-266,100,1,7,11
3.07E+03,-8465,-648,457,-95,-268,101,1,7,11
3.07E+03,-8464,-893,447,70,-274,118,1,7,11
3.07E+03,-8479,-896,450,-275,-275,-114,1,7,11
3.07E+03,-8474,-658,458,-339,-281,-80,1,7,11
3.07E+03,-8459,-689,467,-370,-293,-54,1,7,11
3.07E+03,-8450,-727,468,-373,-287,-52,1,7,11
3.07E+03,-8452,-1027,463,-351,-270,-70,1,7,11
3.07E+03,-8460,-1062,479,-298,14,-109,1,7,11
3.07E+03,-8483,-1097,482,23,38,96,1,7,11
3.07E+03,-8481,-1115,480,112,44,51,1,7,11
3.07E+03,-8477,-1128,496,-62,40,8,1,7,11
3.07E+03,-8467,-1112,784,265,29,-285,1,7,11
3.07E+03,-8480,-1070,821,326,20,-304,1,7,11
3.07E+03,-8503,-760,844,380,-271,-264,1,7,11
3.07E+03,-8511,-708,867,378,-302,61,1,7,11
3.07E+03,-8486,-656,869,360,-339,-105,1,7,11
3.07E+03,-8476,-873,879,306,-353,-28,1,7,11
3.07E+03,-8460,-836,876,-15,-358,297,1,7,11
3.07E+03,-8167,-818,861,-97,-339,343,1,7,11
3.07E+03,-8113,-818,830,59,-305,348,1,7,11
3.07E+03,-8102,-875,828,-303,29,312,1,7,11
3.07E+03,-8116,-672,851,-364,108,-6,1,7,11
3.07E+03,-8153,-722,865,-377,-84,-74,1,7,11
3.07E+03,-8454,-753,868,-341,-53,-125,1,7,11
3.07E+03,-8496,-760,866,-289,-40,99,1,7,11
3.07E+03,-8508,-755,861,24,-62,90,1,7,11
3.07E+03,-8478,-734,839,79,-103,89,1,7,11
3.07E+03,-8470,-709,821,97,-128,76,1,7,11
3.08E+03,-8463,-700,824,96,111,79,1,7,11
3.08E+03,-8452,-696,828,105,102,95,1,7,11
3.08E+03,-8191,-684,832,113,112,114,1,7,11
3.08E+03,-8187,-691,849,-123,-126,-119,1,7,11
3.08E+03,-8452,-694,854,-92,-97,-104,1,7,11
3.08E+03,-8472,-696,872,-48,-77,-99,1,7,11
3.08E+03,-8487,-676,870,-2,-72,-104,1,7,11
3.08E+03,-8495,-668,860,286,-72,-118,1,7,11
3.08E+03,-8478,-651,828,319,-74,123,1,7,11
3.08E+03,-8467,-655,825,315,-66,91,1,7,11
3.08E+03,-8450,-694,836,316,-68,58,1,7,11
3.08E+03,-8449,-712,827,354,-63,24,1,7,11
3.08E+03,-8450,-748,826,144,-64,0,1,7,11
3.08E+03,-8461,-1032,825,217,-66,-263,1,7,11
3.08E+03,-8480,-1043,815,558,-69,3,1,7,11
3.08E+03,-8486,-1059,811,392,-81,30,1,7,11
3.08E+03,-8484,-1080,807,487,-108,67,1,7,11
3.08E+03,-8479,-1092,797,847,120,98,1,7,11
3.08E+03,-8472,-1074,784,699,95,124,1,7,11
3.08E+03,-8471,-758,479,1044,81,-118,1,7,11
3.08E+03,-8475,-670,446,1075,80,-107,1,7,11
3.08E+03,-8474,-852,428,766,90,-106,1,7,11
3.08E+03,-8484,-788,431,654,112,-112,1,7,11
3.08E+03,-8499,-485,457,502,123,-117,1,7,11
3.08E+03,-8513,-458,481,592,117,-119,1,7,11
3.08E+03,-8518,-437,507,158,91,-115,1,7,11
3.08E+03,-8502,-460,801,-21,55,-113,1,7,11
3.08E+03,-8481,-471,816,80,24,-118,1,7,11
3.08E+03,-8458,-510,850,-308,11,125,1,7,11
3.08E+03,-8187,-815,877,-149,7,108,1,7,11
3.08E+03,-8169,-846,881,-195,15,93,1,7,11
3.08E+03,-8164,-865,854,-216,36,78,1,7,11
3.08E+03,-8134,-874,824,-227,95,64,1,7,11
3.08E+03,-8123,-884,772,-233,-91,60,1,7,11
3.08E+03,-8137,-652,482,-246,-14,57,1,7,11
3.08E+03,-8180,-687,472,-518,315,60,1,7,11
3.08E+03,-8482,-716,470,-221,357,71,1,7,11
3.08E+03,-8522,-728,473,-154,369,81,1,7,11
3.08E+03,-8542,-722,472,-328,349,92,1,7,11
3.08E+03,-8542,-702,471,-257,307,96,1,7,11
3.09E+03,-8538,-682,470,55,-9,93,1,7,11
3.09E+03,-8530,-653,472,98,-76,83,1,7,11
3.09E+03,-8525,-878,495,125,110,76,1,7,11
3.09E+03,-8519,-841,774,-119,42,80,1,7,11
3.09E+03,-8501,-815,794,-125,-272,93,1,7,11
3.09E+03,-8481,-784,812,111,-305,107,1,7,11
3.09E+03,-8482,-774,829,63,-302,112,1,7,11
3.09E+03,-8485,-783,836,6,-290,114,1,7,11
3.09E+03,-8460,-815,836,-302,-282,109,1,7,11
3.09E+03,-8180,-881,837,-349,5,78,1,7,11
3.09E+03,-8186,-715,848,-363,47,31,1,7,11
3.09E+03,-8469,-736,842,-299,82,-293,1,7,11
3.09E+03,-8494,-729,828,-237,95,-309,1,7,11
3.09E+03,-8525,-705,821,73,98,-289,1,7,11
3.09E+03,-8545,-675,834,115,73,23,1,7,11
3.09E+03,-8540,-643,844,-114,27,94,1,7,11
3.09E+03,-8514,-874,859,-96,-281,-101,1,7,11
3.09E+03,-8484,-852,870,-93,-318,-59,1,7,11
3.09E+03,-8462,-832,871,-105,-337,-44,1,7,11
3.09E+03,-8183,-816,860,121,-328,-56,1,7,11
3.09E+03,-8164,-834,867,75,-296,-96,1,7,11
3.09E+03,-8149,-876,876,39,7,96,1,7,11
3.09E+03,-8148,-660,876,34,61,20,1,7,11
3.09E+03,-8170,-682,885,55,111,-306,1,7,11
3.09E+03,-8187,-676,882,95,-119,-352,1,7,11
3.09E+03,-8455,-660,864,123,-110,-370,1,7,11
3.09E+03,-8478,-647,864,115,-106,-364,1,7,11
3.09E+03,-8490,-885,873,101,-125,-325,1,7,11
3.09E+03,-8498,-861,880,81,98,-275,1,7,11
3.09E+03,-8503,-832,894,46,63,37,1,7,11
3.09E+03,-8511,-813,657,0,40,96,1,7,11
3.09E+03,-8512,-798,677,-301,18,-99,1,7,11
3.09E+03,-8510,-797,697,-347,11,-52,1,7,11
3.09E+03,-8474,-789,695,-129,10,-34,1,7,11
3.09E+03,-8168,-791,673,-179,29,-58,1,7,11
3.09E+03,-8129,-815,655,-241,71,-127,1,7,11
3.09E+03,-8105,-852,886,-545,124,34,1,7,11
3.09E+03,-8100,-889,862,-568,-72,-315,1,7,11
3.09E+03,-8100,-667,825,-566,-11,-130,1,7,11
3.09E+03,-8126,-697,801,-544,306,-175,1,7,11
3.10E+03,-8178,-725,786,-242,362,-188,1,7,11
3.10E+03,-8501,-748,790,-164,128,-167,1,7,11
3.10E+03,-8564,-1026,796,-320,368,-380,1,7,11
3.10E+03,-8348,-1032,808,47,315,-329,1,7,11
3.10E+03,-8359,-765,807,-98,-25,-285,1,7,11
3.10E+03,-8355,-732,805,-19,-115,3,1,7,11
3.10E+03,-8341,-690,811,280,59,22,1,7,11
3.10E+03,-8329,-657,829,284,-262,35,1,7,11
3.10E+03,-8565,-881,855,267,-316,51,1,7,11
3.10E+03,-8530,-850,873,-20,-349,67,1,7,11
3.10E+03,-8484,-826,640,-61,-362,79,1,7,11
3.10E+03,-8180,-814,660,-123,-350,78,1,7,11
3.10E+03,-8132,-807,674,65,-317,62,1,7,11
3.10E+03,-8099,-820,671,-272,-268,19,1,7,11
3.10E+03,-8084,-851,677,-362,41,-297,1,7,11
3.10E+03,-8096,-642,685,-182,87,-356,1,7,11
3.10E+03,-8108,-680,682,-233,114,-140,1,7,11
3.10E+03,-8120,-713,658,-525,-116,-156,1,7,11
3.10E+03,-8131,-749,892,-557,-82,-150,1,7,11
3.10E+03,-8133,-1044,867,-574,-46,-380,1,7,11
3.10E+03,-8126,-1085,841,-567,-10,-352,1,7,11
3.10E+03,-8133,-1115,828,-538,288,-329,1,7,11
3.10E+03,-8163,-1127,812,-225,330,-301,1,7,11
3.10E+03,-8464,-1128,795,-150,349,3,1,7,11
3.10E+03,-8499,-1101,784,-324,337,67,1,7,11
3.10E+03,-8519,-1069,503,-264,317,127,1,7,11
3.10E+03,-8550,-1037,497,40,302,-71,1,7,11
3.10E+03,-8322,-753,504,72,276,-24,1,7,11
3.10E+03,-8346,-727,774,104,-21,264,1,7,11
3.10E+03,-8335,-695,785,-117,-76,274,1,7,11
3.10E+03,-8567,-664,798,-105,127,-12,1,7,11
3.10E+03,-8548,-644,830,-127,69,-72,1,7,11
3.10E+03,-8506,-882,836,92,11,105,1,7,11
3.10E+03,-8452,-854,828,33,-287,27,1,7,11
3.10E+03,-8131,-848,802,-311,-294,-291,1,7,11
3.10E+03,-8079,-864,764,-165,-257,-328,1,7,11
3.10E+03,-8320,-661,497,-529,81,-349,1,7,11
3.10E+03,-8085,-725,490,-589,-84,-342,1,7,11
3.10E+03,-8121,-1045,496,-593,-6,-313,1,7,11
3.10E+03,-8175,-1106,770,-544,308,-275,1,7,11
3.11E+03,-8490,-1137,788,-185,331,24,1,7,11
3.11E+03,-8532,-1134,798,-315,312,66,1,7,11
3.11E+03,-8558,-1114,804,56,264,101,1,7,11
3.11E+03,-8540,-1061,801,-107,-70,-124,1,7,11
3.11E+03,-8494,-747,788,-79,108,-119,1,7,11
3.11E+03,-8183,-704,782,-101,53,122,1,7,11
3.11E+03,-8145,-683,781,92,32,96,1,7,11
3.11E+03,-8126,-678,772,25,36,78,1,7,11
3.11E+03,-8122,-680,499,-290,62,77,1,7,11
3.11E+03,-8129,-696,485,-332,109,94,1,7,11
3.11E+03,-8162,-720,484,-355,-87,-128,1,7,11
3.11E+03,-8488,-740,487,-348,-34,-89,1,7,11
3.11E+03,-8540,-746,493,-311,256,-32,1,7,11
3.11E+03,-8323,-738,769,3,245,-5,1,7,11
3.11E+03,-8342,-710,772,82,-55,260,1,7,11
3.11E+03,-8343,-676,782,-109,-116,-4,1,7,11
3.11E+03,-8576,-642,783,-57,73,-28,1,7,11
3.11E+03,-8530,-861,778,-54,21,-67,1,7,11
3.11E+03,-8492,-855,789,-86,-257,-117,1,7,11
3.11E+03,-8189,-856,782,-119,-260,87,1,7,11
3.11E+03,-8153,-873,774,105,21,32,1,7,11
3.11E+03,-8136,-646,769,89,59,-273,1,7,11
3.11E+03,-8141,-672,507,89,117,-310,1,7,11
3.11E+03,-8181,-700,506,107,-82,-322,1,7,11
3.11E+03,-8479,-716,774,-109,-47,-297,1,7,11
3.11E+03,-8516,-723,788,-63,-37,5,1,7,11
3.11E+03,-8541,-726,807,-22,-57,61,1,7,11
3.11E+03,-8545,-707,825,282,-109,112,1,7,11
3.11E+03,-8531,-678,823,306,88,-107,1,7,11
3.11E+03,-8509,-644,812,308,37,-80,1,7,11
3.11E+03,-8482,-854,797,282,2,-53,1,7,11
3.11E+03,-8190,-823,778,-38,-265,-27,1,7,11
3.11E+03,-8156,-819,770,-116,5,-3,1,7,11
3.11E+03,-8133,-829,770,75,42,272,1,7,11
3.11E+03,-8119,-852,774,35,94,283,1,7,11
3.11E+03,-8119,-886,782,25,-102,288,1,7,11
3.11E+03,-8137,-657,777,48,-35,299,1,7,11
3.11E+03,-8139,-669,510,105,272,329,1,7,11
3.11E+03,-8174,-702,511,-100,333,372,1,7,11
3.11E+03,-8478,-736,779,-45,382,202,1,7,11
3.12E+03,-8513,-744,799,263,165,592,1,7,11
3.12E+03,-8524,-878,490,147,211,804,1,7,11
3.12E+03,-8530,-841,469,528,540,1097,1,7,11
3.12E+03,-8522,-793,431,586,585,1387,1,7,11
3.12E+03,-8501,-453,424,633,616,1557,1,7,11
3.12E+03,-8553,-542,417,405,629,1584,1,7,11
3.12E+03,-8569,-172,402,406,585,1164,1,7,11
3.12E+03,-8555,-289,613,422,245,1239,1,7,11
3.12E+03,-8548,75,580,620,177,1044,1,7,11
3.12E+03,-8541,96,593,228,131,868,1,7,11
3.12E+03,-8538,74,618,334,340,470,1,7,11
3.12E+03,-8537,49,632,-22,314,632,1,7,11
3.12E+03,-8514,16,385,-82,293,583,1,7,11
3.12E+03,-8494,-271,638,-118,286,557,1,7,11
3.12E+03,-8492,-283,631,87,295,537,1,7,11
3.12E+03,-8510,-294,384,52,305,533,1,7,11
3.12E+03,-8544,-288,401,29,314,543,1,7,11
3.12E+03,-8548,-280,395,16,296,574,1,7,11
3.12E+03,-8547,-261,630,11,282,609,1,7,11
3.12E+03,-8539,5,620,-266,266,388,1,7,11
3.12E+03,-8501,9,608,-283,-12,403,1,7,11
3.12E+03,-8473,1,594,-303,-30,385,1,7,11
3.12E+03,-8181,-279,582,-320,-51,585,1,7,11
3.12E+03,-8160,-293,574,-302,-61,244,1,7,11
3.12E+03,-8156,-273,557,-267,-60,134,1,7,11
3.12E+03,-8165,-257,553,1,-56,266,1,7,11
3.12E+03,-8467,21,559,11,-50,-112,1,7,11
3.12E+03,-8510,32,554,11,-56,51,1,7,11
3.12E+03,-8521,44,554,14,-79,-280,1,7,11
3.12E+03,-8530,47,562,4,-99,-338,1,7,11
3.12E+03,-8533,50,573,-275,-116,-380,1,7,11
3.12E+03,-8537,52,593,-310,-127,-142,1,7,11
3.12E+03,-8544,48,607,-352,122,-133,1,7,11
3.12E+03,-8563,28,635,-158,121,-365,1,7,11
3.12E+03,-8555,-262,401,-211,112,-326,1,7,11
3.12E+03,-8514,-291,399,-237,106,-297,1,7,11
3.12E+03,-8459,-315,628,-243,113,-285,1,7,11
3.12E+03,-8154,-319,596,-244,-110,-295,1,7,11
3.12E+03,-8119,-326,553,-253,-68,-316,1,7,11
3.12E+03,-8121,-328,523,-519,-19,-345,1,7,11
3.13E+03,-8148,-332,242,-521,274,-372,1,7,11
3.13E+03,-8209,-344,233,-251,292,-130,1,7,11
3.13E+03,-8495,-358,231,-215,287,-381,1,7,11
3.13E+03,-8522,-374,233,-166,276,-373,1,7,11
3.13E+03,-8546,-131,239,-361,-5,-362,1,7,11
3.13E+03,-8555,-373,233,-288,-59,-349,1,7,11
3.13E+03,-8549,-349,223,45,-92,-338,1,7,11
3.13E+03,-8552,-329,225,109,-110,-325,1,7,11
3.13E+03,-8562,-308,250,-117,-121,-304,1,7,11
3.13E+03,-8570,-281,518,-85,119,-272,1,7,11
3.13E+03,-8551,-258,517,-58,97,20,1,7,11
3.13E+03,-8516,23,250,-42,86,50,1,7,11
3.13E+03,-8472,43,231,-48,88,66,1,7,11
3.13E+03,-8191,59,209,-72,108,61,1,7,11
3.13E+03,-8180,66,186,-118,-128,37,1,7,11
3.13E+03,-8177,56,174,80,-121,7,1,7,11
3.13E+03,-8188,34,152,24,-119,-289,1,7,11
3.13E+03,-8490,4,162,-275,-124,-324,1,7,11
3.13E+03,-8542,-278,184,-302,126,-325,1,7,11
3.13E+03,-8570,-295,194,-300,101,-305,1,7,11
3.13E+03,-8331,-313,211,-276,70,-262,1,7,11
3.13E+03,-8330,-320,240,21,43,46,1,7,11
3.13E+03,-8551,-304,236,75,8,116,1,7,11
3.13E+03,-8536,-289,239,122,-269,-126,1,7,11
3.13E+03,-8513,-264,238,-109,-271,-121,1,7,11
3.13E+03,-8496,24,232,-93,-268,-128,1,7,11
3.13E+03,-8488,56,234,-100,-258,115,1,7,11
3.13E+03,-8485,66,244,-113,2,105,1,7,11
3.13E+03,-8475,74,254,120,12,84,1,7,11
3.13E+03,-8474,73,248,89,34,48,1,7,11
3.13E+03,-8480,56,248,44,52,-258,1,7,11
3.13E+03,-8512,18,526,-12,64,-305,1,7,11
3.13E+03,-8540,-278,541,-277,57,-332,1,7,11
3.13E+03,-8559,-315,568,-271,46,-348,1,7,11
3.13E+03,-8561,-342,595,7,31,-351,1,7,11
3.13E+03,-8538,-357,614,37,15,-352,1,7,11
3.13E+03,-8502,-343,603,56,2,-361,1,7,11
3.13E+03,-8474,-330,597,35,3,-373,1,7,11
3.13E+03,-8451,-324,584,-260,15,-380,1,7,11
3.13E+03,-8174,-338,575,-308,33,-377,1,7,11
3.14E+03,-8166,-338,557,-323,72,-353,1,7,11
3.14E+03,-8160,-331,527,-337,120,-321,1,7,11
3.14E+03,-8185,-351,524,-352,-84,-291,1,7,11
3.14E+03,-8478,-371,530,-344,-55,-263,1,7,11
3.14E+03,-8518,-384,528,-308,-51,16,1,7,11
3.14E+03,-8554,-138,543,-272,-63,26,1,7,11
3.14E+03,-8323,-140,549,34,-102,40,1,7,11
3.14E+03,-8325,-137,549,88,97,47,1,7,11
3.14E+03,-8564,-379,551,-124,38,49,1,7,11
3.14E+03,-8553,-364,561,-108,0,39,1,7,11
3.14E+03,-8559,-347,581,-110,-287,28,1,7,11
3.14E+03,-8546,-342,597,-114,-318,29,1,7,11
3.14E+03,-8518,-321,620,-115,-334,34,1,7,11
3.14E+03,-8489,-313,631,122,-327,35,1,7,11
3.14E+03,-8470,-310,396,91,-304,17,1,7,11
3.14E+03,-8472,-310,419,66,-274,-265,1,7,11
3.14E+03,-8478,-309,425,42,-257,-291,1,7,11
3.14E+03,-8485,-307,426,19,10,-311,1,7,11
3.14E+03,-8482,-305,429,-283,17,-325,1,7,11
3.14E+03,-8473,-319,426,-346,27,-342,1,7,11
3.14E+03,-8461,-346,422,-158,42,-362,1,7,11
3.14E+03,-8453,-133,428,-219,63,-384,1,7,11
3.14E+03,-8179,-168,418,-247,82,-149,1,7,11
3.14E+03,-8159,-209,401,-251,116,-166,1,7,11
3.14E+03,-8139,-236,622,-238,-90,-179,1,7,11
3.14E+03,-8139,-256,553,-220,-25,-194,1,7,11
3.14E+03,-8160,-521,530,-200,293,-203,1,7,11
3.14E+03,-8454,-536,243,-182,340,-195,1,7,11
3.14E+03,-8502,-540,229,-153,359,-163,1,7,11
3.14E+03,-8563,-547,238,-378,354,-371,1,7,11
3.14E+03,-8353,-544,250,-336,317,-305,1,7,11
3.14E+03,-8400,-537,535,-293,256,21,1,7,11
3.14E+03,-8424,-514,562,11,-90,101,1,7,11
3.14E+03,-8408,-250,609,45,75,-81,1,7,11
3.14E+03,-8403,-202,385,97,19,-29,1,7,11
3.14E+03,-8352,-156,413,111,-330,270,1,7,11
3.14E+03,-8550,-377,424,107,-383,-7,1,7,11
3.14E+03,-8471,-331,403,60,-152,-59,1,7,11
3.14E+03,-8112,-302,599,-270,-146,125,1,7,11
3.14E+03,-8266,-288,523,-382,-329,25,1,7,11
3.15E+03,-8232,-316,213,-523,67,-335,1,7,11
3.15E+03,-8269,-383,191,-639,-28,-153,1,7,11
3.15E+03,-8104,-217,213,-423,365,-179,1,7,11
3.15E+03,-8469,-557,251,-623,190,-151,1,7,11
3.15E+03,-8571,-615,560,-229,193,-347,1,7,11
3.15E+03,-8378,-629,577,-295,380,-273,1,7,11
3.15E+03,-8400,-600,579,-120,270,47,1,7,11
3.15E+03,-8374,-543,561,262,-100,89,1,7,11
3.15E+03,-8345,-229,558,321,70,114,1,7,11
3.15E+03,-8546,-166,556,328,12,-117,1,7,11
3.15E+03,-8499,-131,566,292,-268,-102,1,7,11
3.15E+03,-8455,-348,568,-9,-266,-90,1,7,11
3.15E+03,-8164,-325,577,-63,17,-91,1,7,11
3.15E+03,-8151,-313,581,-118,54,-102,1,7,11
3.15E+03,-8172,-312,589,81,91,-118,1,7,11
3.15E+03,-8188,-292,579,31,118,-127,1,7,11
3.15E+03,-8482,-298,582,-308,-107,106,1,7,11
3.15E+03,-8512,-326,593,-134,-95,86,1,7,11
3.15E+03,-8503,-365,587,-199,-98,50,1,7,11
3.15E+03,-8484,-154,573,-237,-98,3,1,7,11
3.15E+03,-8469,-199,556,-249,-82,-309,1,7,11
3.15E+03,-8459,-230,531,-237,-50,-359,1,7,11
3.15E+03,-8465,-523,238,-207,-1,-133,1,7,11
3.15E+03,-8480,-548,216,-157,306,-135,1,7,11
3.15E+03,-8513,-578,212,-351,351,-378,1,7,11
3.15E+03,-8557,-595,214,0,372,-344,1,7,11
3.15E+03,-8339,-578,209,-105,333,-284,1,7,11
3.15E+03,-8360,-553,220,-30,277,6,1,7,11
3.15E+03,-8356,-251,224,287,-66,39,1,7,11
3.15E+03,-8332,-206,224,306,94,59,1,7,11
3.15E+03,-8553,-161,216,290,9,62,1,7,11
3.15E+03,-8536,-384,219,-16,-305,56,1,7,11
3.15E+03,-8517,-365,232,-74,-346,57,1,7,11
3.15E+03,-8497,-365,236,118,-366,63,1,7,11
3.15E+03,-8470,-371,245,58,-365,68,1,7,11
3.15E+03,-8459,-142,520,6,-341,62,1,7,11
3.15E+03,-8466,-180,550,-293,-309,42,1,7,11
3.15E+03,-8498,-233,584,-315,-283,14,1,7,11
3.15E+03,-8508,-522,623,-300,-282,-265,1,7,11
3.15E+03,-8515,-550,633,-270,-286,-289,1,7,11
3.16E+03,-8500,-551,613,32,-291,-306,1,7,11
3.16E+03,-8488,-540,615,61,-284,-326,1,7,11
3.16E+03,-8485,-532,613,71,-281,-336,1,7,11
3.16E+03,-8457,-521,606,69,-282,-336,1,7,11
3.16E+03,-8189,-520,600,48,-265,-335,1,7,11
3.16E+03,-8450,-529,600,25,17,-330,1,7,11
3.16E+03,-8473,-536,601,21,43,-317,1,7,11
3.16E+03,-8499,-529,594,30,67,-295,1,7,11
3.16E+03,-8533,-542,614,43,92,-259,1,7,11
3.16E+03,-8547,-550,615,75,102,35,1,7,11
3.16E+03,-8537,-557,617,113,101,52,1,7,11
3.16E+03,-8523,-554,618,-106,101,41,1,7,11
3.16E+03,-8505,-536,618,-76,100,15,1,7,11
3.16E+03,-8512,-256,618,-74,97,-276,1,7,11
3.16E+03,-8525,-237,625,-97,83,-301,1,7,11
3.16E+03,-8517,-208,622,123,49,-316,1,7,11
3.16E+03,-8505,-213,387,57,21,-331,1,7,11
3.16E+03,-8489,-236,411,-264,-267,-346,1,7,11
3.16E+03,-8476,-533,430,-321,-294,-362,1,7,11
3.16E+03,-8182,-558,422,-344,-314,-373,1,7,11
3.16E+03,-8115,-579,392,-353,-309,-384,1,7,11
3.16E+03,-8094,-608,610,-383,5,-153,1,7,11
3.16E+03,-8113,-388,597,-149,85,-174,1,7,11
3.16E+03,-8180,-423,607,-136,-103,-172,1,7,11
3.16E+03,-8505,-438,609,-332,-78,-137,1,7,11
3.16E+03,-8546,-426,615,14,-89,-333,1,7,11
3.16E+03,-8333,-414,631,84,-116,-269,1,7,11
3.16E+03,-8358,-402,398,-108,86,56,1,7,11
3.16E+03,-8342,-629,411,-60,20,99,1,7,11
3.16E+03,-8559,-610,419,-42,-279,112,1,7,11
3.16E+03,-8505,-576,406,-32,-292,102,1,7,11
3.16E+03,-8460,-568,397,-70,-272,60,1,7,11
3.16E+03,-8175,-578,387,-122,15,-257,1,7,11
3.16E+03,-8165,-596,637,81,54,-321,1,7,11
3.16E+03,-8175,-624,633,43,93,-378,1,7,11
3.16E+03,-8450,-385,626,31,125,-153,1,7,11
3.16E+03,-8496,-403,629,17,-105,-153,1,7,11
3.16E+03,-8527,-435,399,9,-107,-375,1,7,11
3.16E+03,-8561,-440,415,37,-125,-332,1,7,11
3.16E+03,-8572,-435,449,54,91,-285,1,7,11
3.17E+03,-8557,-434,468,79,35,9,1,7,11
3.17E+03,-8488,-385,466,101,-278,32,1,7,11
3.17E+03,-8442,-601,451,93,-308,41,1,7,11
3.17E+03,-8142,-567,424,57,-307,42,1,7,11
3.17E+03,-8128,-554,398,-269,-271,39,1,7,11
3.17E+03,-8133,-569,389,-349,42,36,1,7,11
3.17E+03,-8152,-610,624,-154,-118,39,1,7,11
3.17E+03,-8169,-406,604,-181,-88,42,1,7,11
3.17E+03,-8170,-462,613,-169,-34,44,1,7,11
3.17E+03,-8183,-784,390,-129,265,18,1,7,11
3.17E+03,-8482,-824,452,-302,295,-12,1,7,11
3.17E+03,-8522,-811,495,94,275,-293,1,7,11
3.17E+03,-8555,-483,796,-7,-39,-293,1,7,11
3.17E+03,-8556,-387,816,367,75,-269,1,7,11
3.17E+03,-8566,-539,818,152,0,28,1,7,11
3.17E+03,-8330,-170,812,129,-305,101,1,7,11
3.17E+03,-8559,-365,784,286,-349,-68,1,7,11
3.17E+03,-8500,-337,493,109,-355,-3,1,7,11
3.17E+03,-8181,-380,477,-196,-305,265,1,7,11
3.17E+03,-8143,-225,487,-385,33,-33,1,7,11
3.17E+03,-8126,-590,494,-488,121,-122,1,7,11
3.17E+03,-8132,-421,490,-504,-54,26,1,7,11
3.17E+03,-8151,-491,484,-451,274,-329,1,7,11
3.17E+03,-8190,-788,487,-600,336,-156,1,7,11
3.17E+03,-8489,-795,498,-210,360,-199,1,7,11
3.17E+03,-8543,-777,505,-327,356,-226,1,7,11
3.17E+03,-8331,-469,497,53,315,-229,1,7,11
3.17E+03,-8350,-406,479,110,-1,-214,1,7,11
3.17E+03,-8346,-617,435,89,-61,-189,1,7,11
3.17E+03,-8574,-586,387,4,-101,-166,1,7,11
3.17E+03,-8549,-612,619,-377,-113,-152,1,7,11
3.17E+03,-8522,-414,589,-233,-93,-147,1,7,11
3.17E+03,-8490,-498,560,-558,-55,-153,1,7,11
3.17E+03,-8459,-848,525,-576,259,-173,1,7,11
3.17E+03,-8183,-670,247,-545,324,-204,1,7,11
3.17E+03,-8192,-748,241,-165,153,-516,1,7,11
3.17E+03,-8452,-1025,529,-309,166,-541,1,7,11
3.17E+03,-8458,-1047,587,61,135,-567,1,7,11
3.17E+03,-8484,-1025,412,-70,320,-589,1,7,11
3.17E+03,-8467,-681,448,311,-44,-582,1,7,11
3.18E+03,-8451,-807,461,362,123,-547,1,7,11
3.18E+03,-8175,-435,446,305,60,-209,1,7,11
3.18E+03,-8113,-546,611,-63,39,-345,1,7,11
3.18E+03,-8307,-224,527,-316,83,18,1,7,11
3.18E+03,-8242,-516,191,-613,-88,98,1,7,11
3.18E+03,-8218,-603,376,-891,305,122,1,7,11
3.18E+03,-8227,-466,312,-1092,204,111,1,7,11
3.18E+03,-8273,-862,270,-950,614,73,1,7,11
3.18E+03,-8126,-758,274,-961,493,24,1,7,11
3.18E+03,-8520,-1138,304,-1088,810,2,1,7,11
3.18E+03,-8370,-941,327,-851,781,-259,1,7,11
3.18E+03,-8709,-920,317,-575,430,6,1,7,11
3.18E+03,-8777,-1105,331,-339,545,32,1,7,11
3.18E+03,-8817,-757,361,80,368,85,1,7,11
3.18E+03,-8816,-648,370,-65,-82,-91,1,7,11
3.18E+03,-8767,-806,135,-17,-265,-2,1,7,11
3.18E+03,-8409,-474,129,-17,-161,331,1,7,11
3.18E+03,-8562,-425,382,-81,-241,360,1,7,11
3.18E+03,-8487,-422,129,80,-515,341,1,7,11
3.18E+03,-8192,-445,129,-262,-240,286,1,7,11
3.18E+03,-8156,-473,378,-306,-196,-45,1,7,11
3.18E+03,-8133,-776,134,-328,-129,124,1,7,11
3.18E+03,-8160,-821,142,-309,-310,48,1,7,11
3.18E+03,-8468,-867,173,5,-259,4,1,7,11
3.18E+03,-8505,-893,196,112,3,-271,1,7,11
3.18E+03,-8527,-646,231,-30,-280,-275,1,7,11
3.18E+03,-8524,-885,253,338,-338,-270,1,7,11
3.18E+03,-8504,-853,526,172,-143,-260,1,7,11
3.18E+03,-8466,-819,536,213,-194,12,1,7,11
3.18E+03,-8158,-794,555,210,-231,30,1,7,11
3.18E+03,-8120,-792,590,184,-239,33,1,7,11
3.18E+03,-8111,-790,622,160,-225,35,1,7,11
3.18E+03,-8102,-772,395,153,-204,46,1,7,11
3.18E+03,-8102,-507,394,146,-165,77,1,7,11
3.18E+03,-8099,-486,624,382,-365,118,1,7,11
3.18E+03,-8117,-473,608,334,-289,-99,1,7,11
3.18E+03,-8149,-495,606,274,42,-76,1,7,11
3.18E+03,-8178,-779,597,-13,80,-62,1,7,11
3.18E+03,-8479,-803,602,-32,101,-78,1,7,11
3.18E+03,-8527,-813,619,-35,109,-109,1,7,11
3.19E+03,-8568,-795,385,-20,87,123,1,7,11
3.19E+03,-8338,-509,392,262,49,127,1,7,11
3.19E+03,-8333,-486,402,277,2,-105,1,7,11
3.19E+03,-8559,-454,402,283,-330,-89,1,7,11
3.19E+03,-8526,-429,414,269,-358,-93,1,7,11
3.19E+03,-8495,-425,421,-20,-366,-117,1,7,11
3.19E+03,-8467,-438,415,-94,-364,100,1,7,11
3.19E+03,-8185,-462,403,107,-343,48,1,7,11
3.19E+03,-8178,-501,407,73,-312,-264,1,7,11
3.19E+03,-8169,-794,419,57,-279,-318,1,7,11
3.19E+03,-8185,-826,439,54,12,-359,1,7,11
3.19E+03,-8463,-831,448,70,29,-371,1,7,11
3.19E+03,-8485,-814,450,86,29,-357,1,7,11
3.19E+03,-8498,-799,467,83,4,-321,1,7,11
3.19E+03,-8491,-777,469,72,-295,-270,1,7,11
3.19E+03,-8482,-506,474,45,-328,26,1,7,11
3.19E+03,-8473,-485,468,24,-355,56,1,7,11
3.19E+03,-8461,-476,458,-261,-355,76,1,7,11
3.19E+03,-8455,-493,463,-300,-343,90,1,7,11
3.19E+03,-8190,-789,468,-323,-324,91,1,7,11
3.19E+03,-8159,-824,484,-313,-306,68,1,7,11
3.19E+03,-8144,-869,770,-284,-278,18,1,7,11
3.19E+03,-8144,-886,797,23,11,-304,1,7,11
3.19E+03,-8175,-872,826,74,33,-350,1,7,11
3.19E+03,-8486,-840,847,111,41,-361,1,7,11
3.19E+03,-8535,-795,856,-126,27,-324,1,7,11
3.19E+03,-8555,-483,849,124,-263,9,1,7,11
3.19E+03,-8548,-427,824,78,-284,96,1,7,11
3.19E+03,-8531,-404,788,-269,-283,-86,1,7,11
3.19E+03,-8514,-426,776,-377,-260,-48,1,7,11
3.19E+03,-8503,-478,511,-200,23,-49,1,7,11
3.19E+03,-8472,-816,785,-241,46,-91,1,7,11
3.19E+03,-8452,-645,788,-217,74,81,1,7,11
3.19E+03,-8180,-707,802,-141,96,-281,1,7,11
3.19E+03,-8468,-747,839,-286,120,-136,1,7,11
3.19E+03,-8512,-713,856,115,126,-197,1,7,11
3.19E+03,-8548,-661,868,-34,108,-199,1,7,11
3.19E+03,-8560,-860,876,284,67,-147,1,7,11
3.19E+03,-8532,-799,872,299,17,-331,1,7,11
3.19E+03,-8482,-505,850,261,-270,-273,1,7,11
3.20E+03,-8170,-501,837,-68,-267,13,1,7,11
3.20E+03,-8124,-770,814,108,27,13,1,7,11
3.20E+03,-8104,-812,798,32,99,-264,1,7,11
3.20E+03,-8111,-864,809,-287,-71,-301,1,7,11
3.20E+03,-8166,-684,815,-290,284,-349,1,7,11
3.20E+03,-8454,-708,807,17,305,-363,1,7,11
3.20E+03,-8478,-706,798,68,305,-360,1,7,11
3.20E+03,-8479,-692,777,105,282,-340,1,7,11
3.20E+03,-8487,-687,506,108,261,-320,1,7,11
3.20E+03,-8476,-684,498,101,-34,-293,1,7,11
3.20E+03,-8461,-675,487,85,-66,-267,1,7,11
3.20E+03,-8469,-662,490,66,-83,25,1,7,11
3.20E+03,-8475,-895,495,53,-89,74,1,7,11
3.20E+03,-8460,-870,489,32,-96,-125,1,7,11
3.20E+03,-8457,-869,480,1,-80,-82,1,7,11
3.20E+03,-8460,-888,480,-272,-59,-58,1,7,11
3.20E+03,-8456,-890,465,-276,-46,-58,1,7,11
3.20E+03,-8465,-647,469,-273,-35,-83,1,7,11
3.20E+03,-8481,-651,460,-262,-24,-123,1,7,11
3.20E+03,-8488,-658,464,10,-21,93,1,7,11
3.20E+03,-8495,-664,464,35,-30,38,1,7,11
3.20E+03,-8510,-659,470,73,-38,22,1,7,11
3.20E+03,-8494,-653,469,121,-58,21,1,7,11
3.20E+03,-8490,-895,464,-97,-81,26,1,7,11
3.20E+03,-8478,-870,462,-70,-107,41,1,7,11
3.20E+03,-8487,-853,455,-90,-113,54,1,7,11
3.20E+03,-8488,-841,455,-127,-128,74,1,7,11
3.20E+03,-8481,-863,469,74,115,88,1,7,11
3.20E+03,-8476,-882,472,44,104,91,1,7,11
3.20E+03,-8466,-645,469,32,95,88,1,7,11
3.20E+03,-8180,-651,470,43,93,84,1,7,11
3.20E+03,-8178,-662,473,49,111,73,1,7,11
3.20E+03,-8185,-657,481,65,-123,66,1,7,11
3.20E+03,-8453,-656,482,89,-107,73,1,7,11
3.20E+03,-8468,-896,470,112,-102,89,1,7,11
3.20E+03,-8473,-880,462,125,-99,112,1,7,11
3.20E+03,-8470,-860,461,120,-96,-125,1,7,11
3.20E+03,-8471,-854,457,103,-87,-114,1,7,11
3.20E+03,-8472,-849,447,86,-75,-112,1,7,11
3.20E+03,-8476,-853,461,76,-58,-117,1,7,11
3.21E+03,-8483,-860,459,84,-45,126,1,7,11
3.21E+03,-8483,-854,446,108,-36,113,1,7,11
3.21E+03,-8480,-839,430,127,-28,95,1,7,11
3.21E+03,-8499,-828,432,-125,-17,69,1,7,11
3.21E+03,-8520,-822,432,-124,-20,54,1,7,11
3.21E+03,-8523,-813,426,-121,-32,49,1,7,11
3.21E+03,-8512,-804,419,-122,-46,53,1,7,11
3.21E+03,-8501,-815,416,118,-52,51,1,7,11
3.21E+03,-8487,-820,411,113,-59,41,1,7,11
3.21E+03,-8482,-816,405,109,-70,21,1,7,11
3.21E+03,-8488,-807,405,100,-83,-258,1,7,11
3.21E+03,-8485,-807,408,81,-102,-269,1,7,11
3.21E+03,-8478,-804,395,52,-122,-268,1,7,11
3.21E+03,-8464,-812,388,22,117,-261,1,7,11
3.21E+03,-8451,-832,384,-261,104,6,1,7,11
3.21E+03,-8456,-864,390,-280,99,10,1,7,11
3.21E+03,-8462,-892,391,-274,92,16,1,7,11
3.21E+03,-8460,-647,400,4,82,26,1,7,11
3.21E+03,-8463,-652,407,28,77,36,1,7,11
3.21E+03,-8463,-647,409,53,73,53,1,7,11
3.21E+03,-8470,-642,413,69,74,63,1,7,11
3.21E+03,-8468,-892,402,86,77,74,1,7,11
3.21E+03,-8472,-886,404,98,88,83,1,7,11
3.21E+03,-8480,-887,416,104,102,95,1,7,11
3.21E+03,-8489,-886,420,116,111,105,1,7,11
3.21E+03,-8498,-879,421,-123,113,110,1,7,11
3.21E+03,-8498,-869,416,-106,105,108,1,7,11
3.21E+03,-8513,-852,414,-91,93,90,1,7,11
3.21E+03,-8516,-835,419,-86,88,77,1,7,11
3.21E+03,-8512,-836,433,-101,81,65,1,7,11
3.21E+03,-8502,-841,447,-116,75,53,1,7,11
3.21E+03,-8493,-846,464,-123,75,34,1,7,11
3.21E+03,-8479,-848,464,-122,76,16,1,7,11
3.21E+03,-8469,-842,468,127,81,-263,1,7,11
3.21E+03,-8450,-836,462,112,74,-281,1,7,11
3.21E+03,-8182,-841,449,77,82,-305,1,7,11
3.21E+03,-8450,-848,459,30,94,-324,1,7,11
3.21E+03,-8475,-869,468,-266,97,-327,1,7,11
3.21E+03,-8478,-880,469,-287,88,-309,1,7,11
3.21E+03,-8472,-888,468,-302,83,-279,1,7,11
3.22E+03,-8468,-651,471,-313,83,5,1,7,11
3.22E+03,-8456,-658,468,-307,76,25,1,7,11
3.22E+03,-8185,-656,462,-293,80,33,1,7,11
3.22E+03,-8179,-648,463,-282,92,37,1,7,11
3.22E+03,-8192,-649,463,-282,116,42,1,7,11
3.22E+03,-8454,-656,478,-273,-127,53,1,7,11
3.22E+03,-8460,-664,477,4,-121,58,1,7,11
3.22E+03,-8458,-661,464,24,-115,55,1,7,11
3.22E+03,-8461,-657,462,34,-109,49,1,7,11
3.22E+03,-8461,-651,447,34,-106,36,1,7,11
3.22E+03,-8469,-896,437,22,-102,15,1,7,11
3.22E+03,-8487,-644,448,3,-105,-265,1,7,11
3.22E+03,-8476,-653,447,-270,-128,-282,1,7,11
3.22E+03,-8476,-668,451,-277,127,-299,1,7,11
3.22E+03,-8476,-682,459,-275,-125,-305,1,7,11
3.22E+03,-8486,-685,458,5,-114,-303,1,7,11
3.22E+03,-8487,-686,442,12,-107,-293,1,7,11
3.22E+03,-8480,-683,441,28,-106,-285,1,7,11
3.22E+03,-8479,-691,448,23,-110,-294,1,7,11
3.22E+03,-8472,-701,449,16,-122,-313,1,7,11
3.22E+03,-8474,-690,439,6,122,-334,1,7,11
3.22E+03,-8462,-693,436,-259,114,-350,1,7,11
3.22E+03,-8466,-702,434,-287,122,-349,1,7,11
3.22E+03,-8462,-723,437,-305,-124,-339,1,7,11
3.22E+03,-8452,-742,431,-321,-107,-316,1,7,11
3.22E+03,-8181,-757,434,-325,-90,-298,1,7,11
3.22E+03,-8188,-1026,435,-324,-74,-288,1,7,11
3.22E+03,-8449,-768,423,-311,-70,-283,1,7,11
3.22E+03,-8458,-755,417,-294,-68,-274,1,7,11
3.22E+03,-8466,-745,410,-281,-65,-268,1,7,11
3.22E+03,-8475,-730,401,-272,-72,1,1,7,11
3.22E+03,-8480,-735,403,-268,-85,4,1,7,11
3.22E+03,-8491,-734,406,-259,-105,-259,1,7,11
3.22E+03,-8481,-721,403,16,118,-272,1,7,11
3.22E+03,-8474,-721,400,30,96,-298,1,7,11
3.22E+03,-8481,-719,407,37,88,-322,1,7,11
3.22E+03,-8486,-731,412,50,83,-345,1,7,11
3.22E+03,-8497,-736,419,61,84,-363,1,7,11
3.22E+03,-8505,-735,420,83,83,-367,1,7,11
3.22E+03,-8500,-721,413,109,73,-368,1,7,11
3.23E+03,-8489,-710,400,121,64,-372,1,7,11
3.23E+03,-8482,-707,390,102,60,-379,1,7,11
3.23E+03,-8488,-709,399,68,52,-383,1,7,11
3.23E+03,-8497,-732,411,27,43,-376,1,7,11
3.23E+03,-8483,-764,415,-266,26,-354,1,7,11
3.23E+03,-8465,-1049,423,-300,25,-324,1,7,11
3.23E+03,-8186,-1093,438,-319,38,-291,1,7,11
3.23E+03,-8179,-1140,462,-312,57,2,1,7,11
3.23E+03,-8167,-906,466,-277,68,41,1,7,11
3.23E+03,-8129,-918,455,16,68,74,1,7,11
3.23E+03,-8091,-920,435,55,80,93,1,7,11
3.23E+03,-8308,-906,417,88,100,105,1,7,11
3.23E+03,-8310,-1147,416,99,-125,107,1,7,11
3.23E+03,-8081,-1141,422,115,-107,125,1,7,11
3.23E+03,-8100,-1142,430,-114,-103,-97,1,7,11
3.23E+03,-8113,-1136,445,-76,-109,-53,1,7,11
3.23E+03,-8116,-1111,448,-27,-119,-9,1,7,11
3.23E+03,-8123,-1078,454,279,-124,285,1,7,11
3.23E+03,-8145,-1032,458,306,-120,309,1,7,11
3.23E+03,-8189,-735,451,324,-111,332,1,7,11
3.23E+03,-8493,-682,447,329,-100,350,1,7,11
3.23E+03,-8549,-884,434,321,-101,360,1,7,11
3.23E+03,-8343,-841,425,289,-108,355,1,7,11
3.23E+03,-8386,-823,414,-22,-124,326,1,7,11
3.23E+03,-8411,-817,400,-85,110,271,1,7,11
3.23E+03,-8424,-844,405,100,88,-76,1,7,11
3.23E+03,-8422,-889,423,42,65,67,1,7,11
3.23E+03,-8388,-681,429,8,33,-303,1,7,11
3.23E+03,-8340,-739,440,-274,11,-163,1,7,11
3.23E+03,-8524,-1053,471,-281,-265,-518,1,7,11
3.23E+03,-8192,-1106,492,-270,-279,-592,1,7,11
3.23E+03,-8113,-1135,492,4,-281,-627,1,7,11
3.23E+03,-8288,-1144,487,5,-265,-623,1,7,11
3.23E+03,-8236,-1152,500,-272,27,-579,1,7,11
3.23E+03,-8206,-1152,497,-305,54,-243,1,7,11
3.23E+03,-7930,-1145,500,-338,75,-139,1,7,11
3.23E+03,-7924,-1131,501,-374,96,-278,1,7,11
3.23E+03,-7929,-1137,504,-156,-128,94,1,7,11
3.23E+03,-8216,-1132,485,-171,-86,-54,1,7,11
3.23E+03,-8274,-1122,473,-174,-26,292,1,7,11
3.24E+03,-8074,-1112,443,-152,286,366,1,7,11
3.24E+03,-8138,-1083,407,-376,338,155,1,7,11
3.24E+03,-8493,-1058,391,-357,139,164,1,7,11
3.24E+03,-8356,-1040,397,-342,165,150,1,7,11
3.24E+03,-8708,-753,388,-310,133,132,1,7,11
3.24E+03,-8751,-710,385,-282,318,362,1,7,11
3.24E+03,-8741,-666,634,-284,-27,329,1,7,11
3.24E+03,-8710,-894,623,-311,-108,281,1,7,11
3.24E+03,-8394,-894,633,-338,76,-31,1,7,11
3.24E+03,-8545,-658,629,-361,31,-93,1,7,11
3.24E+03,-8506,-676,636,-365,13,108,1,7,11
3.24E+03,-8146,-695,384,-350,23,52,1,7,11
3.24E+03,-8103,-711,639,-322,53,0,1,7,11
3.24E+03,-8107,-719,402,-285,99,-304,1,7,11
3.24E+03,-8113,-721,418,15,-122,-334,1,7,11
3.24E+03,-8125,-719,422,63,-108,-342,1,7,11
3.24E+03,-8139,-725,439,98,-104,-328,1,7,11
3.24E+03,-8146,-741,451,123,-119,-307,1,7,11
3.24E+03,-8140,-752,447,-112,85,-298,1,7,11
3.24E+03,-8135,-750,437,-94,55,-308,1,7,11
3.24E+03,-8149,-741,449,-99,30,-325,1,7,11
3.24E+03,-8175,-721,451,-105,11,-325,1,7,11
3.24E+03,-8473,-695,434,-122,-261,-298,1,7,11
3.24E+03,-8520,-678,440,92,-263,13,1,7,11
3.24E+03,-8321,-667,460,48,-264,99,1,7,11
3.24E+03,-8346,-664,477,11,-279,-69,1,7,11
3.24E+03,-8353,-681,487,-275,-292,-4,1,7,11
3.24E+03,-8324,-707,499,-283,-306,287,1,7,11
3.24E+03,-8504,-723,781,-285,-319,-19,1,7,11
3.24E+03,-8179,-723,794,-254,-325,-106,1,7,11
3.24E+03,-8153,-707,806,35,-304,40,1,7,11
3.24E+03,-8142,-675,830,69,-273,-297,1,7,11
3.24E+03,-8144,-649,865,78,18,-340,1,7,11
3.24E+03,-8149,-881,888,70,46,-341,1,7,11
3.24E+03,-8160,-871,650,38,71,-325,1,7,11
3.24E+03,-8135,-855,642,-261,80,-305,1,7,11
3.24E+03,-8098,-842,869,-338,100,-303,1,7,11
3.24E+03,-8090,-835,831,-195,-104,-316,1,7,11
3.24E+03,-8106,-842,801,-578,-27,-317,1,7,11
3.24E+03,-8131,-874,503,-448,300,-294,1,7,11
3.25E+03,-8165,-672,464,-815,374,-263,1,7,11
3.25E+03,-8187,-744,416,-875,178,25,1,7,11
3.25E+03,-8460,-1077,633,-884,236,34,1,7,11
3.25E+03,-8494,-1138,586,-843,545,25,1,7,11
3.25E+03,-8515,-931,535,-506,579,9,1,7,11
3.25E+03,-8527,-958,215,-398,594,-270,1,7,11
3.25E+03,-8527,-1006,183,-545,579,-305,1,7,11
3.25E+03,-8557,-1312,201,-156,549,-360,1,7,11
3.25E+03,-8564,-1324,225,9,208,-151,1,7,11
3.25E+03,-8335,-1318,521,-96,358,-191,1,7,11
3.25E+03,-8346,-1296,585,300,-31,-189,1,7,11
3.25E+03,-8343,-985,636,178,92,-136,1,7,11
3.25E+03,-8566,-906,398,528,-291,-304,1,7,11
3.25E+03,-8517,-1072,403,569,-382,65,1,7,11
3.25E+03,-8188,-728,631,555,-177,-71,1,7,11
3.25E+03,-8124,-658,586,214,-177,287,1,7,11
3.25E+03,-8070,-877,544,322,-376,349,1,7,11
3.25E+03,-8289,-641,515,-101,-281,357,1,7,11
3.25E+03,-8296,-691,521,12,90,316,1,7,11
3.25E+03,-8072,-752,540,-318,-67,-3,1,7,11
3.25E+03,-8109,-1050,557,-317,-7,-63,1,7,11
3.25E+03,-8149,-1079,561,-272,280,-111,1,7,11
3.25E+03,-8190,-1088,555,59,287,110,1,7,11
3.25E+03,-8481,-1061,548,-119,274,93,1,7,11
3.25E+03,-8515,-754,526,-67,-16,97,1,7,11
3.25E+03,-8553,-703,525,-63,-68,122,1,7,11
3.25E+03,-8333,-657,544,-79,118,-90,1,7,11
3.25E+03,-8345,-888,565,-105,34,-30,1,7,11
3.25E+03,-8331,-875,583,123,-303,279,1,7,11
3.25E+03,-8559,-874,600,95,-369,310,1,7,11
3.25E+03,-8521,-893,609,78,-148,307,1,7,11
3.25E+03,-8470,-660,608,56,-151,267,1,7,11
3.25E+03,-8181,-699,614,36,-381,-63,1,7,11
3.25E+03,-8160,-740,631,37,-338,103,1,7,11
3.25E+03,-8154,-1030,386,64,-298,18,1,7,11
3.25E+03,-8165,-1053,398,99,-262,-312,1,7,11
3.25E+03,-8451,-1048,407,-106,8,-356,1,7,11
3.25E+03,-8487,-1030,439,-76,0,-363,1,7,11
3.25E+03,-8489,-753,491,-49,-310,-328,1,7,11
3.25E+03,-8476,-717,781,-24,-370,-277,1,7,11
3.26E+03,-8481,-657,791,-14,-153,33,1,7,11
3.26E+03,-8481,-854,792,-44,-180,87,1,7,11
3.26E+03,-8474,-811,792,-108,-189,-114,1,7,11
3.26E+03,-8187,-796,782,58,-181,-68,1,7,11
3.26E+03,-8154,-812,796,-293,-137,-53,1,7,11
3.26E+03,-8145,-860,813,-368,-326,-76,1,7,11
3.26E+03,-8158,-658,823,-148,2,-127,1,7,11
3.26E+03,-8188,-691,823,-136,73,45,1,7,11
3.26E+03,-8457,-696,802,-363,94,5,1,7,11
3.26E+03,-8462,-713,782,-309,102,-272,1,7,11
3.26E+03,-8449,-736,495,-270,117,-288,1,7,11
3.26E+03,-8465,-1032,468,25,-107,-309,1,7,11
3.26E+03,-8474,-1070,453,75,-89,-322,1,7,11
3.26E+03,-8492,-1113,466,-123,-82,-340,1,7,11
3.26E+03,-8497,-1129,482,-40,-96,-354,1,7,11
3.26E+03,-8502,-1128,503,294,-124,-357,1,7,11
3.26E+03,-8509,-1107,788,347,100,-350,1,7,11
3.26E+03,-8511,-1066,818,372,58,-322,1,7,11
3.26E+03,-8497,-766,851,359,13,-279,1,7,11
3.26E+03,-8468,-724,865,318,-287,25,1,7,11
3.26E+03,-8178,-671,866,-7,-308,62,1,7,11
3.26E+03,-8168,-877,865,-113,-303,85,1,7,11
3.26E+03,-8139,-845,834,8,-294,106,1,7,11
3.26E+03,-8112,-846,805,-161,2,107,1,7,11
3.26E+03,-8105,-894,798,-575,64,100,1,7,11
3.26E+03,-8109,-704,797,-426,-124,83,1,7,11
3.26E+03,-8138,-1032,805,-469,-63,58,1,7,11
3.26E+03,-8151,-1075,795,-443,-19,37,1,7,11
3.26E+03,-8179,-1102,791,-388,276,14,1,7,11
3.26E+03,-8458,-1129,803,-569,302,1,1,7,11
3.26E+03,-8487,-1133,793,-218,315,-260,1,7,11
3.26E+03,-8515,-1106,791,-369,290,5,1,7,11
3.26E+03,-8518,-1055,783,-268,261,16,1,7,11
3.26E+03,-8503,-727,506,90,-28,31,1,7,11
3.26E+03,-8489,-668,483,88,-41,37,1,7,11
3.26E+03,-8483,-896,459,36,-38,28,1,7,11
3.26E+03,-8474,-647,471,-299,-32,1,1,7,11
3.26E+03,-8457,-677,481,-357,-37,-295,1,7,11
3.26E+03,-8169,-721,484,-135,-39,-355,1,7,11
3.26E+03,-8148,-746,491,-136,-34,-155,1,7,11
3.27E+03,-8131,-755,475,-384,-23,-197,1,7,11
3.27E+03,-8135,-757,457,-130,-5,-220,1,7,11
3.27E+03,-8149,-757,446,-148,263,-218,1,7,11
