timestamp,ax,ay,az,gx,gy,gz,Label1,Label2,Label3
1.70E+00,-8211,1341,-1332,120,289,-311,3,9,13
1.95E+00,-8237,1350,-1334,-99,-11,-276,3,9,13
2.20E+00,-8242,1364,-1351,-63,-65,20,3,9,13
2.45E+00,-8238,1377,-1362,-43,-120,63,3,9,13
2.70E+00,-8248,1384,-1370,-38,96,84,3,9,13
2.95E+00,-8287,1391,-1371,-39,67,99,3,9,13
3.20E+00,-8289,1406,-1375,-35,16,115,3,9,13
3.45E+00,-8264,1165,-1383,-38,-275,117,3,9,13
3.70E+00,-8251,1175,-1377,-48,-291,101,3,9,13
3.95E+00,-8242,1174,-1357,-58,-311,71,3,9,13
4.20E+00,-8243,1164,-1344,-59,-332,27,3,9,13
4.45E+00,-8238,1154,-1313,-50,-365,-275,3,9,13
4.70E+00,-8229,1153,-1299,-34,-139,-314,3,9,13
4.95E+00,-8214,1396,-1024,-18,-166,-335,3,9,13
5.20E+00,-7934,1383,-1011,-9,-185,-343,3,9,13
5.45E+00,-7936,1360,-994,-10,-181,-348,3,9,13
5.70E+00,-8207,1335,-962,-4,-180,-340,3,9,13
5.95E+00,-8211,1315,-942,269,-189,-320,3,9,13
6.20E+00,-8225,1306,-931,292,-187,-291,3,9,13
6.45E+00,-8223,1299,-924,318,-188,4,3,9,13
6.70E+00,-8218,1295,-923,334,-181,42,3,9,13
6.95E+00,-8226,1285,-901,340,-165,65,3,9,13
7.20E+00,-8228,1022,-1139,354,-161,86,3,9,13
7.45E+00,-8218,1292,-1137,376,-162,106,3,9,13
7.70E+00,-8194,1308,-898,380,-152,121,3,9,13
7.95E+00,-7924,1326,-906,366,-373,122,3,9,13
8.20E+00,-7927,1357,-910,331,-328,123,3,9,13
8.45E+00,-7934,1373,-919,269,-280,123,3,9,13
8.70E+00,-8208,1380,-926,-58,10,122,3,9,13
8.95E+00,-8212,1380,-925,123,29,121,3,9,13
9.20E+00,-8217,1377,-925,52,43,118,3,9,13
9.45E+00,-8215,1365,-915,-269,59,121,3,9,13
9.70E+00,-8219,1354,-914,-315,84,126,3,9,13
9.95E+00,-8230,1341,-899,-339,110,-115,3,9,13
1.02E+01,-8235,1331,-1143,-343,-126,-90,3,9,13
1.05E+01,-8231,1322,-1127,-319,-120,-62,3,9,13
1.07E+01,-8226,1331,-1139,-277,-115,-37,3,9,13
1.10E+01,-8224,1357,-902,28,-112,-18,3,9,13
1.12E+01,-8216,1384,-913,65,-101,-18,3,9,13
1.15E+01,-8233,1153,-928,80,-86,-27,3,9,13
1.17E+01,-8247,1171,-933,79,-80,-37,3,9,13
1.20E+01,-8245,1171,-931,71,-85,-56,3,9,13
1.22E+01,-8263,1158,-923,65,-91,-83,3,9,13
1.25E+01,-8267,1400,-915,64,-123,-107,3,9,13
1.27E+01,-8245,1389,-912,73,97,122,3,9,13
1.30E+01,-8218,1372,-911,81,72,94,3,9,13
1.32E+01,-8197,1348,-897,87,61,64,3,9,13
1.35E+01,-8214,1316,-1137,100,62,35,3,9,13
1.37E+01,-8237,1301,-1142,125,30,35,3,9,13
1.40E+01,-8229,1301,-1140,-81,19,50,3,9,13
1.42E+01,-8224,1285,-1123,-59,21,78,3,9,13
1.45E+01,-8224,1287,-1104,-33,14,116,3,9,13
1.47E+01,-8224,1304,-1090,-8,5,-85,3,9,13
1.50E+01,-8221,1340,-1084,-2,6,-18,3,9,13
1.52E+01,-8218,1371,-1085,-22,20,316,3,9,13
1.55E+01,-7935,1393,-1082,-59,45,137,3,9,13
1.57E+01,-7911,1403,-1072,-96,92,201,3,9,13
1.60E+01,-7909,1166,-1069,-125,-105,244,3,9,13
1.62E+01,-7914,1189,-1064,115,-52,521,3,9,13
1.65E+01,-7931,1224,-1079,110,-2,518,3,9,13
1.67E+01,-8199,1255,-1104,101,298,247,3,9,13
1.70E+01,-8204,1540,-1141,89,333,214,3,9,13
1.72E+01,-8212,1568,-923,65,362,173,3,9,13
1.75E+01,-8240,1580,-960,29,383,381,3,9,13
1.77E+01,-8255,1583,-976,-266,376,337,3,9,13
1.80E+01,-8261,1570,-984,-297,346,302,3,9,13
1.82E+01,-8258,1552,-983,-303,301,270,3,9,13
1.85E+01,-8238,1273,-987,-288,257,-11,3,9,13
1.87E+01,-8203,1250,-984,-260,-31,-33,3,9,13
1.90E+01,-7917,1235,-984,33,-43,-54,3,9,13
1.92E+01,-7901,1234,-981,89,-41,-66,3,9,13
1.95E+01,-7892,1261,-981,-109,-30,-64,3,9,13
1.97E+01,-7887,1557,-996,-71,-17,-50,3,9,13
2.00E+01,-7894,1597,-1020,-62,260,-34,3,9,13
2.02E+01,-7904,1635,-1290,-84,280,-21,3,9,13
2.05E+01,-7920,1420,-1307,-119,290,-14,3,9,13
2.07E+01,-7935,1445,-1327,78,294,-15,3,9,13
2.10E+01,-8205,1453,-1336,14,291,-19,3,9,13
2.12E+01,-8214,1452,-1337,-297,276,-34,3,9,13
2.15E+01,-8210,1447,-1337,-335,262,-52,3,9,13
2.17E+01,-8209,1438,-1337,-349,-6,-68,3,9,13
2.20E+01,-8202,1431,-1343,-353,-14,-85,3,9,13
2.22E+01,-8199,1419,-1337,-345,-24,-100,3,9,13
2.25E+01,-8199,1661,-1341,-325,-36,-119,3,9,13
2.27E+01,-7930,1649,-1343,-293,-59,113,3,9,13
2.30E+01,-7929,1653,-1342,3,-77,89,3,9,13
2.32E+01,-7929,1408,-1348,29,-93,77,3,9,13
2.35E+01,-7920,1658,-1343,41,-117,76,3,9,13
2.37E+01,-7910,1646,-1343,42,123,72,3,9,13
2.40E+01,-7905,1627,-1343,39,114,69,3,9,13
2.42E+01,-7926,1622,-1328,43,114,66,3,9,13
2.45E+01,-7909,1616,-1327,78,97,85,3,9,13
2.47E+01,-7895,1625,-1330,117,114,99,3,9,13
2.50E+01,-7895,1638,-1325,-105,-112,105,3,9,13
2.52E+01,-7899,1660,-1327,-68,-91,106,3,9,13
2.55E+01,-7901,1425,-1319,-50,-82,96,3,9,13
2.57E+01,-7907,1446,-1336,-52,-79,74,3,9,13
2.60E+01,-7918,1460,-1347,-73,-88,45,3,9,13
2.62E+01,-7914,1466,-1359,-109,-106,13,3,9,13
2.65E+01,-7918,1455,-1363,101,-116,-267,3,9,13
2.67E+01,-7920,1427,-1363,52,-127,-285,3,9,13
2.70E+01,-7922,1656,-1359,11,118,-303,3,9,13
2.72E+01,-7923,1624,-1346,-277,112,-312,3,9,13
2.75E+01,-7919,1599,-1338,-293,107,-311,3,9,13
2.77E+01,-7900,1570,-1342,-303,105,-300,3,9,13
2.80E+01,-7892,1545,-1326,-305,118,-289,3,9,13
2.82E+01,-7904,1268,-1304,-297,-124,-275,3,9,13
2.85E+01,-7918,1254,-1297,-275,123,-262,3,9,13
2.87E+01,-7921,1253,-1307,14,108,13,3,9,13
2.90E+01,-7915,1262,-1309,41,100,35,3,9,13
2.92E+01,-7913,1278,-1317,53,102,61,3,9,13
2.95E+01,-7916,1559,-1324,59,110,91,3,9,13
2.97E+01,-7922,1566,-1327,60,117,127,3,9,13
3.00E+01,-7921,1575,-1341,66,110,-96,3,9,13
3.02E+01,-7925,1583,-1340,70,98,-78,3,9,13
3.05E+01,-8193,1597,-1334,77,77,-77,3,9,13
3.07E+01,-8194,1622,-1333,90,50,-85,3,9,13
3.10E+01,-8195,1646,-1333,99,21,-93,3,9,13
3.12E+01,-7933,1654,-1332,102,1,-101,3,9,13
3.15E+01,-7927,1415,-1318,101,-269,-116,3,9,13
3.17E+01,-7916,1420,-1311,96,-284,-122,3,9,13
3.20E+01,-7899,1422,-1316,91,-291,107,3,9,13
3.22E+01,-7897,1420,-1307,83,-277,89,3,9,13
3.25E+01,-7904,1408,-1294,70,-251,71,3,9,13
3.27E+01,-7903,1658,-1020,64,18,56,3,9,13
3.30E+01,-7897,1645,-1018,64,30,48,3,9,13
3.32E+01,-7894,1639,-1010,67,47,38,3,9,13
3.35E+01,-7912,1644,-998,70,68,28,3,9,13
3.37E+01,-7915,1641,-992,63,68,27,3,9,13
3.40E+01,-7911,1638,-990,56,67,25,3,9,13
3.42E+01,-7895,1637,-992,43,63,24,3,9,13
3.45E+01,-7894,1613,-993,19,76,15,3,9,13
3.47E+01,-8194,1591,-982,8,100,12,3,9,13
3.50E+01,-8200,1573,-985,17,97,30,3,9,13
3.52E+01,-7930,1562,-1000,40,104,52,3,9,13
3.55E+01,-7916,1544,-994,62,126,64,3,9,13
3.57E+01,-7904,1544,-990,99,-112,67,3,9,13
3.60E+01,-7902,1554,-987,-109,-102,69,3,9,13
3.62E+01,-7915,1571,-995,-66,-96,74,3,9,13
3.65E+01,-7928,1593,-995,-36,-97,88,3,9,13
3.67E+01,-7930,1622,-1017,-20,-114,109,3,9,13
3.70E+01,-7919,1646,-1289,-32,-125,-126,3,9,13
3.72E+01,-7916,1653,-1301,-62,-122,-116,3,9,13
3.75E+01,-7922,1662,-1309,-100,-120,-116,3,9,13
3.77E+01,-7930,1663,-1316,115,-125,-127,3,9,13
3.80E+01,-8203,1661,-1312,73,125,115,3,9,13
3.82E+01,-7929,1659,-1311,42,97,105,3,9,13
3.85E+01,-7910,1644,-1307,4,89,83,3,9,13
3.87E+01,-7923,1618,-1283,-286,99,60,3,9,13
3.90E+01,-7930,1592,-1008,-293,91,45,3,9,13
3.92E+01,-7921,1577,-1012,-277,81,40,3,9,13
3.95E+01,-7914,1567,-1006,3,80,44,3,9,13
3.97E+01,-7913,1560,-994,28,92,51,3,9,13
4.00E+01,-7916,1558,-1000,55,102,64,3,9,13
4.02E+01,-7914,1558,-994,75,105,76,3,9,13
4.05E+01,-7912,1563,-992,97,100,80,3,9,13
4.07E+01,-7912,1574,-1001,111,94,81,3,9,13
4.10E+01,-7913,1583,-1007,114,86,84,3,9,13
4.12E+01,-7908,1582,-1012,105,87,94,3,9,13
4.15E+01,-7909,1579,-1004,93,92,102,3,9,13
4.17E+01,-7914,1569,-992,85,97,107,3,9,13
4.20E+01,-7914,1569,-992,106,97,110,3,9,13
4.22E+01,-7912,1574,-985,-125,104,113,3,9,13
4.25E+01,-7908,1600,-1000,-98,111,125,3,9,13
4.27E+01,-7908,1625,-1015,-90,126,-112,3,9,13
4.30E+01,-7904,1650,-1285,-100,-108,-95,3,9,13
4.32E+01,-7899,1413,-1294,-120,-90,-88,3,9,13
4.35E+01,-7899,1424,-1300,102,-73,-94,3,9,13
4.37E+01,-7923,1438,-1303,67,-61,-111,3,9,13
4.40E+01,-7926,1448,-1311,34,-79,-124,3,9,13
4.42E+01,-7923,1447,-1308,-257,-94,114,3,9,13
4.45E+01,-7913,1426,-1302,-292,-109,95,3,9,13
4.47E+01,-7913,1663,-1293,-307,-117,66,3,9,13
4.50E+01,-8193,1649,-1282,-301,-120,37,3,9,13
4.52E+01,-8199,1647,-1282,-273,113,26,3,9,13
4.55E+01,-7934,1657,-1291,13,105,22,3,9,13
4.57E+01,-7930,1409,-1294,30,104,21,3,9,13
4.60E+01,-7931,1409,-1302,38,99,20,3,9,13
4.62E+01,-7933,1413,-1301,35,88,11,3,9,13
4.65E+01,-7928,1413,-1299,22,72,2,3,9,13
4.67E+01,-7916,1663,-1289,-259,62,-258,3,9,13
4.70E+01,-7906,1643,-1021,-288,56,-257,3,9,13
4.72E+01,-7892,1621,-993,-312,61,4,3,9,13
4.75E+01,-7888,1596,-973,-328,72,12,3,9,13
4.77E+01,-7885,1579,-955,-332,87,30,3,9,13
4.80E+01,-7874,1572,-947,-324,110,52,3,9,13
4.82E+01,-7868,1574,-944,-313,-106,81,3,9,13
4.85E+01,-7857,1583,-956,-303,-67,113,3,9,13
4.87E+01,-7859,1590,-970,-301,-19,-118,3,9,13
4.90E+01,-7890,1591,-973,-304,285,-109,3,9,13
4.92E+01,-7921,1603,-988,-296,295,-107,3,9,13
4.95E+01,-8195,1624,-1010,-289,286,-110,3,9,13
4.97E+01,-8200,1647,-1295,-294,273,-113,3,9,13
5.00E+01,-8201,1414,-1306,-308,265,-117,3,9,13
5.02E+01,-8196,1421,-1317,-328,264,-113,3,9,13
5.05E+01,-7931,1408,-1328,-347,262,-112,3,9,13
5.07E+01,-7924,1661,-1334,-344,-6,-118,3,9,13
5.10E+01,-7915,1654,-1331,-341,-24,127,3,9,13
5.12E+01,-7912,1643,-1328,-324,-42,109,3,9,13
5.15E+01,-7909,1644,-1337,-303,-61,95,3,9,13
5.17E+01,-7901,1655,-1352,-285,-78,88,3,9,13
5.20E+01,-7896,1661,-1352,-271,-85,80,3,9,13
5.22E+01,-7896,1414,-1354,-266,-91,78,3,9,13
5.25E+01,-7896,1423,-1343,-258,-105,81,3,9,13
5.27E+01,-7891,1422,-1349,1,-117,87,3,9,13
5.30E+01,-7886,1434,-1357,7,-118,94,3,9,13
5.32E+01,-7890,1444,-1372,5,-111,100,3,9,13
5.35E+01,-7895,1439,-1370,-261,-100,110,3,9,13
5.37E+01,-7894,1441,-1371,-267,-93,112,3,9,13
5.40E+01,-7891,1437,-1372,-271,-92,103,3,9,13
5.42E+01,-7895,1431,-1371,-268,-92,85,3,9,13
5.45E+01,-7911,1433,-1364,-258,-97,67,3,9,13
5.47E+01,-7906,1426,-1366,4,-115,53,3,9,13
5.50E+01,-7900,1415,-1361,8,-128,39,3,9,13
5.52E+01,-7896,1663,-1358,12,116,26,3,9,13
5.55E+01,-7911,1645,-1352,19,103,14,3,9,13
5.57E+01,-7926,1641,-1346,38,80,18,3,9,13
5.60E+01,-7908,1648,-1342,62,59,41,3,9,13
5.62E+01,-7903,1648,-1341,72,62,66,3,9,13
5.65E+01,-7900,1650,-1331,80,74,81,3,9,13
5.67E+01,-7898,1649,-1333,86,76,88,3,9,13
5.70E+01,-7894,1644,-1325,94,81,90,3,9,13
5.72E+01,-7907,1651,-1319,99,76,90,3,9,13
5.75E+01,-7896,1652,-1325,103,67,95,3,9,13
5.77E+01,-7882,1658,-1324,102,66,97,3,9,13
5.80E+01,-7885,1410,-1318,105,70,99,3,9,13
5.82E+01,-7882,1409,-1324,102,77,107,3,9,13
5.85E+01,-7890,1412,-1326,105,87,122,3,9,13
5.87E+01,-7897,1429,-1324,109,90,-115,3,9,13
5.90E+01,-7889,1436,-1328,100,90,-96,3,9,13
5.92E+01,-7878,1450,-1325,84,96,-89,3,9,13
5.95E+01,-7895,1449,-1323,61,110,-94,3,9,13
5.97E+01,-7906,1448,-1321,51,111,-106,3,9,13
6.00E+01,-7908,1448,-1328,47,105,-119,3,9,13
6.02E+01,-7916,1446,-1324,42,105,119,3,9,13
6.05E+01,-7921,1443,-1329,42,96,103,3,9,13
6.07E+01,-7913,1442,-1326,40,89,91,3,9,13
6.10E+01,-7907,1445,-1318,36,82,80,3,9,13
6.12E+01,-7896,1450,-1323,31,76,70,3,9,13
6.15E+01,-7890,1446,-1320,25,75,62,3,9,13
6.17E+01,-7883,1440,-1319,16,81,54,3,9,13
6.20E+01,-7879,1436,-1320,8,89,51,3,9,13
6.22E+01,-7878,1430,-1317,-258,96,51,3,9,13
6.25E+01,-7872,1431,-1318,-265,103,56,3,9,13
6.27E+01,-7878,1434,-1310,-275,112,59,3,9,13
6.30E+01,-7885,1423,-1306,-283,120,66,3,9,13
6.32E+01,-7886,1427,-1304,-288,125,75,3,9,13
6.35E+01,-7889,1424,-1299,-288,126,88,3,9,13
6.37E+01,-7888,1430,-1297,-274,125,111,3,9,13
6.40E+01,-7891,1435,-1301,2,-125,121,3,9,13
6.42E+01,-7894,1443,-1302,17,-115,125,3,9,13
6.45E+01,-7898,1446,-1317,37,-115,121,3,9,13
6.47E+01,-7906,1457,-1321,57,-123,112,3,9,13
6.50E+01,-7909,1460,-1327,80,-127,96,3,9,13
6.52E+01,-7927,1469,-1324,90,125,79,3,9,13
6.55E+01,-7922,1478,-1332,88,102,67,3,9,13
6.57E+01,-7906,1477,-1326,70,84,55,3,9,13
6.60E+01,-7894,1468,-1318,41,72,46,3,9,13
6.62E+01,-7896,1451,-1311,21,62,34,3,9,13
6.65E+01,-7912,1441,-1312,18,52,31,3,9,13
6.67E+01,-7911,1448,-1315,28,40,51,3,9,13
6.70E+01,-7909,1453,-1319,33,47,79,3,9,13
6.72E+01,-7909,1451,-1311,34,62,103,3,9,13
6.75E+01,-7909,1444,-1300,42,67,110,3,9,13
6.77E+01,-7908,1443,-1282,58,63,107,3,9,13
6.80E+01,-7909,1444,-1016,72,58,100,3,9,13
6.82E+01,-7899,1456,-1008,84,43,98,3,9,13
6.85E+01,-7879,1464,-1019,90,31,94,3,9,13
6.87E+01,-7857,1470,-1290,85,36,87,3,9,13
6.90E+01,-7854,1477,-1289,72,52,76,3,9,13
6.92E+01,-7858,1480,-1283,53,69,63,3,9,13
6.95E+01,-7874,1479,-1019,27,89,55,3,9,13
6.97E+01,-7884,1478,-1022,-263,97,44,3,9,13
7.00E+01,-7887,1463,-1010,-282,108,30,3,9,13
7.02E+01,-7912,1442,-996,-288,114,19,3,9,13
7.05E+01,-7911,1431,-991,-280,106,14,3,9,13
7.07E+01,-7903,1423,-993,-261,106,14,3,9,13
7.10E+01,-7905,1425,-1007,13,112,16,3,9,13
7.12E+01,-7903,1424,-1008,28,119,25,3,9,13
7.15E+01,-7903,1424,-1012,39,125,33,3,9,13
7.17E+01,-7906,1427,-1019,49,-128,40,3,9,13
7.20E+01,-7907,1425,-1007,55,125,48,3,9,13
7.22E+01,-7901,1429,-1010,59,118,52,3,9,13
7.25E+01,-7893,1429,-1015,60,112,57,3,9,13
7.27E+01,-7889,1431,-1021,54,109,61,3,9,13
7.30E+01,-7894,1430,-1283,51,109,68,3,9,13
7.32E+01,-7893,1431,-1024,46,111,73,3,9,13
7.35E+01,-7897,1429,-1012,42,110,80,3,9,13
7.37E+01,-7896,1425,-1014,46,103,86,3,9,13
7.40E+01,-7895,1433,-1010,52,103,90,3,9,13
7.42E+01,-7902,1439,-1016,58,106,97,3,9,13
7.45E+01,-7902,1450,-1020,61,108,107,3,9,13
7.47E+01,-7886,1465,-1287,50,122,97,3,9,13
7.50E+01,-7895,1461,-1020,43,-114,76,3,9,13
7.52E+01,-7918,1467,-1024,47,-110,60,3,9,13
7.55E+01,-7911,1463,-1023,43,125,55,3,9,13
7.57E+01,-7901,1455,-1284,41,113,51,3,9,13
7.60E+01,-7891,1450,-1283,33,103,47,3,9,13
7.62E+01,-7908,1440,-1282,28,107,42,3,9,13
7.65E+01,-8196,1432,-1016,33,102,44,3,9,13
7.67E+01,-7934,1438,-1285,53,85,57,3,9,13
7.70E+01,-7912,1449,-1291,61,87,64,3,9,13
7.72E+01,-7902,1447,-1294,60,99,65,3,9,13
7.75E+01,-7892,1449,-1293,61,104,58,3,9,13
7.77E+01,-7888,1448,-1291,56,110,44,3,9,13
7.80E+01,-7895,1441,-1290,56,112,29,3,9,13
7.82E+01,-7907,1438,-1291,51,105,20,3,9,13
7.85E+01,-7900,1439,-1288,49,96,17,3,9,13
7.87E+01,-7900,1437,-1290,43,88,17,3,9,13
7.90E+01,-7904,1418,-1281,33,85,19,3,9,13
7.92E+01,-7908,1409,-1017,34,83,20,3,9,13
7.95E+01,-7907,1662,-1006,37,82,27,3,9,13
7.97E+01,-7898,1660,-998,49,78,38,3,9,13
8.00E+01,-7890,1652,-1001,60,73,40,3,9,13
8.02E+01,-7906,1644,-1001,66,91,30,3,9,13
8.05E+01,-7917,1638,-989,75,89,29,3,9,13
8.07E+01,-7915,1641,-989,94,75,29,3,9,13
8.10E+01,-7907,1645,-1001,113,67,39,3,9,13
8.12E+01,-7909,1650,-1005,119,75,52,3,9,13
8.15E+01,-7908,1652,-1001,114,88,66,3,9,13
8.17E+01,-7915,1655,-995,105,93,80,3,9,13
8.20E+01,-7919,1651,-989,104,91,89,3,9,13
8.22E+01,-7920,1658,-985,108,80,98,3,9,13
8.25E+01,-7910,1411,-996,111,66,105,3,9,13
8.27E+01,-7905,1419,-998,111,62,109,3,9,13
8.30E+01,-7907,1428,-994,107,64,114,3,9,13
8.32E+01,-7904,1430,-987,101,70,116,3,9,13
8.35E+01,-7904,1431,-986,97,77,118,3,9,13
8.37E+01,-7900,1432,-990,93,81,121,3,9,13
8.40E+01,-7898,1430,-985,94,83,117,3,9,13
8.42E+01,-7899,1439,-986,94,86,111,3,9,13
8.45E+01,-7899,1442,-986,95,93,109,3,9,13
8.47E+01,-7898,1457,-994,88,99,110,3,9,13
8.50E+01,-7897,1463,-997,80,111,110,3,9,13
8.52E+01,-7899,1463,-995,75,124,105,3,9,13
8.55E+01,-7894,1457,-996,72,-124,94,3,9,13
8.57E+01,-7910,1450,-993,71,-110,78,3,9,13
8.60E+01,-7919,1462,-990,75,-114,67,3,9,13
8.62E+01,-7914,1467,-992,64,-126,60,3,9,13
8.65E+01,-7910,1459,-993,46,122,58,3,9,13
8.67E+01,-7909,1449,-991,32,111,50,3,9,13
8.70E+01,-7925,1442,-988,29,104,42,3,9,13
8.72E+01,-7928,1431,-989,33,90,44,3,9,13
8.75E+01,-7917,1444,-1005,46,83,51,3,9,13
8.77E+01,-7908,1450,-1007,44,97,61,3,9,13
8.80E+01,-7903,1450,-1005,39,111,65,3,9,13
8.82E+01,-7902,1449,-1001,40,118,63,3,9,13
8.85E+01,-7904,1445,-994,37,126,58,3,9,13
8.87E+01,-7906,1435,-992,38,123,52,3,9,13
8.90E+01,-7903,1433,-992,36,117,45,3,9,13
8.92E+01,-7899,1430,-1003,30,117,42,3,9,13
8.95E+01,-7900,1427,-996,27,123,41,3,9,13
8.97E+01,-7905,1417,-992,27,-126,42,3,9,13
9.00E+01,-7904,1414,-997,31,-119,46,3,9,13
9.02E+01,-7910,1417,-991,33,-109,53,3,9,13
9.05E+01,-7893,1419,-997,38,-116,66,3,9,13
9.07E+01,-7893,1408,-995,31,-104,64,3,9,13
9.10E+01,-7916,1661,-987,34,-99,57,3,9,13
9.12E+01,-7924,1661,-985,42,-114,57,3,9,13
9.15E+01,-7917,1663,-1000,54,-126,63,3,9,13
9.17E+01,-7918,1417,-1006,60,127,70,3,9,13
9.20E+01,-7918,1413,-1009,56,-124,78,3,9,13
9.22E+01,-7916,1419,-1014,58,-120,82,3,9,13
9.25E+01,-7918,1420,-1014,53,-118,86,3,9,13
9.27E+01,-7921,1417,-1012,55,-123,84,3,9,13
9.30E+01,-7919,1408,-1007,56,123,80,3,9,13
9.32E+01,-7915,1414,-1013,63,111,81,3,9,13
9.35E+01,-7912,1419,-1010,71,104,89,3,9,13
9.37E+01,-7907,1422,-1009,79,107,96,3,9,13
9.40E+01,-7898,1425,-1006,84,109,104,3,9,13
9.42E+01,-7898,1427,-1012,87,111,111,3,9,13
9.45E+01,-7900,1440,-1009,94,108,118,3,9,13
9.47E+01,-7898,1447,-1016,96,109,119,3,9,13
9.50E+01,-7905,1457,-1018,84,113,113,3,9,13
9.52E+01,-7907,1461,-1018,74,114,105,3,9,13
9.55E+01,-7913,1462,-1020,62,119,98,3,9,13
9.57E+01,-7909,1464,-1017,52,123,91,3,9,13
9.60E+01,-7910,1462,-1009,41,126,83,3,9,13
9.62E+01,-7907,1457,-1019,34,-125,78,3,9,13
9.65E+01,-7898,1445,-1013,30,127,65,3,9,13
9.67E+01,-7891,1433,-1010,28,124,45,3,9,13
9.70E+01,-7903,1431,-1008,38,-124,27,3,9,13
9.72E+01,-7913,1437,-1002,45,-124,22,3,9,13
9.75E+01,-7908,1433,-1004,43,123,23,3,9,13
9.77E+01,-7924,1410,-1004,5,107,49,3,9,13
9.80E+01,-7913,1424,-1014,15,91,69,3,9,13
9.82E+01,-7902,1437,-1022,17,99,91,3,9,13
9.85E+01,-7898,1437,-1282,15,114,108,3,9,13
9.87E+01,-7901,1426,-1024,17,-122,106,3,9,13
9.90E+01,-7907,1434,-1015,27,-121,97,3,9,13
9.92E+01,-7911,1440,-1014,38,-128,88,3,9,13
9.95E+01,-7908,1441,-1013,43,116,77,3,9,13
9.97E+01,-7902,1441,-1010,54,106,62,3,9,13
1.00E+02,-7893,1439,-1007,57,104,52,3,9,13
1.00E+02,-7894,1440,-1010,55,107,48,3,9,13
1.00E+02,-7896,1441,-1017,56,107,51,3,9,13
1.01E+02,-7905,1441,-1011,52,116,61,3,9,13
1.01E+02,-7900,1434,-1016,48,115,70,3,9,13
1.01E+02,-7894,1429,-1015,44,119,71,3,9,13
1.01E+02,-7898,1426,-1008,41,126,66,3,9,13
1.02E+02,-7907,1421,-1001,39,124,68,3,9,13
1.02E+02,-7904,1419,-1005,40,119,76,3,9,13
1.02E+02,-7900,1428,-1010,46,121,85,3,9,13
1.02E+02,-7897,1429,-1020,45,124,98,3,9,13
1.03E+02,-7899,1435,-1015,43,-124,102,3,9,13
1.03E+02,-7903,1435,-1021,41,-119,104,3,9,13
1.03E+02,-7913,1439,-1012,43,-123,102,3,9,13
1.03E+02,-7914,1444,-1007,48,126,97,3,9,13
1.04E+02,-7912,1442,-1014,51,113,92,3,9,13
1.04E+02,-7910,1447,-1020,53,106,85,3,9,13
1.04E+02,-7904,1450,-1015,55,98,79,3,9,13
1.04E+02,-7904,1450,-1019,58,98,80,3,9,13
1.05E+02,-7901,1453,-1016,59,97,81,3,9,13
1.05E+02,-7903,1445,-1013,58,103,88,3,9,13
1.05E+02,-7897,1445,-1010,61,106,90,3,9,13
1.05E+02,-7895,1446,-1012,62,109,88,3,9,13
1.06E+02,-7899,1452,-1008,59,114,85,3,9,13
1.06E+02,-7897,1458,-1003,49,114,83,3,9,13
1.06E+02,-7893,1465,-1012,43,112,84,3,9,13
1.06E+02,-7891,1468,-1013,32,116,89,3,9,13
1.07E+02,-7898,1465,-1012,17,-123,94,3,9,13
1.07E+02,-7910,1465,-1004,2,-114,99,3,9,13
1.07E+02,-7916,1462,-1009,5,-114,101,3,9,13
1.07E+02,-7907,1459,-1012,14,-115,101,3,9,13
1.08E+02,-7909,1452,-1019,30,-112,93,3,9,13
1.08E+02,-7919,1458,-1282,52,-110,85,3,9,13
1.08E+02,-7918,1464,-1291,63,-122,84,3,9,13
1.08E+02,-7914,1469,-1287,68,124,80,3,9,13
1.09E+02,-7901,1467,-1024,61,111,78,3,9,13
1.09E+02,-7910,1462,-1018,51,96,70,3,9,13
1.09E+02,-7932,1460,-1015,44,82,66,3,9,13
1.09E+02,-7922,1461,-1014,42,59,75,3,9,13
1.10E+02,-7908,1471,-1024,37,59,84,3,9,13
1.10E+02,-7899,1478,-1016,27,76,85,3,9,13
1.10E+02,-7890,1473,-1009,17,89,81,3,9,13
1.10E+02,-7891,1463,-997,11,98,73,3,9,13
1.11E+02,-7892,1458,-996,9,100,62,3,9,13
1.11E+02,-7892,1466,-992,14,95,48,3,9,13
1.11E+02,-7890,1468,-998,16,93,34,3,9,13
1.11E+02,-7889,1464,-1001,18,99,25,3,9,13
1.12E+02,-7891,1458,-996,21,109,16,3,9,13
1.12E+02,-7896,1448,-999,22,120,7,3,9,13
1.12E+02,-7896,1439,-999,23,-127,-257,3,9,13
1.12E+02,-7909,1436,-993,32,-121,-269,3,9,13
1.13E+02,-7892,1426,-989,28,-126,-272,3,9,13
1.13E+02,-7889,1645,-986,13,-119,-289,3,9,13
1.13E+02,-7901,1598,-984,8,-121,-329,3,9,13
1.13E+02,-7900,1583,-984,41,115,-384,3,9,13
1.14E+02,-7909,1594,-997,89,103,-166,3,9,13
1.14E+02,-7926,1552,-980,115,90,-167,3,9,13
1.14E+02,-8233,1263,-948,-74,53,-383,3,9,13
1.14E+02,-8065,1270,-926,260,-284,-296,3,9,13
1.15E+02,-8124,1572,-920,305,-151,98,3,9,13
1.15E+02,-8087,1636,-937,299,-573,-13,3,9,13
1.15E+02,-8270,1442,-943,-32,-419,129,3,9,13
1.15E+02,-8199,1480,-957,112,-453,246,3,9,13
1.16E+02,-7923,1497,-933,6,-441,611,3,9,13
1.16E+02,-8234,1508,-901,-287,-436,506,3,9,13
1.16E+02,-8200,1855,-1143,-270,-490,732,3,9,13
1.16E+02,-7898,1894,-1136,-289,-501,1084,3,9,13
1.17E+02,-7847,1674,-1139,-299,-461,1074,3,9,13
1.17E+02,-8061,1673,-1130,-334,-394,730,3,9,13
1.17E+02,-8041,1911,-1120,-348,-575,821,3,9,13
1.17E+02,-8047,1891,-1096,-300,-244,618,3,9,13
1.18E+02,-8044,1864,-1079,39,-179,358,3,9,13
1.18E+02,-8034,1886,-1083,-62,-371,69,3,9,13
1.18E+02,-8056,1676,-1085,320,-287,-183,3,9,13
1.18E+02,-7836,1728,-1099,346,41,-638,3,9,13
1.19E+02,-7905,1754,-1097,291,109,-504,3,9,13
1.19E+02,-8230,1760,-1105,-70,-120,-812,3,9,13
1.19E+02,-8261,1711,-1108,60,117,-820,3,9,13
1.19E+02,-8245,1665,-1114,-289,93,-830,3,9,13
1.20E+02,-8221,1890,-1116,-360,62,-863,3,9,13
1.20E+02,-7928,1845,-1115,-181,51,-886,3,9,13
1.20E+02,-7927,1811,-1083,-522,74,-659,3,9,13
1.20E+02,-8226,1512,-1041,-600,92,-875,3,9,13
1.21E+02,-8199,1474,-760,-639,84,-489,3,9,13
1.21E+02,-7918,1421,-733,-415,116,-632,3,9,13
1.21E+02,-7915,1633,-708,-408,-103,-542,3,9,13
1.21E+02,-7910,1592,-705,-627,-84,-201,3,9,13
1.22E+02,-7889,1572,-713,-568,-64,-381,3,9,13
1.22E+02,-7887,1564,-716,-515,-29,-328,3,9,13
1.22E+02,-7902,1566,-718,-209,-2,-288,3,9,13
1.22E+02,-7908,1571,-725,-166,269,6,3,9,13
1.23E+02,-7935,1562,-739,-134,282,28,3,9,13
1.23E+02,-8210,1583,-757,-340,282,44,3,9,13
1.23E+02,-8241,1597,-767,-314,280,60,3,9,13
1.23E+02,-8267,1618,-1031,-296,262,83,3,9,13
1.24E+02,-8263,1636,-1056,-304,-27,107,3,9,13
1.24E+02,-8260,1632,-1056,-324,-47,112,3,9,13
1.24E+02,-8277,1626,-1042,-350,-72,109,3,9,13
1.24E+02,-8272,1633,-1035,-350,-128,113,3,9,13
1.25E+02,-8247,1627,-1027,-347,87,-122,3,9,13
1.25E+02,-8224,1636,-1033,-335,67,-108,3,9,13
1.25E+02,-8204,1642,-1040,-339,69,-96,3,9,13
1.25E+02,-7936,1638,-767,-336,84,-81,3,9,13
1.26E+02,-7936,1637,-761,-326,90,-73,3,9,13
1.26E+02,-8193,1637,-748,-311,88,-74,3,9,13
1.26E+02,-8198,1638,-748,-288,85,-83,3,9,13
1.26E+02,-7935,1410,-764,-269,79,-86,3,9,13
1.27E+02,-7931,1436,-761,-270,86,-80,3,9,13
1.27E+02,-7931,1447,-761,-284,91,-67,3,9,13
1.27E+02,-7931,1449,-1031,-274,100,-67,3,9,13
1.27E+02,-7936,1462,-1036,-258,109,-74,3,9,13
1.28E+02,-8201,1476,-1041,20,116,-81,3,9,13
1.28E+02,-8203,1485,-1043,45,123,-85,3,9,13
1.28E+02,-8204,1497,-1048,68,124,-78,3,9,13
1.28E+02,-8202,1503,-1051,85,125,-74,3,9,13
1.29E+02,-8194,1493,-1054,92,126,-71,3,9,13
1.29E+02,-8193,1493,-1053,111,-121,-83,3,9,13
1.29E+02,-8210,1506,-1046,-124,-111,-120,3,9,13
1.29E+02,-8208,1521,-1062,-106,-113,117,3,9,13
1.30E+02,-8204,1529,-1049,-105,-125,95,3,9,13
1.30E+02,-8201,1526,-1043,-116,112,80,3,9,13
1.30E+02,-8210,1519,-1046,121,102,75,3,9,13
1.30E+02,-8240,1507,-1028,99,88,63,3,9,13
1.31E+02,-8239,1499,-1026,81,62,72,3,9,13
1.31E+02,-8218,1500,-1033,82,41,81,3,9,13
1.31E+02,-8202,1511,-1032,80,45,88,3,9,13
1.31E+02,-8193,1510,-761,67,53,90,3,9,13
1.32E+02,-7929,1502,-763,56,64,88,3,9,13
1.32E+02,-7931,1501,-754,58,79,83,3,9,13
1.32E+02,-7936,1489,-746,59,82,82,3,9,13
1.32E+02,-7932,1486,-742,60,82,80,3,9,13
1.33E+02,-7926,1484,-755,71,83,79,3,9,13
1.33E+02,-7924,1489,-754,76,94,75,3,9,13
1.33E+02,-7924,1487,-756,74,111,75,3,9,13
1.33E+02,-7929,1488,-757,71,-128,76,3,9,13
1.34E+02,-7933,1493,-751,61,-108,85,3,9,13
1.34E+02,-8201,1467,-761,67,-114,100,3,9,13
1.34E+02,-8198,1479,-1032,75,-112,99,3,9,13
1.34E+02,-8203,1488,-1027,76,-111,98,3,9,13
1.35E+02,-8201,1491,-768,82,-116,98,3,9,13
1.35E+02,-8201,1491,-766,85,-120,95,3,9,13
1.35E+02,-8201,1494,-756,89,127,94,3,9,13
1.35E+02,-8197,1496,-764,92,119,94,3,9,13
1.36E+02,-8193,1494,-765,92,119,94,3,9,13
1.36E+02,-8195,1501,-1030,91,118,96,3,9,13
1.36E+02,-7936,1495,-1032,85,117,100,3,9,13
1.36E+02,-7933,1495,-1025,87,114,101,3,9,13
1.37E+02,-7929,1507,-768,106,115,104,3,9,13
1.37E+02,-7926,1517,-1032,107,118,108,3,9,13
1.37E+02,-7922,1530,-1042,106,125,109,3,9,13
1.37E+02,-7933,1534,-1051,96,-118,109,3,9,13
1.38E+02,-7930,1530,-1050,86,-114,105,3,9,13
1.38E+02,-7928,1524,-1055,77,-109,92,3,9,13
1.38E+02,-8196,1533,-1054,77,-99,73,3,9,13
1.38E+02,-8205,1796,-1059,68,-110,66,3,9,13
1.39E+02,-8195,1535,-1052,57,-126,61,3,9,13
1.39E+02,-7936,1533,-1057,42,121,57,3,9,13
1.39E+02,-8194,1520,-1046,33,113,52,3,9,13
1.39E+02,-8212,1516,-1039,37,105,49,3,9,13
1.40E+02,-8217,1513,-1041,47,88,58,3,9,13
1.40E+02,-8211,1516,-1054,59,84,74,3,9,13
1.40E+02,-8200,1523,-1058,69,95,86,3,9,13
1.40E+02,-8200,1518,-1059,75,107,91,3,9,13
1.41E+02,-7934,1518,-1057,83,117,88,3,9,13
1.41E+02,-7935,1516,-1054,85,123,81,3,9,13
1.41E+02,-8194,1512,-1051,90,119,71,3,9,13
1.41E+02,-7933,1514,-1041,95,109,63,3,9,13
1.42E+02,-7927,1508,-1037,95,103,62,3,9,13
1.42E+02,-7922,1511,-1038,94,106,59,3,9,13
1.42E+02,-7926,1509,-1043,87,111,61,3,9,13
1.42E+02,-7923,1504,-1030,80,117,66,3,9,13
1.43E+02,-7936,1510,-762,79,122,71,3,9,13
1.43E+02,-7930,1509,-1026,73,119,77,3,9,13
1.43E+02,-7916,1497,-1029,66,125,79,3,9,13
1.43E+02,-7927,1491,-765,66,-118,78,3,9,13
1.44E+02,-8195,1486,-1026,69,-118,81,3,9,13
1.44E+02,-8193,1490,-1031,80,-125,87,3,9,13
1.44E+02,-7936,1495,-1040,88,-127,90,3,9,13
1.44E+02,-7935,1503,-1048,92,-125,88,3,9,13
1.45E+02,-8194,1516,-1054,91,-119,84,3,9,13
1.45E+02,-8203,1523,-1044,80,-112,81,3,9,13
1.45E+02,-8200,1522,-1053,73,-111,83,3,9,13
1.45E+02,-8204,1520,-1049,62,-117,85,3,9,13
1.46E+02,-8201,1508,-1045,55,-128,83,3,9,13
1.46E+02,-8195,1510,-1047,56,119,77,3,9,13
1.46E+02,-8194,1510,-1043,59,111,72,3,9,13
1.46E+02,-7933,1514,-1042,60,110,69,3,9,13
1.47E+02,-7934,1519,-1046,65,111,70,3,9,13
1.47E+02,-7932,1519,-1048,69,113,72,3,9,13
1.47E+02,-7932,1518,-1053,77,119,76,3,9,13
1.47E+02,-7924,1526,-1061,81,127,77,3,9,13
1.48E+02,-7932,1523,-1057,79,-118,82,3,9,13
1.48E+02,-7933,1527,-1061,77,-114,83,3,9,13
1.48E+02,-7936,1525,-1062,71,-113,84,3,9,13
1.48E+02,-7932,1523,-1061,62,-116,82,3,9,13
1.49E+02,-7931,1533,-1073,56,-115,69,3,9,13
1.49E+02,-8201,1530,-1061,51,-111,60,3,9,13
1.49E+02,-7935,1531,-1060,45,-123,59,3,9,13
1.49E+02,-8195,1527,-1057,39,121,52,3,9,13
1.50E+02,-8201,1513,-1052,22,113,52,3,9,13
1.50E+02,-8220,1509,-1039,24,94,53,3,9,13
1.50E+02,-8218,1506,-1050,37,71,67,3,9,13
1.50E+02,-8199,1512,-1062,43,65,84,3,9,13
1.51E+02,-7930,1516,-1064,52,69,94,3,9,13
1.51E+02,-7928,1509,-1071,56,87,96,3,9,13
1.51E+02,-7936,1503,-1063,60,95,92,3,9,13
1.51E+02,-7935,1503,-1056,70,94,87,3,9,13
1.52E+02,-8198,1508,-1047,76,89,83,3,9,13
1.52E+02,-8197,1516,-1045,89,78,78,3,9,13
1.52E+02,-7922,1522,-1056,92,68,74,3,9,13
1.52E+02,-7910,1521,-1056,83,74,72,3,9,13
1.53E+02,-7915,1514,-1047,73,88,69,3,9,13
1.53E+02,-7928,1510,-1051,68,97,68,3,9,13
1.53E+02,-7934,1510,-1034,70,101,72,3,9,13
1.53E+02,-8194,1516,-1044,71,101,78,3,9,13
1.54E+02,-7933,1511,-1039,67,101,80,3,9,13
1.54E+02,-8196,1507,-1029,63,108,79,3,9,13
1.54E+02,-8204,1505,-1030,68,105,81,3,9,13
1.54E+02,-8204,1507,-1025,75,104,88,3,9,13
1.55E+02,-7935,1509,-1029,85,106,94,3,9,13
1.55E+02,-7930,1523,-1036,93,119,96,3,9,13
1.55E+02,-7934,1535,-1043,95,-126,100,3,9,13
1.55E+02,-7933,1800,-1049,92,-120,96,3,9,13
1.56E+02,-8197,1803,-1051,83,-124,91,3,9,13
1.56E+02,-8196,1804,-1047,76,121,81,3,9,13
1.56E+02,-8196,1809,-1050,70,110,74,3,9,13
1.56E+02,-7933,1802,-1051,60,100,67,3,9,13
1.57E+02,-7932,1805,-1042,55,97,60,3,9,13
1.57E+02,-7929,1799,-1043,47,99,59,3,9,13
1.57E+02,-7931,1796,-1037,48,99,54,3,9,13
1.57E+02,-7932,1796,-1037,47,99,51,3,9,13
1.58E+02,-7923,1798,-1043,47,100,46,3,9,13
1.58E+02,-7923,1804,-1041,40,108,42,3,9,13
1.58E+02,-7928,1800,-1041,24,122,43,3,9,13
1.58E+02,-7935,1792,-1044,10,-125,41,3,9,13
1.59E+02,-8197,1530,-1048,1,-120,40,3,9,13
1.59E+02,-7935,1524,-1038,-260,-120,37,3,9,13
1.59E+02,-8198,1516,-1036,-258,-109,27,3,9,13
1.59E+02,-8219,1519,-1030,5,-103,25,3,9,13
1.60E+02,-8203,1519,-1034,7,-120,31,3,9,13
1.60E+02,-7930,1523,-1037,5,126,28,3,9,13
1.60E+02,-7909,1513,-1035,-264,123,23,3,9,13
1.60E+02,-7925,1507,-1029,-272,-116,5,3,9,13
1.61E+02,-8216,1512,-766,-273,-111,1,3,9,13
1.61E+02,-8200,1519,-1044,0,-120,20,3,9,13
1.61E+02,-7934,1522,-1046,-259,-103,30,3,9,13
1.61E+02,-7933,1509,-1046,-267,-93,34,3,9,13
1.62E+02,-7933,1506,-1043,-269,-89,29,3,9,13
1.62E+02,-7936,1500,-1048,-272,-90,22,3,9,13
1.62E+02,-8195,1504,-1052,-269,-100,16,3,9,13
1.62E+02,-7933,1508,-1058,-267,-110,13,3,9,13
1.63E+02,-7926,1506,-1058,-275,-111,16,3,9,13
1.63E+02,-7923,1500,-1055,-280,-106,14,3,9,13
1.63E+02,-7929,1490,-1056,-284,-98,14,3,9,13
1.63E+02,-7936,1476,-1058,-279,-94,16,3,9,13
1.64E+02,-8207,1476,-1054,-268,-94,20,3,9,13
1.64E+02,-7935,1473,-1061,2,-107,28,3,9,13
1.64E+02,-7927,1467,-1066,9,-104,25,3,9,13
1.64E+02,-8203,1456,-1069,15,-99,23,3,9,13
1.65E+02,-8206,1447,-1064,25,-112,31,3,9,13
1.65E+02,-8203,1452,-1067,46,-122,41,3,9,13
1.65E+02,-8194,1454,-1082,47,-125,49,3,9,13
1.65E+02,-7927,1458,-1083,49,-115,55,3,9,13
1.66E+02,-7929,1461,-1078,41,-102,57,3,9,13
1.66E+02,-7932,1459,-1073,37,-98,61,3,9,13
1.66E+02,-8196,1451,-1064,33,-103,63,3,9,13
1.66E+02,-8199,1451,-1061,32,-111,61,3,9,13
1.67E+02,-8198,1447,-1063,39,-125,62,3,9,13
1.67E+02,-8199,1447,-1063,49,126,68,3,9,13
1.67E+02,-8198,1444,-1063,63,125,77,3,9,13
1.67E+02,-8198,1445,-1062,75,125,83,3,9,13
1.68E+02,-7933,1454,-1066,88,124,85,3,9,13
1.68E+02,-7932,1459,-1072,102,127,85,3,9,13
1.68E+02,-7932,1462,-1070,113,-128,85,3,9,13
1.68E+02,-8193,1477,-1076,124,-125,91,3,9,13
1.69E+02,-7935,1485,-1082,127,-119,97,3,9,13
1.69E+02,-8193,1493,-1078,122,-112,100,3,9,13
1.69E+02,-8193,1493,-1084,113,-109,96,3,9,13
1.69E+02,-8194,1494,-1087,106,-110,85,3,9,13
1.70E+02,-8215,1508,-1083,104,-114,72,3,9,13
1.70E+02,-8205,1509,-1085,93,117,67,3,9,13
1.70E+02,-8197,1510,-1081,73,90,67,3,9,13
1.70E+02,-7929,1497,-1081,59,78,66,3,9,13
1.71E+02,-8201,1493,-1071,57,81,61,3,9,13
1.71E+02,-8215,1487,-1064,63,71,66,3,9,13
1.71E+02,-8210,1496,-1076,80,62,76,3,9,13
1.71E+02,-8204,1506,-1082,86,70,87,3,9,13
1.72E+02,-7932,1510,-1085,85,78,92,3,9,13
1.72E+02,-7925,1507,-1083,78,89,89,3,9,13
1.72E+02,-7926,1506,-1069,73,97,76,3,9,13
1.72E+02,-7930,1503,-1066,69,99,64,3,9,13
1.73E+02,-7927,1502,-1059,65,98,56,3,9,13
1.73E+02,-7926,1503,-1057,62,97,51,3,9,13
1.73E+02,-7918,1497,-1062,54,101,51,3,9,13
1.73E+02,-7918,1489,-1064,42,111,56,3,9,13
1.74E+02,-7917,1480,-1055,35,123,61,3,9,13
1.74E+02,-7930,1476,-1056,32,-120,65,3,9,13
1.74E+02,-7923,1478,-1054,36,-116,74,3,9,13
1.74E+02,-7920,1466,-1056,35,-109,80,3,9,13
1.75E+02,-8194,1456,-1052,33,-94,79,3,9,13
1.75E+02,-8208,1455,-1050,40,-100,82,3,9,13
1.75E+02,-8212,1461,-1045,54,-111,90,3,9,13
1.75E+02,-8206,1473,-1053,66,-123,101,3,9,13
1.76E+02,-8200,1485,-1073,70,-126,110,3,9,13
1.76E+02,-7935,1495,-1083,63,-117,115,3,9,13
1.76E+02,-8199,1501,-1082,54,-108,111,3,9,13
1.76E+02,-8201,1504,-1077,41,-105,104,3,9,13
1.77E+02,-8203,1509,-1074,34,-106,93,3,9,13
1.77E+02,-8198,1509,-1071,33,-113,83,3,9,13
1.77E+02,-8196,1511,-1081,30,-121,75,3,9,13
1.77E+02,-7932,1514,-1079,28,-123,67,3,9,13
1.78E+02,-7932,1515,-1088,24,-118,62,3,9,13
1.78E+02,-7934,1515,-1085,22,-117,57,3,9,13
1.78E+02,-7925,1510,-1088,19,-116,53,3,9,13
1.78E+02,-7920,1504,-1082,23,-116,50,3,9,13
1.79E+02,-7919,1509,-1090,27,-108,50,3,9,13
1.79E+02,-7922,1508,-1103,28,-98,53,3,9,13
1.79E+02,-7929,1503,-1108,27,-93,53,3,9,13
1.79E+02,-7931,1497,-1113,29,-93,54,3,9,13
1.80E+02,-7923,1492,-1122,27,-97,48,3,9,13
1.80E+02,-7923,1482,-1128,23,-94,42,3,9,13
1.80E+02,-7936,1481,-1124,29,-93,33,3,9,13
1.80E+02,-8196,1487,-1125,30,-107,36,3,9,13
1.81E+02,-7933,1490,-1121,27,-124,42,3,9,13
1.81E+02,-7930,1484,-1118,14,118,46,3,9,13
1.81E+02,-8193,1473,-1111,2,104,48,3,9,13
1.81E+02,-8203,1466,-1105,4,91,52,3,9,13
1.82E+02,-8202,1464,-1103,18,81,70,3,9,13
1.82E+02,-8199,1472,-1102,31,85,93,3,9,13
1.82E+02,-8193,1475,-1107,40,98,111,3,9,13
1.82E+02,-8198,1476,-1091,51,110,124,3,9,13
1.83E+02,-8198,1479,-1093,66,112,-124,3,9,13
1.83E+02,-8196,1483,-1094,78,112,-113,3,9,13
1.83E+02,-8195,1487,-1090,81,112,-92,3,9,13
1.83E+02,-7917,1487,-1092,78,109,-71,3,9,13
1.84E+02,-7907,1486,-1095,74,116,-53,3,9,13
1.84E+02,-7903,1480,-1093,64,-127,-37,3,9,13
1.84E+02,-7903,1482,-1085,62,-121,-25,3,9,13
1.84E+02,-7914,1495,-1075,65,-117,-23,3,9,13
1.85E+02,-7912,1507,-1086,79,-122,-33,3,9,13
1.85E+02,-7913,1524,-1096,89,-128,-53,3,9,13
1.85E+02,-7917,1533,-1098,96,127,-80,3,9,13
1.85E+02,-7935,1803,-1098,105,117,-109,3,9,13
1.86E+02,-7936,1820,-1098,110,106,125,3,9,13
1.86E+02,-7933,1833,-1109,108,98,113,3,9,13
1.86E+02,-7928,1843,-1113,96,104,102,3,9,13
1.86E+02,-7932,1833,-1106,78,115,93,3,9,13
1.87E+02,-8198,1824,-1102,66,119,81,3,9,13
1.87E+02,-8197,1825,-1092,64,105,62,3,9,13
1.87E+02,-7932,1823,-1094,70,91,50,3,9,13
1.87E+02,-7921,1823,-1095,72,79,41,3,9,13
1.88E+02,-7916,1823,-1092,71,74,37,3,9,13
1.88E+02,-7911,1824,-1098,65,78,38,3,9,13
1.88E+02,-7915,1818,-1093,64,84,42,3,9,13
1.88E+02,-7912,1811,-1096,59,87,48,3,9,13
1.89E+02,-7916,1807,-1091,53,94,54,3,9,13
1.89E+02,-7917,1800,-1096,48,101,59,3,9,13
1.89E+02,-7908,1797,-1096,43,105,61,3,9,13
1.89E+02,-7909,1796,-1096,35,116,59,3,9,13
1.90E+02,-7915,1792,-1100,27,126,62,3,9,13
1.90E+02,-7924,1533,-1095,23,-124,67,3,9,13
1.90E+02,-7931,1529,-1096,22,-123,69,3,9,13
1.90E+02,-7926,1521,-1092,26,-127,65,3,9,13
1.91E+02,-7916,1515,-1089,34,122,58,3,9,13
1.91E+02,-7919,1509,-1093,48,125,49,3,9,13
1.91E+02,-7935,1522,-1098,63,124,44,3,9,13
1.91E+02,-7921,1524,-1103,69,116,46,3,9,13
1.92E+02,-7915,1526,-1103,65,112,47,3,9,13
1.92E+02,-7921,1513,-1096,55,105,52,3,9,13
1.92E+02,-8200,1515,-1080,56,94,53,3,9,13
1.92E+02,-8204,1514,-1085,61,76,69,3,9,13
1.93E+02,-7933,1520,-1103,71,65,89,3,9,13
1.93E+02,-7925,1794,-1110,70,73,107,3,9,13
1.93E+02,-7918,1796,-1103,64,89,113,3,9,13
1.93E+02,-7921,1796,-1099,62,102,109,3,9,13
1.94E+02,-7923,1804,-1091,65,109,103,3,9,13
1.94E+02,-7923,1809,-1091,69,102,92,3,9,13
1.94E+02,-7916,1812,-1089,74,85,85,3,9,13
1.94E+02,-7900,1817,-1097,73,84,75,3,9,13
1.95E+02,-7900,1821,-1095,66,93,64,3,9,13
1.95E+02,-7902,1819,-1091,52,107,63,3,9,13
1.95E+02,-7910,1816,-1094,41,121,65,3,9,13
1.95E+02,-7923,1817,-1084,32,-127,73,3,9,13
1.96E+02,-7916,1811,-1084,21,-125,78,3,9,13
1.96E+02,-7910,1808,-1087,10,-117,76,3,9,13
1.96E+02,-7914,1807,-1093,-259,-108,69,3,9,13
1.96E+02,-7917,1806,-1092,-273,-101,67,3,9,13
1.97E+02,-7914,1806,-1083,-290,-91,67,3,9,13
1.97E+02,-7916,1798,-1078,-306,-77,73,3,9,13
1.97E+02,-7925,1531,-1082,-314,-67,81,3,9,13
1.97E+02,-7931,1528,-1091,-307,-69,85,3,9,13
1.98E+02,-7933,1524,-1090,-289,-75,91,3,9,13
1.98E+02,-8203,1511,-1081,-265,-84,94,3,9,13
1.98E+02,-8206,1513,-1082,31,-105,89,3,9,13
1.98E+02,-8203,1515,-1086,70,-128,83,3,9,13
1.99E+02,-8196,1527,-1090,105,110,75,3,9,13
1.99E+02,-7932,1802,-1091,127,100,71,3,9,13
1.99E+02,-7924,1820,-1098,-122,93,70,3,9,13
1.99E+02,-7920,1837,-1107,-124,93,71,3,9,13
2.00E+02,-7917,1846,-1109,117,95,72,3,9,13
2.00E+02,-7915,1850,-1111,96,95,76,3,9,13
2.00E+02,-7909,1845,-1116,67,98,74,3,9,13
2.00E+02,-7906,1844,-1115,44,98,72,3,9,13
2.01E+02,-7903,1839,-1101,28,101,69,3,9,13
2.01E+02,-7906,1836,-1106,20,110,69,3,9,13
2.01E+02,-7913,1830,-1105,16,121,67,3,9,13
2.01E+02,-7921,1824,-1103,18,126,64,3,9,13
2.02E+02,-7916,1812,-1107,20,-128,52,3,9,13
2.02E+02,-7905,1806,-1111,21,-127,38,3,9,13
2.02E+02,-7923,1808,-1110,24,-117,20,3,9,13
2.02E+02,-7930,1809,-1113,20,-117,17,3,9,13
2.03E+02,-7925,1802,-1102,9,-126,12,3,9,13
2.03E+02,-7913,1534,-1098,-259,126,10,3,9,13
2.03E+02,-7902,1516,-1101,-269,124,7,3,9,13
2.03E+02,-7923,1513,-1091,-271,-119,3,3,9,13
2.04E+02,-8201,1514,-1090,-261,-119,19,3,9,13
2.04E+02,-8194,1524,-1094,9,-117,42,3,9,13
2.04E+02,-7936,1525,-1093,12,-102,58,3,9,13
2.04E+02,-7928,1528,-1100,15,-97,64,3,9,13
2.05E+02,-7922,1528,-1100,20,-97,60,3,9,13
2.05E+02,-7921,1529,-1106,25,-98,50,3,9,13
2.05E+02,-7923,1531,-1104,26,-104,42,3,9,13
2.05E+02,-7919,1534,-1096,23,-116,39,3,9,13
2.06E+02,-7912,1792,-1097,20,-125,39,3,9,13
2.06E+02,-7912,1535,-1109,13,-125,43,3,9,13
2.06E+02,-7911,1529,-1112,6,-122,50,3,9,13
2.06E+02,-7907,1525,-1114,2,-120,54,3,9,13
2.07E+02,-7919,1522,-1109,7,-110,52,3,9,13
2.07E+02,-7910,1525,-1120,15,-110,56,3,9,13
2.07E+02,-7902,1516,-1119,18,-102,51,3,9,13
2.07E+02,-7927,1504,-1101,22,-86,43,3,9,13
2.08E+02,-8194,1494,-1097,42,-97,41,3,9,13
2.08E+02,-7928,1492,-1100,69,-108,44,3,9,13
2.08E+02,-7916,1494,-1112,90,-107,48,3,9,13
2.08E+02,-7917,1503,-1123,110,-101,49,3,9,13
2.09E+02,-7917,1518,-1131,117,-93,45,3,9,13
2.09E+02,-7929,1530,-1146,116,-90,38,3,9,13
2.09E+02,-7936,1796,-1142,106,-98,33,3,9,13
2.09E+02,-7934,1795,-1147,93,-114,27,3,9,13
2.10E+02,-7929,1793,-1147,74,-128,28,3,9,13
2.10E+02,-7925,1530,-1142,57,116,27,3,9,13
2.10E+02,-7920,1519,-1144,43,114,30,3,9,13
2.10E+02,-7917,1506,-1125,35,110,33,3,9,13
2.11E+02,-7918,1500,-1122,37,109,36,3,9,13
2.11E+02,-7921,1488,-1116,42,108,39,3,9,13
2.11E+02,-7917,1488,-1125,54,106,39,3,9,13
2.11E+02,-7916,1493,-1131,66,103,45,3,9,13
2.12E+02,-7916,1499,-1139,73,106,53,3,9,13
2.12E+02,-7924,1504,-1147,77,108,59,3,9,13
2.12E+02,-7920,1505,-1136,74,105,66,3,9,13
2.12E+02,-7920,1500,-1133,70,104,64,3,9,13
2.13E+02,-7915,1487,-1128,71,103,56,3,9,13
2.13E+02,-7915,1482,-1124,73,105,36,3,9,13
2.13E+02,-7928,1487,-1120,80,105,22,3,9,13
2.13E+02,-7919,1487,-1124,89,88,19,3,9,13
2.14E+02,-7921,1482,-1128,95,80,19,3,9,13
2.14E+02,-7922,1469,-1124,101,71,21,3,9,13
2.14E+02,-8205,1459,-1106,114,72,15,3,9,13
2.14E+02,-8226,1472,-1111,-122,60,26,3,9,13
2.15E+02,-8210,1485,-1125,-102,46,49,3,9,13
2.15E+02,-8193,1505,-1132,-104,53,65,3,9,13
2.15E+02,-7925,1518,-1147,-122,67,72,3,9,13
2.15E+02,-7920,1512,-1146,110,74,67,3,9,13
2.16E+02,-7920,1512,-1136,86,76,56,3,9,13
2.16E+02,-7920,1511,-1139,69,75,49,3,9,13
2.16E+02,-7919,1499,-1123,54,71,47,3,9,13
2.16E+02,-7912,1492,-1115,47,66,48,3,9,13
2.17E+02,-7910,1480,-1119,47,68,46,3,9,13
2.17E+02,-7914,1482,-1112,56,76,45,3,9,13
2.17E+02,-7915,1483,-1116,72,83,44,3,9,13
2.17E+02,-7929,1484,-1111,78,89,46,3,9,13
2.18E+02,-7924,1494,-1121,84,81,56,3,9,13
2.18E+02,-7915,1492,-1121,81,85,58,3,9,13
2.18E+02,-7923,1486,-1108,68,95,55,3,9,13
2.18E+02,-7935,1473,-1101,58,94,50,3,9,13
2.19E+02,-8195,1468,-1090,57,87,45,3,9,13
2.19E+02,-7933,1466,-1084,59,79,43,3,9,13
2.19E+02,-7929,1465,-1082,62,72,44,3,9,13
2.19E+02,-7929,1464,-1089,62,78,50,3,9,13
2.20E+02,-7931,1459,-1094,60,90,57,3,9,13
2.20E+02,-7935,1458,-1094,58,100,63,3,9,13
2.20E+02,-8195,1460,-1089,60,104,67,3,9,13
2.20E+02,-8194,1456,-1076,60,103,70,3,9,13
2.21E+02,-7936,1461,-1071,62,98,73,3,9,13
2.21E+02,-7930,1466,-1077,61,96,74,3,9,13
2.21E+02,-7930,1471,-1080,60,99,78,3,9,13
2.21E+02,-7928,1475,-1077,57,106,82,3,9,13
2.22E+02,-7927,1475,-1087,57,121,94,3,9,13
2.22E+02,-7921,1479,-1087,52,-124,99,3,9,13
2.22E+02,-7929,1482,-1091,44,-117,100,3,9,13
2.22E+02,-7928,1482,-1095,45,-117,98,3,9,13
2.23E+02,-7934,1495,-1097,44,-117,94,3,9,13
2.23E+02,-8193,1497,-1094,40,-119,95,3,9,13
2.23E+02,-8199,1495,-1101,37,-122,97,3,9,13
2.23E+02,-8196,1495,-1115,35,-124,92,3,9,13
2.24E+02,-7934,1496,-1115,39,-127,79,3,9,13
2.24E+02,-7936,1490,-1113,47,-123,62,3,9,13
2.24E+02,-8204,1502,-1118,59,-119,45,3,9,13
2.24E+02,-8193,1507,-1118,65,-128,39,3,9,13
2.25E+02,-7931,1501,-1115,67,125,30,3,9,13
2.25E+02,-7927,1493,-1114,66,121,20,3,9,13
2.25E+02,-7933,1480,-1110,69,117,9,3,9,13
2.25E+02,-8212,1478,-1107,77,105,2,3,9,13
2.26E+02,-8204,1486,-1112,86,93,14,3,9,13
2.26E+02,-8198,1495,-1115,84,96,33,3,9,13
2.26E+02,-7935,1491,-1115,67,109,51,3,9,13
2.26E+02,-7928,1487,-1114,56,116,58,3,9,13
2.27E+02,-7920,1478,-1099,48,122,55,3,9,13
2.27E+02,-7926,1470,-1097,45,121,46,3,9,13
2.27E+02,-7924,1468,-1103,42,117,42,3,9,13
2.27E+02,-7923,1464,-1096,40,114,40,3,9,13
2.28E+02,-7922,1467,-1104,40,118,42,3,9,13
2.28E+02,-7924,1463,-1100,39,-128,47,3,9,13
2.28E+02,-7925,1458,-1097,43,-124,56,3,9,13
2.28E+02,-7933,1462,-1098,48,-122,60,3,9,13
2.29E+02,-8193,1461,-1098,50,-122,68,3,9,13
2.29E+02,-7930,1465,-1111,51,-126,71,3,9,13
2.29E+02,-7926,1462,-1110,39,-127,73,3,9,13
2.29E+02,-8195,1452,-1104,30,-122,68,3,9,13
2.30E+02,-8204,1444,-1099,30,125,67,3,9,13
2.30E+02,-8206,1437,-1095,40,111,71,3,9,13
2.30E+02,-8202,1439,-1103,50,106,74,3,9,13
2.30E+02,-8197,1445,-1108,57,107,82,3,9,13
2.31E+02,-8194,1457,-1108,62,116,89,3,9,13
2.31E+02,-8193,1458,-1108,61,120,92,3,9,13
2.31E+02,-8197,1461,-1112,65,118,90,3,9,13
2.31E+02,-8197,1465,-1117,64,108,89,3,9,13
2.32E+02,-8194,1471,-1123,68,96,87,3,9,13
2.32E+02,-7936,1470,-1119,68,93,89,3,9,13
2.32E+02,-7930,1469,-1119,69,89,90,3,9,13
2.32E+02,-7935,1474,-1114,69,92,91,3,9,13
2.33E+02,-8206,1477,-1101,71,91,92,3,9,13
2.33E+02,-8207,1485,-1104,79,80,100,3,9,13
2.33E+02,-8212,1500,-1107,78,71,112,3,9,13
2.33E+02,-8197,1508,-1111,65,64,123,3,9,13
2.34E+02,-7930,1502,-1100,45,63,126,3,9,13
2.34E+02,-7918,1493,-1106,34,67,126,3,9,13
2.34E+02,-7913,1490,-1098,29,78,118,3,9,13
2.34E+02,-7916,1486,-1096,28,93,110,3,9,13
2.35E+02,-7925,1485,-1092,35,104,105,3,9,13
2.35E+02,-7935,1482,-1083,50,109,102,3,9,13
2.35E+02,-7927,1484,-1090,66,106,98,3,9,13
2.35E+02,-7926,1476,-1095,86,110,88,3,9,13
2.36E+02,-8196,1493,-1097,105,115,77,3,9,13
2.36E+02,-7936,1501,-1104,106,108,74,3,9,13
2.36E+02,-7927,1502,-1099,94,105,71,3,9,13
2.36E+02,-7933,1494,-1096,63,95,67,3,9,13
2.37E+02,-8209,1485,-1091,46,84,70,3,9,13
2.37E+02,-8209,1479,-1091,46,69,87,3,9,13
2.37E+02,-8198,1485,-1092,53,69,110,3,9,13
2.37E+02,-7929,1496,-1090,53,81,-123,3,9,13
2.38E+02,-7923,1497,-1081,53,98,-115,3,9,13
2.38E+02,-7929,1499,-1074,60,108,-117,3,9,13
2.38E+02,-7933,1500,-1074,67,107,-123,3,9,13
2.38E+02,-7931,1510,-1075,70,98,125,3,9,13
2.39E+02,-7923,1513,-1073,66,90,121,3,9,13
2.39E+02,-7910,1512,-1082,55,90,115,3,9,13
2.39E+02,-7904,1519,-1082,41,100,103,3,9,13
2.39E+02,-7907,1520,-1081,25,117,93,3,9,13
2.40E+02,-7915,1518,-1082,15,-128,84,3,9,13
2.40E+02,-7927,1519,-1075,11,-118,79,3,9,13
2.40E+02,-7925,1510,-1081,11,-119,77,3,9,13
2.40E+02,-7929,1508,-1078,20,-123,70,3,9,13
2.41E+02,-7934,1512,-1078,27,-122,56,3,9,13
2.41E+02,-8204,1507,-1076,34,127,45,3,9,13
2.41E+02,-8207,1498,-1079,42,115,43,3,9,13
2.41E+02,-8210,1502,-1077,46,103,49,3,9,13
2.42E+02,-8212,1503,-1083,49,97,57,3,9,13
2.42E+02,-8210,1513,-1088,47,96,66,3,9,13
2.42E+02,-8201,1517,-1094,42,91,66,3,9,13
2.42E+02,-8199,1516,-1084,38,74,62,3,9,13
2.43E+02,-8200,1509,-1083,34,59,55,3,9,13
2.43E+02,-8200,1499,-1078,38,46,48,3,9,13
2.43E+02,-8198,1494,-1082,52,35,42,3,9,13
2.43E+02,-8204,1484,-1075,73,25,40,3,9,13
2.44E+02,-8215,1473,-1062,102,15,43,3,9,13
2.44E+02,-8220,1468,-1055,-118,-260,52,3,9,13
2.44E+02,-8214,1484,-1057,-80,-280,56,3,9,13
2.44E+02,-8200,1497,-1068,-53,-293,60,3,9,13
2.45E+02,-7931,1510,-1076,-41,-297,64,3,9,13
2.45E+02,-7926,1522,-1077,-52,-290,67,3,9,13
2.45E+02,-7923,1531,-1078,-61,-285,69,3,9,13
2.45E+02,-7914,1535,-1078,-87,-263,77,3,9,13
2.46E+02,-7912,1527,-1064,-123,32,84,3,9,13
2.46E+02,-7919,1507,-1045,94,59,88,3,9,13
2.46E+02,-7923,1496,-1034,66,73,88,3,9,13
2.46E+02,-7919,1484,-1028,46,83,81,3,9,13
2.47E+02,-8196,1483,-1025,40,100,67,3,9,13
2.47E+02,-8208,1490,-763,40,107,64,3,9,13
2.47E+02,-8202,1488,-754,40,101,66,3,9,13
2.47E+02,-7936,1490,-751,41,97,72,3,9,13
2.48E+02,-7935,1489,-741,41,97,71,3,9,13
2.48E+02,-8217,1490,-737,47,102,71,3,9,13
2.48E+02,-8231,1498,-749,60,92,81,3,9,13
2.48E+02,-8223,1519,-766,69,88,95,3,9,13
2.49E+02,-8213,1792,-766,60,103,102,3,9,13
2.49E+02,-8206,1798,-765,48,115,100,3,9,13
2.49E+02,-8212,1793,-762,37,119,89,3,9,13
2.49E+02,-8211,1535,-767,27,115,78,3,9,13
2.50E+02,-8210,1533,-765,20,105,69,3,9,13
2.50E+02,-8207,1531,-766,14,95,60,3,9,13
2.50E+02,-8203,1524,-763,9,87,54,3,9,13
2.50E+02,-8201,1510,-758,7,84,50,3,9,13
2.51E+02,-8201,1501,-756,12,79,50,3,9,13
2.51E+02,-8201,1496,-757,23,73,52,3,9,13
2.51E+02,-8210,1497,-763,33,77,53,3,9,13
2.51E+02,-8201,1495,-767,43,70,56,3,9,13
2.52E+02,-7926,1496,-765,42,74,53,3,9,13
2.52E+02,-7930,1492,-754,33,93,46,3,9,13
2.52E+02,-8197,1487,-759,23,97,40,3,9,13
2.52E+02,-8198,1488,-764,18,101,40,3,9,13
2.53E+02,-8197,1487,-762,11,109,43,3,9,13
2.53E+02,-7930,1482,-768,6,117,47,3,9,13
2.53E+02,-7935,1480,-1026,-258,-123,51,3,9,13
2.53E+02,-7936,1471,-763,-265,-111,51,3,9,13
2.54E+02,-8195,1470,-767,-268,-104,45,3,9,13
2.54E+02,-8204,1464,-766,-267,-101,40,3,9,13
2.54E+02,-8207,1462,-764,-264,-107,40,3,9,13
2.54E+02,-8208,1468,-765,1,-115,47,3,9,13
2.55E+02,-8205,1466,-759,10,-118,50,3,9,13
2.55E+02,-8197,1465,-764,24,-122,60,3,9,13
2.55E+02,-8199,1466,-761,39,-123,65,3,9,13
2.55E+02,-8198,1469,-768,50,-123,67,3,9,13
2.56E+02,-8200,1483,-1029,58,127,66,3,9,13
2.56E+02,-8201,1493,-1036,64,124,67,3,9,13
2.56E+02,-8203,1501,-1038,62,126,71,3,9,13
2.56E+02,-8204,1500,-1045,55,127,73,3,9,13
2.57E+02,-8199,1498,-1038,49,-127,72,3,9,13
2.57E+02,-8198,1494,-1043,46,-127,66,3,9,13
2.57E+02,-8205,1486,-1040,45,-126,55,3,9,13
2.57E+02,-8221,1487,-1032,54,-128,45,3,9,13
2.58E+02,-8220,1488,-1031,61,102,47,3,9,13
2.58E+02,-8203,1488,-1026,62,80,53,3,9,13
2.58E+02,-7926,1478,-1033,57,72,55,3,9,13
2.58E+02,-7935,1462,-767,51,79,49,3,9,13
2.59E+02,-8228,1454,-744,60,82,44,3,9,13
2.59E+02,-8238,1458,-752,82,63,56,3,9,13
2.59E+02,-8218,1470,-746,101,54,72,3,9,13
2.59E+02,-8208,1481,-753,103,63,85,3,9,13
2.60E+02,-8200,1484,-761,98,71,92,3,9,13
2.60E+02,-8199,1484,-765,92,78,88,3,9,13
2.60E+02,-8201,1486,-756,81,85,78,3,9,13
2.60E+02,-8201,1484,-749,73,83,68,3,9,13
2.61E+02,-8195,1489,-742,67,77,66,3,9,13
2.61E+02,-7930,1495,-748,60,77,68,3,9,13
2.61E+02,-7932,1489,-749,54,85,70,3,9,13
2.61E+02,-8197,1477,-740,48,97,75,3,9,13
2.62E+02,-8207,1476,-744,54,101,82,3,9,13
2.62E+02,-8207,1479,-745,64,108,88,3,9,13
2.62E+02,-8193,1486,-765,80,105,108,3,9,13
2.62E+02,-8195,1484,-1026,87,113,116,3,9,13
2.63E+02,-8214,1485,-752,88,-126,123,3,9,13
2.63E+02,-8214,1495,-746,91,125,-126,3,9,13
2.63E+02,-8212,1501,-748,89,115,-119,3,9,13
2.63E+02,-8201,1508,-759,77,109,-110,3,9,13
2.64E+02,-7935,1517,-767,72,113,-113,3,9,13
2.64E+02,-8201,1513,-753,47,-121,120,3,9,13
2.64E+02,-8209,1509,-752,43,-122,102,3,9,13
2.64E+02,-8218,1512,-746,49,125,87,3,9,13
2.65E+02,-8216,1508,-744,57,108,77,3,9,13
2.65E+02,-8209,1513,-742,66,98,73,3,9,13
2.65E+02,-8212,1514,-745,70,93,72,3,9,13
2.65E+02,-8205,1511,-745,71,92,71,3,9,13
2.66E+02,-8211,1517,-751,71,92,68,3,9,13
2.66E+02,-8205,1521,-737,68,86,67,3,9,13
2.66E+02,-7931,1529,-742,71,86,69,3,9,13
2.66E+02,-7921,1792,-748,59,98,70,3,9,13
2.67E+02,-7926,1795,-747,43,115,68,3,9,13
2.67E+02,-7937,1532,-745,19,-126,62,3,9,13
2.67E+02,-8196,1527,-741,-257,-116,58,3,9,13
2.67E+02,-8194,1515,-745,-271,-109,51,3,9,13
2.68E+02,-8205,1506,-739,-278,-97,39,3,9,13
2.68E+02,-8207,1507,-742,-273,-92,40,3,9,13
2.68E+02,-8206,1505,-738,-268,-100,46,3,9,13
2.68E+02,-8203,1497,-730,-265,-103,53,3,9,13
2.69E+02,-8194,1489,-740,-260,-107,51,3,9,13
2.69E+02,-8215,1493,-737,5,-111,47,3,9,13
2.69E+02,-8220,1503,-746,28,-125,58,3,9,13
2.69E+02,-8215,1514,-768,39,-123,72,3,9,13
2.70E+02,-8207,1523,-767,36,-109,83,3,9,13
2.70E+02,-8202,1523,-1033,29,-100,86,3,9,13
2.70E+02,-8202,1527,-1037,20,-94,77,3,9,13
2.70E+02,-8207,1524,-1038,16,-96,65,3,9,13
2.71E+02,-8205,1521,-1028,9,-104,55,3,9,13
2.71E+02,-8196,1517,-1036,4,-114,48,3,9,13
2.71E+02,-7930,1509,-1033,0,-117,45,3,9,13
2.71E+02,-7925,1503,-1029,0,-113,45,3,9,13
2.72E+02,-7926,1505,-1029,-260,-106,48,3,9,13
2.72E+02,-7927,1497,-1026,-257,-101,58,3,9,13
2.72E+02,-8194,1500,-1029,0,-94,65,3,9,13
2.72E+02,-7925,1501,-1044,2,-94,74,3,9,13
2.73E+02,-7916,1490,-1050,0,-88,74,3,9,13
2.73E+02,-7933,1490,-1042,-257,-76,63,3,9,13
2.73E+02,-8203,1488,-1037,2,-82,61,3,9,13
2.73E+02,-8211,1490,-1034,14,-94,62,3,9,13
2.74E+02,-8205,1489,-1046,25,-104,70,3,9,13
2.74E+02,-8204,1486,-1056,39,-108,77,3,9,13
2.74E+02,-8208,1489,-1058,51,-112,80,3,9,13
2.74E+02,-8210,1498,-1050,63,-114,78,3,9,13
2.75E+02,-8211,1504,-1044,72,-122,78,3,9,13
2.75E+02,-8212,1509,-1041,78,121,79,3,9,13
2.75E+02,-8207,1510,-1042,82,104,79,3,9,13
2.75E+02,-8200,1513,-1042,78,95,80,3,9,13
2.76E+02,-8198,1518,-1038,78,89,83,3,9,13
2.76E+02,-8200,1514,-1039,76,84,87,3,9,13
2.76E+02,-8198,1508,-1035,75,80,89,3,9,13
2.76E+02,-8196,1506,-1025,74,81,90,3,9,13
2.77E+02,-7933,1498,-1028,70,87,88,3,9,13
2.77E+02,-7933,1501,-759,71,94,87,3,9,13
2.77E+02,-7928,1509,-766,68,104,89,3,9,13
2.77E+02,-7923,1518,-767,64,116,95,3,9,13
2.78E+02,-7926,1528,-1029,55,-126,97,3,9,13
2.78E+02,-7931,1534,-1035,44,-115,101,3,9,13
2.78E+02,-7930,1534,-1036,31,-109,103,3,9,13
2.78E+02,-7924,1526,-1038,20,-102,97,3,9,13
2.79E+02,-8193,1531,-1036,22,-95,78,3,9,13
2.79E+02,-8202,1795,-1043,21,-100,66,3,9,13
2.79E+02,-8193,1794,-1044,18,-107,57,3,9,13
2.79E+02,-7933,1533,-1048,9,-113,50,3,9,13
2.80E+02,-8206,1516,-1039,0,-119,47,3,9,13
2.80E+02,-8222,1522,-1034,6,126,52,3,9,13
2.80E+02,-8218,1521,-1045,18,108,66,3,9,13
2.80E+02,-8200,1531,-1056,38,104,75,3,9,13
2.81E+02,-7935,1795,-1063,32,113,78,3,9,13
2.81E+02,-7927,1533,-1056,26,125,71,3,9,13
2.81E+02,-7934,1532,-1055,21,-124,56,3,9,13
2.81E+02,-8195,1526,-1055,19,-125,46,3,9,13
2.82E+02,-8197,1522,-1047,21,118,39,3,9,13
2.82E+02,-7934,1513,-1052,22,109,36,3,9,13
2.82E+02,-7924,1499,-1048,23,108,33,3,9,13
2.82E+02,-7927,1495,-1052,24,113,33,3,9,13
2.83E+02,-7935,1490,-1044,27,115,39,3,9,13
2.83E+02,-8198,1494,-1041,35,115,49,3,9,13
2.83E+02,-8207,1494,-1039,40,119,63,3,9,13
2.83E+02,-7932,1494,-1044,46,114,77,3,9,13
2.84E+02,-7934,1497,-1047,47,120,81,3,9,13
2.84E+02,-8203,1495,-1047,45,125,77,3,9,13
2.84E+02,-8208,1494,-1031,50,116,81,3,9,13
2.84E+02,-8206,1497,-1035,69,102,97,3,9,13
2.85E+02,-8208,1501,-1040,74,104,101,3,9,13
2.85E+02,-8211,1513,-1044,78,104,103,3,9,13
2.85E+02,-8209,1521,-1042,82,104,100,3,9,13
2.85E+02,-8212,1530,-1044,82,102,95,3,9,13
2.86E+02,-8206,1793,-1037,79,94,87,3,9,13
2.86E+02,-8204,1796,-1036,79,89,76,3,9,13
2.86E+02,-8196,1799,-1034,78,87,66,3,9,13
2.86E+02,-7935,1799,-766,71,90,61,3,9,13
2.87E+02,-7933,1800,-761,64,94,57,3,9,13
2.87E+02,-8194,1801,-765,60,95,52,3,9,13
2.87E+02,-7936,1799,-764,55,96,47,3,9,13
2.87E+02,-7926,1799,-762,49,95,44,3,9,13
2.88E+02,-7924,1802,-1029,41,101,44,3,9,13
2.88E+02,-7924,1799,-1033,32,109,45,3,9,13
2.88E+02,-7928,1792,-1031,9,-122,48,3,9,13
2.88E+02,-7931,1530,-1027,-3,-109,46,3,9,13
2.89E+02,-7930,1526,-1028,-262,-106,40,3,9,13
2.89E+02,-7931,1516,-1035,-263,-105,32,3,9,13
2.89E+02,-8197,1513,-1035,-261,-95,18,3,9,13
2.89E+02,-8215,1514,-1039,0,-94,6,3,9,13
2.90E+02,-8207,1515,-1038,0,-108,3,3,9,13
2.90E+02,-8204,1511,-1036,-264,-116,1,3,9,13
2.90E+02,-7932,1495,-1041,-269,124,2,3,9,13
2.90E+02,-8196,1484,-1036,-269,122,-258,3,9,13
2.91E+02,-8222,1482,-1030,-263,119,0,3,9,13
2.91E+02,-8225,1486,-1046,3,108,21,3,9,13
2.91E+02,-8214,1492,-1048,8,110,43,3,9,13
2.91E+02,-8203,1497,-1051,6,117,55,3,9,13
2.92E+02,-8194,1495,-1056,5,121,57,3,9,13
2.92E+02,-7932,1488,-1060,1,124,51,3,9,13
2.92E+02,-7934,1489,-1058,0,127,41,3,9,13
2.92E+02,-8193,1497,-1050,-258,123,38,3,9,13
2.93E+02,-7931,1497,-1045,-258,121,41,3,9,13
2.93E+02,-7925,1491,-1042,-264,125,46,3,9,13
2.93E+02,-7925,1489,-1045,-266,-128,52,3,9,13
2.93E+02,-7926,1475,-1038,-268,-122,57,3,9,13
2.94E+02,-7930,1472,-1030,-260,-115,58,3,9,13
2.94E+02,-8206,1483,-1033,11,-114,58,3,9,13
2.94E+02,-8194,1485,-1046,23,-123,60,3,9,13
2.94E+02,-7932,1487,-1046,30,-121,48,3,9,13
2.95E+02,-8205,1477,-1034,28,-116,35,3,9,13
2.95E+02,-8209,1466,-1032,38,123,29,3,9,13
2.95E+02,-8208,1474,-1042,50,108,29,3,9,13
2.95E+02,-8195,1479,-1057,52,109,40,3,9,13
2.96E+02,-8193,1480,-1056,40,118,39,3,9,13
2.96E+02,-8201,1476,-1050,38,117,28,3,9,13
2.96E+02,-8206,1474,-1041,42,107,17,3,9,13
2.96E+02,-8202,1471,-1041,45,95,12,3,9,13
2.97E+02,-8201,1476,-1050,49,87,11,3,9,13
2.97E+02,-8196,1471,-1038,45,90,21,3,9,13
2.97E+02,-8195,1468,-768,45,97,29,3,9,13
2.97E+02,-7933,1462,-1026,48,103,34,3,9,13
2.98E+02,-8194,1460,-1026,47,107,36,3,9,13
2.98E+02,-8197,1456,-1034,50,105,38,3,9,13
2.98E+02,-7934,1459,-1045,53,103,45,3,9,13
2.98E+02,-7933,1468,-1044,51,114,53,3,9,13
2.99E+02,-7930,1467,-1033,44,127,65,3,9,13
2.99E+02,-7936,1466,-770,37,-121,76,3,9,13
2.99E+02,-8196,1461,-1023,37,-110,80,3,9,13
2.99E+02,-7935,1453,-761,38,-108,80,3,9,13
3.00E+02,-8193,1455,-1030,43,-106,72,3,9,13
3.00E+02,-8212,1467,-1031,46,-99,61,3,9,13
3.00E+02,-8201,1472,-1039,43,-113,62,3,9,13
3.00E+02,-8198,1473,-1048,30,-119,62,3,9,13
3.01E+02,-8197,1464,-1046,19,-125,60,3,9,13
3.01E+02,-8215,1459,-1046,21,-128,56,3,9,13
3.01E+02,-8234,1463,-1044,29,115,65,3,9,13
3.01E+02,-8223,1471,-1055,45,98,81,3,9,13
3.02E+02,-8213,1485,-1057,53,98,98,3,9,13
3.02E+02,-8202,1491,-1058,49,107,111,3,9,13
3.02E+02,-8193,1489,-1053,49,108,108,3,9,13
3.02E+02,-7936,1486,-1055,48,109,96,3,9,13
3.03E+02,-8200,1491,-1054,42,109,83,3,9,13
3.03E+02,-8195,1496,-1052,41,101,70,3,9,13
3.03E+02,-7936,1495,-1050,37,95,63,3,9,13
3.03E+02,-7926,1493,-1046,34,97,56,3,9,13
3.04E+02,-7928,1490,-1042,33,100,51,3,9,13
3.04E+02,-7932,1480,-1040,35,102,50,3,9,13
3.04E+02,-8194,1481,-1038,40,111,54,3,9,13
3.04E+02,-8197,1479,-1038,49,116,64,3,9,13
3.05E+02,-7929,1477,-1038,55,117,69,3,9,13
3.05E+02,-7931,1481,-1028,54,-128,72,3,9,13
3.05E+02,-8205,1468,-766,49,-121,70,3,9,13
3.05E+02,-8211,1462,-764,57,124,70,3,9,13
3.06E+02,-8211,1470,-765,67,111,73,3,9,13
3.06E+02,-8199,1476,-1027,71,106,77,3,9,13
3.06E+02,-8198,1481,-1031,69,116,83,3,9,13
3.06E+02,-8194,1485,-1042,63,-128,88,3,9,13
3.07E+02,-8197,1485,-1039,57,-116,92,3,9,13
3.07E+02,-8207,1484,-1039,54,-114,89,3,9,13
3.07E+02,-8212,1484,-1035,55,-125,85,3,9,13
3.07E+02,-8209,1484,-1040,55,118,78,3,9,13
3.08E+02,-8203,1490,-1044,57,111,72,3,9,13
3.08E+02,-8196,1489,-1039,54,109,71,3,9,13
3.08E+02,-8195,1492,-1041,49,111,68,3,9,13
3.08E+02,-8194,1490,-1040,46,114,67,3,9,13
3.09E+02,-8199,1493,-1041,44,118,68,3,9,13
3.09E+02,-8198,1490,-1035,42,119,67,3,9,13
3.09E+02,-8193,1498,-1041,42,120,70,3,9,13
3.09E+02,-7936,1502,-1053,40,126,74,3,9,13
3.10E+02,-8195,1503,-1044,36,-121,76,3,9,13
3.10E+02,-8199,1500,-1048,30,-113,77,3,9,13
3.10E+02,-8201,1499,-1045,28,-112,73,3,9,13
3.10E+02,-8199,1498,-1049,26,-114,65,3,9,13
3.11E+02,-8199,1493,-1050,28,-111,53,3,9,13
3.11E+02,-8213,1496,-1054,33,-111,44,3,9,13
3.11E+02,-8204,1493,-1062,29,-122,45,3,9,13
3.11E+02,-8200,1482,-1071,20,-127,44,3,9,13
3.12E+02,-8200,1474,-1061,11,119,44,3,9,13
3.12E+02,-8207,1467,-1052,12,111,41,3,9,13
3.12E+02,-8226,1460,-1052,23,93,42,3,9,13
3.12E+02,-8221,1464,-1049,42,78,60,3,9,13
3.13E+02,-8210,1471,-1056,55,79,81,3,9,13
3.13E+02,-8197,1475,-1064,55,87,92,3,9,13
3.13E+02,-8194,1477,-1061,53,98,95,3,9,13
3.13E+02,-7935,1476,-1058,50,106,88,3,9,13
3.14E+02,-7936,1474,-1045,49,108,80,3,9,13
3.14E+02,-7936,1483,-1046,51,105,70,3,9,13
3.14E+02,-7933,1478,-1045,47,99,67,3,9,13
3.14E+02,-7930,1473,-1041,50,97,64,3,9,13
3.15E+02,-7934,1477,-1043,50,100,63,3,9,13
3.15E+02,-7935,1473,-1046,49,106,67,3,9,13
3.15E+02,-7935,1475,-1039,55,114,71,3,9,13
3.15E+02,-8197,1481,-1026,56,123,78,3,9,13
3.16E+02,-7933,1480,-1028,56,123,82,3,9,13
3.16E+02,-7925,1475,-1035,50,-128,80,3,9,13
3.16E+02,-7935,1469,-765,49,-117,70,3,9,13
3.16E+02,-7934,1468,-767,53,-115,68,3,9,13
3.17E+02,-7931,1468,-1033,62,-112,71,3,9,13
3.17E+02,-7935,1476,-1034,72,-105,76,3,9,13
3.17E+02,-8195,1484,-1045,76,-97,83,3,9,13
3.17E+02,-8202,1482,-1054,76,-92,87,3,9,13
3.18E+02,-8215,1482,-1052,78,-97,87,3,9,13
3.18E+02,-8226,1491,-1057,80,-111,86,3,9,13
3.18E+02,-8227,1491,-1053,79,122,82,3,9,13
3.18E+02,-8222,1496,-1055,83,101,75,3,9,13
3.19E+02,-8213,1501,-1058,85,89,68,3,9,13
3.19E+02,-8207,1504,-1059,85,83,62,3,9,13
3.19E+02,-8206,1501,-1058,83,80,61,3,9,13
3.19E+02,-8202,1500,-1051,77,77,59,3,9,13
3.20E+02,-8196,1504,-1050,78,75,58,3,9,13
3.20E+02,-8194,1496,-1045,69,76,56,3,9,13
3.20E+02,-7935,1487,-1040,65,79,53,3,9,13
3.20E+02,-7926,1490,-1044,65,80,54,3,9,13
3.21E+02,-7925,1491,-1037,60,89,57,3,9,13
3.21E+02,-7931,1489,-1038,52,102,60,3,9,13
3.21E+02,-8196,1486,-1037,44,112,65,3,9,13
3.21E+02,-8197,1483,-1037,35,121,71,3,9,13
3.22E+02,-8196,1475,-1029,29,124,69,3,9,13
3.22E+02,-8203,1464,-1029,30,-125,56,3,9,13
3.22E+02,-8218,1473,-1039,37,-120,48,3,9,13
3.22E+02,-8205,1481,-1050,33,-127,50,3,9,13
3.23E+02,-8205,1484,-1046,24,-125,52,3,9,13
3.23E+02,-8210,1480,-1043,19,123,56,3,9,13
3.23E+02,-8219,1471,-1035,19,110,58,3,9,13
3.23E+02,-8236,1470,-1030,29,96,68,3,9,13
3.24E+02,-8225,1485,-1046,41,79,85,3,9,13
3.24E+02,-8220,1496,-1052,44,86,100,3,9,13
3.24E+02,-8217,1504,-1062,43,94,104,3,9,13
3.24E+02,-8214,1500,-1063,42,98,100,3,9,13
3.25E+02,-8215,1503,-1053,42,98,89,3,9,13
3.25E+02,-8213,1505,-1051,43,91,79,3,9,13
3.25E+02,-8202,1502,-1041,45,84,70,3,9,13
3.25E+02,-7935,1502,-1045,42,79,62,3,9,13
3.26E+02,-7924,1499,-1043,35,86,56,3,9,13
3.26E+02,-7932,1497,-1038,30,97,52,3,9,13
3.26E+02,-7933,1492,-1044,22,104,50,3,9,13
3.26E+02,-7936,1487,-1040,17,110,48,3,9,13
3.27E+02,-8202,1491,-768,15,115,51,3,9,13
3.27E+02,-7928,1492,-1034,9,112,54,3,9,13
3.27E+02,-7927,1481,-1032,4,126,47,3,9,13
3.27E+02,-8204,1468,-1025,0,-125,36,3,9,13
3.28E+02,-8208,1460,-764,7,127,35,3,9,13
3.28E+02,-8208,1458,-1027,16,-124,41,3,9,13
3.28E+02,-8204,1457,-1035,19,-117,49,3,9,13
3.28E+02,-8211,1457,-1037,24,-107,53,3,9,13
3.29E+02,-8212,1456,-1032,25,-103,57,3,9,13
3.29E+02,-8218,1459,-1034,33,-111,58,3,9,13
3.29E+02,-8214,1462,-1025,41,-122,57,3,9,13
3.29E+02,-8205,1473,-1027,45,121,55,3,9,13
3.30E+02,-8204,1473,-1031,48,110,54,3,9,13
3.30E+02,-8205,1472,-1026,45,108,58,3,9,13
3.30E+02,-8201,1475,-1026,40,108,63,3,9,13
3.30E+02,-8203,1472,-1029,37,112,67,3,9,13
3.31E+02,-8211,1470,-1027,37,113,74,3,9,13
3.31E+02,-8210,1473,-768,37,111,78,3,9,13
3.31E+02,-8205,1481,-765,39,108,83,3,9,13
3.31E+02,-8205,1487,-1026,44,108,86,3,9,13
3.32E+02,-8206,1494,-1035,43,115,89,3,9,13
3.32E+02,-8203,1507,-1035,39,127,89,3,9,13
3.32E+02,-8200,1506,-1044,32,-125,83,3,9,13
3.32E+02,-8199,1504,-1046,24,-119,71,3,9,13
3.33E+02,-8198,1499,-1038,20,-114,55,3,9,13
3.33E+02,-8212,1498,-1032,19,-107,37,3,9,13
3.33E+02,-8213,1499,-1035,17,-121,30,3,9,13
3.33E+02,-8204,1493,-1040,3,127,26,3,9,13
3.34E+02,-7932,1481,-1040,-266,117,22,3,9,13
3.34E+02,-7936,1463,-1043,-273,117,8,3,9,13
3.34E+02,-8230,1459,-765,-275,121,2,3,9,13
3.34E+02,-8239,1456,-1028,0,100,16,3,9,13
3.35E+02,-8214,1464,-1045,19,90,36,3,9,13
3.35E+02,-8209,1469,-1053,20,105,50,3,9,13
3.35E+02,-8204,1463,-1044,22,113,57,3,9,13
3.35E+02,-8198,1460,-1041,27,115,50,3,9,13
3.36E+02,-8200,1459,-1038,33,113,39,3,9,13
3.36E+02,-8206,1459,-1043,38,108,31,3,9,13
3.36E+02,-8200,1455,-1048,36,97,33,3,9,13
3.36E+02,-7933,1446,-1042,32,93,40,3,9,13
3.37E+02,-7931,1441,-1034,32,99,47,3,9,13
3.37E+02,-7936,1434,-1031,35,102,54,3,9,13
3.37E+02,-7934,1431,-1030,42,103,58,3,9,13
3.37E+02,-8199,1438,-1025,49,109,64,3,9,13
3.38E+02,-7934,1437,-1040,59,102,76,3,9,13
3.38E+02,-7931,1432,-1039,60,108,80,3,9,13
3.38E+02,-8211,1425,-764,55,124,75,3,9,13
3.38E+02,-8224,1418,-758,56,116,74,3,9,13
3.39E+02,-8221,1429,-762,75,101,74,3,9,13
3.39E+02,-8214,1436,-1030,88,91,80,3,9,13
3.39E+02,-8209,1447,-1033,95,95,85,3,9,13
3.39E+02,-8206,1455,-1034,97,104,92,3,9,13
3.40E+02,-8213,1455,-1039,93,114,98,3,9,13
3.40E+02,-8210,1460,-1038,89,118,101,3,9,13
3.40E+02,-8208,1462,-1034,87,113,95,3,9,13
3.40E+02,-8198,1472,-1029,88,104,88,3,9,13
3.41E+02,-8194,1478,-1030,90,99,83,3,9,13
3.41E+02,-8196,1478,-1032,88,107,82,3,9,13
3.41E+02,-8196,1481,-1030,86,116,85,3,9,13
3.41E+02,-8194,1481,-1028,87,125,87,3,9,13
3.42E+02,-8198,1485,-1028,94,-123,87,3,9,13
3.42E+02,-8203,1490,-764,99,-116,83,3,9,13
3.42E+02,-8205,1496,-1029,99,-111,82,3,9,13
3.42E+02,-8212,1503,-1035,94,-105,80,3,9,13
3.43E+02,-8205,1505,-1048,84,-104,76,3,9,13
3.43E+02,-8203,1505,-1053,74,-108,68,3,9,13
3.43E+02,-8205,1499,-1050,66,-105,55,3,9,13
3.43E+02,-8219,1498,-1053,65,-104,44,3,9,13
3.44E+02,-8216,1494,-1059,55,-121,36,3,9,13
3.44E+02,-8212,1493,-1060,42,125,28,3,9,13
3.44E+02,-8204,1482,-1046,28,114,22,3,9,13
3.44E+02,-8200,1470,-1034,18,105,9,3,9,13
3.45E+02,-8223,1459,-766,16,102,3,3,9,13
3.45E+02,-8224,1462,-1036,27,88,13,3,9,13
3.45E+02,-8214,1464,-1040,30,90,28,3,9,13
3.45E+02,-8196,1460,-1039,29,102,41,3,9,13
3.46E+02,-7931,1458,-1035,31,122,40,3,9,13
3.46E+02,-7926,1451,-768,33,-108,35,3,9,13
3.46E+02,-7929,1446,-1028,47,-90,29,3,9,13
3.46E+02,-7936,1454,-1032,58,-79,25,3,9,13
3.47E+02,-8195,1454,-1034,66,-74,25,3,9,13
3.47E+02,-8196,1452,-1039,65,-68,26,3,9,13
3.47E+02,-8195,1454,-1045,59,-65,26,3,9,13
3.47E+02,-8200,1453,-1064,48,-63,29,3,9,13
3.48E+02,-8208,1452,-1076,34,-65,34,3,9,13
3.48E+02,-8213,1450,-1079,15,-66,44,3,9,13
3.48E+02,-8209,1445,-1079,5,-76,55,3,9,13
3.48E+02,-8200,1432,-1071,-261,-81,63,3,9,13
3.49E+02,-8211,1412,-1053,-263,-80,59,3,9,13
3.49E+02,-8223,1412,-1050,4,-89,59,3,9,13
3.49E+02,-8225,1411,-1057,28,-105,64,3,9,13
3.49E+02,-8216,1416,-1070,53,-117,71,3,9,13
3.50E+02,-8218,1425,-1081,75,-122,73,3,9,13
3.50E+02,-8216,1431,-1087,88,-119,76,3,9,13
3.50E+02,-8217,1441,-1087,97,-122,79,3,9,13
3.50E+02,-8219,1441,-1083,102,-128,81,3,9,13
3.51E+02,-8217,1442,-1086,103,114,85,3,9,13
3.51E+02,-8205,1456,-1087,107,94,81,3,9,13
3.51E+02,-8201,1456,-1079,105,80,81,3,9,13
3.51E+02,-7933,1455,-1078,100,78,81,3,9,13
3.52E+02,-7930,1458,-1073,96,85,82,3,9,13
3.52E+02,-7933,1458,-1066,92,91,84,3,9,13
3.52E+02,-7933,1460,-1061,85,101,85,3,9,13
3.52E+02,-8194,1466,-1061,73,106,89,3,9,13
3.53E+02,-8198,1475,-1066,65,105,91,3,9,13
3.53E+02,-7936,1479,-1066,54,105,95,3,9,13
3.53E+02,-7938,1487,-1069,48,114,98,3,9,13
3.53E+02,-7936,1487,-1070,37,126,97,3,9,13
3.54E+02,-7934,1475,-1066,22,-123,85,3,9,13
3.54E+02,-7931,1467,-1066,6,-107,78,3,9,13
3.54E+02,-8208,1465,-1068,9,-90,47,3,9,13
3.54E+02,-8222,1467,-1065,14,-91,35,3,9,13
3.55E+02,-8212,1459,-1074,14,-107,31,3,9,13
3.55E+02,-8211,1452,-1066,5,-117,22,3,9,13
3.55E+02,-8206,1435,-1067,-257,127,14,3,9,13
3.55E+02,-8218,1428,-1058,-259,114,9,3,9,13
3.56E+02,-8219,1425,-1059,5,101,21,3,9,13
3.56E+02,-8211,1425,-1072,11,97,47,3,9,13
3.56E+02,-8202,1431,-1071,14,109,72,3,9,13
3.56E+02,-8195,1431,-1076,17,121,87,3,9,13
3.57E+02,-7936,1428,-1067,20,-127,94,3,9,13
3.57E+02,-8196,1432,-1067,23,-121,94,3,9,13
3.57E+02,-8198,1439,-1066,26,-123,93,3,9,13
3.57E+02,-7934,1439,-1073,28,124,97,3,9,13
3.58E+02,-7929,1446,-1080,27,127,98,3,9,13
3.58E+02,-7927,1457,-1076,25,-125,102,3,9,13
3.58E+02,-7932,1456,-1077,22,-118,105,3,9,13
3.58E+02,-7935,1455,-1069,24,-116,110,3,9,13
3.59E+02,-8193,1462,-1077,27,-114,111,3,9,13
3.59E+02,-8198,1471,-1090,30,-117,112,3,9,13
3.59E+02,-8195,1469,-1087,25,-119,103,3,9,13
3.59E+02,-8221,1460,-1081,23,-115,88,3,9,13
3.60E+02,-8229,1456,-1076,28,-122,76,3,9,13
3.60E+02,-8228,1462,-1082,36,120,74,3,9,13
3.60E+02,-8216,1468,-1093,44,113,75,3,9,13
3.60E+02,-8209,1477,-1103,49,108,80,3,9,13
3.61E+02,-8204,1477,-1104,44,112,83,3,9,13
3.61E+02,-8210,1478,-1096,37,112,83,3,9,13
3.61E+02,-8205,1472,-1093,30,105,81,3,9,13
3.61E+02,-8202,1477,-1081,29,93,73,3,9,13
3.62E+02,-8197,1485,-1070,28,86,66,3,9,13
3.62E+02,-8199,1480,-1065,28,80,63,3,9,13
3.62E+02,-8199,1478,-1065,32,75,64,3,9,13
3.62E+02,-8198,1477,-1071,40,75,66,3,9,13
3.63E+02,-8200,1484,-1068,47,76,73,3,9,13
3.63E+02,-8198,1486,-1071,53,79,81,3,9,13
3.63E+02,-8193,1484,-1061,53,84,88,3,9,13
3.63E+02,-7935,1490,-1067,57,85,94,3,9,13
3.64E+02,-7929,1498,-1074,56,89,92,3,9,13
3.64E+02,-7929,1499,-1070,51,95,86,3,9,13
3.64E+02,-7936,1493,-1077,37,104,78,3,9,13
3.64E+02,-7932,1490,-1074,24,111,68,3,9,13
3.65E+02,-7928,1474,-1072,11,117,58,3,9,13
3.65E+02,-7936,1462,-1069,7,124,41,3,9,13
3.65E+02,-8214,1459,-1072,12,-127,30,3,9,13
3.65E+02,-8212,1463,-1079,13,117,28,3,9,13
3.66E+02,-8197,1457,-1076,11,104,32,3,9,13
3.66E+02,-7926,1452,-1079,4,91,39,3,9,13
3.66E+02,-7933,1436,-1068,1,95,39,3,9,13
3.66E+02,-8223,1433,-1060,7,97,48,3,9,13
3.67E+02,-8227,1437,-1067,31,83,68,3,9,13
3.67E+02,-8215,1453,-1075,43,80,88,3,9,13
3.67E+02,-8209,1464,-1071,45,81,102,3,9,13
3.67E+02,-8200,1461,-1072,46,87,104,3,9,13
3.68E+02,-8196,1455,-1074,44,92,101,3,9,13
3.68E+02,-8198,1456,-1072,46,94,92,3,9,13
3.68E+02,-8200,1460,-1058,54,89,89,3,9,13
3.68E+02,-8201,1462,-1053,63,81,86,3,9,13
3.69E+02,-8197,1466,-1063,74,75,86,3,9,13
3.69E+02,-8199,1469,-1044,86,74,84,3,9,13
3.69E+02,-8203,1475,-1045,90,71,86,3,9,13
3.69E+02,-8202,1481,-1049,93,67,89,3,9,13
3.70E+02,-8214,1490,-1041,93,72,89,3,9,13
3.70E+02,-7934,1494,-1042,86,69,96,3,9,13
3.70E+02,-7925,1490,-1049,67,82,84,3,9,13
3.70E+02,-8204,1478,-1038,48,94,68,3,9,13
3.71E+02,-8205,1466,-1033,44,84,58,3,9,13
3.71E+02,-8206,1467,-1034,49,83,53,3,9,13
3.71E+02,-8206,1468,-1039,48,89,56,3,9,13
3.71E+02,-8204,1462,-1036,50,104,62,3,9,13
3.72E+02,-8205,1460,-1033,53,121,66,3,9,13
3.72E+02,-8211,1457,-1025,57,127,65,3,9,13
3.72E+02,-8209,1465,-768,64,120,60,3,9,13
3.72E+02,-8207,1471,-1034,67,106,58,3,9,13
3.73E+02,-8206,1473,-1032,64,100,55,3,9,13
3.73E+02,-8208,1475,-1032,58,94,56,3,9,13
3.73E+02,-8193,1471,-1026,50,95,63,3,9,13
3.73E+02,-7936,1466,-1035,41,102,65,3,9,13
3.74E+02,-8194,1461,-764,36,111,63,3,9,13
3.74E+02,-7933,1463,-1027,33,114,62,3,9,13
3.74E+02,-7935,1469,-1033,31,118,63,3,9,13
3.74E+02,-8193,1473,-1036,31,-127,73,3,9,13
3.75E+02,-7936,1479,-1041,26,-115,77,3,9,13
3.75E+02,-7936,1484,-1045,23,-105,76,3,9,13
3.75E+02,-7936,1469,-1050,10,-98,60,3,9,13
3.75E+02,-8198,1458,-1048,13,-95,45,3,9,13
3.76E+02,-8221,1461,-1035,20,-99,35,3,9,13
3.76E+02,-8211,1452,-1044,26,-124,38,3,9,13
3.76E+02,-8204,1448,-1046,27,124,39,3,9,13
3.76E+02,-8196,1440,-1050,25,114,42,3,9,13
3.77E+02,-8211,1430,-1042,29,114,41,3,9,13
3.77E+02,-8233,1430,-1038,37,109,48,3,9,13
3.77E+02,-8228,1435,-1056,54,90,63,3,9,13
3.77E+02,-8215,1451,-1068,62,89,77,3,9,13
3.78E+02,-8203,1460,-1067,62,97,89,3,9,13
3.78E+02,-7929,1467,-1065,57,104,90,3,9,13
3.78E+02,-8195,1460,-1060,53,111,86,3,9,13
3.78E+02,-8205,1460,-1052,53,107,84,3,9,13
3.79E+02,-8205,1458,-1058,58,94,90,3,9,13
3.79E+02,-8199,1463,-1059,67,75,100,3,9,13
3.79E+02,-7935,1462,-1055,73,70,107,3,9,13
3.79E+02,-7935,1461,-1055,78,76,109,3,9,13
3.80E+02,-7933,1469,-1048,83,82,111,3,9,13
3.80E+02,-7936,1471,-1045,85,88,110,3,9,13
3.80E+02,-8199,1481,-1039,88,96,111,3,9,13
3.80E+02,-7936,1482,-1044,83,95,115,3,9,13
3.81E+02,-7930,1482,-1040,78,102,109,3,9,13
3.81E+02,-8201,1475,-767,67,113,96,3,9,13
3.81E+02,-8213,1467,-757,69,105,91,3,9,13
3.81E+02,-8216,1474,-755,79,94,88,3,9,13
3.82E+02,-8202,1479,-751,83,89,92,3,9,13
3.82E+02,-8200,1484,-1026,80,97,94,3,9,13
3.82E+02,-8197,1489,-1030,67,113,100,3,9,13
3.82E+02,-8202,1489,-765,56,-128,103,3,9,13
3.83E+02,-8204,1484,-758,50,-121,101,3,9,13
3.83E+02,-8210,1480,-758,54,-120,99,3,9,13
3.83E+02,-8206,1485,-759,63,127,97,3,9,13
3.83E+02,-8203,1493,-766,66,124,92,3,9,13
3.84E+02,-8203,1502,-1036,68,126,90,3,9,13
3.84E+02,-8201,1499,-1038,61,-128,87,3,9,13
3.84E+02,-8200,1504,-1036,52,-123,81,3,9,13
3.84E+02,-8208,1505,-1033,41,-119,82,3,9,13
3.85E+02,-8204,1498,-1032,35,-125,81,3,9,13
3.85E+02,-8195,1509,-1041,34,127,80,3,9,13
3.85E+02,-8193,1517,-1040,26,-122,82,3,9,13
3.85E+02,-7935,1511,-1053,18,-114,82,3,9,13
3.86E+02,-7933,1505,-1054,13,-102,80,3,9,13
3.86E+02,-7929,1503,-1054,12,-92,78,3,9,13
3.86E+02,-7930,1488,-1052,12,-86,73,3,9,13
3.86E+02,-8200,1486,-1058,22,-79,61,3,9,13
3.87E+02,-8217,1491,-1048,33,-84,57,3,9,13
3.87E+02,-8208,1491,-1056,33,-104,56,3,9,13
3.87E+02,-8201,1487,-1059,27,-117,57,3,9,13
3.87E+02,-8197,1480,-1052,21,122,55,3,9,13
3.88E+02,-8213,1477,-1048,22,118,56,3,9,13
3.88E+02,-8224,1480,-1054,26,103,69,3,9,13
3.88E+02,-8213,1482,-1060,36,97,90,3,9,13
3.88E+02,-8204,1493,-1066,41,108,105,3,9,13
3.89E+02,-8194,1490,-1055,42,118,114,3,9,13
3.89E+02,-7933,1484,-1062,53,123,110,3,9,13
3.89E+02,-8193,1492,-1051,66,121,98,3,9,13
3.89E+02,-8194,1499,-1050,72,117,90,3,9,13
3.90E+02,-7936,1500,-1048,72,110,85,3,9,13
3.90E+02,-7926,1503,-1053,70,106,85,3,9,13
3.90E+02,-7924,1505,-1050,63,111,85,3,9,13
3.90E+02,-7928,1500,-1056,55,119,85,3,9,13
3.91E+02,-7929,1495,-1051,51,118,83,3,9,13
3.91E+02,-8196,1501,-1049,47,122,84,3,9,13
3.91E+02,-7931,1502,-1046,46,117,91,3,9,13
3.91E+02,-7928,1495,-1050,40,123,90,3,9,13
3.92E+02,-8200,1483,-1045,38,-121,82,3,9,13
3.92E+02,-8210,1477,-1039,51,-128,77,3,9,13
3.92E+02,-8212,1488,-1043,72,119,77,3,9,13
3.92E+02,-8208,1494,-1044,90,113,85,3,9,13
3.93E+02,-8198,1505,-1052,99,112,92,3,9,13
3.93E+02,-8195,1514,-1058,96,119,94,3,9,13
3.93E+02,-8203,1519,-1061,93,123,93,3,9,13
3.93E+02,-8209,1522,-1059,84,115,86,3,9,13
3.94E+02,-8204,1526,-1056,73,99,79,3,9,13
3.94E+02,-8199,1524,-1054,66,85,74,3,9,13
3.94E+02,-8194,1518,-1045,59,76,76,3,9,13
3.94E+02,-7935,1517,-1038,53,77,79,3,9,13
3.95E+02,-7930,1511,-1033,51,82,81,3,9,13
3.95E+02,-7930,1514,-1028,53,90,83,3,9,13
3.95E+02,-7931,1515,-1033,58,95,86,3,9,13
3.95E+02,-7928,1517,-1038,60,105,88,3,9,13
3.96E+02,-7933,1519,-1040,56,116,89,3,9,13
3.96E+02,-7931,1524,-1045,52,120,86,3,9,13
3.96E+02,-7934,1529,-1047,46,125,83,3,9,13
3.96E+02,-8194,1529,-1051,38,126,81,3,9,13
3.97E+02,-8195,1795,-1055,30,-127,79,3,9,13
3.97E+02,-8199,1796,-1054,21,-118,77,3,9,13
3.97E+02,-8197,1534,-1049,13,-115,73,3,9,13
3.97E+02,-7936,1524,-1052,12,-113,64,3,9,13
3.98E+02,-8194,1513,-1056,15,-107,44,3,9,13
3.98E+02,-8211,1514,-1061,25,-103,25,3,9,13
3.98E+02,-8207,1510,-1056,28,-118,23,3,9,13
3.98E+02,-8200,1505,-1062,28,126,23,3,9,13
3.99E+02,-8195,1498,-1064,22,115,27,3,9,13
3.99E+02,-8204,1497,-1054,18,106,33,3,9,13
3.99E+02,-8219,1496,-1054,20,95,48,3,9,13
3.99E+02,-8209,1496,-1055,31,82,72,3,9,13
4.00E+02,-8204,1510,-1060,35,85,92,3,9,13
4.00E+02,-8204,1512,-1060,36,96,105,3,9,13
4.00E+02,-8202,1520,-1053,36,103,105,3,9,13
4.00E+02,-8203,1533,-1066,36,105,99,3,9,13
4.01E+02,-8200,1531,-1054,37,100,90,3,9,13
4.01E+02,-8198,1522,-1059,37,95,80,3,9,13
4.01E+02,-7933,1523,-1056,42,90,68,3,9,13
4.01E+02,-7931,1523,-1059,42,94,57,3,9,13
4.02E+02,-7931,1517,-1045,43,100,54,3,9,13
4.02E+02,-7929,1513,-1046,41,107,52,3,9,13
4.02E+02,-7935,1502,-1045,41,114,54,3,9,13
4.02E+02,-8202,1501,-1045,44,121,57,3,9,13
4.03E+02,-7935,1493,-1042,40,119,60,3,9,13
4.03E+02,-7928,1489,-1042,38,123,62,3,9,13
4.03E+02,-8197,1485,-1034,34,127,61,3,9,13
4.03E+02,-8200,1484,-1026,40,121,70,3,9,13
4.04E+02,-8193,1484,-1034,48,120,85,3,9,13
4.04E+02,-7933,1489,-1037,54,124,101,3,9,13
4.04E+02,-8194,1501,-1047,56,-120,109,3,9,13
4.04E+02,-8200,1510,-1056,51,-111,116,3,9,13
4.05E+02,-8203,1521,-1061,46,-108,119,3,9,13
4.05E+02,-8202,1526,-1064,41,-114,120,3,9,13
4.05E+02,-8202,1534,-1068,42,-127,116,3,9,13
4.05E+02,-8204,1794,-1067,45,117,113,3,9,13
4.06E+02,-8203,1801,-1066,51,107,109,3,9,13
4.06E+02,-8204,1809,-1062,56,103,106,3,9,13
4.06E+02,-8197,1811,-1055,63,94,103,3,9,13
4.06E+02,-7936,1814,-1059,66,92,95,3,9,13
4.07E+02,-7932,1817,-1056,66,88,83,3,9,13
4.07E+02,-7928,1819,-1057,60,92,69,3,9,13
4.07E+02,-7930,1811,-1051,49,99,58,3,9,13
4.07E+02,-7934,1808,-1046,43,101,48,3,9,13
4.08E+02,-7933,1804,-1039,39,107,41,3,9,13
4.08E+02,-7931,1796,-1044,34,119,40,3,9,13
4.08E+02,-7931,1534,-1043,30,127,45,3,9,13
4.08E+02,-8193,1531,-1038,23,-121,51,3,9,13
4.09E+02,-8195,1526,-1051,20,-121,52,3,9,13
4.09E+02,-7928,1517,-1049,21,-124,45,3,9,13
4.09E+02,-7928,1516,-1053,24,-123,32,3,9,13
4.09E+02,-8205,1521,-1052,28,-118,24,3,9,13
4.10E+02,-8196,1520,-1051,26,125,29,3,9,13
4.10E+02,-7929,1520,-1040,18,112,34,3,9,13
4.10E+02,-7913,1508,-1042,9,108,44,3,9,13
4.10E+02,-7931,1493,-1031,3,116,46,3,9,13
4.11E+02,-8221,1501,-1026,10,116,56,3,9,13
4.11E+02,-8224,1511,-1038,27,102,76,3,9,13
4.11E+02,-8209,1519,-1050,36,104,94,3,9,13
4.11E+02,-8202,1532,-1045,34,112,102,3,9,13
4.12E+02,-8197,1792,-1056,30,111,98,3,9,13
4.12E+02,-7934,1796,-1057,25,105,83,3,9,13
4.12E+02,-7933,1794,-1057,19,107,65,3,9,13
4.12E+02,-7933,1793,-1036,16,104,53,3,9,13
4.13E+02,-7932,1531,-1027,17,98,47,3,9,13
4.13E+02,-7922,1528,-1029,15,97,47,3,9,13
4.13E+02,-7914,1522,-1032,16,106,48,3,9,13
4.13E+02,-7912,1515,-1033,16,118,48,3,9,13
4.14E+02,-7919,1510,-1036,19,-123,44,3,9,13
4.14E+02,-7935,1510,-1037,22,-111,41,3,9,13
4.14E+02,-7916,1513,-1045,29,-116,48,3,9,13
4.14E+02,-7917,1507,-1054,25,-109,45,3,9,13
4.15E+02,-8194,1510,-1056,15,-102,40,3,9,13
4.15E+02,-8208,1500,-1049,10,-112,44,3,9,13
4.15E+02,-8210,1493,-1048,14,-127,52,3,9,13
4.15E+02,-8201,1495,-1056,20,123,58,3,9,13
4.16E+02,-8193,1501,-1065,24,-127,62,3,9,13
4.16E+02,-7935,1502,-1063,23,-117,63,3,9,13
4.16E+02,-8202,1501,-1057,25,-111,59,3,9,13
4.16E+02,-8208,1499,-1048,32,-117,55,3,9,13
4.17E+02,-8213,1506,-1044,40,126,53,3,9,13
4.17E+02,-8210,1511,-1043,47,111,54,3,9,13
4.17E+02,-8193,1516,-1049,47,96,57,3,9,13
4.17E+02,-7928,1515,-1054,45,92,59,3,9,13
4.18E+02,-7919,1498,-1050,41,96,54,3,9,13
4.18E+02,-7923,1482,-1047,51,103,44,3,9,13
4.18E+02,-7927,1486,-1051,70,106,35,3,9,13
4.18E+02,-7930,1493,-1044,85,110,32,3,9,13
4.19E+02,-7935,1508,-1050,95,107,35,3,9,13
4.19E+02,-7937,1521,-1058,96,106,42,3,9,13
4.19E+02,-8199,1521,-1053,80,111,54,3,9,13
4.19E+02,-8198,1518,-1053,64,111,66,3,9,13
4.20E+02,-8194,1506,-1054,45,110,77,3,9,13
4.20E+02,-7935,1498,-1058,33,107,79,3,9,13
4.20E+02,-7931,1482,-1052,29,106,66,3,9,13
4.20E+02,-8194,1483,-1049,35,112,56,3,9,13
4.21E+02,-8198,1487,-1044,48,103,51,3,9,13
4.21E+02,-7934,1487,-1044,58,96,50,3,9,13
4.21E+02,-7920,1485,-1038,60,91,53,3,9,13
4.21E+02,-7926,1479,-1037,56,94,52,3,9,13
4.22E+02,-8212,1481,-1027,59,96,53,3,9,13
4.22E+02,-8228,1491,-1031,67,82,69,3,9,13
4.22E+02,-8215,1506,-1046,77,72,90,3,9,13
4.22E+02,-8203,1520,-1057,72,75,103,3,9,13
4.23E+02,-8195,1522,-1052,60,81,105,3,9,13
4.23E+02,-7935,1518,-1051,55,85,96,3,9,13
4.23E+02,-8196,1513,-1042,55,85,83,3,9,13
4.23E+02,-8191,1514,-1039,57,84,72,3,9,13
4.24E+02,-7923,1517,-1039,62,78,68,3,9,13
4.24E+02,-7919,1515,-1041,60,79,65,3,9,13
4.24E+02,-7922,1519,-1042,61,84,58,3,9,13
4.24E+02,-7925,1516,-1039,60,90,52,3,9,13
4.25E+02,-7931,1510,-1034,57,99,49,3,9,13
4.25E+02,-8198,1510,-1032,53,110,46,3,9,13
4.25E+02,-7931,1506,-1038,49,111,49,3,9,13
4.25E+02,-7925,1500,-1037,42,114,44,3,9,13
4.26E+02,-8202,1495,-766,33,125,36,3,9,13
4.26E+02,-8216,1480,-759,27,122,37,3,9,13
4.26E+02,-8217,1477,-755,36,105,42,3,9,13
4.26E+02,-8207,1479,-767,51,97,49,3,9,13
4.27E+02,-8195,1489,-1032,61,99,53,3,9,13
4.27E+02,-8195,1489,-1040,62,111,53,3,9,13
4.27E+02,-8196,1495,-1041,59,118,54,3,9,13
4.27E+02,-8206,1487,-1042,57,116,54,3,9,13
4.28E+02,-8207,1488,-1036,61,105,53,3,9,13
4.28E+02,-8206,1491,-1032,66,89,56,3,9,13
4.28E+02,-8203,1494,-1031,70,84,60,3,9,13
4.28E+02,-8203,1493,-766,73,84,67,3,9,13
4.29E+02,-8197,1489,-752,74,87,73,3,9,13
4.29E+02,-8202,1490,-752,78,89,79,3,9,13
4.29E+02,-8196,1502,-759,85,87,82,3,9,13
4.29E+02,-7936,1507,-756,81,88,81,3,9,13
4.30E+02,-8195,1513,-766,72,94,83,3,9,13
4.30E+02,-7933,1517,-766,61,97,86,3,9,13
4.30E+02,-7933,1520,-1025,46,106,88,3,9,13
4.30E+02,-7934,1523,-1026,33,114,89,3,9,13
4.31E+02,-8196,1517,-1028,23,122,91,3,9,13
4.31E+02,-8201,1510,-767,20,127,91,3,9,13
4.31E+02,-8204,1505,-1029,23,125,91,3,9,13
4.31E+02,-8194,1502,-768,31,127,83,3,9,13
4.32E+02,-8198,1514,-1029,47,-122,73,3,9,13
4.32E+02,-8200,1525,-1026,47,-125,69,3,9,13
4.32E+02,-8197,1521,-767,39,-128,63,3,9,13
4.32E+02,-8194,1512,-765,32,123,51,3,9,13
4.33E+02,-8199,1503,-759,27,117,38,3,9,13
4.33E+02,-8219,1496,-750,22,111,28,3,9,13
4.33E+02,-8227,1498,-752,26,97,33,3,9,13
4.33E+02,-8218,1503,-768,27,100,50,3,9,13
4.34E+02,-8209,1503,-1027,19,118,66,3,9,13
4.34E+02,-8209,1492,-1028,15,-125,73,3,9,13
4.34E+02,-8210,1479,-1025,19,-117,73,3,9,13
4.34E+02,-8207,1478,-1027,27,-121,70,3,9,13
4.35E+02,-8204,1484,-762,35,121,66,3,9,13
4.35E+02,-8197,1486,-765,39,109,64,3,9,13
4.35E+02,-7922,1495,-765,40,108,63,3,9,13
4.35E+02,-7920,1494,-767,29,122,63,3,9,13
4.36E+02,-7930,1487,-755,24,-120,65,3,9,13
4.36E+02,-7935,1486,-760,24,-112,72,3,9,13
4.36E+02,-8205,1492,-764,26,-108,79,3,9,13
4.36E+02,-8199,1502,-1031,30,-112,90,3,9,13
4.37E+02,-7936,1502,-1029,25,-109,97,3,9,13
4.37E+02,-8194,1503,-1036,19,-100,94,3,9,13
4.37E+02,-8211,1503,-1033,18,-100,91,3,9,13
4.37E+02,-8211,1501,-1031,25,-109,89,3,9,13
4.38E+02,-8216,1501,-1041,35,-118,88,3,9,13
4.38E+02,-8214,1507,-1036,45,-127,88,3,9,13
4.38E+02,-8207,1509,-1047,45,-127,85,3,9,13
4.38E+02,-8205,1506,-1042,44,-121,80,3,9,13
4.39E+02,-8208,1502,-1040,50,-120,73,3,9,13
4.39E+02,-8216,1505,-1038,55,127,68,3,9,13
4.39E+02,-8211,1499,-1034,61,111,66,3,9,13
4.39E+02,-8205,1500,-1042,70,98,65,3,9,13
4.40E+02,-8202,1505,-1043,74,89,69,3,9,13
4.40E+02,-8194,1510,-1040,74,84,74,3,9,13
4.40E+02,-7936,1500,-1032,75,88,77,3,9,13
4.40E+02,-7936,1504,-1032,82,87,75,3,9,13
4.41E+02,-7932,1504,-1031,85,92,78,3,9,13
4.41E+02,-8194,1507,-1032,86,103,77,3,9,13
4.41E+02,-8199,1515,-1027,78,110,76,3,9,13
4.41E+02,-8201,1513,-1032,66,114,74,3,9,13
4.42E+02,-8203,1518,-1029,58,116,71,3,9,13
4.42E+02,-8212,1525,-1041,51,121,72,3,9,13
4.42E+02,-8212,1524,-1044,40,120,75,3,9,13
4.42E+02,-8208,1520,-1033,38,124,82,3,9,13
4.43E+02,-8200,1520,-1038,37,124,83,3,9,13
4.43E+02,-7931,1508,-1040,34,-128,78,3,9,13
4.43E+02,-8198,1514,-1031,49,-119,54,3,9,13
4.43E+02,-8214,1522,-1029,50,-126,47,3,9,13
4.44E+02,-8208,1528,-1035,42,116,47,3,9,13
4.44E+02,-8200,1524,-1033,30,105,51,3,9,13
4.44E+02,-8195,1516,-1025,17,100,53,3,9,13
4.44E+02,-8222,1506,-762,10,98,58,3,9,13
4.45E+02,-8230,1505,-765,18,85,74,3,9,13
4.45E+02,-8219,1517,-1029,23,88,90,3,9,13
4.45E+02,-8208,1532,-1033,21,99,99,3,9,13
4.45E+02,-8195,1532,-1027,21,109,97,3,9,13
4.46E+02,-8194,1530,-1026,22,119,89,3,9,13
4.46E+02,-7936,1792,-768,24,122,77,3,9,13
4.46E+02,-8193,1534,-762,17,120,67,3,9,13
4.46E+02,-7931,1530,-764,13,114,60,3,9,13
4.47E+02,-7922,1525,-765,2,119,58,3,9,13
4.47E+02,-7920,1519,-1027,-262,-125,58,3,9,13
4.47E+02,-7919,1512,-765,-272,-112,57,3,9,13
4.47E+02,-7923,1504,-1029,-276,-97,58,3,9,13
4.48E+02,-7934,1498,-761,-276,-79,59,3,9,13
4.48E+02,-7936,1501,-1028,-271,-79,70,3,9,13
4.48E+02,-7928,1489,-1030,-271,-82,71,3,9,13
4.48E+02,-7936,1484,-1029,-268,-78,62,3,9,13
4.49E+02,-8201,1486,-1036,-260,-89,54,3,9,13
4.49E+02,-8211,1489,-1048,10,-101,50,3,9,13
4.49E+02,-8212,1495,-1050,22,-105,54,3,9,13
4.49E+02,-8207,1495,-1060,28,-107,58,3,9,13
4.50E+02,-8216,1494,-1068,31,-104,62,3,9,13
4.50E+02,-8220,1502,-1070,37,-112,60,3,9,13
4.50E+02,-8224,1502,-1071,40,-127,58,3,9,13
4.50E+02,-8222,1500,-1069,48,107,59,3,9,13
4.51E+02,-8210,1506,-1060,51,91,61,3,9,13
4.51E+02,-8206,1501,-1052,50,86,66,3,9,13
4.51E+02,-8199,1501,-1051,53,83,73,3,9,13
4.51E+02,-7935,1502,-1046,54,80,78,3,9,13
4.52E+02,-7932,1505,-1043,57,86,80,3,9,13
4.52E+02,-7934,1514,-1035,65,91,82,3,9,13
4.52E+02,-7935,1512,-1036,67,93,86,3,9,13
4.52E+02,-8193,1516,-1036,67,91,88,3,9,13
4.53E+02,-7933,1516,-1033,68,97,90,3,9,13
4.53E+02,-8194,1521,-1036,65,105,91,3,9,13
4.53E+02,-8193,1523,-1029,60,112,90,3,9,13
4.53E+02,-8198,1527,-1033,55,118,84,3,9,13
4.54E+02,-8205,1526,-1036,51,117,75,3,9,13
4.54E+02,-8203,1520,-1036,46,114,62,3,9,13
4.54E+02,-8221,1521,-1029,48,118,42,3,9,13
4.54E+02,-8212,1521,-1030,53,101,28,3,9,13
4.55E+02,-8204,1514,-767,49,89,23,3,9,13
4.55E+02,-7935,1501,-765,44,76,23,3,9,13
4.55E+02,-8199,1482,-755,36,75,16,3,9,13
4.55E+02,-8219,1480,-747,37,75,16,3,9,13
4.56E+02,-8222,1483,-755,42,62,34,3,9,13
4.56E+02,-8199,1489,-763,45,65,52,3,9,13
4.56E+02,-7930,1495,-1029,38,86,69,3,9,13
4.56E+02,-7924,1493,-768,30,108,77,3,9,13
4.57E+02,-7917,1487,-764,27,124,77,3,9,13
4.57E+02,-7924,1483,-757,31,-127,72,3,9,13
4.57E+02,-7929,1495,-749,37,121,67,3,9,13
4.57E+02,-7924,1501,-754,38,116,65,3,9,13
4.58E+02,-7918,1504,-762,37,114,67,3,9,13
4.58E+02,-7916,1507,-765,34,120,65,3,9,13
4.58E+02,-7925,1508,-1025,28,-122,66,3,9,13
4.58E+02,-7932,1500,-758,24,-111,69,3,9,13
4.59E+02,-8200,1491,-760,21,-97,67,3,9,13
4.59E+02,-8195,1493,-1031,25,-99,70,3,9,13
4.59E+02,-7929,1492,-1038,24,-94,64,3,9,13
4.59E+02,-8203,1483,-1041,21,-83,52,3,9,13
4.60E+02,-8217,1483,-1032,27,-93,46,3,9,13
4.60E+02,-8216,1479,-1034,42,-110,46,3,9,13
4.60E+02,-8208,1477,-1039,53,-121,51,3,9,13
4.60E+02,-8201,1482,-1048,61,-128,61,3,9,13
4.61E+02,-8196,1485,-1051,67,-123,67,3,9,13
4.61E+02,-8196,1489,-1052,69,-119,71,3,9,13
4.61E+02,-8205,1486,-1051,76,-122,74,3,9,13
4.61E+02,-8208,1490,-1050,85,122,78,3,9,13
4.62E+02,-8206,1491,-1050,92,108,84,3,9,13
4.62E+02,-8205,1494,-1045,98,99,92,3,9,13
4.62E+02,-8198,1505,-1043,100,90,99,3,9,13
4.62E+02,-8193,1508,-1045,101,86,106,3,9,13
4.63E+02,-8198,1511,-1041,106,87,108,3,9,13
4.63E+02,-8200,1515,-1039,108,90,114,3,9,13
4.63E+02,-7934,1518,-1036,110,93,115,3,9,13
4.63E+02,-7935,1534,-1044,100,99,114,3,9,13
4.64E+02,-7932,1518,-1030,79,107,127,3,9,13
4.64E+02,-7936,1526,-1026,76,113,117,3,9,13
4.64E+02,-8194,1533,-768,80,114,100,3,9,13
4.64E+02,-7934,1796,-1025,73,115,85,3,9,13
4.65E+02,-7929,1795,-1032,70,120,67,3,9,13
4.65E+02,-8200,1800,-1033,58,-125,54,3,9,13
4.65E+02,-8193,1795,-1037,52,125,52,3,9,13
4.65E+02,-8195,1524,-1025,37,124,44,3,9,13
4.66E+02,-8194,1510,-764,27,117,41,3,9,13
4.66E+02,-8202,1497,-757,29,113,33,3,9,13
4.66E+02,-8217,1494,-758,36,108,36,3,9,13
4.66E+02,-8216,1502,-766,51,93,55,3,9,13
4.67E+02,-8205,1517,-1036,56,96,79,3,9,13
4.67E+02,-7934,1523,-1036,48,113,94,3,9,13
4.67E+02,-7931,1518,-1031,40,125,94,3,9,13
4.67E+02,-8193,1515,-1036,39,-128,83,3,9,13
4.68E+02,-8198,1517,-1032,37,127,71,3,9,13
4.68E+02,-8200,1515,-767,34,116,65,3,9,13
4.68E+02,-7933,1515,-1029,37,106,70,3,9,13
4.68E+02,-7926,1513,-1034,33,108,74,3,9,13
4.69E+02,-7922,1505,-1036,29,116,77,3,9,13
4.69E+02,-7927,1504,-1037,31,-127,80,3,9,13
4.69E+02,-7931,1498,-1034,35,-120,85,3,9,13
4.69E+02,-8195,1503,-1032,46,-113,88,3,9,13
4.70E+02,-7925,1510,-1054,50,-115,100,3,9,13
4.70E+02,-7925,1516,-1061,47,-107,101,3,9,13
4.70E+02,-8194,1510,-1048,41,-98,96,3,9,13
4.70E+02,-8207,1501,-1050,42,-107,95,3,9,13
4.71E+02,-8208,1502,-1049,52,-121,93,3,9,13
4.71E+02,-8198,1512,-1055,63,123,94,3,9,13
4.71E+02,-7936,1517,-1063,67,122,93,3,9,13
4.71E+02,-8200,1519,-1060,68,-126,91,3,9,13
4.72E+02,-8208,1523,-1060,70,-120,90,3,9,13
4.72E+02,-8217,1522,-1053,72,-123,88,3,9,13
4.72E+02,-8223,1528,-1055,75,114,86,3,9,13
4.72E+02,-8210,1530,-1062,79,94,85,3,9,13
4.73E+02,-8193,1534,-1057,82,79,84,3,9,13
4.73E+02,-7931,1535,-1048,80,75,82,3,9,13
4.73E+02,-7932,1533,-1031,77,80,82,3,9,13
4.73E+02,-7928,1531,-1027,77,81,85,3,9,13
4.74E+02,-7923,1792,-1035,79,87,88,3,9,13
4.74E+02,-7928,1792,-1029,74,96,88,3,9,13
4.74E+02,-7928,1794,-764,66,101,88,3,9,13
4.74E+02,-7921,1802,-766,59,107,88,3,9,13
4.75E+02,-7924,1808,-768,50,120,87,3,9,13
4.75E+02,-7928,1806,-1027,38,-124,87,3,9,13
4.75E+02,-7930,1803,-1032,31,-110,84,3,9,13
4.75E+02,-7933,1796,-1039,26,-99,82,3,9,13
4.76E+02,-7932,1533,-1032,24,-98,75,3,9,13
4.76E+02,-7933,1520,-1040,32,-91,61,3,9,13
4.76E+02,-8201,1523,-1034,43,-94,49,3,9,13
4.76E+02,-8194,1527,-1047,48,-111,41,3,9,13
4.77E+02,-7930,1530,-1047,42,-121,36,3,9,13
4.77E+02,-7933,1524,-1051,27,-128,36,3,9,13
4.77E+02,-8200,1516,-1041,15,118,38,3,9,13
4.77E+02,-8209,1513,-1048,16,101,50,3,9,13
4.78E+02,-8203,1520,-1052,24,88,66,3,9,13
4.78E+02,-7934,1521,-1060,22,100,80,3,9,13
4.78E+02,-7931,1521,-1062,23,116,85,3,9,13
4.78E+02,-8195,1524,-1053,28,-128,79,3,9,13
4.79E+02,-8196,1525,-1054,36,-123,72,3,9,13
4.79E+02,-8205,1530,-1048,42,-126,66,3,9,13
4.79E+02,-8201,1534,-1048,45,121,64,3,9,13
4.79E+02,-8193,1529,-1051,42,118,62,3,9,13
4.80E+02,-7924,1535,-1059,39,119,60,3,9,13
4.80E+02,-7923,1792,-1062,33,127,58,3,9,13
4.80E+02,-7928,1532,-1062,26,-126,63,3,9,13
4.80E+02,-7930,1531,-1061,21,-124,67,3,9,13
4.81E+02,-7936,1530,-1058,22,-121,77,3,9,13
4.81E+02,-7928,1528,-1067,26,-127,84,3,9,13
4.81E+02,-7934,1525,-1066,28,-120,79,3,9,13
4.81E+02,-8204,1519,-1062,33,-120,74,3,9,13
4.82E+02,-8207,1520,-1056,43,126,73,3,9,13
4.82E+02,-8203,1526,-1067,53,116,74,3,9,13
4.82E+02,-8200,1535,-1070,60,111,77,3,9,13
4.82E+02,-8200,1797,-1066,57,110,81,3,9,13
4.83E+02,-8206,1794,-1065,51,106,83,3,9,13
4.83E+02,-8212,1795,-1066,50,99,81,3,9,13
4.83E+02,-8209,1535,-1061,51,87,80,3,9,13
4.83E+02,-8199,1531,-1062,52,75,79,3,9,13
4.84E+02,-7934,1530,-1060,57,64,76,3,9,13
4.84E+02,-7928,1527,-1053,61,62,76,3,9,13
4.84E+02,-7922,1529,-1045,67,69,73,3,9,13
4.84E+02,-7928,1796,-1049,69,78,74,3,9,13
4.85E+02,-7920,1797,-1046,69,86,75,3,9,13
4.85E+02,-7923,1801,-1033,66,96,75,3,9,13
4.85E+02,-7928,1801,-1032,54,101,75,3,9,13
4.85E+02,-7926,1799,-1031,44,104,78,3,9,13
4.86E+02,-7926,1806,-1042,43,109,80,3,9,13
4.86E+02,-7933,1803,-1037,33,115,84,3,9,13
4.86E+02,-7932,1807,-1038,24,-125,78,3,9,13
4.86E+02,-7933,1803,-1036,16,-117,72,3,9,13
4.87E+02,-7928,1796,-1046,15,-111,59,3,9,13
4.87E+02,-8199,1796,-1035,16,-103,39,3,9,13
4.87E+02,-8212,1802,-1036,22,-110,28,3,9,13
4.87E+02,-8198,1805,-1042,21,127,21,3,9,13
4.88E+02,-7931,1801,-1038,12,114,21,3,9,13
4.88E+02,-7918,1533,-1033,1,104,18,3,9,13
4.88E+02,-8198,1519,-1025,-264,111,10,3,9,13
4.88E+02,-8227,1519,-759,-260,105,20,3,9,13
4.89E+02,-8213,1524,-1026,12,92,40,3,9,13
4.89E+02,-8203,1530,-1035,18,98,58,3,9,13
4.89E+02,-7935,1531,-1040,24,107,64,3,9,13
4.89E+02,-7925,1535,-1047,28,113,60,3,9,13
4.90E+02,-7936,1535,-1049,31,117,51,3,9,13
4.90E+02,-8193,1792,-1038,31,115,45,3,9,13
4.90E+02,-8198,1794,-1038,30,107,43,3,9,13
4.90E+02,-7927,1794,-1041,30,96,43,3,9,13
4.91E+02,-7924,1795,-1042,31,93,37,3,9,13
4.91E+02,-7930,1531,-1051,24,101,33,3,9,13
4.91E+02,-7933,1526,-1050,17,111,32,3,9,13
4.91E+02,-8196,1516,-1046,18,119,32,3,9,13
4.92E+02,-8200,1512,-1040,20,124,37,3,9,13
4.92E+02,-7925,1509,-1046,24,119,42,3,9,13
4.92E+02,-7921,1509,-1046,18,-126,35,3,9,13
4.92E+02,-8205,1495,-1039,13,-119,34,3,9,13
4.93E+02,-8201,1484,-1040,21,119,36,3,9,13
4.93E+02,-8197,1486,-1055,35,109,40,3,9,13
4.93E+02,-7934,1487,-1052,39,112,44,3,9,13
4.93E+02,-7935,1487,-1055,39,122,49,3,9,13
4.94E+02,-8195,1478,-1055,40,-124,53,3,9,13
4.94E+02,-8201,1472,-1050,46,-127,54,3,9,13
4.94E+02,-8207,1472,-1045,57,116,54,3,9,13
4.94E+02,-8205,1476,-1046,70,101,53,3,9,13
4.95E+02,-8197,1479,-1049,79,83,59,3,9,13
4.95E+02,-8193,1480,-1051,79,78,67,3,9,13
4.95E+02,-7930,1486,-1052,83,75,78,3,9,13
4.95E+02,-7936,1485,-1043,87,78,81,3,9,13
4.96E+02,-7933,1490,-1034,86,78,84,3,9,13
4.96E+02,-7928,1497,-1039,97,77,84,3,9,13
4.96E+02,-7933,1499,-1037,93,85,89,3,9,13
4.96E+02,-7935,1506,-1038,90,96,94,3,9,13
4.97E+02,-7935,1520,-1034,89,103,99,3,9,13
4.97E+02,-8193,1516,-1031,82,110,101,3,9,13
4.97E+02,-7935,1517,-1035,83,111,97,3,9,13
4.97E+02,-8196,1516,-1032,87,117,85,3,9,13
4.98E+02,-8215,1526,-1037,93,115,79,3,9,13
4.98E+02,-8205,1533,-1040,97,94,80,3,9,13
4.98E+02,-8205,1792,-1037,90,88,82,3,9,13
4.98E+02,-7935,1526,-1025,81,77,85,3,9,13
4.99E+02,-8195,1519,-755,77,74,76,3,9,13
4.99E+02,-8212,1519,-750,79,72,73,3,9,13
4.99E+02,-8208,1527,-757,89,60,79,3,9,13
4.99E+02,-8205,1798,-766,91,63,92,3,9,13
5.00E+02,-7936,1806,-1028,86,71,102,3,9,13
5.00E+02,-7934,1800,-1026,78,82,104,3,9,13
5.00E+02,-7932,1793,-764,74,88,97,3,9,13
5.00E+02,-8194,1793,-765,75,91,83,3,9,13
5.01E+02,-8199,1794,-757,75,88,71,3,9,13
5.01E+02,-7930,1799,-758,75,87,63,3,9,13
5.01E+02,-7925,1794,-751,72,95,59,3,9,13
5.01E+02,-7928,1793,-745,68,103,53,3,9,13
5.02E+02,-7935,1530,-743,63,112,52,3,9,13
5.02E+02,-8199,1521,-734,60,118,57,3,9,13
5.02E+02,-8199,1520,-738,60,121,62,3,9,13
5.02E+02,-7936,1525,-747,59,117,72,3,9,13
5.03E+02,-7925,1525,-759,55,124,73,3,9,13
5.03E+02,-7932,1519,-759,43,-114,69,3,9,13
5.03E+02,-8198,1507,-753,43,-107,66,3,9,13
5.03E+02,-8194,1506,-763,49,-107,65,3,9,13
5.04E+02,-7933,1517,-1026,55,-106,66,3,9,13
5.04E+02,-8194,1526,-1040,54,-100,63,3,9,13
5.04E+02,-8198,1534,-1042,41,-92,58,3,9,13
5.04E+02,-8208,1531,-1042,25,-89,55,3,9,13
5.05E+02,-8216,1516,-1044,14,-92,53,3,9,13
5.05E+02,-8221,1502,-1043,12,-103,51,3,9,13
5.05E+02,-8220,1491,-1042,20,-117,49,3,9,13
5.05E+02,-8214,1487,-1039,33,127,50,3,9,13
5.06E+02,-8211,1489,-1038,45,119,56,3,9,13
5.06E+02,-8202,1497,-1039,56,116,65,3,9,13
5.06E+02,-8197,1498,-1040,63,117,73,3,9,13
5.06E+02,-8199,1502,-1034,67,122,78,3,9,13
5.07E+02,-8197,1509,-1032,68,122,82,3,9,13
5.07E+02,-8196,1517,-1038,68,119,85,3,9,13
5.07E+02,-8198,1524,-1043,67,117,91,3,9,13
5.07E+02,-8202,1527,-1045,60,118,97,3,9,13
5.08E+02,-8201,1533,-1048,53,123,101,3,9,13
5.08E+02,-8202,1793,-1054,52,123,101,3,9,13
5.08E+02,-8194,1530,-1043,53,122,93,3,9,13
5.08E+02,-8197,1524,-1042,56,124,76,3,9,13
5.09E+02,-8215,1792,-1048,70,124,62,3,9,13
5.09E+02,-8217,1792,-1052,75,110,55,3,9,13
5.09E+02,-8210,1533,-1046,72,100,51,3,9,13
5.09E+02,-8207,1526,-1042,68,88,50,3,9,13
5.10E+02,-8211,1517,-1033,62,79,47,3,9,13
5.10E+02,-8225,1518,-766,68,56,56,3,9,13
5.10E+02,-8213,1527,-1035,74,47,75,3,9,13
5.10E+02,-8198,1530,-1036,68,59,93,3,9,13
5.11E+02,-7932,1530,-1034,63,78,103,3,9,13
5.11E+02,-7927,1532,-1028,59,92,105,3,9,13
5.11E+02,-7926,1529,-756,54,106,101,3,9,13
5.11E+02,-7932,1527,-743,54,111,91,3,9,13
5.12E+02,-7932,1523,-747,55,109,82,3,9,13
5.12E+02,-7924,1525,-748,53,111,74,3,9,13
5.12E+02,-7918,1530,-750,51,120,68,3,9,13
5.12E+02,-7919,1526,-751,42,-123,68,3,9,13
5.13E+02,-7926,1525,-757,36,-115,67,3,9,13
5.13E+02,-7935,1522,-761,31,-107,70,3,9,13
5.13E+02,-7934,1525,-760,25,-105,79,3,9,13
5.13E+02,-7933,1527,-761,18,-102,82,3,9,13
5.14E+02,-7931,1521,-1025,9,-97,76,3,9,13
5.14E+02,-8205,1516,-1031,3,-95,67,3,9,13
5.14E+02,-8215,1513,-1025,8,-104,65,3,9,13
5.14E+02,-8216,1510,-1027,18,-111,69,3,9,13
5.15E+02,-8214,1517,-1034,29,-110,74,3,9,13
5.15E+02,-8214,1528,-1035,42,-111,80,3,9,13
5.15E+02,-8210,1533,-1036,48,-114,83,3,9,13
5.15E+02,-8207,1793,-1035,46,-116,84,3,9,13
5.16E+02,-8198,1801,-1040,42,-123,84,3,9,13
5.16E+02,-8195,1809,-1053,32,-128,85,3,9,13
5.16E+02,-8195,1811,-1053,24,-128,84,3,9,13
5.16E+02,-8196,1812,-1055,18,-128,85,3,9,13
5.17E+02,-8200,1801,-1043,17,-128,86,3,9,13
5.17E+02,-8198,1799,-1049,25,122,86,3,9,13
5.17E+02,-8196,1798,-1050,29,112,84,3,9,13
5.17E+02,-8204,1803,-1050,32,104,78,3,9,13
5.18E+02,-8196,1808,-1055,32,101,74,3,9,13
5.18E+02,-7930,1809,-1054,32,98,73,3,9,13
5.18E+02,-7930,1809,-1053,29,107,74,3,9,13
5.18E+02,-7934,1813,-1047,24,115,75,3,9,13
5.19E+02,-7934,1811,-1040,16,124,72,3,9,13
5.19E+02,-7936,1807,-1045,13,-124,63,3,9,13
5.19E+02,-7928,1796,-1048,12,-120,49,3,9,13
5.19E+02,-8207,1531,-1046,12,-107,33,3,9,13
5.20E+02,-8211,1534,-1046,18,-117,31,3,9,13
5.20E+02,-8198,1533,-1048,19,-128,30,3,9,13
5.20E+02,-8195,1526,-1034,12,117,34,3,9,13
5.20E+02,-7933,1512,-1031,7,106,36,3,9,13
5.21E+02,-8214,1506,-762,7,107,40,3,9,13
5.21E+02,-8226,1502,-765,20,91,57,3,9,13
5.21E+02,-8209,1519,-1032,33,85,74,3,9,13
5.21E+02,-8198,1532,-1039,37,98,86,3,9,13
5.22E+02,-8194,1794,-1036,32,109,91,3,9,13
5.22E+02,-7935,1798,-1030,26,112,86,3,9,13
5.22E+02,-8193,1805,-1044,23,115,73,3,9,13
5.22E+02,-8198,1809,-1034,21,111,59,3,9,13
5.23E+02,-8195,1812,-1030,19,100,52,3,9,13
5.23E+02,-7926,1806,-1029,6,102,51,3,9,13
5.23E+02,-7921,1800,-1032,2,107,50,3,9,13
5.23E+02,-7929,1795,-1029,1,114,52,3,9,13
5.24E+02,-7931,1530,-764,7,118,54,3,9,13
5.24E+02,-8193,1527,-1025,19,124,53,3,9,13
5.24E+02,-7931,1526,-768,32,123,60,3,9,13
5.24E+02,-7914,1532,-1035,36,126,57,3,9,13
5.25E+02,-7919,1535,-1040,30,-117,49,3,9,13
5.25E+02,-7935,1526,-1034,21,-112,45,3,9,13
5.25E+02,-8195,1521,-1031,20,-121,43,3,9,13
5.25E+02,-8198,1519,-1037,20,-122,46,3,9,13
5.26E+02,-8200,1522,-1044,19,-119,52,3,9,13
5.26E+02,-8206,1522,-1042,18,-111,55,3,9,13
5.26E+02,-8211,1517,-1034,16,-111,57,3,9,13
5.26E+02,-8215,1507,-1032,22,-122,53,3,9,13
5.27E+02,-8212,1507,-1034,32,114,49,3,9,13
5.27E+02,-8196,1506,-1035,40,101,45,3,9,13
5.27E+02,-7933,1509,-1037,46,98,45,3,9,13
5.27E+02,-7929,1506,-1040,52,100,51,3,9,13
5.28E+02,-7926,1507,-1047,57,105,53,3,9,13
5.28E+02,-7928,1503,-1042,60,106,54,3,9,13
5.28E+02,-7927,1504,-1036,66,102,59,3,9,13
5.28E+02,-7932,1503,-1032,74,98,62,3,9,13
5.29E+02,-7932,1517,-1030,79,97,68,3,9,13
5.29E+02,-7930,1523,-1037,78,102,74,3,9,13
5.29E+02,-8193,1523,-1041,71,109,75,3,9,13
5.29E+02,-7936,1516,-1034,67,115,78,3,9,13
5.30E+02,-7933,1519,-1043,67,117,72,3,9,13
5.30E+02,-8201,1518,-1035,66,126,61,3,9,13
5.30E+02,-8213,1525,-1031,68,121,59,3,9,13
5.30E+02,-8200,1524,-1038,62,104,58,3,9,13
5.31E+02,-7930,1523,-1036,57,98,59,3,9,13
5.31E+02,-7923,1504,-1036,47,95,56,3,9,13
5.31E+02,-8196,1495,-1026,49,104,44,3,9,13
5.31E+02,-8228,1496,-762,58,107,48,3,9,13
5.32E+02,-8228,1505,-766,78,94,64,3,9,13
5.32E+02,-8210,1522,-1034,91,94,79,3,9,13
5.32E+02,-8193,1532,-1044,91,105,91,3,9,13
5.32E+02,-7931,1793,-1046,92,106,87,3,9,13
5.33E+02,-7934,1792,-1049,89,106,79,3,9,13
5.33E+02,-8194,1798,-1048,84,98,71,3,9,13
5.33E+02,-8197,1792,-1046,76,89,70,3,9,13
5.33E+02,-7933,1533,-1040,71,85,70,3,9,13
5.34E+02,-7928,1530,-1034,68,87,66,3,9,13
5.34E+02,-7929,1526,-1033,67,91,63,3,9,13
5.34E+02,-7934,1520,-1029,66,95,60,3,9,13
5.34E+02,-8200,1515,-1027,66,104,57,3,9,13
5.35E+02,-8196,1512,-766,68,101,64,3,9,13
5.35E+02,-8195,1508,-765,66,101,65,3,9,13
5.35E+02,-8200,1505,-761,59,109,59,3,9,13
5.35E+02,-8211,1496,-751,57,106,52,3,9,13
5.36E+02,-8211,1493,-742,66,95,54,3,9,13
5.36E+02,-8202,1496,-752,77,87,62,3,9,13
5.36E+02,-8195,1505,-758,85,90,73,3,9,13
5.36E+02,-8193,1507,-762,83,107,82,3,9,13
5.37E+02,-7932,1506,-760,80,121,88,3,9,13
5.37E+02,-7935,1510,-755,78,127,90,3,9,13
5.37E+02,-8199,1509,-754,78,-127,88,3,9,13
5.37E+02,-8206,1520,-766,79,121,87,3,9,13
5.38E+02,-8199,1528,-763,80,112,90,3,9,13
5.38E+02,-8196,1528,-766,74,110,94,3,9,13
5.38E+02,-8193,1532,-1031,68,110,99,3,9,13
5.38E+02,-8196,1532,-1029,57,116,100,3,9,13
5.39E+02,-8200,1529,-765,50,119,101,3,9,13
5.39E+02,-8196,1533,-764,52,116,101,3,9,13
5.39E+02,-8198,1796,-1025,53,116,97,3,9,13
5.39E+02,-8201,1804,-1027,51,120,93,3,9,13
5.40E+02,-8198,1812,-1038,47,126,91,3,9,13
5.40E+02,-8196,1811,-1040,40,-121,84,3,9,13
5.40E+02,-7936,1805,-1041,32,-114,73,3,9,13
5.40E+02,-7936,1796,-1043,30,-108,57,3,9,13
5.41E+02,-8214,1798,-1036,32,-106,42,3,9,13
5.41E+02,-8219,1795,-1034,35,-117,40,3,9,13
5.41E+02,-8209,1533,-1037,31,125,38,3,9,13
5.41E+02,-8202,1524,-1031,20,113,40,3,9,13
5.42E+02,-8201,1512,-1034,14,103,36,3,9,13
5.42E+02,-8213,1504,-1027,18,94,36,3,9,13
5.42E+02,-8212,1507,-1034,33,79,48,3,9,13
5.42E+02,-8199,1517,-1042,48,80,66,3,9,13
5.43E+02,-8194,1525,-1041,56,89,80,3,9,13
5.43E+02,-7932,1526,-1046,55,102,83,3,9,13
5.43E+02,-7934,1529,-1041,51,108,77,3,9,13
5.43E+02,-8196,1528,-1033,49,108,69,3,9,13
5.44E+02,-8202,1526,-1025,43,104,64,3,9,13
5.44E+02,-7936,1519,-1030,40,92,62,3,9,13
5.44E+02,-7924,1517,-1033,34,93,57,3,9,13
5.44E+02,-7921,1514,-1033,32,102,55,3,9,13
5.45E+02,-7929,1508,-763,37,112,60,3,9,13
5.45E+02,-7934,1507,-761,44,122,69,3,9,13
5.45E+02,-8200,1508,-752,57,-123,80,3,9,13
5.45E+02,-7934,1511,-753,60,-126,91,3,9,13
5.46E+02,-7927,1514,-753,56,-120,95,3,9,13
5.46E+02,-7933,1522,-759,43,-112,88,3,9,13
5.46E+02,-8202,1519,-757,37,-112,85,3,9,13
5.46E+02,-8200,1526,-764,36,-116,83,3,9,13
5.47E+02,-8197,1532,-1025,33,-116,88,3,9,13
5.47E+02,-8195,1534,-1025,31,-113,91,3,9,13
5.47E+02,-8193,1530,-1029,28,-103,91,3,9,13
5.47E+02,-8205,1528,-1035,27,-101,85,3,9,13
5.48E+02,-8214,1533,-1032,36,-113,75,3,9,13
5.48E+02,-8214,1531,-1033,42,125,67,3,9,13
5.48E+02,-8210,1531,-1034,50,111,62,3,9,13
5.48E+02,-8201,1526,-1036,54,105,59,3,9,13
5.49E+02,-8198,1529,-1031,56,104,59,3,9,13
5.49E+02,-8195,1528,-1028,58,105,62,3,9,13
5.49E+02,-7929,1534,-1028,61,102,66,3,9,13
5.49E+02,-7928,1797,-1027,60,106,70,3,9,13
5.50E+02,-7929,1795,-1029,51,116,72,3,9,13
5.50E+02,-7930,1792,-1027,43,122,74,3,9,13
5.50E+02,-7932,1535,-1031,40,126,74,3,9,13
5.50E+02,-8194,1532,-1035,37,-120,75,3,9,13
5.51E+02,-8207,1794,-1041,34,-114,76,3,9,13
5.51E+02,-8208,1794,-1043,32,-112,78,3,9,13
5.51E+02,-8213,1789,-1038,30,-112,74,3,9,13
5.51E+02,-8201,1535,-1043,34,-116,69,3,9,13
5.52E+02,-8200,1532,-1043,37,-113,55,3,9,13
5.52E+02,-8215,1798,-1043,41,-115,43,3,9,13
5.52E+02,-8207,1804,-1052,38,120,43,3,9,13
5.52E+02,-8205,1799,-1048,24,113,41,3,9,13
5.53E+02,-8198,1523,-1035,15,96,43,3,9,13
5.53E+02,-8220,1516,-1031,14,82,41,3,9,13
5.53E+02,-8232,1514,-768,20,71,55,3,9,13
5.53E+02,-8224,1532,-1041,40,53,73,3,9,13
5.54E+02,-8211,1796,-1044,48,62,86,3,9,13
5.54E+02,-8196,1800,-1049,50,71,90,3,9,13
5.54E+02,-7926,1805,-1030,48,82,83,3,9,13
5.54E+02,-7932,1806,-1027,44,88,70,3,9,13
5.55E+02,-7928,1810,-768,40,86,59,3,9,13
5.55E+02,-7926,1810,-1026,32,85,54,3,9,13
5.55E+02,-7920,1799,-1025,23,91,51,3,9,13
5.55E+02,-7927,1797,-765,18,104,46,3,9,13
5.56E+02,-8196,1531,-764,10,115,42,3,9,13
5.56E+02,-8195,1517,-762,12,119,42,3,9,13
5.56E+02,-8200,1515,-764,14,-128,38,3,9,13
5.56E+02,-7934,1523,-1027,14,-128,44,3,9,13
5.57E+02,-7924,1513,-1026,11,-126,44,3,9,13
5.57E+02,-7935,1503,-764,8,-118,36,3,9,13
5.57E+02,-8200,1495,-752,6,-121,34,3,9,13
5.57E+02,-8202,1495,-746,15,-126,39,3,9,13
5.58E+02,-8198,1495,-754,27,126,46,3,9,13
5.58E+02,-8201,1497,-1025,35,-128,54,3,9,13
5.58E+02,-8209,1503,-1028,38,-124,60,3,9,13
5.58E+02,-8209,1511,-1027,39,-128,65,3,9,13
5.59E+02,-8214,1511,-1031,35,118,68,3,9,13
5.59E+02,-8211,1513,-1026,32,109,70,3,9,13
5.59E+02,-8203,1510,-1030,33,102,70,3,9,13
5.59E+02,-8201,1511,-768,32,103,70,3,9,13
5.60E+02,-8200,1515,-767,37,99,73,3,9,13
5.60E+02,-8194,1516,-758,44,98,76,3,9,13
5.60E+02,-8194,1513,-761,46,100,77,3,9,13
5.60E+02,-7936,1523,-759,53,99,76,3,9,13
5.61E+02,-8193,1794,-764,56,99,72,3,9,13
5.61E+02,-8194,1799,-765,46,108,70,3,9,13
5.61E+02,-8200,1804,-768,36,115,72,3,9,13
5.61E+02,-8203,1799,-762,26,123,70,3,9,13
5.62E+02,-8198,1533,-763,21,-125,62,3,9,13
5.62E+02,-7933,1534,-762,25,-126,48,3,9,13
5.62E+02,-8208,1532,-1026,25,-121,30,3,9,13
5.62E+02,-8219,1789,-1030,30,125,22,3,9,13
5.63E+02,-8210,1524,-1030,29,110,21,3,9,13
5.63E+02,-8195,1520,-1029,26,102,24,3,9,13
5.63E+02,-7936,1507,-758,21,100,16,3,9,13
5.63E+02,-8231,1501,-748,18,110,8,3,9,13
5.64E+02,-8228,1503,-753,26,98,14,3,9,13
5.64E+02,-8218,1507,-760,37,82,30,3,9,13
5.64E+02,-8207,1509,-765,35,87,44,3,9,13
5.64E+02,-8193,1507,-763,32,94,50,3,9,13
5.65E+02,-7929,1503,-772,25,102,46,3,9,13
5.65E+02,-7932,1490,-764,22,105,36,3,9,13
5.65E+02,-8199,1492,-761,21,102,27,3,9,13
5.65E+02,-7932,1487,-761,24,93,30,3,9,13
5.66E+02,-7929,1485,-762,24,91,37,3,9,13
5.66E+02,-7919,1476,-750,30,95,45,3,9,13
5.66E+02,-7926,1467,-750,32,106,52,3,9,13
5.66E+02,-7932,1468,-757,39,116,56,3,9,13
5.67E+02,-8204,1472,-757,50,126,60,3,9,13
5.67E+02,-7931,1475,-758,57,127,69,3,9,13
5.67E+02,-7930,1477,-753,59,-122,69,3,9,13
5.67E+02,-8205,1473,-753,51,-113,63,3,9,13
5.68E+02,-8214,1470,-752,53,-125,65,3,9,13
5.68E+02,-8212,1470,-754,64,123,70,3,9,13
5.68E+02,-8204,1479,-768,72,117,80,3,9,13
5.68E+02,-8197,1486,-1027,73,123,88,3,9,13
5.69E+02,-8202,1490,-1028,69,-123,92,3,9,13
5.69E+02,-8206,1494,-1027,71,-119,90,3,9,13
5.69E+02,-8208,1498,-764,74,-124,88,3,9,13
5.69E+02,-8208,1502,-768,79,118,80,3,9,13
5.70E+02,-8209,1511,-766,83,107,77,3,9,13
5.70E+02,-8202,1510,-1027,83,102,81,3,9,13
5.70E+02,-8204,1511,-1029,85,98,85,3,9,13
5.70E+02,-8202,1518,-1030,86,96,88,3,9,13
5.71E+02,-8206,1516,-1025,86,94,91,3,9,13
5.71E+02,-8201,1519,-763,89,90,97,3,9,13
5.71E+02,-8197,1523,-764,91,87,101,3,9,13
5.71E+02,-7936,1524,-1029,85,92,102,3,9,13
5.72E+02,-7932,1533,-1041,81,100,98,3,9,13
5.72E+02,-7934,1793,-1039,72,112,94,3,9,13
5.72E+02,-7933,1532,-766,62,122,89,3,9,13
5.72E+02,-8200,1525,-1025,59,-128,77,3,9,13
5.73E+02,-8215,1526,-763,62,126,70,3,9,13
5.73E+02,-8205,1523,-766,57,111,68,3,9,13
5.73E+02,-8202,1517,-765,55,102,66,3,9,13
5.73E+02,-8195,1505,-767,47,92,62,3,9,13
5.74E+02,-8202,1494,-753,48,86,52,3,9,13
5.74E+02,-8229,1495,-743,57,79,50,3,9,13
5.74E+02,-8226,1499,-747,75,65,63,3,9,13
5.74E+02,-8209,1507,-751,85,67,80,3,9,13
5.75E+02,-8202,1512,-750,83,83,91,3,9,13
5.75E+02,-8193,1514,-749,74,101,89,3,9,13
5.75E+02,-8196,1515,-752,67,106,82,3,9,13
5.75E+02,-8197,1518,-755,61,99,76,3,9,13
5.76E+02,-7936,1513,-749,50,92,73,3,9,13
5.76E+02,-7924,1509,-754,44,95,73,3,9,13
5.76E+02,-7917,1504,-746,37,108,76,3,9,13
5.76E+02,-7923,1498,-743,33,122,81,3,9,13
5.77E+02,-7934,1495,-736,39,-122,90,3,9,13
5.77E+02,-8199,1496,-738,45,-113,99,3,9,13
5.77E+02,-8193,1498,-745,50,-109,114,3,9,13
5.77E+02,-7926,1500,-753,47,-99,117,3,9,13
5.78E+02,-8195,1498,-747,41,-84,114,3,9,13
5.78E+02,-8199,1496,-750,37,-86,114,3,9,13
5.78E+02,-8202,1509,-759,43,-90,118,3,9,13
5.78E+02,-8197,1512,-1031,41,-89,122,3,9,13
5.79E+02,-8194,1519,-1043,39,-86,126,3,9,13
5.79E+02,-8197,1528,-1044,34,-82,127,3,9,13
5.79E+02,-8208,1530,-1038,29,-79,121,3,9,13
5.79E+02,-8214,1530,-1038,33,-86,111,3,9,13
5.80E+02,-8221,1796,-1035,43,-101,98,3,9,13
5.80E+02,-8217,1798,-1040,55,-115,85,3,9,13
5.80E+02,-8209,1797,-1040,65,-127,75,3,9,13
5.80E+02,-8204,1804,-1049,74,123,69,3,9,13
5.81E+02,-8206,1809,-1048,79,120,67,3,9,13
5.81E+02,-8201,1812,-1058,81,116,65,3,9,13
5.81E+02,-8199,1809,-1054,74,112,60,3,9,13
5.81E+02,-8195,1808,-1042,64,104,55,3,9,13
5.82E+02,-7936,1802,-1035,57,95,52,3,9,13
5.82E+02,-7927,1799,-1031,54,92,55,3,9,13
5.82E+02,-7927,1797,-1038,52,94,59,3,9,13
5.82E+02,-7931,1796,-1040,52,98,64,3,9,13
5.83E+02,-7932,1795,-1044,55,101,67,3,9,13
5.83E+02,-7931,1532,-1046,58,104,65,3,9,13
5.83E+02,-7930,1528,-1037,60,105,54,3,9,13
5.83E+02,-8195,1526,-1045,64,112,41,3,9,13
5.84E+02,-8212,1533,-1050,62,112,34,3,9,13
5.84E+02,-8206,1532,-1051,58,96,38,3,9,13
5.84E+02,-8196,1526,-1042,47,91,44,3,9,13
5.84E+02,-8197,1515,-1037,37,82,48,3,9,13
5.85E+02,-8211,1502,-762,36,74,53,3,9,13
5.85E+02,-8215,1503,-755,48,59,64,3,9,13
5.85E+02,-8194,1514,-758,62,48,85,3,9,13
5.85E+02,-7926,1527,-759,63,64,101,3,9,13
5.86E+02,-7918,1528,-766,55,85,111,3,9,13
5.86E+02,-7920,1528,-767,52,107,113,3,9,13
5.86E+02,-7928,1535,-761,53,127,105,3,9,13
5.86E+02,-8193,1534,-760,55,-123,96,3,9,13
5.87E+02,-7932,1796,-762,53,-125,86,3,9,13
5.87E+02,-7930,1796,-766,54,-127,79,3,9,13
5.87E+02,-7930,1799,-766,52,-125,72,3,9,13
5.87E+02,-8197,1797,-762,44,-119,70,3,9,13
5.88E+02,-8197,1795,-767,40,-121,69,3,9,13
5.88E+02,-8202,1799,-1029,39,-117,67,3,9,13
5.88E+02,-8201,1801,-1033,33,-123,72,3,9,13
5.88E+02,-8193,1802,-1031,25,-126,74,3,9,13
5.89E+02,-7935,1797,-1030,19,-121,70,3,9,13
5.89E+02,-8201,1532,-1029,17,-124,66,3,9,13
5.89E+02,-8199,1534,-1027,29,125,62,3,9,13
5.89E+02,-7935,1795,-1035,36,123,69,3,9,13
5.90E+02,-7936,1801,-1050,39,-128,74,3,9,13
5.90E+02,-8201,1807,-1040,38,-116,79,3,9,13
5.90E+02,-8208,1809,-1040,35,-110,83,3,9,13
5.90E+02,-8221,1806,-1038,34,-119,84,3,9,13
5.91E+02,-8218,1805,-1047,36,118,82,3,9,13
5.91E+02,-8212,1807,-1034,36,97,77,3,9,13
5.91E+02,-8204,1801,-1030,38,89,71,3,9,13
5.91E+02,-7935,1800,-1030,40,85,68,3,9,13
5.92E+02,-7935,1796,-1029,39,98,65,3,9,13
5.92E+02,-7936,1796,-766,41,102,65,3,9,13
5.92E+02,-7928,1534,-768,45,102,65,3,9,13
5.92E+02,-7931,1798,-1035,46,108,62,3,9,13
5.93E+02,-7929,1797,-1031,39,114,58,3,9,13
5.93E+02,-7927,1798,-1039,35,117,57,3,9,13
5.93E+02,-7927,1807,-1043,33,126,56,3,9,13
5.93E+02,-7933,1806,-1035,21,-122,58,3,9,13
5.94E+02,-8199,1795,-1036,14,-119,61,3,9,13
5.94E+02,-8201,1535,-1037,12,-118,60,3,9,13
5.94E+02,-8196,1520,-1033,11,-121,56,3,9,13
5.94E+02,-8198,1519,-1030,23,-120,46,3,9,13
5.95E+02,-8216,1522,-764,39,-119,42,3,9,13
5.95E+02,-8207,1527,-764,47,118,47,3,9,13
5.95E+02,-8197,1529,-1028,47,103,53,3,9,13
5.95E+02,-7921,1526,-1026,41,89,60,3,9,13
5.96E+02,-8207,1524,-756,25,94,60,3,9,13
5.96E+02,-8220,1531,-757,28,83,72,3,9,13
5.96E+02,-8198,1804,-765,29,78,86,3,9,13
5.96E+02,-8195,1813,-1031,19,97,94,3,9,13
5.97E+02,-8195,1812,-765,8,107,94,3,9,13
5.97E+02,-7936,1810,-768,5,110,84,3,9,13
5.97E+02,-8195,1812,-1026,8,107,68,3,9,13
5.97E+02,-8195,1821,-1025,8,102,48,3,9,13
5.98E+02,-8195,1821,-764,4,96,36,3,9,13
5.98E+02,-7923,1816,-760,-262,96,28,3,9,13
5.98E+02,-7926,1812,-758,-275,108,19,3,9,13
5.98E+02,-7933,1806,-751,-282,121,13,3,9,13
5.99E+02,-7935,1795,-749,-282,127,13,3,9,13
5.99E+02,-8197,1532,-747,-278,-121,8,3,9,13
5.99E+02,-7932,1532,-757,-270,-121,12,3,9,13
5.99E+02,-7917,1522,-764,-271,-118,8,3,9,13
6.00E+02,-7929,1509,-767,-276,-105,-260,3,9,13
6.00E+02,-8209,1496,-761,-274,-104,-261,3,9,13
6.00E+02,-8218,1489,-764,-259,-120,0,3,9,13
6.00E+02,-8210,1488,-1028,13,120,14,3,9,13
6.01E+02,-8199,1484,-1040,24,116,25,3,9,13
6.01E+02,-8197,1492,-1039,35,121,33,3,9,13
6.01E+02,-8200,1491,-1033,34,124,38,3,9,13
6.01E+02,-8202,1487,-1029,33,120,38,3,9,13
6.02E+02,-8207,1484,-1029,38,112,39,3,9,13
6.02E+02,-8206,1478,-765,42,96,44,3,9,13
6.02E+02,-8197,1473,-763,47,85,50,3,9,13
6.02E+02,-8197,1473,-763,51,82,60,3,9,13
6.03E+02,-7935,1470,-755,56,82,69,3,9,13
6.03E+02,-7933,1470,-747,68,87,73,3,9,13
6.03E+02,-8193,1476,-748,73,86,80,3,9,13
6.03E+02,-7932,1485,-753,84,84,90,3,9,13
6.04E+02,-7935,1504,-753,95,91,97,3,9,13
6.04E+02,-7936,1508,-760,95,102,108,3,9,13
6.04E+02,-8196,1512,-763,93,112,115,3,9,13
6.04E+02,-8193,1518,-761,92,120,118,3,9,13
6.05E+02,-7934,1516,-763,87,-127,112,3,9,13
6.05E+02,-8199,1512,-765,87,-120,95,3,9,13
6.05E+02,-8219,1523,-760,94,-121,82,3,9,13
6.05E+02,-8215,1531,-766,93,109,80,3,9,13
6.06E+02,-8207,1530,-765,87,96,74,3,9,13
6.06E+02,-8199,1517,-764,80,82,72,3,9,13
6.06E+02,-8221,1513,-747,76,75,64,3,9,13
6.06E+02,-8240,1512,-746,82,69,65,3,9,13
6.07E+02,-8232,1522,-753,101,48,77,3,9,13
6.07E+02,-8224,1531,-759,117,36,93,3,9,13
6.07E+02,-8217,1533,-757,124,33,104,3,9,13
6.07E+02,-8207,1535,-754,-125,26,101,3,9,13
6.08E+02,-8201,1796,-747,-117,20,91,3,9,13
6.08E+02,-8196,1803,-746,-113,15,79,3,9,13
6.08E+02,-8193,1812,-740,-122,9,69,3,9,13
6.08E+02,-7928,1813,-740,119,12,61,3,9,13
6.09E+02,-7924,1796,-738,94,23,55,3,9,13
6.09E+02,-7924,1532,-728,73,43,46,3,9,13
6.09E+02,-7934,1515,-710,55,62,43,3,9,13
6.09E+02,-7936,1503,-694,48,82,39,3,9,13
6.10E+02,-7936,1501,-700,49,95,45,3,9,13
6.10E+02,-7934,1499,-702,49,105,52,3,9,13
6.10E+02,-7925,1497,-701,47,121,55,3,9,13
6.10E+02,-8201,1489,-700,43,-121,55,3,9,13
6.11E+02,-8211,1487,-703,51,-124,61,3,9,13
6.11E+02,-8207,1492,-705,61,-128,69,3,9,13
6.11E+02,-8201,1498,-707,67,-124,79,3,9,13
6.11E+02,-8204,1501,-719,64,-111,87,3,9,13
6.12E+02,-8210,1504,-722,61,-99,95,3,9,13
6.12E+02,-8221,1506,-727,59,-94,101,3,9,13
6.12E+02,-8236,1509,-728,71,-106,105,3,9,13
6.12E+02,-8230,1518,-747,91,124,109,3,9,13
6.13E+02,-8242,1510,-746,92,112,107,3,9,13
6.13E+02,-8232,1516,-754,117,84,115,3,9,13
6.13E+02,-8221,1520,-758,-123,71,117,3,9,13
6.13E+02,-8224,1508,-748,-111,65,120,3,9,13
6.14E+02,-8215,1519,-753,-93,53,112,3,9,13
6.14E+02,-8215,1522,-751,-83,41,105,3,9,13
6.14E+02,-8216,1792,-755,-81,27,97,3,9,13
6.14E+02,-8209,1809,-752,-88,21,90,3,9,13
6.15E+02,-8202,1815,-750,-112,25,91,3,9,13
6.15E+02,-8203,1816,-754,118,31,90,3,9,13
6.15E+02,-8208,1810,-746,94,40,90,3,9,13
6.15E+02,-8196,1800,-735,75,44,90,3,9,13
6.16E+02,-7931,1528,-716,67,55,83,3,9,13
6.16E+02,-8202,1526,-709,74,70,71,3,9,13
6.16E+02,-8210,1525,-710,84,70,66,3,9,13
6.16E+02,-8208,1525,-711,91,68,60,3,9,13
6.17E+02,-8210,1522,-710,93,65,53,3,9,13
6.17E+02,-8213,1519,-700,94,57,44,3,9,13
6.17E+02,-8249,1517,-696,92,41,30,3,9,13
6.17E+02,-8249,1528,-710,102,20,37,3,9,13
6.18E+02,-8242,1795,-706,106,15,50,3,9,13
6.18E+02,-8228,1535,-712,99,21,59,3,9,13
6.18E+02,-8223,1531,-702,92,28,58,3,9,13
6.18E+02,-8225,1525,-692,91,33,55,3,9,13
6.19E+02,-8229,1524,-684,98,30,50,3,9,13
6.19E+02,-8221,1518,-670,100,19,44,3,9,13
6.19E+02,-8203,1518,-662,103,12,38,3,9,13
6.19E+02,-8193,1510,-661,100,22,33,3,9,13
6.20E+02,-7930,1511,-653,92,37,30,3,9,13
6.20E+02,-7931,1509,-649,84,56,33,3,9,13
6.20E+02,-7931,1505,-646,74,83,41,3,9,13
6.20E+02,-8198,1506,-648,61,103,53,3,9,13
6.21E+02,-7933,1507,-651,44,121,65,3,9,13
6.21E+02,-7929,1508,-652,24,-116,70,3,9,13
6.21E+02,-8202,1500,-643,1,-97,70,3,9,13
6.21E+02,-8213,1502,-647,-269,-93,69,3,9,13
6.22E+02,-8219,1501,-654,-275,-89,70,3,9,13
6.22E+02,-8218,1498,-659,-277,-84,73,3,9,13
6.22E+02,-8220,1501,-666,-273,-73,75,3,9,13
6.22E+02,-8220,1500,-665,-266,-65,76,3,9,13
6.23E+02,-8234,1503,-666,-259,-58,75,3,9,13
6.23E+02,-8243,1502,-675,14,-65,68,3,9,13
6.23E+02,-8240,1505,-682,28,-82,58,3,9,13
6.23E+02,-8232,1509,-692,35,-96,47,3,9,13
6.24E+02,-8220,1526,-705,38,-101,42,3,9,13
6.24E+02,-8216,1532,-717,30,-101,43,3,9,13
6.24E+02,-8212,1533,-716,18,-102,47,3,9,13
6.24E+02,-8217,1533,-706,9,-107,54,3,9,13
6.25E+02,-8218,1530,-711,5,-114,63,3,9,13
6.25E+02,-8217,1533,-713,-258,-120,71,3,9,13
6.25E+02,-8207,1535,-709,-257,-125,77,3,9,13
6.25E+02,-8204,1535,-711,0,-125,80,3,9,13
6.26E+02,-8212,1793,-705,4,-117,81,3,9,13
6.26E+02,-8222,1534,-705,12,-116,80,3,9,13
6.26E+02,-8229,1532,-710,20,-116,75,3,9,13
6.26E+02,-8222,1530,-711,28,-118,67,3,9,13
6.27E+02,-8214,1524,-705,37,-117,51,3,9,13
6.27E+02,-8231,1526,-702,43,-111,31,3,9,13
6.27E+02,-8233,1530,-702,40,-120,22,3,9,13
6.27E+02,-8219,1530,-703,26,124,13,3,9,13
6.28E+02,-8209,1516,-702,6,118,9,3,9,13
6.28E+02,-8212,1503,-695,-263,112,0,3,9,13
6.28E+02,-8239,1493,-686,-268,107,-259,3,9,13
6.28E+02,-8244,1483,-685,-257,91,12,3,9,13
6.29E+02,-8225,1493,-703,9,89,28,3,9,13
6.29E+02,-8205,1492,-702,8,103,45,3,9,13
6.29E+02,-8198,1493,-703,9,111,42,3,9,13
6.29E+02,-8211,1491,-704,9,122,35,3,9,13
6.30E+02,-8215,1488,-693,7,122,29,3,9,13
6.30E+02,-8212,1486,-699,7,117,28,3,9,13
6.30E+02,-8206,1485,-705,7,116,32,3,9,13
6.30E+02,-8198,1489,-701,5,122,39,3,9,13
6.31E+02,-8208,1481,-705,4,-126,47,3,9,13
6.31E+02,-8210,1475,-692,9,-122,58,3,9,13
6.31E+02,-8216,1468,-691,15,-118,65,3,9,13
6.31E+02,-8228,1475,-687,26,-121,74,3,9,13
6.32E+02,-8211,1478,-696,36,123,80,3,9,13
6.32E+02,-8207,1477,-695,36,-127,74,3,9,13
6.32E+02,-8222,1477,-687,33,-128,67,3,9,13
6.32E+02,-8228,1481,-688,42,117,63,3,9,13
6.33E+02,-8223,1484,-703,48,111,63,3,9,13
6.33E+02,-8224,1494,-703,46,117,63,3,9,13
6.33E+02,-8229,1498,-707,38,124,64,3,9,13
6.33E+02,-8238,1500,-703,37,125,63,3,9,13
6.34E+02,-8232,1496,-698,34,117,56,3,9,13
6.34E+02,-8225,1500,-698,34,105,44,3,9,13
6.34E+02,-8219,1506,-710,36,95,37,3,9,13
6.34E+02,-8211,1501,-711,34,91,34,3,9,13
6.35E+02,-8208,1499,-702,29,96,35,3,9,13
6.35E+02,-8204,1487,-690,24,105,40,3,9,13
6.35E+02,-8207,1473,-681,25,112,44,3,9,13
6.35E+02,-8207,1469,-678,34,115,45,3,9,13
6.36E+02,-8201,1468,-683,42,114,45,3,9,13
6.36E+02,-8199,1473,-694,53,116,46,3,9,13
6.36E+02,-8205,1484,-694,51,124,48,3,9,13
6.36E+02,-8214,1484,-704,45,-124,51,3,9,13
6.37E+02,-8221,1482,-701,40,-125,47,3,9,13
6.37E+02,-8227,1474,-698,37,126,42,3,9,13
6.37E+02,-8223,1469,-700,37,122,32,3,9,13
6.37E+02,-8232,1466,-705,43,127,20,3,9,13
6.38E+02,-8237,1460,-701,49,115,25,3,9,13
6.38E+02,-8228,1455,-707,55,103,29,3,9,13
6.38E+02,-8225,1444,-697,62,91,37,3,9,13
6.38E+02,-8206,1436,-689,69,77,37,3,9,13
6.39E+02,-8228,1427,-678,81,79,35,3,9,13
6.39E+02,-8248,1439,-679,100,61,45,3,9,13
6.39E+02,-8232,1453,-692,114,48,61,3,9,13
6.39E+02,-8225,1469,-696,112,61,80,3,9,13
6.40E+02,-8222,1483,-704,100,72,95,3,9,13
6.40E+02,-8213,1482,-689,86,82,100,3,9,13
6.40E+02,-8219,1480,-685,74,88,99,3,9,13
6.40E+02,-8224,1483,-672,67,85,94,3,9,13
6.41E+02,-8216,1489,-668,62,78,97,3,9,13
6.41E+02,-8205,1494,-674,59,72,98,3,9,13
6.41E+02,-8199,1496,-676,51,81,96,3,9,13
6.41E+02,-8204,1494,-679,45,95,90,3,9,13
6.42E+02,-8205,1495,-680,38,109,84,3,9,13
6.42E+02,-8215,1497,-676,35,126,75,3,9,13
6.42E+02,-8219,1498,-681,34,-120,71,3,9,13
6.42E+02,-8213,1496,-680,30,-113,67,3,9,13
6.43E+02,-8207,1485,-684,22,-99,58,3,9,13
6.43E+02,-8225,1469,-670,16,-91,48,3,9,13
6.43E+02,-8236,1464,-665,28,-99,45,3,9,13
6.43E+02,-8232,1468,-683,49,-111,48,3,9,13
6.44E+02,-8227,1475,-686,55,-113,54,3,9,13
6.44E+02,-8226,1482,-689,50,-109,62,3,9,13
6.44E+02,-8224,1482,-697,39,-106,64,3,9,13
6.44E+02,-8225,1483,-687,40,-112,63,3,9,13
6.45E+02,-8225,1473,-692,38,-121,58,3,9,13
6.45E+02,-8222,1465,-693,37,127,56,3,9,13
6.45E+02,-8225,1462,-689,41,121,59,3,9,13
6.45E+02,-8223,1462,-692,44,117,64,3,9,13
6.46E+02,-8220,1459,-696,46,117,73,3,9,13
6.46E+02,-8222,1458,-690,53,117,80,3,9,13
6.46E+02,-8221,1458,-685,58,113,83,3,9,13
6.46E+02,-8219,1456,-692,70,105,87,3,9,13
6.47E+02,-8220,1467,-693,78,103,93,3,9,13
6.47E+02,-8224,1479,-693,80,110,104,3,9,13
6.47E+02,-8229,1488,-695,77,117,113,3,9,13
6.47E+02,-8223,1489,-698,68,120,116,3,9,13
6.48E+02,-8216,1489,-694,65,122,112,3,9,13
6.48E+02,-8212,1487,-692,64,124,100,3,9,13
6.48E+02,-8224,1498,-685,65,-125,83,3,9,13
6.48E+02,-8231,1506,-691,65,-128,74,3,9,13
6.49E+02,-8218,1511,-695,53,119,67,3,9,13
6.49E+02,-8218,1506,-685,39,117,66,3,9,13
6.49E+02,-8214,1493,-692,28,110,61,3,9,13
6.49E+02,-8236,1482,-684,23,104,58,3,9,13
6.50E+02,-8240,1483,-685,37,90,66,3,9,13
6.50E+02,-8229,1495,-693,50,86,80,3,9,13
6.50E+02,-8215,1496,-706,49,99,96,3,9,13
6.50E+02,-8208,1501,-700,45,114,96,3,9,13
6.51E+02,-8207,1506,-688,40,123,87,3,9,13
6.51E+02,-8216,1509,-679,42,123,73,3,9,13
6.51E+02,-8223,1511,-685,42,116,59,3,9,13
6.51E+02,-8217,1507,-684,41,107,55,3,9,13
6.52E+02,-8210,1507,-690,39,101,50,3,9,13
6.52E+02,-8205,1508,-693,32,108,46,3,9,13
6.52E+02,-8216,1503,-697,25,121,44,3,9,13
6.52E+02,-8217,1498,-696,17,-128,45,3,9,13
6.53E+02,-8222,1500,-686,8,-117,53,3,9,13
6.53E+02,-8216,1490,-688,2,-119,57,3,9,13
6.53E+02,-8209,1480,-686,-258,-116,53,3,9,13
6.53E+02,-8219,1465,-681,-260,-111,48,3,9,13
6.54E+02,-8223,1455,-682,6,-114,50,3,9,13
6.54E+02,-8225,1455,-681,20,-118,55,3,9,13
6.54E+02,-8228,1462,-686,32,-123,66,3,9,13
6.54E+02,-8224,1463,-696,41,-120,76,3,9,13
6.55E+02,-8222,1470,-699,47,-112,82,3,9,13
6.55E+02,-8225,1474,-699,53,-113,88,3,9,13
6.55E+02,-8229,1481,-703,56,-117,93,3,9,13
6.55E+02,-8230,1487,-707,56,127,96,3,9,13
6.56E+02,-8224,1491,-713,55,117,98,3,9,13
6.56E+02,-8222,1496,-710,49,115,99,3,9,13
6.56E+02,-8217,1493,-705,40,115,100,3,9,13
6.56E+02,-8216,1492,-709,39,115,94,3,9,13
6.57E+02,-8220,1494,-701,41,115,88,3,9,13
6.57E+02,-8213,1499,-708,44,115,83,3,9,13
6.57E+02,-8211,1506,-717,43,121,79,3,9,13
6.57E+02,-8219,1498,-715,40,124,78,3,9,13
6.58E+02,-8213,1502,-712,45,120,77,3,9,13
6.58E+02,-8217,1510,-709,45,122,76,3,9,13
6.58E+02,-8221,1520,-710,44,123,77,3,9,13
6.58E+02,-8218,1521,-714,42,126,79,3,9,13
6.59E+02,-8224,1519,-715,38,-125,77,3,9,13
6.59E+02,-8218,1506,-706,42,-126,70,3,9,13
6.59E+02,-8217,1502,-703,60,-119,57,3,9,13
6.59E+02,-8232,1522,-705,87,-111,45,3,9,13
6.60E+02,-8227,1520,-708,56,127,41,3,9,13
6.60E+02,-8223,1510,-703,32,125,45,3,9,13
6.60E+02,-8217,1496,-695,18,117,49,3,9,13
6.60E+02,-8224,1493,-690,20,105,44,3,9,13
6.61E+02,-8242,1486,-681,21,94,53,3,9,13
6.61E+02,-8239,1498,-692,38,73,72,3,9,13
6.61E+02,-8234,1512,-702,43,75,98,3,9,13
6.61E+02,-8224,1513,-705,38,84,113,3,9,13
6.62E+02,-8212,1516,-704,38,92,111,3,9,13
6.62E+02,-8204,1524,-682,37,100,102,3,9,13
6.62E+02,-8209,1526,-683,37,102,84,3,9,13
6.62E+02,-8201,1528,-681,35,94,62,3,9,13
6.63E+02,-8193,1533,-681,33,99,50,3,9,13
6.63E+02,-7932,1528,-688,27,112,42,3,9,13
6.63E+02,-8199,1524,-690,13,124,37,3,9,13
6.63E+02,-8204,1517,-690,5,-121,37,3,9,13
6.64E+02,-8214,1505,-686,2,-112,34,3,9,13
6.64E+02,-8207,1502,-681,1,-112,37,3,9,13
6.64E+02,-8202,1492,-692,-262,-111,29,3,9,13
6.64E+02,-8211,1481,-688,-265,-102,13,3,9,13
6.65E+02,-8224,1477,-690,-260,-109,-258,3,9,13
6.65E+02,-8229,1472,-698,8,-120,-264,3,9,13
6.65E+02,-8229,1477,-709,20,-127,-259,3,9,13
6.65E+02,-8231,1478,-713,22,-124,7,3,9,13
6.66E+02,-8230,1477,-717,25,-117,19,3,9,13
6.66E+02,-8238,1472,-723,23,-117,29,3,9,13
6.66E+02,-8242,1466,-717,25,-127,35,3,9,13
6.66E+02,-8235,1457,-718,29,116,43,3,9,13
6.67E+02,-8232,1459,-714,37,103,48,3,9,13
6.67E+02,-8221,1463,-713,44,92,56,3,9,13
6.67E+02,-8211,1473,-713,50,91,66,3,9,13
6.67E+02,-8211,1468,-712,52,97,78,3,9,13
6.68E+02,-8212,1469,-708,56,96,83,3,9,13
6.68E+02,-8218,1468,-706,60,94,89,3,9,13
6.68E+02,-8217,1479,-704,65,91,89,3,9,13
6.68E+02,-8218,1491,-704,67,88,90,3,9,13
6.69E+02,-8217,1497,-708,70,89,93,3,9,13
6.69E+02,-8217,1502,-711,67,94,97,3,9,13
6.69E+02,-8218,1505,-711,60,101,96,3,9,13
6.69E+02,-8217,1501,-705,53,104,91,3,9,13
6.70E+02,-8217,1497,-704,48,106,80,3,9,13
6.70E+02,-8220,1493,-697,48,107,61,3,9,13
6.70E+02,-8238,1490,-688,56,106,44,3,9,13
6.70E+02,-8229,1499,-690,63,85,39,3,9,13
6.71E+02,-8221,1500,-695,60,72,32,3,9,13
6.71E+02,-8205,1490,-687,53,63,26,3,9,13
6.71E+02,-8215,1479,-675,48,67,11,3,9,13
6.71E+02,-8253,1469,-663,49,72,3,3,9,13
6.72E+02,-8259,1475,-667,62,56,18,3,9,13
6.72E+02,-8241,1490,-676,69,51,37,3,9,13
6.72E+02,-8231,1495,-683,61,64,52,3,9,13
6.72E+02,-8220,1496,-687,50,77,56,3,9,13
6.73E+02,-8218,1489,-683,40,87,51,3,9,13
6.73E+02,-8218,1478,-677,33,92,44,3,9,13
6.73E+02,-8209,1477,-672,24,88,41,3,9,13
6.73E+02,-8201,1473,-669,21,90,44,3,9,13
6.74E+02,-8199,1462,-663,21,95,44,3,9,13
6.74E+02,-8200,1461,-658,24,102,43,3,9,13
6.74E+02,-8200,1453,-667,25,110,44,3,9,13
6.74E+02,-8208,1449,-658,29,122,42,3,9,13
6.75E+02,-8217,1449,-665,30,-125,46,3,9,13
6.75E+02,-8206,1441,-674,31,-124,50,3,9,13
6.75E+02,-8208,1436,-677,29,-104,45,3,9,13
6.75E+02,-8235,1429,-658,30,-98,44,3,9,13
6.76E+02,-8246,1432,-665,45,-114,50,3,9,13
6.76E+02,-8237,1436,-676,56,-127,63,3,9,13
6.76E+02,-8228,1442,-680,63,126,74,3,9,13
6.76E+02,-8225,1446,-677,63,-123,79,3,9,13
6.77E+02,-8231,1445,-686,61,-122,81,3,9,13
6.77E+02,-8234,1440,-688,65,-128,77,3,9,13
6.77E+02,-8233,1447,-685,70,117,71,3,9,13
6.77E+02,-8234,1449,-693,76,108,67,3,9,13
6.78E+02,-8230,1450,-701,79,102,70,3,9,13
6.78E+02,-8227,1450,-697,79,100,80,3,9,13
6.78E+02,-8228,1450,-693,80,101,87,3,9,13
6.78E+02,-8228,1449,-692,84,101,93,3,9,13
6.79E+02,-8224,1451,-678,95,93,98,3,9,13
6.79E+02,-8220,1466,-682,103,84,98,3,9,13
6.79E+02,-8215,1471,-685,109,85,98,3,9,13
6.79E+02,-8212,1481,-695,109,93,101,3,9,13
6.80E+02,-8216,1488,-692,102,104,102,3,9,13
6.80E+02,-8220,1487,-696,97,107,101,3,9,13
6.80E+02,-8215,1491,-690,89,111,96,3,9,13
6.80E+02,-8220,1484,-679,84,117,86,3,9,13
6.81E+02,-8237,1490,-678,89,119,70,3,9,13
6.81E+02,-8242,1492,-682,87,105,69,3,9,13
6.81E+02,-8236,1492,-683,82,92,68,3,9,13
6.81E+02,-8221,1487,-682,73,86,68,3,9,13
6.82E+02,-8227,1466,-670,60,83,60,3,9,13
6.82E+02,-8238,1468,-664,59,81,62,3,9,13
6.82E+02,-8236,1478,-671,63,80,81,3,9,13
6.82E+02,-8225,1491,-685,66,94,102,3,9,13
6.83E+02,-8209,1496,-690,58,112,114,3,9,13
6.83E+02,-8210,1492,-685,45,-125,112,3,9,13
6.83E+02,-8216,1488,-671,35,-119,96,3,9,13
6.83E+02,-8227,1494,-666,32,-122,80,3,9,13
6.84E+02,-8227,1492,-667,31,127,69,3,9,13
6.84E+02,-8218,1489,-670,30,120,64,3,9,13
6.84E+02,-8209,1482,-667,29,123,62,3,9,13
6.84E+02,-8213,1470,-663,29,-124,60,3,9,13
6.85E+02,-8220,1467,-673,36,-120,62,3,9,13
6.85E+02,-8221,1468,-668,43,-115,63,3,9,13
6.85E+02,-8220,1471,-667,46,-113,67,3,9,13
6.85E+02,-8215,1478,-672,45,-114,71,3,9,13
6.86E+02,-8217,1471,-674,33,-109,71,3,9,13
6.86E+02,-8228,1464,-671,25,-107,68,3,9,13
6.86E+02,-8233,1458,-671,27,-117,71,3,9,13
6.86E+02,-8233,1460,-677,33,-127,80,3,9,13
6.87E+02,-8223,1463,-685,38,124,89,3,9,13
6.87E+02,-8222,1464,-690,37,-124,95,3,9,13
6.87E+02,-8226,1467,-688,39,-111,98,3,9,13
6.87E+02,-8230,1466,-685,41,-108,102,3,9,13
6.88E+02,-8237,1470,-685,44,-115,105,3,9,13
6.88E+02,-8233,1475,-675,49,-127,106,3,9,13
6.88E+02,-8226,1483,-685,52,116,106,3,9,13
6.88E+02,-8221,1487,-682,53,111,105,3,9,13
6.89E+02,-8222,1487,-687,50,112,106,3,9,13
6.89E+02,-8218,1487,-679,52,112,104,3,9,13
6.89E+02,-8211,1491,-680,56,109,102,3,9,13
6.89E+02,-8210,1498,-690,60,111,99,3,9,13
6.90E+02,-8207,1503,-689,57,119,94,3,9,13
6.90E+02,-8201,1505,-686,52,125,88,3,9,13
6.90E+02,-8204,1515,-686,48,-125,83,3,9,13
6.90E+02,-8212,1516,-685,39,-119,82,3,9,13
6.91E+02,-8216,1517,-689,32,-113,83,3,9,13
6.91E+02,-8218,1519,-695,20,-106,85,3,9,13
6.91E+02,-8218,1517,-704,16,-101,81,3,9,13
6.91E+02,-8212,1507,-705,12,-104,73,3,9,13
6.92E+02,-8211,1498,-706,15,-101,56,3,9,13
6.92E+02,-8226,1505,-711,24,-99,43,3,9,13
6.92E+02,-8217,1501,-712,27,-115,41,3,9,13
6.92E+02,-8212,1492,-701,22,-125,37,3,9,13
6.93E+02,-8217,1480,-698,16,125,37,3,9,13
6.93E+02,-8228,1478,-698,17,113,40,3,9,13
6.93E+02,-8241,1475,-694,28,96,52,3,9,13
6.93E+02,-8235,1482,-707,44,88,72,3,9,13
6.94E+02,-8225,1490,-715,44,93,88,3,9,13
6.94E+02,-8214,1495,-719,42,102,94,3,9,13
6.94E+02,-8217,1492,-712,40,112,88,3,9,13
6.94E+02,-8224,1498,-703,43,111,80,3,9,13
6.95E+02,-8229,1505,-696,45,103,77,3,9,13
6.95E+02,-8221,1500,-694,47,89,78,3,9,13
6.95E+02,-8203,1492,-690,51,82,74,3,9,13
6.95E+02,-8198,1488,-691,54,85,68,3,9,13
6.96E+02,-8201,1486,-690,55,93,64,3,9,13
6.96E+02,-8202,1489,-690,57,102,65,3,9,13
6.96E+02,-8210,1486,-687,56,111,71,3,9,13
6.96E+02,-8209,1494,-687,60,113,82,3,9,13
6.97E+02,-8201,1494,-702,61,116,88,3,9,13
6.97E+02,-8205,1489,-701,57,121,88,3,9,13
6.97E+02,-8224,1482,-692,57,126,83,3,9,13
6.97E+02,-8236,1472,-690,61,120,83,3,9,13
6.98E+02,-8235,1477,-696,69,116,90,3,9,13
6.98E+02,-8229,1491,-699,75,113,93,3,9,13
6.98E+02,-8217,1501,-705,74,119,97,3,9,13
