timestamp,ax,ay,az,gx,gy,gz,Label1,Label2,Label3
1.62E+00,-6697,-3788,4118,-721,227,227,1,7,11
1.87E+00,-6666,-3811,4114,-1037,235,254,1,7,11
2.12E+00,-6379,-3837,4111,-1069,247,513,1,7,11
2.37E+00,-6358,-4125,3837,-1084,513,227,1,7,11
2.62E+00,-6341,-4134,3776,-1079,529,172,1,7,11
2.87E+00,-6333,-4147,3723,-1103,565,359,1,7,11
3.12E+00,-6354,-4155,3933,-1129,615,289,1,7,11
3.37E+00,-6395,-4169,3888,-1143,416,-20,1,7,11
3.62E+00,-6694,-4185,3844,-1143,456,-44,1,7,11
3.87E+00,-6739,-4207,3565,-1138,484,-47,1,7,11
4.12E+00,-6771,-3977,3528,-1113,491,-38,1,7,11
4.37E+00,-6553,-3985,3493,-1060,494,-27,1,7,11
4.62E+00,-6609,-3997,3480,-750,492,262,1,7,11
4.87E+00,-6626,-3996,3463,-669,462,310,1,7,11
5.12E+00,-6637,-4004,3689,-856,431,346,1,7,11
5.37E+00,-6626,-4019,3682,-779,395,375,1,7,11
5.62E+00,-6614,-4035,3666,-429,622,375,1,7,11
5.87E+00,-6617,-4037,3648,-579,606,346,1,7,11
6.12E+00,-6616,-4027,3623,-203,581,301,1,7,11
6.37E+00,-6636,-4016,3604,-352,568,-11,1,7,11
6.62E+00,-6922,-3984,3323,14,543,-54,1,7,11
6.87E+00,-6958,-4196,3282,-82,226,-97,1,7,11
7.12E+00,-6968,-4182,3263,-27,188,-113,1,7,11
7.37E+00,-6985,-4166,3245,280,161,-124,1,7,11
7.62E+00,-6989,-4148,3234,318,378,125,1,7,11
7.87E+00,-6998,-4129,3226,342,347,116,1,7,11
8.12E+00,-6999,-4110,3229,357,315,111,1,7,11
8.37E+00,-6999,-3825,3228,371,285,106,1,7,11
8.62E+00,-6997,-3805,3225,371,257,106,1,7,11
8.87E+00,-6995,-3772,3234,375,-17,107,1,7,11
9.12E+00,-7007,-3764,3251,361,-20,103,1,7,11
9.37E+00,-7022,-3751,3264,360,-37,89,1,7,11
9.62E+00,-6786,-3750,3283,356,-49,80,1,7,11
9.87E+00,-6793,-3771,3316,350,-83,75,1,7,11
1.01E+01,-7035,-3777,3325,372,120,56,1,7,11
1.04E+01,-7023,-3793,3597,129,63,25,1,7,11
1.06E+01,-7004,-3788,3594,149,-258,-267,1,7,11
1.09E+01,-6968,-3785,3308,149,-320,-308,1,7,11
1.11E+01,-6933,-3792,3275,133,-357,-362,1,7,11
1.14E+01,-6919,-3827,3276,347,-371,-165,1,7,11
1.16E+01,-6656,-4105,3284,333,-372,-219,1,7,11
1.19E+01,-6646,-4123,3289,330,-373,-524,1,7,11
1.21E+01,-6641,-4127,3288,344,-359,-560,1,7,11
1.24E+01,-6655,-4129,3313,374,-332,-576,1,7,11
1.26E+01,-6942,-4130,3604,183,-305,-568,1,7,11
1.29E+01,-6971,-4107,3628,250,-284,-536,1,7,11
1.31E+01,-6992,-3825,3667,575,-270,-230,1,7,11
1.34E+01,-7009,-3796,3711,636,-267,-176,1,7,11
1.36E+01,-7001,-3771,3479,434,-284,-375,1,7,11
1.39E+01,-6982,-3761,3508,472,-317,-334,1,7,11
1.41E+01,-6949,-3765,3536,498,-360,-315,1,7,11
1.44E+01,-6922,-3766,3544,778,-146,-308,1,7,11
1.46E+01,-6628,-3778,3541,786,-193,-302,1,7,11
1.49E+01,-6584,-3784,3538,777,-234,-317,1,7,11
1.51E+01,-6545,-3804,3531,484,-254,-343,1,7,11
1.54E+01,-6775,-3824,3543,443,-246,-376,1,7,11
1.56E+01,-6778,-4106,3570,415,-221,-144,1,7,11
1.59E+01,-6549,-4118,3852,418,-196,-160,1,7,11
1.61E+01,-6562,-3839,3862,450,-171,-159,1,7,11
1.64E+01,-6569,-3793,3861,485,-144,-143,1,7,11
1.66E+01,-6573,-3735,3867,769,-364,-371,1,7,11
1.69E+01,-6585,-3944,3904,776,-325,-332,1,7,11
1.71E+01,-6591,-3924,3942,770,-308,-288,1,7,11
1.74E+01,-6599,-3924,3720,774,-305,-259,1,7,11
1.76E+01,-6606,-3925,3756,784,-313,7,1,7,11
1.79E+01,-6597,-3908,3767,801,-330,6,1,7,11
1.81E+01,-6583,-3883,3764,794,-345,-270,1,7,11
1.84E+01,-6571,-3872,3765,505,-348,-297,1,7,11
1.86E+01,-6560,-3869,3775,458,-353,-329,1,7,11
1.89E+01,-6567,-3888,3802,408,-358,-379,1,7,11
1.91E+01,-6572,-3897,3806,384,-383,-177,1,7,11
1.94E+01,-6563,-3904,3806,619,-159,-242,1,7,11
1.96E+01,-6564,-3899,3814,564,-235,-629,1,7,11
1.99E+01,-6559,-3907,4117,516,-545,-438,1,7,11
2.01E+01,-6679,-3837,4354,411,-1028,-924,1,7,11
2.04E+01,-6349,-3835,4083,453,-1125,-1291,1,7,11
2.06E+01,-6293,-3812,4080,447,-922,-1366,1,7,11
2.09E+01,-6524,-3827,4376,638,-947,-1376,1,7,11
2.11E+01,-6485,-4103,4447,559,-964,-1319,1,7,11
2.14E+01,-6445,-4141,4262,251,-976,-953,1,7,11
2.16E+01,-6101,-4156,4345,184,-998,-676,1,7,11
2.19E+01,-6041,-4142,4623,135,-1010,-788,1,7,11
2.21E+01,-6221,-4132,4640,305,-1006,-407,1,7,11
2.24E+01,-6169,-4117,4644,-64,-970,-561,1,7,11
2.26E+01,-5859,-4107,4726,-193,-1067,-322,1,7,11
2.29E+01,-5849,-4112,4493,-549,-767,23,1,7,11
2.31E+01,-6155,-4058,4888,-232,-525,133,1,7,11
2.34E+01,-6164,-4037,4911,-130,-186,179,1,7,11
2.36E+01,-5887,-4114,4969,338,-102,141,1,7,11
2.39E+01,-5874,-3817,4955,370,-61,347,1,7,11
2.41E+01,-5877,-3776,4941,372,-13,288,1,7,11
2.44E+01,-5888,-3750,4941,348,290,-22,1,7,11
2.46E+01,-6165,-3737,4936,313,326,-68,1,7,11
2.49E+01,-6174,-3728,4931,265,351,-106,1,7,11
2.51E+01,-6180,-3733,4926,-42,376,115,1,7,11
2.54E+01,-6205,-3728,4928,-89,140,89,1,7,11
2.56E+01,-6221,-3732,4921,123,159,75,1,7,11
2.59E+01,-6260,-3751,4914,94,182,79,1,7,11
2.61E+01,-6032,-3774,4903,80,185,96,1,7,11
2.64E+01,-6042,-3793,4885,98,175,121,1,7,11
2.66E+01,-6047,-3805,4871,115,167,-119,1,7,11
2.69E+01,-6047,-3797,4599,-116,158,-107,1,7,11
2.71E+01,-6045,-3789,4576,-100,153,-107,1,7,11
2.74E+01,-6052,-3781,4563,-86,150,-110,1,7,11
2.76E+01,-6067,-3777,4547,-78,140,-117,1,7,11
2.79E+01,-6089,-3767,4544,-76,380,-121,1,7,11
2.81E+01,-6098,-3755,4527,-79,351,-122,1,7,11
2.84E+01,-6111,-3751,4522,-99,328,-121,1,7,11
2.86E+01,-6125,-3746,4506,-120,297,-110,1,7,11
2.89E+01,-6129,-3749,4502,116,268,-101,1,7,11
2.91E+01,-6130,-3754,4508,101,-15,-92,1,7,11
2.94E+01,-6123,-3759,4510,93,-34,-90,1,7,11
2.96E+01,-6120,-3767,4500,89,-49,-90,1,7,11
2.99E+01,-6110,-3772,4504,99,-72,-94,1,7,11
3.01E+01,-6104,-3766,4492,110,-94,-105,1,7,11
3.04E+01,-6093,-3762,4492,109,-118,-125,1,7,11
3.06E+01,-6098,-3755,4498,98,-121,114,1,7,11
3.09E+01,-6120,-3752,4517,77,-127,97,1,7,11
3.11E+01,-6131,-3744,4529,65,112,90,1,7,11
3.14E+01,-6123,-3736,4522,57,93,102,1,7,11
3.16E+01,-6111,-3729,4526,45,83,111,1,7,11
3.19E+01,-6099,-3735,4529,30,79,123,1,7,11
3.21E+01,-6096,-3735,4540,19,84,126,1,7,11
3.24E+01,-6094,-3728,4539,20,91,122,1,7,11
3.26E+01,-6086,-3729,4537,21,105,118,1,7,11
3.29E+01,-6091,-3743,4540,17,116,108,1,7,11
3.31E+01,-6100,-3747,4543,22,125,95,1,7,11
3.34E+01,-6105,-3748,4550,34,-126,79,1,7,11
3.36E+01,-6107,-3732,4539,52,126,68,1,7,11
3.39E+01,-6110,-3717,4528,52,123,60,1,7,11
3.41E+01,-6114,-3965,4526,36,120,55,1,7,11
3.44E+01,-6114,-3955,4526,20,113,50,1,7,11
3.46E+01,-6112,-3959,4512,-267,103,47,1,7,11
3.49E+01,-6095,-3723,4525,-299,87,46,1,7,11
3.51E+01,-6085,-3757,4537,-320,82,35,1,7,11
3.54E+01,-6070,-3775,4527,-310,71,18,1,7,11
3.56E+01,-6063,-3785,4516,-299,77,-265,1,7,11
3.59E+01,-6067,-3789,4517,-282,95,-286,1,7,11
3.61E+01,-6082,-3783,4521,-267,112,-295,1,7,11
3.64E+01,-6091,-3781,4526,6,123,-291,1,7,11
3.66E+01,-6105,-3777,4534,16,127,-279,1,7,11
3.69E+01,-6108,-3766,4540,26,115,-259,1,7,11
3.71E+01,-6102,-3759,4542,27,91,15,1,7,11
3.74E+01,-6082,-3752,4517,19,64,25,1,7,11
3.76E+01,-6063,-3756,4511,-263,51,22,1,7,11
3.79E+01,-6049,-3757,4505,-288,49,18,1,7,11
3.81E+01,-6044,-3775,4515,-312,62,19,1,7,11
3.84E+01,-6040,-3795,4520,-320,81,21,1,7,11
3.86E+01,-6039,-3819,4522,-303,108,20,1,7,11
3.89E+01,-6044,-3836,4512,-263,-126,13,1,7,11
3.91E+01,-6054,-3836,4498,33,-109,0,1,7,11
3.94E+01,-6073,-3840,4497,69,-99,-268,1,7,11
3.96E+01,-6082,-3822,4492,100,-107,-273,1,7,11
3.99E+01,-6099,-3815,4496,111,-113,-274,1,7,11
4.01E+01,-6115,-3802,4511,117,122,-265,1,7,11
4.04E+01,-6108,-3788,4510,127,94,8,1,7,11
4.06E+01,-6094,-3774,4524,124,71,23,1,7,11
4.09E+01,-6073,-3772,4531,106,54,34,1,7,11
4.11E+01,-6061,-3762,4540,88,49,35,1,7,11
4.14E+01,-6049,-3764,4541,69,47,29,1,7,11
4.16E+01,-6044,-3762,4544,50,56,23,1,7,11
4.19E+01,-6039,-3765,4552,26,66,27,1,7,11
4.21E+01,-6038,-3767,4555,11,80,35,1,7,11
4.24E+01,-6033,-3773,4552,-259,93,41,1,7,11
4.26E+01,-6027,-3779,4551,-263,104,47,1,7,11
4.29E+01,-6030,-3794,4544,-277,111,48,1,7,11
4.31E+01,-6030,-3812,4547,-292,110,45,1,7,11
4.34E+01,-6024,-3816,4545,-295,110,29,1,7,11
4.36E+01,-6036,-3818,4539,-291,113,15,1,7,11
4.39E+01,-6048,-3815,4539,-289,118,16,1,7,11
4.41E+01,-6058,-3829,4542,-280,124,34,1,7,11
4.44E+01,-6053,-3827,4533,1,124,55,1,7,11
4.46E+01,-6051,-3836,4531,8,123,66,1,7,11
4.49E+01,-6047,-3831,4518,21,119,71,1,7,11
4.51E+01,-6038,-4099,4525,30,119,76,1,7,11
4.54E+01,-6040,-3836,4522,50,127,72,1,7,11
4.56E+01,-6048,-3818,4526,61,-119,70,1,7,11
4.59E+01,-6055,-3808,4532,69,-97,80,1,7,11
4.61E+01,-6066,-3801,4533,80,-79,95,1,7,11
4.64E+01,-6068,-3791,4542,92,-69,115,1,7,11
4.66E+01,-6070,-3785,4535,98,-66,-127,1,7,11
4.69E+01,-6062,-3765,4526,103,-73,-124,1,7,11
4.71E+01,-6072,-3763,4525,68,-71,123,1,7,11
4.74E+01,-6080,-3769,4533,40,-91,117,1,7,11
4.76E+01,-6082,-3778,4531,18,-115,103,1,7,11
4.79E+01,-6080,-3773,4521,8,120,89,1,7,11
4.81E+01,-6064,-3777,4521,-263,111,73,1,7,11
4.84E+01,-6071,-3787,4515,-279,120,63,1,7,11
4.86E+01,-6065,-3809,4516,-293,122,57,1,7,11
4.89E+01,-6066,-3825,4507,-291,126,47,1,7,11
4.91E+01,-6066,-3829,4510,-284,-118,26,1,7,11
4.94E+01,-6087,-3831,4522,41,-102,17,1,7,11
4.96E+01,-6090,-3830,4514,56,-110,19,1,7,11
4.99E+01,-6088,-3821,4517,84,-122,19,1,7,11
5.01E+01,-6089,-3808,4519,107,119,20,1,7,11
5.04E+01,-6084,-3790,4526,104,100,23,1,7,11
5.06E+01,-6074,-3781,4522,94,80,31,1,7,11
5.09E+01,-6064,-3786,4520,78,70,36,1,7,11
5.11E+01,-6058,-3789,4533,70,71,42,1,7,11
5.14E+01,-6055,-3784,4533,70,75,45,1,7,11
5.16E+01,-6045,-3776,4533,60,92,50,1,7,11
5.19E+01,-6050,-3776,4544,45,106,56,1,7,11
5.21E+01,-6068,-3770,4547,15,117,71,1,7,11
5.24E+01,-6059,-3770,4536,4,108,81,1,7,11
5.26E+01,-6062,-3784,4532,-271,100,82,1,7,11
5.29E+01,-6057,-3798,4522,-286,84,79,1,7,11
5.31E+01,-6062,-3830,4535,-269,80,59,1,7,11
5.34E+01,-6059,-3826,4537,14,89,71,1,7,11
5.36E+01,-6049,-3825,4539,38,99,79,1,7,11
5.39E+01,-6052,-3825,4559,59,110,75,1,7,11
5.41E+01,-6057,-3819,4566,84,105,62,1,7,11
5.44E+01,-6050,-3805,4560,102,93,42,1,7,11
5.46E+01,-6045,-3799,4551,102,81,24,1,7,11
5.49E+01,-6033,-3793,4534,104,79,11,1,7,11
5.51E+01,-6029,-3791,4522,90,92,4,1,7,11
5.54E+01,-6038,-3806,4522,74,109,11,1,7,11
5.56E+01,-6039,-3817,4524,64,113,28,1,7,11
5.59E+01,-6036,-3825,4532,53,112,47,1,7,11
5.61E+01,-6043,-3837,4549,45,114,65,1,7,11
5.64E+01,-6047,-3824,4554,59,110,83,1,7,11
5.66E+01,-6067,-3775,4548,75,118,101,1,7,11
5.69E+01,-6090,-3735,4553,55,122,124,1,7,11
5.71E+01,-6113,-3958,4547,12,113,-112,1,7,11
5.74E+01,-6128,-3934,4550,-296,97,-103,1,7,11
5.76E+01,-6131,-3930,4555,-343,61,-104,1,7,11
5.79E+01,-6100,-3957,4556,-370,28,-114,1,7,11
5.81E+01,-6083,-3733,4548,-371,11,107,1,7,11
5.84E+01,-6072,-3775,4549,-358,18,80,1,7,11
5.86E+01,-6061,-3811,4561,-334,31,53,1,7,11
5.89E+01,-6055,-3833,4564,-300,38,24,1,7,11
5.91E+01,-6044,-4102,4554,-261,52,-260,1,7,11
5.94E+01,-6031,-4106,4540,28,67,-285,1,7,11
5.96E+01,-6024,-4106,4523,54,87,-310,1,7,11
5.99E+01,-6037,-4108,4522,70,100,-332,1,7,11
6.01E+01,-6045,-4132,4560,91,55,1,1,7,11
6.04E+01,-6026,-4128,4570,106,36,-259,1,7,11
6.06E+01,-6271,-4119,4596,-128,34,-276,1,7,11
6.09E+01,-6028,-3826,4605,-90,42,-288,1,7,11
6.11E+01,-6029,-3786,4605,-60,55,-282,1,7,11
6.14E+01,-6033,-3747,4602,-45,76,-269,1,7,11
6.16E+01,-6051,-3733,4879,-41,97,10,1,7,11
6.19E+01,-6025,-3730,4595,-39,94,30,1,7,11
6.21E+01,-6245,-3729,4573,-52,93,27,1,7,11
6.24E+01,-6215,-3757,4544,-99,102,-258,1,7,11
6.26E+01,-6198,-3819,4537,100,115,-302,1,7,11
6.29E+01,-6203,-4136,4539,55,-126,-354,1,7,11
6.31E+01,-6228,-4173,4545,30,-108,-144,1,7,11
6.34E+01,-6272,-4187,4571,42,-95,-153,1,7,11
6.36E+01,-6049,-4171,4587,72,-88,-375,1,7,11
6.39E+01,-6071,-4135,4891,109,-84,-305,1,7,11
6.41E+01,-6064,-4097,4909,-107,-91,29,1,7,11
6.44E+01,-6027,-3790,4901,-60,-106,85,1,7,11
6.46E+01,-6240,-3745,4882,-31,-104,116,1,7,11
6.49E+01,-6222,-3732,4605,-39,-87,114,1,7,11
6.51E+01,-6215,-3730,4579,-70,-75,95,1,7,11
6.54E+01,-6198,-3756,4569,120,-67,55,1,7,11
6.56E+01,-6219,-3803,4578,52,-46,6,1,7,11
6.59E+01,-6263,-3838,4586,16,-35,-289,1,7,11
6.61E+01,-6043,-3839,4872,21,-32,-302,1,7,11
6.64E+01,-6066,-4097,4885,42,-31,-283,1,7,11
6.66E+01,-6075,-3837,4892,84,-41,8,1,7,11
6.69E+01,-6067,-4090,4906,121,-52,32,1,7,11
6.71E+01,-6063,-3798,4900,-75,-67,38,1,7,11
6.74E+01,-6028,-3780,4887,-34,-85,26,1,7,11
6.76E+01,-6252,-3765,4587,-6,-98,13,1,7,11
6.79E+01,-6220,-3759,4541,-16,-93,-280,1,7,11
6.81E+01,-6187,-3771,4497,-47,-62,-310,1,7,11
6.84E+01,-6188,-3826,4505,-117,-43,-347,1,7,11
6.86E+01,-6223,-4138,4527,69,-10,-379,1,7,11
6.89E+01,-6026,-4153,4543,51,260,-149,1,7,11
6.91E+01,-6075,-4128,4552,72,257,-137,1,7,11
6.94E+01,-6114,-4105,4573,85,-14,-346,1,7,11
6.96E+01,-6121,-3821,4601,90,-70,-283,1,7,11
6.99E+01,-6101,-3775,4869,105,-119,19,1,7,11
7.01E+01,-6058,-3737,4604,117,97,55,1,7,11
7.04E+01,-6264,-3724,4584,92,69,74,1,7,11
7.06E+01,-6212,-3727,4551,40,57,64,1,7,11
7.09E+01,-6188,-3758,4524,-301,65,22,1,7,11
7.11E+01,-6194,-3818,4520,-130,86,-276,1,7,11
7.14E+01,-6217,-4147,4537,-182,107,-301,1,7,11
7.16E+01,-6251,-4187,4567,-175,-127,-299,1,7,11
7.19E+01,-6020,-4197,4579,-382,-109,-265,1,7,11
7.21E+01,-6042,-4189,4587,-314,-95,47,1,7,11
7.24E+01,-6035,-4172,4585,7,-97,101,1,7,11
7.26E+01,-6271,-4157,4581,53,-102,-128,1,7,11
7.29E+01,-6020,-4124,4580,91,-106,124,1,7,11
7.31E+01,-6026,-3828,4575,115,-115,109,1,7,11
7.34E+01,-6020,-3778,4547,-121,125,98,1,7,11
7.36E+01,-6253,-3767,4514,89,118,81,1,7,11
7.39E+01,-6232,-3796,4507,24,116,57,1,7,11
7.41E+01,-6220,-4108,4519,-308,118,9,1,7,11
7.44E+01,-6232,-4174,4545,-355,125,-303,1,7,11
7.46E+01,-6242,-4211,4565,-358,121,-355,1,7,11
7.49E+01,-6257,-3977,4587,-323,-127,-383,1,7,11
7.51E+01,-6024,-4219,4597,-259,-128,-129,1,7,11
7.54E+01,-6033,-4193,4591,54,120,-366,1,7,11
7.56E+01,-6041,-4157,4591,95,109,-332,1,7,11
7.59E+01,-6027,-4131,4605,118,94,-285,1,7,11
7.61E+01,-6249,-4119,4873,-127,78,24,1,7,11
7.64E+01,-6193,-4113,4583,126,54,63,1,7,11
7.66E+01,-6170,-4105,4551,97,58,65,1,7,11
7.69E+01,-6169,-4131,4555,29,79,59,1,7,11
7.71E+01,-6172,-4174,4588,-289,87,50,1,7,11
7.74E+01,-6165,-4221,4866,-309,80,42,1,7,11
7.76E+01,-6178,-3972,4880,-287,81,34,1,7,11
7.79E+01,-6195,-4215,4882,13,86,37,1,7,11
7.81E+01,-6223,-4179,4882,55,104,49,1,7,11
7.84E+01,-6237,-4149,4877,83,109,68,1,7,11
7.86E+01,-6191,-3802,4494,-90,-32,-111,1,7,11
7.89E+01,-6178,-3829,4733,121,258,122,1,7,11
7.91E+01,-6198,-4156,4493,70,287,74,1,7,11
7.94E+01,-6244,-4184,4509,76,302,19,1,7,11
7.96E+01,-6046,-4197,4541,100,306,-272,1,7,11
7.99E+01,-6113,-4189,4588,-103,302,-272,1,7,11
8.01E+01,-6419,-4141,4871,-20,275,15,1,7,11
8.04E+01,-6425,-3821,4871,323,-26,72,1,7,11
8.06E+01,-6117,-3741,4576,380,-65,125,1,7,11
8.09E+01,-6066,-3961,4561,373,-75,-111,1,7,11
8.11E+01,-6035,-3946,4554,341,-75,-122,1,7,11
8.14E+01,-6246,-3727,4537,277,-82,60,1,7,11
8.16E+01,-6232,-3771,4544,-86,-93,-266,1,7,11
8.19E+01,-6250,-3825,4562,122,-86,-331,1,7,11
8.21E+01,-6261,-4116,4579,109,-86,-360,1,7,11
8.24E+01,-6025,-4162,4872,109,-79,-371,1,7,11
8.26E+01,-6036,-4167,4873,-110,-85,-363,1,7,11
8.29E+01,-6054,-4143,4598,-77,-95,-348,1,7,11
8.31E+01,-6083,-4119,4866,-75,-100,-320,1,7,11
8.34E+01,-6102,-3835,4879,-46,-127,-271,1,7,11
8.36E+01,-6039,-3779,4565,-14,82,44,1,7,11
8.39E+01,-6213,-3789,4504,-61,69,79,1,7,11
8.41E+01,-6182,-4108,4498,112,106,69,1,7,11
8.44E+01,-6185,-4175,4509,41,-114,18,1,7,11
8.46E+01,-6238,-4220,4536,-258,-65,-299,1,7,11
8.49E+01,-6069,-4004,4603,-267,-24,-317,1,7,11
8.51E+01,-6139,-4017,4945,40,-11,-280,1,7,11
8.54E+01,-6431,-4002,4982,-89,-41,46,1,7,11
8.56E+01,-6136,-4181,4953,312,-103,119,1,7,11
8.59E+01,-6051,-4117,4899,142,115,-91,1,7,11
8.61E+01,-6208,-3817,4593,150,103,-92,1,7,11
8.64E+01,-5865,-3799,4541,368,117,112,1,7,11
8.66E+01,-5850,-4112,4543,-30,-54,-326,1,7,11
8.69E+01,-5867,-4135,4551,-50,-8,-136,1,7,11
8.71E+01,-6190,-4153,4586,-62,375,-287,1,7,11
8.74E+01,-6186,-4132,4565,-84,372,-300,1,7,11
8.76E+01,-6218,-4097,4566,-123,133,-292,1,7,11
8.79E+01,-6254,-3802,4555,111,155,20,1,7,11
8.81E+01,-6047,-3772,4559,104,187,119,1,7,11
8.84E+01,-6069,-3736,4535,126,208,-11,1,7,11
8.86E+01,-6060,-3726,4495,-117,222,351,1,7,11
8.89E+01,-6048,-3730,4714,-121,245,152,1,7,11
8.91E+01,-6064,-3746,4692,124,528,153,1,7,11
8.94E+01,-6110,-3748,4681,121,548,371,1,7,11
8.96E+01,-6440,-3745,4671,-122,551,323,1,7,11
8.99E+01,-6275,-3745,4650,-77,537,294,1,7,11
9.01E+01,-6340,-3716,4622,-1,239,288,1,7,11
9.04E+01,-6351,-3938,4294,314,188,292,1,7,11
9.06E+01,-6372,-3919,4249,325,174,293,1,7,11
9.09E+01,-6387,-3907,4227,315,170,286,1,7,11
9.11E+01,-6658,-3887,4235,309,182,269,1,7,11
9.14E+01,-6393,-3849,4475,310,182,-2,1,7,11
9.16E+01,-6373,-3570,4461,287,173,-19,1,7,11
9.19E+01,-6341,-3575,4441,-23,147,-52,1,7,11
9.21E+01,-6336,-3854,4436,-92,364,-101,1,7,11
9.24E+01,-6319,-3873,4408,89,302,97,1,7,11
9.26E+01,-6337,-3917,4392,-263,263,56,1,7,11
9.29E+01,-6352,-3718,4398,-359,-46,50,1,7,11
9.31E+01,-6341,-3787,4397,-192,-125,68,1,7,11
9.34E+01,-6322,-4100,4392,-527,42,87,1,7,11
9.36E+01,-6518,-4133,4367,-612,-315,109,1,7,11
9.39E+01,-6456,-4188,4356,-478,-146,110,1,7,11
9.41E+01,-6409,-3981,4085,-849,-226,98,1,7,11
9.44E+01,-6139,-4027,4077,-703,-549,71,1,7,11
9.46E+01,-6130,-4061,4087,-1049,-617,55,1,7,11
9.49E+01,-6130,-4359,4374,-1125,-423,67,1,7,11
9.51E+01,-6132,-4397,4433,-1148,-485,91,1,7,11
9.54E+01,-6110,-4373,4461,-1121,-814,-127,1,7,11
9.56E+01,-6094,-4083,4456,-1085,-860,-72,1,7,11
9.59E+01,-6062,-4035,4452,-1073,-891,258,1,7,11
9.61E+01,-6026,-4016,4245,-1102,-660,334,1,7,11
9.64E+01,-6040,-4021,4331,-897,-673,129,1,7,11
9.66E+01,-6111,-3995,4675,-1147,-724,227,1,7,11
9.69E+01,-6402,-4208,4497,-1062,-767,580,1,7,11
9.71E+01,-6418,-4167,4569,-716,-1067,466,1,7,11
9.74E+01,-6139,-4118,4886,-868,-1114,864,1,7,11
9.76E+01,-6101,-3813,4945,-510,-1140,715,1,7,11
9.79E+01,-6043,-3749,4989,-404,-898,1031,1,7,11
9.81E+01,-6021,-3938,4784,-570,-1129,1038,1,7,11
9.84E+01,-6269,-3850,4807,-219,-1091,1036,1,7,11
9.86E+01,-6262,-3522,4857,-160,-1048,1026,1,7,11
9.89E+01,-6247,-3464,5164,-131,-750,748,1,7,11
9.91E+01,-6235,-3666,5210,-375,-705,706,1,7,11
9.94E+01,-6245,-3621,5007,-379,-662,890,1,7,11
9.96E+01,-6245,-3312,5033,-374,-885,822,1,7,11
9.99E+01,-6168,-3246,5016,-137,-819,451,1,7,11
1.00E+02,-5883,-3277,4996,-194,-503,630,1,7,11
1.00E+02,-6090,-3679,5204,-146,-129,-107,1,7,11
1.01E+02,-6107,-3649,5172,-338,-340,-81,1,7,11
1.01E+02,-6203,-3508,5163,-124,-167,88,1,7,11
1.01E+02,-6177,-3535,5155,102,-202,-281,1,7,11
1.01E+02,-6154,-3896,5158,58,-534,-139,1,7,11
1.02E+02,-6158,-3915,5168,42,-517,-372,1,7,11
1.02E+02,-5811,-3910,5179,89,-213,111,1,7,11
1.02E+02,-5792,-3910,5173,75,-184,122,1,7,11
1.02E+02,-5808,-3900,5179,67,-142,122,1,7,11
1.03E+02,-5830,-3892,5189,57,-356,-119,1,7,11
1.03E+02,-6195,-3545,5029,-52,14,345,1,7,11
1.03E+02,-6201,-3484,5027,260,42,375,1,7,11
1.03E+02,-6216,-3689,5041,292,79,143,1,7,11
1.04E+02,-6216,-3663,5056,309,-123,159,1,7,11
1.04E+02,-6208,-3632,5062,322,-85,151,1,7,11
1.04E+02,-6194,-3603,5061,331,-48,375,1,7,11
1.04E+02,-6180,-3594,5059,318,-16,323,1,7,11
1.05E+02,-6175,-3319,5043,288,269,-4,1,7,11
1.05E+02,-6187,-3317,5037,-22,296,-79,1,7,11
1.05E+02,-6218,-3317,5038,-73,314,119,1,7,11
1.05E+02,-6247,-3587,5025,-123,310,78,1,7,11
1.06E+02,-6271,-3606,5007,93,295,60,1,7,11
1.06E+02,-6017,-3622,5238,52,274,58,1,7,11
1.06E+02,-6265,-3646,5212,15,-7,65,1,7,11
1.06E+02,-6270,-3679,5210,-271,-19,71,1,7,11
1.07E+02,-6265,-3696,5184,-280,-31,84,1,7,11
1.07E+02,-6269,-3468,5171,-282,-28,103,1,7,11
1.07E+02,-6026,-3498,5173,-260,-20,123,1,7,11
1.07E+02,-6264,-3515,5158,44,-24,-121,1,7,11
1.08E+02,-6259,-3519,5155,94,-8,122,1,7,11
1.08E+02,-6268,-3507,5151,-117,272,98,1,7,11
1.08E+02,-6039,-3500,5171,-82,290,69,1,7,11
1.08E+02,-6058,-3484,5186,-44,295,43,1,7,11
1.09E+02,-6067,-3710,5178,263,293,21,1,7,11
1.09E+02,-6044,-3684,5146,281,283,-265,1,7,11
1.09E+02,-6045,-3685,5143,270,285,-304,1,7,11
1.09E+02,-6045,-3691,5139,-9,271,-350,1,7,11
1.10E+02,-6051,-3458,5156,-44,-16,-142,1,7,11
1.10E+02,-6043,-3471,5165,-57,-63,-183,1,7,11
1.10E+02,-6053,-3481,5176,-77,-106,-214,1,7,11
1.10E+02,-6050,-3461,5176,-69,104,-205,1,7,11
1.11E+02,-6039,-3457,5180,-84,75,-169,1,7,11
1.11E+02,-6022,-3712,5189,-100,60,-371,1,7,11
1.11E+02,-6260,-3459,5209,-128,50,-323,1,7,11
1.11E+02,-6258,-3711,5211,104,32,-287,1,7,11
1.12E+02,-6239,-3701,5218,89,9,-265,1,7,11
1.12E+02,-6225,-3686,5215,68,3,11,1,7,11
1.12E+02,-6222,-3673,5220,56,20,36,1,7,11
1.12E+02,-6215,-3668,5216,60,56,73,1,7,11
1.13E+02,-6220,-3670,5204,60,100,104,1,7,11
1.13E+02,-6220,-3680,5208,50,-122,125,1,7,11
1.13E+02,-6240,-3708,5228,34,-111,126,1,7,11
1.13E+02,-6268,-3463,5003,23,120,104,1,7,11
1.14E+02,-6019,-3697,5014,25,26,69,1,7,11
1.14E+02,-6257,-3681,5014,23,-264,52,1,7,11
1.14E+02,-6224,-3669,4998,9,-312,55,1,7,11
1.14E+02,-6197,-3675,4996,4,-320,56,1,7,11
1.15E+02,-6176,-3703,4997,-270,-294,62,1,7,11
1.15E+02,-6165,-3476,5014,-268,2,54,1,7,11
1.15E+02,-6173,-3488,5024,5,47,35,1,7,11
1.15E+02,-6194,-3469,5044,53,85,21,1,7,11
1.16E+02,-6207,-3706,5058,78,105,28,1,7,11
1.16E+02,-6224,-3680,5068,102,107,45,1,7,11
1.16E+02,-6229,-3659,5063,122,96,60,1,7,11
1.16E+02,-6236,-3612,5051,-127,97,68,1,7,11
1.17E+02,-6161,-3666,5232,-383,113,111,1,7,11
1.17E+02,-6171,-3462,5239,-171,-121,64,1,7,11
1.17E+02,-6211,-3485,5245,-168,-85,14,1,7,11
1.17E+02,-6263,-3474,5245,-132,-54,-269,1,7,11
1.18E+02,-6070,-3699,5244,-352,-30,-273,1,7,11
1.18E+02,-6117,-3663,5238,-309,-24,14,1,7,11
1.18E+02,-6129,-3614,5229,-266,-40,56,1,7,11
1.18E+02,-6116,-3589,5216,3,-67,100,1,7,11
1.19E+02,-6075,-3327,5193,-259,-102,121,1,7,11
1.19E+02,-6033,-3610,5187,-296,113,107,1,7,11
1.19E+02,-6248,-3642,5182,-329,74,63,1,7,11
1.19E+02,-6212,-3684,5176,-132,40,-267,1,7,11
1.20E+02,-6200,-3486,5195,-188,14,-341,1,7,11
1.20E+02,-6180,-3542,5197,-217,-272,-144,1,7,11
1.20E+02,-6170,-3579,5194,-225,-292,-181,1,7,11
1.20E+02,-6148,-3874,5190,-221,-306,-185,1,7,11
1.21E+02,-5877,-3907,5200,-217,-305,-173,1,7,11
1.21E+02,-5857,-3943,5203,-202,-300,-150,1,7,11
1.21E+02,-5836,-3953,5190,-165,-287,-132,1,7,11
1.21E+02,-5823,-3945,5191,-384,9,-372,1,7,11
1.22E+02,-5848,-3924,5203,-342,79,-338,1,7,11
1.22E+02,-5865,-3914,5215,-296,-111,-284,1,7,11
1.22E+02,-6153,-3903,5235,17,-52,22,1,7,11
1.22E+02,-6206,-3879,5239,92,-3,58,1,7,11
1.23E+02,-6264,-3561,4997,-91,275,87,1,7,11
1.23E+02,-6266,-3479,5227,-34,262,-125,1,7,11
1.23E+02,-6248,-3681,5180,-34,-16,-89,1,7,11
1.23E+02,-6226,-3679,5165,-91,-36,-76,1,7,11
1.24E+02,-6205,-3711,5154,93,-56,-96,1,7,11
1.24E+02,-6196,-3488,5141,14,-82,112,1,7,11
1.24E+02,-6206,-3546,5167,-324,-108,60,1,7,11
1.24E+02,-6214,-3580,5180,-348,123,24,1,7,11
1.25E+02,-6232,-3844,5191,-336,122,9,1,7,11
1.25E+02,-6018,-3845,5203,-287,-111,25,1,7,11
1.25E+02,-6040,-3548,5201,47,-85,64,1,7,11
1.25E+02,-6055,-3495,5196,118,-51,117,1,7,11
1.26E+02,-6038,-3461,5190,-103,-37,-85,1,7,11
1.26E+02,-6265,-3705,5208,-89,-40,-69,1,7,11
1.26E+02,-6229,-3710,5188,-89,-63,-96,1,7,11
1.26E+02,-6206,-3470,5190,-117,-83,92,1,7,11
1.27E+02,-6191,-3478,5179,80,-114,6,1,7,11
1.27E+02,-6176,-3521,5161,13,113,-335,1,7,11
1.27E+02,-6169,-3543,5151,-279,95,-151,1,7,11
1.27E+02,-6203,-3866,5154,-316,113,-190,1,7,11
1.28E+02,-6217,-3897,5162,-308,127,-185,1,7,11
1.28E+02,-6231,-3913,5180,-281,-128,-384,1,7,11
1.28E+02,-6237,-3905,5188,20,124,-356,1,7,11
1.28E+02,-6208,-3882,5193,69,90,-295,1,7,11
1.29E+02,-6200,-3856,5200,85,57,16,1,7,11
1.29E+02,-6176,-3571,5192,73,18,56,1,7,11
1.29E+02,-6139,-3569,5187,23,-291,77,1,7,11
1.29E+02,-5853,-3862,5203,-373,-376,62,1,7,11
1.30E+02,-5852,-3866,5204,-158,-143,44,1,7,11
1.30E+02,-5882,-3879,5208,-369,121,-37,1,7,11
1.30E+02,-6179,-3852,5206,-333,-109,-47,1,7,11
1.30E+02,-6231,-3561,5210,-317,-113,-48,1,7,11
1.31E+02,-6018,-3532,5214,-301,126,-18,1,7,11
1.31E+02,-6271,-3517,5213,-289,104,279,1,7,11
1.31E+02,-6244,-3513,5210,-273,96,311,1,7,11
1.31E+02,-6213,-3501,5200,0,111,316,1,7,11
1.32E+02,-6195,-3498,5199,16,-112,299,1,7,11
1.32E+02,-6195,-3498,5208,24,-67,266,1,7,11
1.32E+02,-6193,-3491,5196,46,-26,-18,1,7,11
1.32E+02,-6182,-3494,5181,56,266,-50,1,7,11
1.33E+02,-6187,-3520,5183,59,306,-85,1,7,11
1.33E+02,-6203,-3525,5172,78,338,-126,1,7,11
1.33E+02,-6233,-3531,5159,100,368,94,1,7,11
1.33E+02,-6255,-3529,5148,119,383,76,1,7,11
1.34E+02,-6269,-3528,5126,-121,381,65,1,7,11
1.34E+02,-6034,-3531,4860,-115,375,50,1,7,11
1.34E+02,-6064,-3528,4854,-107,356,35,1,7,11
1.34E+02,-6089,-3524,5121,-104,326,22,1,7,11
1.35E+02,-6102,-3522,5139,-82,291,21,1,7,11
1.35E+02,-6096,-3518,5143,-49,261,30,1,7,11
1.35E+02,-6069,-3494,5141,-11,-12,36,1,7,11
1.35E+02,-6042,-3474,5130,257,-13,27,1,7,11
1.36E+02,-6027,-3469,5141,-14,-10,-257,1,7,11
1.36E+02,-6020,-3470,5154,-39,-27,-296,1,7,11
1.36E+02,-6026,-3460,5164,-58,-52,-340,1,7,11
1.36E+02,-6055,-3688,5153,-70,-70,-377,1,7,11
1.37E+02,-6086,-3658,5145,-101,-82,-129,1,7,11
1.37E+02,-6096,-3630,5123,121,-97,-365,1,7,11
1.37E+02,-6104,-3642,5129,57,-116,-331,1,7,11
1.37E+02,-6081,-3676,5125,-260,101,-307,1,7,11
1.38E+02,-6042,-3480,5122,-308,51,-316,1,7,11
1.38E+02,-6262,-3520,4857,-334,9,-345,1,7,11
1.38E+02,-6224,-3559,4850,-362,-274,-129,1,7,11
1.38E+02,-6204,-3849,4850,-377,-266,-162,1,7,11
1.39E+02,-6205,-3871,4862,-372,14,-186,1,7,11
1.39E+02,-6237,-3876,5140,-340,60,-194,1,7,11
1.39E+02,-6019,-3855,5149,-279,91,-177,1,7,11
1.39E+02,-6045,-3550,5166,40,112,-134,1,7,11
1.40E+02,-6052,-3512,5167,82,122,-322,1,7,11
1.40E+02,-6046,-3490,5178,100,112,-257,1,7,11
1.40E+02,-6252,-3480,5156,103,71,39,1,7,11
1.40E+02,-6177,-3539,5134,61,32,33,1,7,11
1.41E+02,-5862,-3850,4858,1,13,-279,1,7,11
1.41E+02,-5833,-3886,4857,-324,20,-372,1,7,11
1.41E+02,-5851,-3928,4855,-369,45,-215,1,7,11
1.41E+02,-5888,-3947,5132,-129,72,-527,1,7,11
1.42E+02,-6176,-3952,5141,-370,90,-523,1,7,11
1.42E+02,-6219,-3946,5146,-342,105,-220,1,7,11
1.42E+02,-6254,-3935,5150,-303,103,-146,1,7,11
1.42E+02,-6271,-3909,5166,-267,95,-326,1,7,11
1.43E+02,-6234,-3872,5143,42,77,50,1,7,11
1.43E+02,-6164,-3584,4838,79,50,110,1,7,11
1.43E+02,-5859,-3858,4811,74,56,126,1,7,11
1.43E+02,-5850,-3903,4812,28,95,102,1,7,11
1.44E+02,-5864,-3949,4835,-263,110,78,1,7,11
1.44E+02,-6154,-3723,4863,-278,-117,31,1,7,11
1.44E+02,-6203,-3729,5132,2,-92,-8,1,7,11
1.44E+02,-6244,-3960,5142,62,-80,-268,1,7,11
1.45E+02,-6017,-3918,5141,-116,-76,-259,1,7,11
1.45E+02,-6029,-3880,5133,-42,-85,1,1,7,11
1.45E+02,-6032,-3536,4832,302,-69,5,1,7,11
1.45E+02,-6046,-3495,4845,367,-26,20,1,7,11
1.46E+02,-6028,-3513,5134,129,-10,52,1,7,11
1.46E+02,-6233,-3541,5148,153,-23,33,1,7,11
1.46E+02,-6201,-3842,5161,166,-28,-294,1,7,11
1.46E+02,-6157,-3872,5149,181,-51,-146,1,7,11
1.47E+02,-5887,-3918,5180,157,-64,-538,1,7,11
1.47E+02,-6159,-3950,5200,154,-93,-399,1,7,11
1.47E+02,-6167,-3961,5226,155,117,-479,1,7,11
1.47E+02,-6160,-3942,5241,165,66,-510,1,7,11
1.48E+02,-5885,-3925,5246,151,11,-499,1,7,11
1.48E+02,-5855,-3908,4997,365,-295,-457,1,7,11
1.48E+02,-5824,-3905,4992,282,-340,-400,1,7,11
1.48E+02,-5780,-3904,5244,-75,-142,-600,1,7,11
1.49E+02,-5994,-3924,5224,42,-201,-549,1,7,11
1.49E+02,-5970,-3949,5215,-369,-250,-256,1,7,11
1.49E+02,-5966,-3965,5206,-521,-544,-215,1,7,11
1.49E+02,-5977,-3739,5220,-397,-574,-147,1,7,11
1.50E+02,-5956,-3775,5237,-494,-616,-300,1,7,11
1.50E+02,-5922,-4106,5000,-827,-392,62,1,7,11
1.50E+02,-5613,-4169,5005,-847,-412,-115,1,7,11
1.50E+02,-5562,-4207,5247,-835,-389,-81,1,7,11
1.51E+02,-5531,-3976,5242,-811,-582,-70,1,7,11
1.51E+02,-5538,-3991,5225,-771,-244,-68,1,7,11
1.51E+02,-5575,-3988,5210,-465,-164,-64,1,7,11
1.51E+02,-5632,-4009,5218,-415,-363,-40,1,7,11
1.52E+02,-5942,-4026,5232,-601,-324,-4,1,7,11
1.52E+02,-5985,-4002,5238,-233,-290,311,1,7,11
1.52E+02,-6001,-4143,5239,-272,50,203,1,7,11
1.52E+02,-5768,-4117,5243,93,113,522,1,7,11
1.53E+02,-5799,-3786,5243,-50,-80,558,1,7,11
1.53E+02,-5850,-3958,4996,294,-20,567,1,7,11
1.53E+02,-6153,-3579,4997,356,271,566,1,7,11
1.53E+02,-6164,-3514,5244,130,281,552,1,7,11
1.54E+02,-6145,-3467,5215,371,284,521,1,7,11
1.54E+02,-6145,-3467,5209,336,281,188,1,7,11
1.54E+02,-6152,-3501,5220,270,284,132,1,7,11
1.54E+02,-5888,-3559,5244,-44,-8,318,1,7,11
1.55E+02,-5846,-3893,5057,-113,64,-259,1,7,11
1.55E+02,-6146,-3867,5078,-62,123,-307,1,7,11
1.55E+02,-6193,-3566,5100,309,-81,-294,1,7,11
1.55E+02,-5822,-3571,5006,16,103,-269,1,7,11
1.56E+02,-5825,-3863,4999,-270,106,-323,1,7,11
1.56E+02,-5842,-3914,4996,-281,112,-369,1,7,11
1.56E+02,-5863,-3945,4997,2,108,-138,1,7,11
1.56E+02,-6147,-3934,5240,52,109,-152,1,7,11
1.57E+02,-6171,-3908,5243,101,-115,-150,1,7,11
1.57E+02,-6193,-3875,5001,-96,-50,-379,1,7,11
1.57E+02,-6204,-3564,5009,-13,290,-325,1,7,11
1.57E+02,-6221,-3529,5050,316,372,-266,1,7,11
1.58E+02,-6194,-3507,5061,139,151,30,1,7,11
1.58E+02,-5877,-3501,5046,186,383,9,1,7,11
1.58E+02,-5811,-3532,5019,174,343,-339,1,7,11
1.58E+02,-5801,-3552,5004,377,309,-224,1,7,11
1.59E+02,-5819,-3556,5246,299,267,-609,1,7,11
1.59E+02,-5853,-3572,5005,-47,-35,-422,1,7,11
1.59E+02,-6151,-3861,5046,-113,-80,-412,1,7,11
1.59E+02,-6168,-3891,5094,117,115,-590,1,7,11
1.60E+02,-6166,-3908,5387,122,45,-226,1,7,11
1.60E+02,-5879,-3893,5408,-120,-285,-365,1,7,11
1.60E+02,-5835,-3865,5414,-125,-357,-262,1,7,11
1.60E+02,-5776,-3545,5384,98,-158,70,1,7,11
1.61E+02,-5982,-3518,5380,-263,-192,107,1,7,11
1.61E+02,-5957,-3498,5391,-384,-209,121,1,7,11
1.61E+02,-5971,-3474,5403,-880,-531,127,1,7,11
1.61E+02,-5966,-3507,5385,-751,-539,-96,1,7,11
1.62E+02,-5765,-3786,5111,-990,-556,299,1,7,11
1.62E+02,-6013,-3788,5095,-909,-539,361,1,7,11
1.62E+02,-5583,-3970,5238,-583,-85,376,1,7,11
1.62E+02,-5908,-4218,5002,-199,265,299,1,7,11
1.63E+02,-6001,-4179,5034,-323,342,-31,1,7,11
1.63E+02,-5823,-3840,5036,66,130,-73,1,7,11
1.63E+02,-5855,-3728,4992,-76,155,-82,1,7,11
1.63E+02,-5851,-3897,5186,-28,187,-69,1,7,11
1.64E+02,-5822,-3879,5124,-47,218,-68,1,7,11
1.64E+02,-5809,-3950,4854,-81,240,-110,1,7,11
1.64E+02,-5812,-3768,4844,-108,240,67,1,7,11
1.64E+02,-5844,-3824,4832,-122,221,-339,1,7,11
1.65E+02,-6220,-3812,5122,-33,342,-157,1,7,11
1.65E+02,-6204,-3797,5142,256,282,-369,1,7,11
1.65E+02,-6186,-3779,5155,292,-61,-327,1,7,11
1.65E+02,-6148,-3752,5148,337,-87,-321,1,7,11
1.66E+02,-5838,-3746,5128,363,119,-315,1,7,11
1.66E+02,-5803,-3757,5126,344,95,-327,1,7,11
1.66E+02,-5788,-3787,5153,314,82,-372,1,7,11
1.66E+02,-5796,-3791,5167,296,82,-130,1,7,11
1.67E+02,-5818,-3800,5202,288,75,-145,1,7,11
1.67E+02,-5823,-3817,5240,316,53,-370,1,7,11
1.67E+02,-5817,-3818,5014,373,30,-328,1,7,11
1.67E+02,-5793,-3799,5019,184,22,-286,1,7,11
1.68E+02,-5763,-3760,5018,235,38,4,1,7,11
1.68E+02,-6008,-3721,5025,254,74,30,1,7,11
1.68E+02,-6004,-3922,5029,520,106,52,1,7,11
1.68E+02,-6011,-3885,5042,238,-123,67,1,7,11
1.69E+02,-5768,-3862,5062,202,-110,72,1,7,11
1.69E+02,-5784,-3582,5082,157,-106,72,1,7,11
1.69E+02,-5789,-3545,5076,376,-106,68,1,7,11
1.69E+02,-5798,-3532,5057,331,-94,68,1,7,11
1.70E+02,-5815,-3541,5044,269,-76,70,1,7,11
1.70E+02,-5829,-3563,5032,-42,-70,71,1,7,11
1.70E+02,-5826,-3860,5044,-91,-81,64,1,7,11
1.70E+02,-5810,-3909,5050,-111,-94,43,1,7,11
1.71E+02,-5799,-3944,5054,-100,-101,14,1,7,11
1.71E+02,-5795,-3952,5047,-70,-100,-277,1,7,11
1.71E+02,-5800,-3945,5045,-45,-91,-300,1,7,11
1.71E+02,-5813,-3919,5044,-21,-81,-304,1,7,11
1.72E+02,-5822,-3899,5053,-13,-81,-286,1,7,11
1.72E+02,-5819,-3881,5053,-11,-97,-261,1,7,11
1.72E+02,-5827,-3850,5048,-11,-106,15,1,7,11
1.72E+02,-5838,-3561,5038,-19,-100,37,1,7,11
1.73E+02,-5842,-3537,5038,-39,-89,73,1,7,11
1.73E+02,-5839,-3542,5041,-75,-81,104,1,7,11
1.73E+02,-5832,-3562,5042,-104,-83,123,1,7,11
1.73E+02,-5833,-3583,5046,127,-98,114,1,7,11
1.74E+02,-5830,-3849,5038,111,-122,92,1,7,11
1.74E+02,-5826,-3859,5023,95,114,64,1,7,11
1.74E+02,-5833,-3910,5027,49,95,30,1,7,11
1.74E+02,-5852,-3562,5083,-11,-32,98,1,7,11
1.75E+02,-5833,-3566,5098,-13,-59,96,1,7,11
1.75E+02,-6004,-3966,5099,-330,-271,-188,1,7,11
1.75E+02,-5765,-3731,5386,-337,-295,-159,1,7,11
1.75E+02,-5781,-3725,5406,-318,-330,-365,1,7,11
1.76E+02,-5774,-3718,5415,-310,-377,-301,1,7,11
1.76E+02,-5765,-3959,5434,-314,-171,11,1,7,11
1.76E+02,-6014,-3942,5453,-321,-229,43,1,7,11
1.76E+02,-5969,-3885,5429,-327,-541,61,1,7,11
1.77E+02,-5943,-3863,5423,-360,-578,73,1,7,11
1.77E+02,-5929,-3854,5421,-149,-572,87,1,7,11
1.77E+02,-5902,-3860,5422,-190,-538,103,1,7,11
1.77E+02,-5614,-3865,5385,-201,-224,126,1,7,11
1.78E+02,-5614,-3873,5101,-218,-143,-116,1,7,11
1.78E+02,-5633,-3897,5086,-238,-298,-109,1,7,11
1.78E+02,-5927,-3926,5081,-247,57,-87,1,7,11
1.78E+02,-5979,-3963,5087,-245,79,-65,1,7,11
1.79E+02,-5773,-3731,5114,-216,68,-41,1,7,11
1.79E+02,-5803,-3727,5386,-161,37,-3,1,7,11
1.79E+02,-5809,-3726,5414,-348,9,298,1,7,11
1.79E+02,-5819,-3906,5461,106,20,364,1,7,11
1.80E+02,-5790,-3490,5083,124,309,87,1,7,11
1.80E+02,-5801,-3523,5083,61,331,35,1,7,11
1.80E+02,-5814,-3552,5083,22,345,-261,1,7,11
1.80E+02,-5822,-3561,5078,2,348,-294,1,7,11
1.81E+02,-5850,-3584,5104,-270,341,-315,1,7,11
1.81E+02,-5852,-3855,5093,6,284,-319,1,7,11
1.81E+02,-5821,-3894,5088,20,-120,-345,1,7,11
1.81E+02,-5792,-3909,5091,14,73,-379,1,7,11
1.82E+02,-5761,-3919,5104,11,32,-166,1,7,11
1.82E+02,-6006,-3930,5379,26,20,-204,1,7,11
1.82E+02,-6015,-3927,5397,63,26,-231,1,7,11
1.82E+02,-5773,-3913,5422,113,44,-232,1,7,11
1.83E+02,-5788,-3873,5415,-67,69,-206,1,7,11
1.83E+02,-5786,-3573,5384,-18,92,-163,1,7,11
1.83E+02,-5773,-3535,5087,-13,107,-366,1,7,11
1.83E+02,-6004,-3550,5086,-56,115,-319,1,7,11
1.84E+02,-5976,-3846,5078,-92,108,-289,1,7,11
1.84E+02,-5931,-3906,5076,110,89,-295,1,7,11
1.84E+02,-5918,-3965,5088,74,94,-336,1,7,11
1.84E+02,-5945,-3717,5104,78,124,-384,1,7,11
1.85E+02,-5995,-3713,5405,91,-74,-144,1,7,11
1.85E+02,-5771,-3938,5445,-116,-26,-361,1,7,11
1.85E+02,-5784,-3892,5455,-46,267,-303,1,7,11
1.85E+02,-5776,-3858,5454,266,286,5,1,7,11
1.86E+02,-5995,-3856,5452,290,281,16,1,7,11
1.86E+02,-5948,-3584,5410,297,-6,-283,1,7,11
1.86E+02,-5938,-3846,5381,-15,-38,-369,1,7,11
1.86E+02,-5952,-3862,5117,-84,-83,-185,1,7,11
1.87E+02,-5968,-3893,5114,106,114,-235,1,7,11
1.87E+02,-5974,-3911,5115,72,55,-247,1,7,11
1.87E+02,-5984,-3923,5381,36,7,-240,1,7,11
1.87E+02,-5988,-3949,5409,4,-296,-203,1,7,11
1.88E+02,-5977,-3714,5421,-289,-361,-155,1,7,11
1.88E+02,-5964,-3731,5438,-320,-178,-361,1,7,11
1.88E+02,-5946,-3734,5434,-356,-249,-308,1,7,11
1.88E+02,-5915,-3745,5443,-141,-560,4,1,7,11
1.89E+02,-5625,-3759,5442,-160,-586,66,1,7,11
1.89E+02,-5586,-3767,5448,-176,-565,124,1,7,11
1.89E+02,-5540,-3741,5414,-158,-254,-73,1,7,11
1.89E+02,-5757,-3748,5412,-162,-166,-35,1,7,11
1.90E+02,-5747,-3766,5417,-156,-325,-5,1,7,11
1.90E+02,-5508,-3779,5426,-140,14,-3,1,7,11
1.90E+02,-5552,-3786,5454,-351,74,-3,1,7,11
1.90E+02,-5596,-3774,5488,-284,99,260,1,7,11
1.91E+02,-5922,-3725,5273,55,95,272,1,7,11
1.91E+02,-5973,-3955,5265,-114,68,293,1,7,11
1.91E+02,-5988,-3582,5499,-53,39,313,1,7,11
1.91E+02,-5995,-3541,5263,-63,45,317,1,7,11
1.92E+02,-5958,-3525,5259,-75,43,305,1,7,11
1.92E+02,-5896,-3563,5269,-113,41,-10,1,7,11
1.92E+02,-5540,-3916,5486,110,69,-271,1,7,11
1.92E+02,-5540,-3949,5453,121,123,-175,1,7,11
1.93E+02,-5564,-3961,5435,-107,-55,-556,1,7,11
1.93E+02,-5627,-3960,5435,-71,291,-626,1,7,11
1.93E+02,-5931,-3927,5429,-13,363,-627,1,7,11
1.93E+02,-5996,-3906,5433,276,162,-582,1,7,11
1.94E+02,-5784,-3867,5438,301,180,-249,1,7,11
1.94E+02,-5831,-3578,5458,295,180,-168,1,7,11
1.94E+02,-5837,-3550,5483,273,143,-341,1,7,11
1.94E+02,-5842,-3526,5500,257,361,-294,1,7,11
1.95E+02,-5821,-3510,5493,-13,321,-258,1,7,11
1.95E+02,-5777,-3485,5465,-47,288,-260,1,7,11
1.95E+02,-6000,-3507,5438,-112,274,-296,1,7,11
1.95E+02,-5967,-3549,5414,71,-16,-361,1,7,11
1.96E+02,-5938,-3861,5392,12,-71,-197,1,7,11
1.96E+02,-5955,-3915,5398,-293,-126,-550,1,7,11
1.96E+02,-5946,-3948,5393,-314,53,-610,1,7,11
1.96E+02,-5918,-3728,5397,-332,-266,-636,1,7,11
1.97E+02,-5630,-3771,5409,-344,-311,-629,1,7,11
1.97E+02,-5589,-3816,5433,-340,-343,-612,1,7,11
1.97E+02,-5568,-3835,5457,-309,-362,-594,1,7,11
1.97E+02,-5547,-4098,5492,-276,-374,-560,1,7,11
1.98E+02,-5528,-3824,5251,21,-362,-515,1,7,11
1.98E+02,-5512,-3795,5253,58,-335,-192,1,7,11
1.98E+02,-5750,-3767,5252,66,-291,-384,1,7,11
1.98E+02,-5750,-3752,5256,61,22,-315,1,7,11
1.99E+02,-5757,-3764,5275,49,62,9,1,7,11
1.99E+02,-5507,-3776,5288,46,81,67,1,7,11
1.99E+02,-5758,-3772,5271,53,82,109,1,7,11
1.99E+02,-5521,-3779,5265,41,98,-115,1,7,11
2.00E+02,-5541,-3772,5267,42,114,-69,1,7,11
2.00E+02,-5546,-3776,5271,49,-121,-20,1,7,11
2.00E+02,-5535,-3766,5265,75,-93,275,1,7,11
2.00E+02,-5554,-3769,5270,105,-41,291,1,7,11
2.01E+02,-5571,-3753,5260,-107,-2,292,1,7,11
2.01E+02,-5584,-3721,5489,-72,283,273,1,7,11
2.01E+02,-5604,-3944,5477,-68,296,-8,1,7,11
2.01E+02,-5632,-3937,5472,-94,292,-37,1,7,11
2.02E+02,-5910,-3936,5478,-125,259,-64,1,7,11
2.02E+02,-5935,-3938,5485,99,-41,-88,1,7,11
2.02E+02,-5943,-3953,5503,83,-89,-101,1,7,11
2.02E+02,-5941,-3953,5502,98,-124,-111,1,7,11
2.03E+02,-5936,-3965,5257,117,119,-116,1,7,11
2.03E+02,-5905,-3950,5257,-87,122,-127,1,7,11
2.03E+02,-5895,-3939,5256,-44,-115,97,1,7,11
2.03E+02,-5621,-3924,5261,-7,-102,64,1,7,11
2.04E+02,-5615,-3915,5264,268,-99,28,1,7,11
2.04E+02,-5614,-3900,5262,265,-104,-262,1,7,11
2.04E+02,-5628,-3892,5266,-12,-109,-282,1,7,11
2.04E+02,-5617,-3879,5264,-43,123,-278,1,7,11
2.05E+02,-5615,-3896,5280,-84,102,-270,1,7,11
2.05E+02,-5588,-3908,5282,-110,71,2,1,7,11
2.05E+02,-5577,-3928,5279,121,57,7,1,7,11
2.05E+02,-5569,-3935,5280,108,63,15,1,7,11
2.06E+02,-5560,-3944,5276,106,78,26,1,7,11
2.06E+02,-5551,-3942,5268,100,99,38,1,7,11
2.06E+02,-5562,-3964,5278,91,127,51,1,7,11
2.06E+02,-5568,-3720,5296,103,-117,72,1,7,11
2.07E+02,-5565,-3719,5295,-120,-110,89,1,7,11
2.07E+02,-5568,-3963,5302,-88,-88,107,1,7,11
2.07E+02,-5630,-3862,5276,-79,317,316,1,7,11
2.07E+02,-5630,-3849,5253,-99,304,323,1,7,11
2.08E+02,-5627,-3844,5483,116,295,320,1,7,11
2.08E+02,-5630,-3854,5460,66,289,317,1,7,11
2.08E+02,-5901,-3881,5466,25,293,307,1,7,11
2.08E+02,-5921,-3914,5472,23,300,296,1,7,11
2.09E+02,-5951,-3915,5488,59,310,288,1,7,11
2.09E+02,-5986,-3884,5477,121,321,291,1,7,11
2.09E+02,-5762,-3843,5489,-82,341,309,1,7,11
2.09E+02,-5772,-3531,5474,-42,354,336,1,7,11
2.10E+02,-5787,-3489,5458,-34,371,355,1,7,11
2.10E+02,-5797,-3459,5458,-48,128,365,1,7,11
2.10E+02,-5809,-3707,5466,-62,378,369,1,7,11
2.10E+02,-5817,-3709,5468,-79,358,367,1,7,11
2.11E+02,-5817,-3465,5472,-87,319,357,1,7,11
2.11E+02,-5807,-3471,5463,-94,278,339,1,7,11
2.11E+02,-5789,-3480,5444,-100,-13,315,1,7,11
2.11E+02,-5778,-3471,5411,-100,-20,281,1,7,11
2.12E+02,-5815,-3712,5406,-121,265,256,1,7,11
2.12E+02,-5844,-3707,5446,116,280,261,1,7,11
2.12E+02,-5880,-3692,5469,112,286,281,1,7,11
2.12E+02,-6152,-3650,5484,-116,284,314,1,7,11
2.13E+02,-6163,-3588,5492,-93,311,341,1,7,11
2.13E+02,-5887,-3253,5483,-71,365,378,1,7,11
2.13E+02,-5851,-3216,5486,-104,181,147,1,7,11
2.13E+02,-5822,-3441,5486,102,518,153,1,7,11
2.14E+02,-5807,-3423,5478,22,587,383,1,7,11
2.14E+02,-5808,-3422,5462,-321,638,306,1,7,11
2.14E+02,-5812,-3432,5418,-167,395,-7,1,7,11
2.14E+02,-5841,-3217,5410,-609,405,-60,1,7,11
2.15E+02,-6149,-3277,5410,-444,400,-96,1,7,11
2.15E+02,-6168,-3325,5102,-478,595,-111,1,7,11
2.15E+02,-6159,-3639,5024,-784,524,114,1,7,11
2.15E+02,-6160,-3460,5247,-844,197,71,1,7,11
2.16E+02,-6171,-3548,5227,-863,373,11,1,7,11
2.16E+02,-6165,-3845,5163,-833,284,-303,1,7,11
2.16E+02,-6157,-3899,5132,-828,-43,-355,1,7,11
2.16E+02,-6165,-3724,5131,-805,-96,-136,1,7,11
2.17E+02,-6198,-3782,5166,-460,123,-171,1,7,11
2.17E+02,-6242,-3801,5207,-563,97,-200,1,7,11
2.17E+02,-6036,-3773,5240,-355,88,-198,1,7,11
2.17E+02,-6079,-3956,5018,113,90,-167,1,7,11
2.18E+02,-6105,-3871,5064,294,76,-359,1,7,11
2.18E+02,-6106,-3544,5105,178,47,-288,1,7,11
2.18E+02,-6101,-3470,5402,531,12,31,1,7,11
2.18E+02,-6057,-3646,5413,587,-296,77,1,7,11
2.19E+02,-6266,-3315,5399,581,-342,105,1,7,11
2.19E+02,-6207,-3259,5112,250,-368,113,1,7,11
2.19E+02,-6162,-3240,5089,382,-357,105,1,7,11
2.19E+02,-5878,-3245,5077,-23,-332,85,1,7,11
2.20E+02,-5860,-3279,5070,92,-313,68,1,7,11
2.20E+02,-5801,-3675,5032,-145,-312,-276,1,7,11
2.20E+02,-5793,-3499,5022,-215,-305,-337,1,7,11
2.20E+02,-5809,-3550,5020,-246,-277,-134,1,7,11
2.21E+02,-5832,-3578,5014,-233,27,-144,1,7,11
2.21E+02,-5857,-3845,4994,-193,84,-370,1,7,11
2.21E+02,-5870,-3853,5241,-155,-111,-312,1,7,11
2.21E+02,-5887,-3862,5240,-368,-60,8,1,7,11
2.22E+02,-6150,-3868,5238,-338,-23,48,1,7,11
2.22E+02,-6156,-3863,5233,-300,264,73,1,7,11
2.22E+02,-6172,-3850,5242,-268,306,82,1,7,11
2.22E+02,-6211,-3556,4993,38,349,103,1,7,11
2.23E+02,-6243,-3526,5000,86,383,-116,1,7,11
2.23E+02,-6258,-3502,4994,-119,144,-71,1,7,11
2.23E+02,-6246,-3479,5229,-96,134,-46,1,7,11
2.23E+02,-6235,-3700,5182,-88,370,-39,1,7,11
2.24E+02,-6218,-3705,5171,110,349,-41,1,7,11
2.24E+02,-6196,-3487,5167,38,317,-48,1,7,11
2.24E+02,-6184,-3519,5160,-279,312,-69,1,7,11
2.24E+02,-6181,-3548,5157,-321,337,-89,1,7,11
2.25E+02,-6175,-3584,5160,-339,374,-102,1,7,11
2.25E+02,-6182,-3847,5132,-316,168,-128,1,7,11
2.25E+02,-6226,-3852,5133,-282,220,94,1,7,11
2.25E+02,-6269,-3573,5121,26,237,66,1,7,11
2.26E+02,-6056,-3555,4853,60,211,41,1,7,11
2.26E+02,-6075,-3538,4832,71,136,15,1,7,11
2.26E+02,-6081,-3529,4811,53,298,-273,1,7,11
2.26E+02,-6075,-3515,4783,12,-51,-301,1,7,11
2.27E+02,-6058,-3509,4779,-300,-121,-310,1,7,11
2.27E+02,-6051,-3517,4818,-356,92,-307,1,7,11
2.27E+02,-6052,-3529,4849,-372,77,-293,1,7,11
2.27E+02,-6047,-3511,4862,-357,92,-272,1,7,11
2.28E+02,-6050,-3482,5154,-339,-123,11,1,7,11
2.28E+02,-6047,-3465,5181,-312,-72,50,1,7,11
2.28E+02,-6047,-3698,5176,-280,-23,89,1,7,11
2.28E+02,-6027,-3696,5164,-275,266,107,1,7,11
2.29E+02,-6272,-3708,5147,-286,299,89,1,7,11
2.29E+02,-6253,-3460,4858,-312,312,49,1,7,11
2.29E+02,-6243,-3500,4816,-364,316,-260,1,7,11
2.29E+02,-6225,-3558,4776,-173,309,-325,1,7,11
2.30E+02,-6243,-3855,4749,-225,310,-141,1,7,11
2.30E+02,-6051,-3871,4751,-517,322,-188,1,7,11
2.30E+02,-6122,-3895,4786,-517,311,-173,1,7,11
2.30E+02,-6424,-3900,4823,-211,269,-373,1,7,11
2.31E+02,-6427,-3890,4835,-381,-52,-292,1,7,11
2.31E+02,-6407,-3887,4840,-292,-119,39,1,7,11
2.31E+02,-6071,-3566,5161,87,-297,41,1,7,11
2.31E+02,-6104,-3552,5169,-111,-306,108,1,7,11
2.32E+02,-6100,-3521,5178,-68,-324,-89,1,7,11
2.32E+02,-6077,-3500,5193,-44,-345,-41,1,7,11
2.32E+02,-6026,-3491,5176,-41,-359,-19,1,7,11
2.32E+02,-6219,-3495,5151,-60,-359,-28,1,7,11
2.33E+02,-6158,-3494,5125,-109,-336,-80,1,7,11
2.33E+02,-5871,-3514,5131,75,-287,102,1,7,11
2.33E+02,-5866,-3526,5126,16,16,31,1,7,11
2.33E+02,-6148,-3542,5142,-288,50,-279,1,7,11
2.34E+02,-6203,-3545,5158,-296,68,-300,1,7,11
2.34E+02,-6151,-3842,5188,-312,118,-308,1,7,11
2.34E+02,-6170,-3860,5198,-294,-108,-287,1,7,11
2.34E+02,-6179,-3870,5196,-260,-88,14,1,7,11
2.35E+02,-6178,-3878,5194,34,-74,61,1,7,11
2.35E+02,-6180,-3868,5196,64,-61,91,1,7,11
2.35E+02,-6211,-3571,5198,81,-44,106,1,7,11
2.35E+02,-6231,-3544,5205,80,-46,126,1,7,11
2.36E+02,-6257,-3514,5184,93,-60,-118,1,7,11
2.36E+02,-6024,-3497,5165,102,-83,-112,1,7,11
2.36E+02,-6018,-3482,4863,97,-122,-101,1,7,11
2.36E+02,-6234,-3520,4845,55,79,-112,1,7,11
2.37E+02,-6205,-3583,4855,-295,9,91,1,7,11
2.37E+02,-6215,-3889,5153,-317,-281,43,1,7,11
2.37E+02,-6211,-3906,5174,-285,-298,22,1,7,11
2.37E+02,-6215,-3897,5215,30,-285,28,1,7,11
2.38E+02,-6190,-3862,5230,103,-266,59,1,7,11
2.38E+02,-6167,-3841,5247,-96,24,80,1,7,11
2.38E+02,-6162,-3538,4996,-41,68,91,1,7,11
2.38E+02,-6171,-3483,5247,-20,106,108,1,7,11
2.39E+02,-6163,-3687,5235,-42,119,-125,1,7,11
2.39E+02,-5872,-3662,5201,-113,107,-115,1,7,11
2.39E+02,-5845,-3680,5183,38,109,124,1,7,11
2.39E+02,-5851,-3472,5183,-331,-113,88,1,7,11
2.40E+02,-6153,-3519,5194,-384,-63,66,1,7,11
2.40E+02,-6220,-3562,5213,-139,-6,73,1,7,11
2.40E+02,-6032,-3571,5239,-357,288,117,1,7,11
2.40E+02,-6078,-3554,4999,-295,300,-85,1,7,11
2.41E+02,-6097,-3530,5001,25,284,-26,1,7,11
2.41E+02,-6104,-3488,5245,92,-5,280,1,7,11
2.41E+02,-6076,-3709,5207,121,-48,301,1,7,11
2.41E+02,-6271,-3705,5159,106,-93,298,1,7,11
2.42E+02,-6243,-3468,5123,62,-98,-6,1,7,11
2.42E+02,-6238,-3485,4832,17,-85,-60,1,7,11
2.42E+02,-6252,-3504,4817,-271,-53,-91,1,7,11
2.42E+02,-6019,-3519,4821,-292,-4,-99,1,7,11
2.43E+02,-6039,-3521,4838,-289,295,-74,1,7,11
2.43E+02,-6071,-3519,5127,-277,321,-38,1,7,11
2.43E+02,-6083,-3503,5149,11,305,-1,1,7,11
2.43E+02,-6065,-3483,5139,22,260,267,1,7,11
2.44E+02,-6058,-3467,4831,8,-39,-1,1,7,11
2.44E+02,-6063,-3694,4777,-313,-59,-36,1,7,11
2.44E+02,-6120,-3676,4741,-167,-46,-59,1,7,11
2.44E+02,-6440,-3659,4978,-530,-31,-44,1,7,11
2.45E+02,-6492,-3626,4952,-614,-23,259,1,7,11
2.45E+02,-6284,-3317,4922,-428,-14,333,1,7,11
2.45E+02,-6314,-3272,4893,-503,-12,167,1,7,11
2.45E+02,-6325,-3214,4596,-833,-13,252,1,7,11
2.46E+02,-6343,-3428,4565,-677,-15,574,1,7,11
2.46E+02,-6351,-3391,4518,-1049,-37,624,1,7,11
2.46E+02,-6350,-3368,4718,-943,-81,394,1,7,11
2.46E+02,-6362,-3348,4662,-1397,114,399,1,7,11
2.47E+02,-6391,-3346,4320,-1612,50,417,1,7,11
2.47E+02,-6680,-3045,4253,-1842,-282,462,1,7,11
2.47E+02,-6737,-3042,4236,-2139,-355,807,1,7,11
2.47E+02,-6555,-3059,4472,-2182,-202,698,1,7,11
2.48E+02,-6596,-3068,4443,-2477,-602,1139,1,7,11
2.48E+02,-6631,-3346,4457,-2816,-499,1342,1,7,11
2.48E+02,-6621,-3441,4460,-3417,-799,1662,1,7,11
2.48E+02,-6598,-3209,4441,-3879,-1001,1849,1,7,11
2.49E+02,-6584,-3231,4433,-4218,-1192,1750,1,7,11
2.49E+02,-6532,-3592,4475,-4299,-1411,2157,1,7,11
2.49E+02,-6708,-3474,4259,-4564,-1872,2013,1,7,11
2.49E+02,-6304,-3869,4270,-4961,-1778,2343,1,7,11
2.50E+02,-6427,-3719,4283,-4745,-2074,2347,1,7,11
2.50E+02,-6086,-3821,4322,-4953,-1731,2316,1,7,11
2.50E+02,-6033,-4152,4609,-4548,-1820,2010,1,7,11
2.50E+02,-6220,-4189,4348,-4338,-1621,1944,1,7,11
2.51E+02,-6177,-4006,4635,-4377,-1388,2099,1,7,11
2.51E+02,-6150,-4061,4669,-4112,-905,1701,1,7,11
2.51E+02,-6149,-4094,4690,-3582,-716,1515,1,7,11
2.51E+02,-6201,-4434,4487,-3599,-839,1558,1,7,11
2.52E+02,-6227,-4225,4487,-3057,-802,1331,1,7,11
2.52E+02,-6230,-4251,4727,-2810,-800,1073,1,7,11
2.52E+02,-6272,-4313,4518,-2854,-803,821,1,7,11
2.52E+02,-6263,-4334,4527,-2571,-851,606,1,7,11
2.53E+02,-6240,-4308,4489,-2031,-863,149,1,7,11
2.53E+02,-6218,-4260,4697,-1754,-816,-2,1,7,11
2.53E+02,-6208,-4447,4656,-1503,-466,-95,1,7,11
2.53E+02,-6182,-4431,4644,-1546,-604,-128,1,7,11
2.54E+02,-6158,-4421,4643,-1315,-204,115,1,7,11
2.54E+02,-5882,-4386,4645,-1092,-321,102,1,7,11
2.54E+02,-6161,-4397,4692,-890,78,90,1,7,11
2.54E+02,-6183,-4417,4734,-412,-88,93,1,7,11
2.55E+02,-6179,-4392,4487,-188,-36,76,1,7,11
2.55E+02,-6204,-4380,4548,-271,273,47,1,7,11
2.55E+02,-6207,-4066,4607,-86,275,17,1,7,11
2.55E+02,-6202,-4023,4925,319,268,-274,1,7,11
2.56E+02,-6172,-4011,4984,201,-29,-296,1,7,11
2.56E+02,-5821,-4063,4775,597,-99,-346,1,7,11
2.56E+02,-5615,-4055,4953,824,93,-188,1,7,11
2.56E+02,-5698,-4049,4869,677,-86,-404,1,7,11
2.57E+02,-5540,-4422,4748,680,181,-682,1,7,11
2.57E+02,-5881,-4273,5028,1070,462,-912,1,7,11
2.57E+02,-6474,-4226,5459,1382,849,-1004,1,7,11
2.57E+02,-6779,-4453,5360,1638,653,-950,1,7,11
2.58E+02,-6929,-4378,5710,1891,881,-758,1,7,11
2.58E+02,-6648,-3980,5726,2143,832,-772,1,7,11
2.58E+02,-6771,-3797,5665,2327,815,-572,1,7,11
2.58E+02,-6396,-3906,5333,2423,825,-167,1,7,11
2.59E+02,-6457,-3545,5436,2428,777,-357,1,7,11
2.59E+02,-6270,-3560,5043,2317,500,-156,1,7,11
2.59E+02,-5877,-3873,5165,1946,494,-563,1,7,11
2.59E+02,-6007,-3933,4762,2089,493,-806,1,7,11
2.60E+02,-5923,-3736,4499,1752,780,-1082,1,7,11
2.60E+02,-5575,-3808,4329,1675,834,-1326,1,7,11
2.60E+02,-5520,-4182,4453,1863,697,-1547,1,7,11
2.60E+02,-5508,-3977,4012,1875,1119,-1463,1,7,11
2.61E+02,-5740,-4011,3819,1691,1299,-1865,1,7,11
2.61E+02,-5516,-4077,3966,1724,1278,-1719,1,7,11
2.61E+02,-5624,-4408,3896,1758,1797,-1769,1,7,11
2.61E+02,-5782,-4464,3849,2078,2058,-1733,1,7,11
2.62E+02,-6195,-4240,3562,1923,2384,-1888,1,7,11
2.62E+02,-6110,-4264,3544,2045,2584,-1477,1,7,11
2.62E+02,-6301,-4272,3551,2420,2508,-1269,1,7,11
2.62E+02,-6708,-4245,3565,2365,2883,-1283,1,7,11
2.63E+02,-6618,-4258,3853,2499,2699,-1036,1,7,11
2.63E+02,-6950,-4464,3566,2937,2919,-818,1,7,11
2.63E+02,-6985,-4421,3528,2805,2830,-421,1,7,11
2.63E+02,-6963,-4361,3482,3153,2687,-614,1,7,11
2.64E+02,-6653,-4050,3678,3190,2253,-385,1,7,11
2.64E+02,-6596,-3978,3605,3160,2343,-492,1,7,11
2.64E+02,-6588,-4166,3319,2807,1951,-895,1,7,11
2.64E+02,-6612,-4109,3304,2940,2096,-1034,1,7,11
2.65E+02,-6629,-3773,3242,2819,1749,-1136,1,7,11
2.65E+02,-6640,-3720,3442,2648,1689,-930,1,7,11
2.65E+02,-6655,-3729,3422,2190,1679,-942,1,7,11
2.65E+02,-6959,-3771,3445,2011,1700,-943,1,7,11
2.66E+02,-7002,-3818,3205,2133,1701,-933,1,7,11
2.66E+02,-7016,-4118,3233,1778,1677,-923,1,7,11
2.66E+02,-7000,-4160,3246,1690,1878,-939,1,7,11
2.66E+02,-6974,-4200,3245,1861,1803,-977,1,7,11
2.67E+02,-6950,-3979,3238,1494,1456,-1296,1,7,11
2.67E+02,-6934,-4008,3230,1634,1602,-1372,1,7,11
2.67E+02,-6924,-4029,3220,1244,1224,-1193,1,7,11
2.67E+02,-6942,-4046,3223,1355,1373,-1253,1,7,11
2.68E+02,-6959,-4083,3235,957,1009,-1260,1,7,11
2.68E+02,-6956,-4095,3227,1106,904,-1230,1,7,11
2.68E+02,-6918,-4362,3216,752,1070,-1174,1,7,11
2.68E+02,-6639,-4394,3238,642,748,-1354,1,7,11
2.69E+02,-6611,-4459,3273,812,680,-1009,1,7,11
2.69E+02,-6600,-4469,3284,796,861,-942,1,7,11
2.69E+02,-6538,-4456,3265,775,508,-917,1,7,11
2.69E+02,-6757,-4425,3288,771,471,-906,1,7,11
2.70E+02,-6755,-4402,3586,781,453,-1139,1,7,11
2.70E+02,-6737,-4372,3599,804,420,-1128,1,7,11
2.70E+02,-6764,-4362,3620,807,406,-1117,1,7,11
2.70E+02,-6781,-4068,3632,799,636,-1085,1,7,11
2.71E+02,-6550,-4049,3670,495,617,-1033,1,7,11
2.71E+02,-6557,-4048,3700,450,585,-698,1,7,11
2.71E+02,-6550,-4034,3465,420,537,-886,1,7,11
2.71E+02,-6757,-4054,3480,601,211,-849,1,7,11
2.72E+02,-6715,-4090,3511,250,150,-850,1,7,11
2.72E+02,-6678,-4392,3545,158,347,-869,1,7,11
2.72E+02,-6672,-4423,3842,337,303,-892,1,7,11
2.72E+02,-6373,-4226,3913,-30,-104,-882,1,7,11
2.73E+02,-6315,-4478,3901,-69,56,-862,1,7,11
2.73E+02,-6501,-4225,3894,-117,-290,-852,1,7,11
2.73E+02,-6433,-4460,3891,124,-336,-839,1,7,11
2.73E+02,-6135,-4436,3876,112,-338,-836,1,7,11
2.74E+02,-6077,-4395,3840,-126,-316,-821,1,7,11
2.74E+02,-6071,-4396,3579,110,17,-809,1,7,11
2.74E+02,-6083,-4377,3551,-119,101,-512,1,7,11
2.74E+02,-6116,-4378,3538,-112,-59,-464,1,7,11
2.75E+02,-6410,-4359,3490,-88,291,-397,1,7,11
2.75E+02,-6476,-4379,3470,120,142,-592,1,7,11
2.75E+02,-6307,-4410,3465,79,232,-253,1,7,11
2.75E+02,-6309,-4407,3671,4,239,-189,1,7,11
2.76E+02,-6345,-4301,3691,-140,236,-156,1,7,11
2.76E+02,-6356,-4614,3677,-221,171,-144,1,7,11
2.76E+02,-6409,-4671,3675,-576,341,-174,1,7,11
2.76E+02,-6715,-4714,3663,-402,-14,-180,1,7,11
2.77E+02,-6770,-4502,3679,-497,-121,-158,1,7,11
2.77E+02,-6552,-4503,3675,-824,39,-296,1,7,11
2.77E+02,-6597,-4508,3701,-858,-286,80,1,7,11
2.77E+02,-6620,-4481,3458,-852,-309,-9,1,7,11
2.78E+02,-6556,-4680,3706,-794,-334,162,1,7,11
2.78E+02,-6778,-4637,3472,-482,-360,563,1,7,11
2.78E+02,-6762,-4613,3503,-473,-345,464,1,7,11
2.78E+02,-6711,-4293,3513,-401,-149,811,1,7,11
2.79E+02,-6683,-4459,3492,-614,-179,883,1,7,11
2.79E+02,-6663,-4377,3507,-601,-234,684,1,7,11
2.79E+02,-6385,-4094,3540,-428,-525,733,1,7,11
2.79E+02,-6393,-4095,3846,-496,-552,745,1,7,11
2.80E+02,-6388,-4365,3894,-809,-604,729,1,7,11
2.80E+02,-6367,-4374,3911,-846,-394,669,1,7,11
2.80E+02,-6329,-4368,3918,-878,-424,832,1,7,11
2.80E+02,-6276,-4372,3925,-675,-439,461,1,7,11
2.81E+02,-6483,-4399,3926,-734,-422,580,1,7,11
2.81E+02,-6444,-4422,3931,-758,-634,181,1,7,11
2.81E+02,-6411,-4429,3921,-753,-567,306,1,7,11
2.81E+02,-6119,-4406,3897,-739,-219,-60,1,7,11
2.82E+02,-6140,-4386,3893,-718,-342,117,1,7,11
2.82E+02,-6421,-4085,3889,-676,45,90,1,7,11
2.82E+02,-6435,-4061,3873,-659,-97,112,1,7,11
2.82E+02,-6446,-4039,3855,-648,-5,-107,1,7,11
2.83E+02,-6478,-4028,3582,-670,333,-74,1,7,11
2.83E+02,-6511,-4014,3555,-693,134,-34,1,7,11
2.83E+02,-6296,-3984,3509,-739,183,-5,1,7,11
2.83E+02,-6317,-3999,3459,-1085,207,280,1,7,11
2.84E+02,-6387,-4063,3691,-927,250,319,1,7,11
2.84E+02,-6714,-4374,3664,-961,527,364,1,7,11
2.84E+02,-6759,-4428,3627,-936,538,149,1,7,11
2.84E+02,-6549,-4463,3602,-1134,542,183,1,7,11
2.85E+02,-6561,-4477,3306,-1036,526,223,1,7,11
2.85E+02,-6578,-4228,3268,-675,255,240,1,7,11
2.85E+02,-6551,-4228,3218,-823,230,226,1,7,11
2.85E+02,-6529,-4241,3443,-484,218,185,1,7,11
2.86E+02,-6754,-4246,3421,-413,200,375,1,7,11
2.86E+02,-6730,-4477,3393,-597,180,295,1,7,11
2.86E+02,-6722,-4460,3383,-558,162,-48,1,7,11
2.86E+02,-6718,-4432,3361,-519,139,-118,1,7,11
2.87E+02,-6777,-4424,3360,-243,140,87,1,7,11
2.87E+02,-6556,-4404,3349,-208,373,73,1,7,11
2.87E+02,-6554,-4408,3058,-186,348,85,1,7,11
2.87E+02,-6563,-4413,3026,-195,336,95,1,7,11
2.88E+02,-6575,-4432,3033,-215,327,103,1,7,11
2.88E+02,-6601,-4454,3062,-222,315,101,1,7,11
2.88E+02,-6630,-4226,3336,-192,300,111,1,7,11
2.88E+02,-6935,-4244,3371,-384,282,-124,1,7,11
2.89E+02,-6958,-4241,3383,-281,-14,-73,1,7,11
2.89E+02,-6953,-4469,3382,87,-62,-22,1,7,11
2.89E+02,-6918,-4461,3366,-91,-111,280,1,7,11
2.89E+02,-6612,-4449,3360,-37,107,296,1,7,11
2.90E+02,-6555,-4463,3363,-23,71,271,1,7,11
2.90E+02,-6763,-4458,3353,-15,51,-48,1,7,11
2.90E+02,-6743,-4463,3370,-29,50,-126,1,7,11
2.90E+02,-6735,-4456,3382,-21,49,59,1,7,11
2.91E+02,-6745,-4455,3392,-6,53,7,1,7,11
2.91E+02,-6754,-4441,3393,279,63,-271,1,7,11
2.91E+02,-6775,-4418,3384,296,73,-262,1,7,11
2.91E+02,-6544,-4403,3379,301,93,35,1,7,11
2.92E+02,-6559,-4387,3376,304,116,94,1,7,11
2.92E+02,-6582,-4357,3374,319,-112,-90,1,7,11
2.92E+02,-6617,-4361,3386,321,-86,-2,1,7,11
2.92E+02,-6627,-4378,3396,342,-89,330,1,7,11
2.93E+02,-6628,-4389,3400,379,-105,377,1,7,11
2.93E+02,-6615,-4370,3393,171,-117,138,1,7,11
2.93E+02,-6604,-4090,3381,207,-114,131,1,7,11
2.93E+02,-6600,-4061,3367,227,-96,369,1,7,11
2.94E+02,-6601,-4056,3377,224,-68,350,1,7,11
2.94E+02,-6615,-4062,3393,238,-36,327,1,7,11
2.94E+02,-6616,-4052,3405,538,-13,297,1,7,11
2.94E+02,-6626,-4033,3408,595,271,258,1,7,11
2.95E+02,-6646,-3993,3403,393,295,-30,1,7,11
2.95E+02,-6654,-4203,3398,432,317,-57,1,7,11
2.95E+02,-6935,-4171,3417,436,344,-82,1,7,11
2.95E+02,-6962,-4138,3423,435,359,-93,1,7,11
2.96E+02,-6984,-4116,3447,412,355,-94,1,7,11
2.96E+02,-7001,-3836,3208,393,332,-90,1,7,11
2.96E+02,-7013,-3806,3219,629,297,-82,1,7,11
2.96E+02,-7005,-3784,3222,606,-2,-65,1,7,11
2.97E+02,-6992,-3794,3260,570,-31,-55,1,7,11
2.97E+02,-6994,-3799,3293,559,-57,-50,1,7,11
2.97E+02,-6992,-3792,3305,571,-62,-51,1,7,11
2.97E+02,-6961,-3777,3295,574,-57,-53,1,7,11
2.98E+02,-6936,-3786,3298,548,-29,-75,1,7,11
2.98E+02,-6933,-3786,3305,519,256,-106,1,7,11
2.98E+02,-6915,-3778,3298,236,266,111,1,7,11
2.98E+02,-6646,-3756,3270,204,273,54,1,7,11
2.99E+02,-6647,-3732,3256,163,287,2,1,7,11
2.99E+02,-6919,-3716,3245,366,302,-297,1,7,11
2.99E+02,-6954,-3958,3234,318,317,-319,1,7,11
2.99E+02,-6992,-3962,3247,275,328,-327,1,7,11
3.00E+02,-6787,-3734,3272,256,324,-314,1,7,11
3.00E+02,-6806,-3780,3290,274,289,-305,1,7,11
3.00E+02,-6804,-3813,3259,329,-3,-304,1,7,11
3.00E+02,-7010,-4108,3201,371,-40,-324,1,7,11
3.01E+02,-6978,-4184,3430,379,-32,-134,1,7,11
3.01E+02,-6963,-3978,3418,153,-15,-227,1,7,11
3.01E+02,-6958,-4000,3398,205,260,-590,1,7,11
3.01E+02,-6973,-3980,3381,513,279,-424,1,7,11
3.02E+02,-7012,-4204,3397,559,297,-457,1,7,11
3.02E+02,-6792,-4152,3408,600,297,-426,1,7,11
3.02E+02,-6840,-4132,3209,600,278,-613,1,7,11
3.02E+02,-6839,-4121,3269,596,-44,-529,1,7,11
3.03E+02,-6799,-4123,3593,604,109,-204,1,7,11
3.03E+02,-6987,-4132,3634,604,-268,-170,1,7,11
3.03E+02,-6937,-4155,3679,591,-378,-173,1,7,11
3.03E+02,-6632,-4156,3696,589,-230,-198,1,7,11
3.04E+02,-6602,-4140,3456,560,-565,-229,1,7,11
3.04E+02,-6562,-4123,3461,251,-634,-232,1,7,11
3.04E+02,-6540,-4139,3477,162,-424,-224,1,7,11
3.04E+02,-6776,-4160,3497,330,-454,-205,1,7,11
3.05E+02,-6738,-4178,3508,-21,-473,-185,1,7,11
3.05E+02,-6701,-4204,3498,125,-486,-167,1,7,11
3.05E+02,-6666,-3995,3511,4,-485,-156,1,7,11
3.05E+02,-6390,-4026,3521,-326,-466,-143,1,7,11
3.06E+02,-6387,-4040,3536,-361,-430,-378,1,7,11
3.06E+02,-6382,-4036,3550,-346,-630,-319,1,7,11
3.06E+02,-6373,-4036,3560,-308,-560,14,1,7,11
3.06E+02,-6374,-4028,3582,3,-232,95,1,7,11
3.07E+02,-6352,-4008,3576,45,-191,-109,1,7,11
3.07E+02,-6347,-4003,3573,54,-150,-86,1,7,11
3.07E+02,-6363,-3986,3553,41,-134,-79,1,7,11
3.07E+02,-6670,-3983,3566,1,-376,-77,1,7,11
3.08E+02,-6725,-4219,3579,-269,-370,-42,1,7,11
3.08E+02,-6756,-4207,3575,-277,-360,289,1,7,11
3.08E+02,-6776,-4208,3850,-272,-339,131,1,7,11
3.08E+02,-6780,-4221,3867,3,-321,211,1,7,11
3.09E+02,-6533,-4201,3869,42,-304,245,1,7,11
3.09E+02,-6556,-4161,3876,83,-282,238,1,7,11
3.09E+02,-6615,-4122,3910,120,4,212,1,7,11
3.09E+02,-6926,-3828,3953,-60,7,215,1,7,11
3.10E+02,-6922,-3799,3966,301,-275,230,1,7,11
3.10E+02,-6619,-3764,3946,160,-300,228,1,7,11
3.10E+02,-6543,-3756,3913,223,-311,179,1,7,11
3.10E+02,-6736,-3746,3890,515,-296,337,1,7,11
3.11E+02,-6696,-3765,3893,242,2,-46,1,7,11
3.11E+02,-6679,-3790,3927,221,48,79,1,7,11
3.11E+02,-6704,-3804,3715,225,104,-295,1,7,11
3.11E+02,-6757,-3776,3733,530,-85,-364,1,7,11
3.12E+02,-6567,-3725,3746,582,-20,-376,1,7,11
3.12E+02,-6634,-3913,3764,627,281,-335,1,7,11
3.12E+02,-6919,-3863,3771,631,281,-266,1,7,11
3.12E+02,-6634,-3582,3764,596,-4,56,1,7,11
3.13E+02,-6596,-3580,3765,523,-33,84,1,7,11
3.13E+02,-6547,-3848,3753,187,-59,80,1,7,11
3.13E+02,-6759,-3860,3744,364,-72,39,1,7,11
3.13E+02,-6738,-3899,3777,283,-64,-269,1,7,11
3.14E+02,-6766,-3901,3784,-7,-37,-308,1,7,11
3.14E+02,-6564,-3888,3801,-9,256,-326,1,7,11
3.14E+02,-6627,-3870,3802,258,284,-309,1,7,11
3.14E+02,-6647,-3878,3793,265,282,-266,1,7,11
3.15E+02,-6635,-3902,3786,259,264,27,1,7,11
3.15E+02,-6582,-3903,3754,259,-22,28,1,7,11
3.15E+02,-6543,-3923,3728,-23,-41,-7,1,7,11
3.15E+02,-6765,-3945,3955,-51,-47,-310,1,7,11
3.16E+02,-6758,-3964,3946,-88,-50,-349,1,7,11
3.16E+02,-6776,-3725,3714,-124,-38,-369,1,7,11
3.16E+02,-6560,-3735,3742,114,-20,-354,1,7,11
3.16E+02,-6589,-3736,3765,-128,-30,-305,1,7,11
3.17E+02,-6582,-3731,3768,-105,-59,12,1,7,11
3.17E+02,-6571,-3728,3767,-99,-87,58,1,7,11
3.17E+02,-6568,-3963,3759,-107,-102,78,1,7,11
3.17E+02,-6578,-3932,3740,-123,-110,94,1,7,11
3.18E+02,-6593,-3888,3724,109,-101,115,1,7,11
3.18E+02,-6614,-3866,3737,73,-85,-107,1,7,11
3.18E+02,-6614,-3853,3723,39,-83,-84,1,7,11
3.18E+02,-6613,-3861,3727,24,-92,-37,1,7,11
3.19E+02,-6605,-3864,3713,20,-89,-11,1,7,11
3.19E+02,-6557,-3873,3933,21,-116,-7,1,7,11
3.19E+02,-6783,-3923,3925,-269,106,-43,1,7,11
3.19E+02,-6534,-3950,3933,-329,111,93,1,7,11
3.20E+02,-6568,-3713,3937,-362,-119,12,1,7,11
3.20E+02,-6627,-3957,3938,-354,-104,-270,1,7,11
3.20E+02,-6961,-3720,3720,-352,-82,-292,1,7,11
3.20E+02,-7022,-3716,3767,-326,-92,-262,1,7,11
3.21E+02,-7018,-3944,3762,12,95,27,1,7,11
3.21E+02,-6969,-3918,3756,80,-266,40,1,7,11
3.21E+02,-6642,-3919,3764,98,-360,31,1,7,11
3.21E+02,-6567,-3923,3735,97,-194,-265,1,7,11
3.22E+02,-6536,-3942,3727,63,-247,-295,1,7,11
3.22E+02,-6733,-3724,3738,10,-250,-353,1,7,11
3.22E+02,-6715,-3762,3758,-296,-203,-148,1,7,11
3.22E+02,-6720,-3801,3793,-308,-147,-161,1,7,11
3.23E+02,-6714,-3831,3802,-283,-354,-139,1,7,11
3.23E+02,-6712,-4100,3812,30,-302,-346,1,7,11
3.23E+02,-6714,-3837,3797,90,1,-312,1,7,11
3.23E+02,-6724,-3811,3781,-116,57,-286,1,7,11
3.24E+02,-6731,-3777,3778,-89,86,-263,1,7,11
3.24E+02,-6747,-3757,3781,-82,104,18,1,7,11
3.24E+02,-6754,-3720,3778,-72,115,42,1,7,11
3.24E+02,-6784,-3966,3809,-77,-121,69,1,7,11
3.25E+02,-6540,-3942,3807,-61,-118,106,1,7,11
3.25E+02,-6549,-3939,3802,-31,-100,-125,1,7,11
3.25E+02,-6559,-3939,3797,-24,-76,-114,1,7,11
3.25E+02,-6568,-3934,3798,-23,-57,-115,1,7,11
3.26E+02,-6560,-3933,3806,-33,-60,124,1,7,11
3.26E+02,-6541,-3943,3814,-52,-85,92,1,7,11
3.26E+02,-6774,-3956,3828,-70,126,41,1,7,11
3.26E+02,-6766,-3730,4096,-82,82,-264,1,7,11
3.27E+02,-6756,-3736,3832,-85,38,-305,1,7,11
3.27E+02,-6747,-3727,3827,-101,13,-322,1,7,11
3.27E+02,-6750,-3723,3828,121,9,-311,1,7,11
3.27E+02,-6762,-3718,3817,95,14,-281,1,7,11
3.28E+02,-6546,-3938,3798,80,32,15,1,7,11
3.28E+02,-6605,-3909,3816,42,48,64,1,7,11
3.28E+02,-6697,-3896,4139,1,-141,-66,1,7,11
3.28E+02,-6391,-3927,4130,-303,-154,75,1,7,11
3.29E+02,-6377,-3967,4128,-359,-145,-307,1,7,11
3.29E+02,-6395,-3748,4139,-135,-384,-148,1,7,11
3.29E+02,-6676,-3775,4138,-134,-367,-193,1,7,11
3.29E+02,-6703,-3788,4134,-361,-340,-188,1,7,11
3.30E+02,-6729,-3777,4116,-325,-294,-142,1,7,11
3.30E+02,-6776,-3772,4110,-301,15,-324,1,7,11
3.30E+02,-6533,-3762,4117,-273,40,28,1,7,11
3.30E+02,-6536,-3772,4138,11,45,115,1,7,11
3.31E+02,-6773,-3770,4136,76,37,-72,1,7,11
3.31E+02,-6744,-3761,4132,-121,33,-46,1,7,11
3.31E+02,-6713,-3743,4128,-77,37,-46,1,7,11
3.31E+02,-6695,-3748,4138,-60,55,-70,1,7,11
3.32E+02,-6668,-3776,4153,-35,64,-119,1,7,11
3.32E+02,-6387,-3803,4144,-1,71,61,1,7,11
3.32E+02,-6390,-3816,4116,288,81,-343,1,7,11
3.32E+02,-6665,-3796,3833,310,83,-171,1,7,11
3.33E+02,-6719,-3773,4097,315,89,-216,1,7,11
3.33E+02,-6539,-3759,4125,302,106,-207,1,7,11
3.33E+02,-6601,-3739,4173,312,119,-384,1,7,11
3.33E+02,-6642,-3961,4222,351,112,-264,1,7,11
3.34E+02,-6623,-3924,4002,155,67,127,1,7,11
3.34E+02,-6566,-3892,4017,208,26,-30,1,7,11
3.34E+02,-6745,-3882,4029,218,-273,268,1,7,11
3.34E+02,-6395,-3876,4021,188,-317,-16,1,7,11
3.35E+02,-6364,-3863,4011,133,-333,-99,1,7,11
3.35E+02,-6376,-3575,4013,306,-331,73,1,7,11
3.35E+02,-6669,-3554,4027,-39,-322,36,1,7,11
3.35E+02,-6739,-3542,4072,124,-318,52,1,7,11
3.36E+02,-6776,-3522,4094,61,-354,125,1,7,11
3.36E+02,-6763,-3531,4357,-272,-162,-42,1,7,11
3.36E+02,-6695,-3559,4372,-132,-223,266,1,7,11
3.36E+02,-6660,-3584,4385,-234,-518,260,1,7,11
3.37E+02,-6388,-3853,4384,-593,-545,-37,1,7,11
3.37E+02,-6382,-3855,4381,-432,-556,-73,1,7,11
3.37E+02,-6376,-3874,4395,-775,-558,-78,1,7,11
3.37E+02,-6372,-3915,4411,-824,-559,-63,1,7,11
3.38E+02,-6314,-3737,4407,-833,-609,-50,1,7,11
3.38E+02,-6522,-3782,4372,-832,-635,-83,1,7,11
3.38E+02,-6480,-3816,4090,-825,-387,124,1,7,11
3.38E+02,-6465,-4114,4071,-818,-628,72,1,7,11
3.39E+02,-6471,-4155,4064,-783,-591,39,1,7,11
3.39E+02,-6511,-4188,4082,-451,-540,41,1,7,11
3.39E+02,-6305,-4198,4086,-581,-222,79,1,7,11
3.39E+02,-6359,-4186,4087,-167,-148,-115,1,7,11
3.40E+02,-6691,-4143,4360,5,-324,-34,1,7,11
3.40E+02,-6744,-3829,4388,-78,-268,308,1,7,11
3.40E+02,-6534,-3763,4426,345,20,376,1,7,11
3.40E+02,-6540,-3934,4431,244,8,181,1,7,11
3.41E+02,-6750,-3884,4438,609,-282,211,1,7,11
3.41E+02,-6381,-3881,4447,430,-321,156,1,7,11
3.41E+02,-6310,-3898,4438,496,-366,290,1,7,11
3.41E+02,-6278,-3907,4434,772,-368,124,1,7,11
3.42E+02,-6277,-3880,4427,780,-353,-300,1,7,11
3.42E+02,-6292,-3566,4430,768,-323,-172,1,7,11
3.42E+02,-6378,-3497,4277,446,14,-227,1,7,11
3.42E+02,-6390,-3709,4307,435,32,-177,1,7,11
3.43E+02,-6396,-3682,4341,407,54,-368,1,7,11
3.43E+02,-6389,-3659,4623,626,68,-307,1,7,11
3.43E+02,-6395,-3658,4649,573,84,-260,1,7,11
3.43E+02,-6664,-3643,4657,178,63,21,1,7,11
3.44E+02,-6400,-3601,4634,155,55,30,1,7,11
3.44E+02,-6394,-3315,4622,360,73,50,1,7,11
3.44E+02,-6393,-3303,4609,304,96,82,1,7,11
3.44E+02,-6394,-3315,4630,-1,124,113,1,7,11
3.45E+02,-6396,-3587,4642,-24,-107,-117,1,7,11
3.45E+02,-6388,-3600,4653,-27,-84,-98,1,7,11
3.45E+02,-6387,-3618,4655,-29,-59,-90,1,7,11
3.45E+02,-6382,-3637,4663,-32,-57,-100,1,7,11
3.46E+02,-6367,-3652,4670,-45,-80,118,1,7,11
3.46E+02,-6348,-3680,4666,-65,-110,62,1,7,11
3.46E+02,-6320,-3689,4646,-104,116,-267,1,7,11
3.46E+02,-6320,-3695,4628,108,111,-329,1,7,11
3.47E+02,-6336,-3676,4350,57,120,-369,1,7,11
3.47E+02,-6383,-3669,4344,-269,-116,-374,1,7,11
3.47E+02,-6684,-3678,4622,-325,-124,-338,1,7,11
3.47E+02,-6703,-3692,4633,-352,94,-285,1,7,11
3.48E+02,-6689,-3708,4632,-362,43,32,1,7,11
3.48E+02,-6399,-3481,4629,-356,1,74,1,7,11
3.48E+02,-6357,-3527,4629,-345,-287,91,1,7,11
3.48E+02,-6295,-3531,4621,-317,-298,82,1,7,11
3.49E+02,-6503,-3560,4608,-295,-275,57,1,7,11
3.49E+02,-6465,-3863,4609,-285,33,26,1,7,11
3.49E+02,-6458,-3900,4631,-267,88,-280,1,7,11
3.49E+02,-6479,-3920,4651,20,-125,-334,1,7,11
3.50E+02,-6527,-3911,4649,78,-99,-369,1,7,11
3.50E+02,-6326,-3873,4645,126,-86,-378,1,7,11
3.50E+02,-6373,-3573,4648,-107,-95,-347,1,7,11
3.50E+02,-6664,-3527,4654,-96,-121,-288,1,7,11
3.51E+02,-6658,-3493,4655,-104,93,38,1,7,11
3.51E+02,-6364,-3485,4638,-116,62,98,1,7,11
3.51E+02,-6311,-3484,4616,111,43,126,1,7,11
3.51E+02,-6516,-3503,4333,58,36,115,1,7,11
3.52E+02,-6476,-3547,4332,-257,43,77,1,7,11
3.52E+02,-6481,-3856,4340,-293,65,17,1,7,11
3.52E+02,-6516,-3881,4340,-277,103,-294,1,7,11
3.52E+02,-6332,-3888,4344,30,-95,-333,1,7,11
3.53E+02,-6662,-3862,4608,114,-39,-340,1,7,11
3.53E+02,-6718,-3571,4642,-51,260,-313,1,7,11
3.53E+02,-6719,-3534,4676,322,276,-280,1,7,11
3.53E+02,-6686,-3481,4680,204,298,-264,1,7,11
3.54E+02,-6365,-3688,4661,562,305,-275,1,7,11
3.54E+02,-6282,-3675,4633,595,315,-336,1,7,11
3.54E+02,-6368,-3687,4332,-1,149,-441,1,7,11
3.54E+02,-6680,-3708,4647,-108,369,-391,1,7,11
3.55E+02,-6692,-3480,4676,95,286,-545,1,7,11
3.55E+02,-6676,-3515,4687,52,-78,-191,1,7,11
3.55E+02,-6370,-3519,4675,2,54,-368,1,7,11
3.55E+02,-6329,-3541,4674,-351,-306,-325,1,7,11
3.56E+02,-6279,-3543,4661,-201,-136,-296,1,7,11
3.56E+02,-6514,-3561,4674,-566,-189,-257,1,7,11
3.56E+02,-6471,-3847,4689,-394,-216,42,1,7,11
3.56E+02,-6443,-3916,4717,-459,-226,68,1,7,11
3.57E+02,-6423,-3958,4713,-473,-223,59,1,7,11
3.57E+02,-6412,-3713,4697,-450,-214,25,1,7,11
3.57E+02,-6137,-3956,4665,-412,-166,2,1,7,11
3.57E+02,-6406,-3962,4652,-401,-372,-265,1,7,11
3.58E+02,-6416,-3730,4638,-385,-336,1,1,7,11
3.58E+02,-6421,-3759,4626,-617,-323,7,1,7,11
3.58E+02,-6430,-3788,4631,-576,-314,6,1,7,11
3.58E+02,-6434,-3806,4625,-518,-304,-259,1,7,11
3.59E+02,-6455,-3816,4620,-201,-284,-280,1,7,11
3.59E+02,-6496,-3790,4609,-373,-258,-302,1,7,11
3.59E+02,-6293,-3751,4615,-290,25,-316,1,7,11
3.59E+02,-6350,-3713,4637,47,50,-309,1,7,11
3.60E+02,-6390,-3917,4647,-108,58,-274,1,7,11
3.60E+02,-6382,-3874,4656,-28,46,38,1,7,11
3.60E+02,-6357,-3844,4642,278,25,81,1,7,11
3.60E+02,-6296,-3574,4614,291,-273,111,1,7,11
3.61E+02,-6490,-3853,4621,-8,-303,104,1,7,11
3.61E+02,-6441,-3905,4625,-59,-328,62,1,7,11
3.61E+02,-6411,-3932,4656,-86,-336,-262,1,7,11
3.61E+02,-6140,-3950,4685,-82,-316,-328,1,7,11
3.62E+02,-6409,-3936,4710,-57,-264,-379,1,7,11
3.62E+02,-6453,-3904,4729,-22,51,-136,1,7,11
3.62E+02,-6490,-3870,4494,263,96,-380,1,7,11
3.62E+02,-6276,-3575,4512,298,123,-352,1,7,11
3.63E+02,-6285,-3540,4515,316,121,-307,1,7,11
3.63E+02,-6527,-3531,4519,303,93,-272,1,7,11
3.63E+02,-6490,-3527,4520,277,42,-260,1,7,11
3.63E+02,-6436,-3535,4498,-32,-271,-270,1,7,11
3.64E+02,-6143,-3561,4497,-111,-310,-303,1,7,11
3.64E+02,-6126,-3849,4510,63,-330,-340,1,7,11
3.64E+02,-6125,-3887,4528,2,-336,-367,1,7,11
3.64E+02,-6119,-3911,4538,-288,-336,-382,1,7,11
3.65E+02,-6125,-3925,4553,-304,-314,-134,1,7,11
3.65E+02,-6413,-3934,4547,-313,-278,-132,1,7,11
3.65E+02,-6446,-3933,4567,-302,10,-364,1,7,11
3.65E+02,-6455,-3920,4576,-270,22,-328,1,7,11
3.66E+02,-6042,-3806,4537,112,50,-136,1,7,11
3.66E+02,-6056,-3822,4532,-121,47,-199,1,7,11
3.66E+02,-6071,-4105,4533,-90,43,-241,1,7,11
3.66E+02,-6091,-4122,4545,-51,37,-251,1,7,11
3.67E+02,-6094,-4115,4536,259,32,-238,1,7,11
3.67E+02,-6097,-3832,4507,306,42,-208,1,7,11
3.67E+02,-6136,-3800,4526,326,80,-158,1,7,11
3.67E+02,-6425,-3771,4594,357,103,-336,1,7,11
3.68E+02,-6415,-3723,4604,160,91,11,1,7,11
3.68E+02,-6118,-3947,4867,206,74,79,1,7,11
3.68E+02,-6064,-3928,4587,228,59,106,1,7,11
3.68E+02,-6270,-3922,4564,199,51,79,1,7,11
3.69E+02,-6239,-3929,4546,133,63,22,1,7,11
3.69E+02,-6242,-3936,4570,305,99,-307,1,7,11
3.69E+02,-6040,-3951,4585,-16,-105,-375,1,7,11
3.69E+02,-6130,-3959,4879,-25,-59,-157,1,7,11
3.70E+02,-6474,-3938,4913,291,-37,-146,1,7,11
3.70E+02,-6503,-3890,4898,375,-56,-355,1,7,11
3.70E+02,-6477,-3848,4606,171,-102,-307,1,7,11
3.70E+02,-6435,-3573,4593,167,110,-286,1,7,11
3.71E+02,-6133,-3852,4865,379,50,-312,1,7,11
3.71E+02,-6067,-3876,4884,335,-281,-369,1,7,11
3.71E+02,-6035,-3898,4893,274,-353,-182,1,7,11
3.71E+02,-6266,-3918,4908,-53,-152,-230,1,7,11
3.72E+02,-6246,-3930,4936,-120,-185,-243,1,7,11
3.72E+02,-6231,-3946,4959,76,-200,-224,1,7,11
3.72E+02,-6220,-3726,4991,31,-205,-154,1,7,11
3.72E+02,-6195,-3786,4769,-262,-214,-380,1,7,11
3.73E+02,-6178,-3805,4783,0,-214,-337,1,7,11
3.73E+02,-6186,-3802,4783,37,-205,-321,1,7,11
3.73E+02,-6208,-3778,4777,81,-169,-306,1,7,11
3.73E+02,-6231,-3744,4779,127,-372,-266,1,7,11
3.74E+02,-6226,-3717,4782,-72,-312,53,1,7,11
3.74E+02,-6204,-3952,4765,-9,-237,-110,1,7,11
3.74E+02,-6156,-3919,4960,320,38,-79,1,7,11
3.74E+02,-5874,-3924,4943,327,81,-89,1,7,11
3.75E+02,-6145,-3955,4976,277,-110,123,1,7,11
3.75E+02,-6175,-3716,4746,-49,-92,71,1,7,11
3.75E+02,-6235,-3959,4784,-64,-77,39,1,7,11
3.75E+02,-6051,-3926,4810,-50,-74,59,1,7,11
3.76E+02,-6098,-3885,4836,-33,-88,122,1,7,11
3.76E+02,-6120,-3853,4842,-15,-118,-52,1,7,11
3.76E+02,-6103,-3540,4831,-12,98,288,1,7,11
3.76E+02,-6063,-3516,4827,-52,54,357,1,7,11
3.77E+02,-6252,-3503,4815,-113,-265,139,1,7,11
3.77E+02,-6182,-3546,4824,43,-309,379,1,7,11
3.77E+02,-5886,-3852,4817,-284,-329,331,1,7,11
3.77E+02,-5871,-3890,4819,-330,-312,260,1,7,11
3.78E+02,-6156,-3910,4829,-340,-272,-55,1,7,11
3.78E+02,-6194,-3923,4830,-312,27,-74,1,7,11
3.78E+02,-6210,-3922,4828,-263,74,-63,1,7,11
3.78E+02,-6212,-3932,4834,40,115,-38,1,7,11
3.79E+02,-6200,-3932,4836,85,-108,-34,1,7,11
3.79E+02,-6191,-3918,4837,118,-81,-56,1,7,11
3.79E+02,-6199,-3882,4819,-107,-47,-96,1,7,11
3.79E+02,-6253,-3849,4815,-105,-7,-128,1,7,11
3.80E+02,-6071,-3553,4825,-109,267,125,1,7,11
3.80E+02,-6125,-3521,4830,-107,-3,-106,1,7,11
3.80E+02,-6134,-3503,4815,-103,-42,-61,1,7,11
3.80E+02,-6097,-3507,4790,-110,-94,-31,1,7,11
3.81E+02,-6052,-3530,4760,-120,118,-34,1,7,11
3.81E+02,-6031,-3562,4752,119,104,-70,1,7,11
3.81E+02,-6017,-3855,4765,115,112,-115,1,7,11
3.81E+02,-6018,-3886,4785,-118,-121,98,1,7,11
3.82E+02,-6028,-3893,4814,-70,-90,65,1,7,11
3.82E+02,-6034,-3875,4827,-7,-63,42,1,7,11
3.82E+02,-6026,-3843,4822,294,-55,15,1,7,11
3.82E+02,-6030,-3545,4792,311,-51,-274,1,7,11
3.83E+02,-6037,-3502,4754,279,-60,-302,1,7,11
3.83E+02,-6050,-3471,4988,-49,-69,-315,1,7,11
3.83E+02,-6066,-3462,4740,122,-78,-298,1,7,11
3.83E+02,-6086,-3478,4758,48,-91,-268,1,7,11
3.84E+02,-6118,-3507,4780,21,-93,33,1,7,11
3.84E+02,-6130,-3514,4784,36,-93,78,1,7,11
3.84E+02,-6127,-3528,4779,54,-77,113,1,7,11
3.84E+02,-6132,-3531,4764,88,-52,-125,1,7,11
3.85E+02,-6129,-3520,4764,121,-34,122,1,7,11
3.85E+02,-6129,-3514,4770,-114,-33,93,1,7,11
3.85E+02,-6122,-3499,4753,-94,-54,52,1,7,11
3.85E+02,-6113,-3479,4991,-102,-89,4,1,7,11
3.86E+02,-6107,-3484,4988,110,117,-292,1,7,11
3.86E+02,-6096,-3499,4739,67,56,-324,1,7,11
3.86E+02,-6112,-3499,4746,21,5,-345,1,7,11
3.86E+02,-6130,-3506,4771,-285,-298,-330,1,7,11
3.87E+02,-6144,-3506,4814,-331,-348,-277,1,7,11
3.87E+02,-6138,-3505,4845,-367,-154,50,1,7,11
3.87E+02,-6121,-3487,5131,-150,-227,124,1,7,11
3.87E+02,-6094,-3459,5162,-200,-552,-71,1,7,11
3.88E+02,-6045,-3668,5164,-536,-625,-25,1,7,11
3.88E+02,-6255,-3657,5182,-410,-433,258,1,7,11
3.88E+02,-6184,-3686,5193,-803,-508,263,1,7,11
3.88E+02,-5874,-3473,5185,-683,-816,-27,1,7,11
3.89E+02,-5806,-3557,5163,-1058,-835,-68,1,7,11
3.89E+02,-5762,-3874,5144,-905,-797,-114,1,7,11
3.89E+02,-5988,-3955,5144,-987,-468,111,1,7,11
3.89E+02,-5988,-3733,5131,-1016,-630,90,1,7,11
3.90E+02,-6002,-3790,4840,-1000,-536,80,1,7,11
3.90E+02,-5766,-3829,4782,-962,-189,93,1,7,11
3.90E+02,-5822,-4150,4776,-914,-360,-128,1,7,11
3.90E+02,-5847,-4168,4774,-1103,-291,-74,1,7,11
3.91E+02,-6149,-4190,4769,-748,15,257,1,7,11
3.91E+02,-6187,-4209,4769,-882,66,339,1,7,11
3.91E+02,-6208,-4206,4785,-485,119,168,1,7,11
3.91E+02,-6205,-4184,4785,-585,-90,241,1,7,11
3.92E+02,-6205,-4146,4788,-179,-38,531,1,7,11
3.92E+02,-6218,-3835,4794,-296,266,535,1,7,11
3.92E+02,-6240,-3762,4792,69,305,515,1,7,11
3.92E+02,-6027,-3951,4802,127,328,234,1,7,11
3.93E+02,-6072,-3908,4824,-97,325,204,1,7,11
3.93E+02,-6067,-3524,4778,-12,-92,369,1,7,11
3.93E+02,-6268,-3536,4746,-37,103,307,1,7,11
3.93E+02,-6239,-3563,4755,-104,76,-41,1,7,11
3.94E+02,-6247,-3578,4786,91,79,112,1,7,11
3.94E+02,-6017,-3847,4815,58,89,27,1,7,11
3.94E+02,-6118,-3847,4858,41,115,-282,1,7,11
3.94E+02,-6154,-3563,5148,61,118,-299,1,7,11
3.95E+02,-6424,-3514,5153,90,102,-302,1,7,11
3.95E+02,-6413,-3711,5138,117,71,-288,1,7,11
3.95E+02,-6388,-3687,5122,96,30,-272,1,7,11
3.95E+02,-6088,-3707,4851,39,-291,0,1,7,11
3.96E+02,-6037,-3478,4830,-296,-346,-261,1,7,11
3.96E+02,-6239,-3532,4822,-141,-134,-285,1,7,11
3.96E+02,-6204,-3578,4818,-234,-137,-325,1,7,11
3.96E+02,-6176,-3878,4818,-554,-378,-328,1,7,11
3.97E+02,-6172,-3920,4818,-581,-351,-313,1,7,11
3.97E+02,-6187,-3933,4801,-569,-305,-274,1,7,11
3.97E+02,-6217,-3923,4800,-534,4,22,1,7,11
3.97E+02,-6248,-3898,4806,-248,87,87,1,7,11
3.98E+02,-6249,-3844,4794,-197,118,-82,1,7,11
3.98E+02,-6243,-3538,4781,-148,-104,261,1,7,11
3.98E+02,-6202,-3486,4977,-368,-86,329,1,7,11
3.98E+02,-6148,-3462,4917,-353,-55,335,1,7,11
3.99E+02,-5884,-3490,4877,-159,260,302,1,7,11
3.99E+02,-6179,-3547,4599,-241,323,-15,1,7,11
3.99E+02,-6231,-3870,4603,-583,371,-86,1,7,11
3.99E+02,-6019,-3899,4596,-631,148,114,1,7,11
4.00E+02,-6074,-3927,4594,-386,166,73,1,7,11
4.00E+02,-6138,-3715,4607,-407,200,62,1,7,11
4.00E+02,-6438,-3730,4593,-408,215,60,1,7,11
4.00E+02,-6480,-3744,4577,-403,214,63,1,7,11
4.01E+02,-6490,-3733,4552,-611,198,85,1,7,11
4.01E+02,-6485,-3740,4537,-580,192,110,1,7,11
4.01E+02,-6469,-3758,4512,-513,180,-111,1,7,11
4.01E+02,-6430,-3764,4493,-186,169,-105,1,7,11
4.02E+02,-6143,-3780,4731,-377,161,-116,1,7,11
4.02E+02,-6115,-3797,4716,-317,137,112,1,7,11
4.02E+02,-6106,-3816,4728,-261,372,68,1,7,11
4.02E+02,-6132,-3798,4481,60,336,25,1,7,11
4.03E+02,-6426,-3782,4500,97,300,-258,1,7,11
4.03E+02,-6461,-3746,4538,126,-7,2,1,7,11
4.03E+02,-6468,-3958,4567,-122,-80,30,1,7,11
4.03E+02,-6466,-3906,4583,113,103,53,1,7,11
4.04E+02,-6449,-3887,4601,49,8,70,1,7,11
4.04E+02,-6141,-3898,4597,-301,-164,32,1,7,11
4.04E+02,-6107,-3915,4590,-158,-514,-282,1,7,11
4.04E+02,-6086,-3941,4870,-535,-574,-333,1,7,11
4.05E+02,-6076,-3719,4899,-639,-609,-340,1,7,11
4.05E+02,-6041,-3753,4915,-426,-640,-312,1,7,11
4.05E+02,-6234,-3793,4901,-412,-399,-269,1,7,11
4.05E+02,-6164,-3838,4871,-394,-408,9,1,7,11
4.06E+02,-5860,-4145,4596,-392,-403,-260,1,7,11
4.06E+02,-5847,-4192,4584,-400,-390,-295,1,7,11
4.06E+02,-5865,-4208,4593,-405,-634,-325,1,7,11
4.06E+02,-6175,-3969,4876,-401,-619,-324,1,7,11
4.07E+02,-6227,-3970,4888,-617,-619,-280,1,7,11
4.07E+02,-6029,-4219,4904,-549,-607,48,1,7,11
4.07E+02,-6081,-4175,4926,-207,-582,-116,1,7,11
4.07E+02,-6118,-4108,4969,-366,-554,-15,1,7,11
4.08E+02,-6112,-3778,4990,-276,-560,332,1,7,11
4.08E+02,-6067,-3953,4985,46,-584,375,1,7,11
4.08E+02,-6041,-3923,4751,61,-622,357,1,7,11
4.08E+02,-6263,-3925,4774,46,-445,276,1,7,11
4.09E+02,-6217,-3954,4799,20,-818,-115,1,7,11
4.09E+02,-6156,-3739,4797,-262,-679,-290,1,7,11
4.09E+02,-5832,-3758,4799,-295,-748,-213,1,7,11
4.09E+02,-5988,-4134,5242,27,-153,-242,1,7,11
4.10E+02,-5791,-4141,5053,56,-343,-131,1,7,11
4.10E+02,-5803,-4126,5068,-110,-341,-272,1,7,11
4.10E+02,-6005,-3832,5025,-22,-357,70,1,7,11
4.10E+02,-5928,-3801,5211,279,-351,112,1,7,11
4.11E+02,-5601,-3807,5147,259,-319,105,1,7,11
4.11E+02,-5573,-4115,5126,-70,-279,50,1,7,11
4.11E+02,-5582,-4200,5154,112,15,-287,1,7,11
4.11E+02,-5630,-4223,5189,106,52,-361,1,7,11
4.12E+02,-5941,-4191,5196,-120,113,-133,1,7,11
4.12E+02,-5770,-4152,5228,-88,-66,-352,1,7,11
4.12E+02,-5843,-4127,5003,-45,-17,-267,1,7,11
4.12E+02,-5872,-3810,5012,288,-17,90,1,7,11
4.13E+02,-5841,-3750,4993,330,-51,-88,1,7,11
4.13E+02,-5788,-3731,5226,334,-86,-50,1,7,11
4.13E+02,-6005,-3721,5220,303,-119,-58,1,7,11
4.13E+02,-5954,-3734,5202,-23,86,-102,1,7,11
4.14E+02,-5921,-3795,5188,-122,50,82,1,7,11
4.14E+02,-5905,-4111,5189,45,30,1,1,7,11
4.14E+02,-5916,-4168,5197,-261,37,-319,1,7,11
4.14E+02,-5925,-4197,5204,-265,54,-351,1,7,11
4.15E+02,-5930,-4207,5199,21,89,-340,1,7,11
4.15E+02,-5937,-4206,5200,62,-124,-299,1,7,11
4.15E+02,-5931,-4197,5169,99,-87,10,1,7,11
4.15E+02,-5933,-4170,5153,127,-43,51,1,7,11
4.16E+02,-5969,-4144,5195,126,264,91,1,7,11
4.16E+02,-6012,-4112,5213,-110,297,-104,1,7,11
4.16E+02,-5784,-3816,5231,-62,306,-32,1,7,11
4.16E+02,-5766,-3770,5211,-12,284,286,1,7,11
4.17E+02,-6002,-3758,5161,262,261,312,1,7,11
4.17E+02,-6005,-3769,5149,-32,256,285,1,7,11
4.17E+02,-5779,-3780,5162,-80,261,-18,1,7,11
4.17E+02,-5822,-3802,5210,-126,269,-56,1,7,11
4.18E+02,-5851,-3800,4995,-122,265,-65,1,7,11
4.18E+02,-5832,-3781,5015,-86,-10,-61,1,7,11
4.18E+02,-5821,-3765,4999,-42,-24,-69,1,7,11
4.18E+02,-5795,-3752,5231,-17,-35,-96,1,7,11
4.19E+02,-5786,-3734,5217,-22,-46,125,1,7,11
4.19E+02,-5778,-3732,5199,-60,-51,91,1,7,11
4.19E+02,-5776,-3731,5187,-98,-48,68,1,7,11
4.19E+02,-5795,-3742,5185,117,-27,60,1,7,11
4.20E+02,-5823,-3764,5187,87,-3,74,1,7,11
4.20E+02,-5844,-3777,5203,107,271,98,1,7,11
4.20E+02,-5836,-3765,5196,-110,277,126,1,7,11
4.20E+02,-5830,-3738,5190,-74,290,-121,1,7,11
4.21E+02,-5847,-3717,5196,-60,305,-127,1,7,11
4.21E+02,-5860,-3941,5191,-60,302,119,1,7,11
4.21E+02,-5868,-3915,5188,-81,287,105,1,7,11
4.21E+02,-5879,-3890,5192,-110,268,95,1,7,11
4.22E+02,-6166,-3870,5195,111,-8,86,1,7,11
4.22E+02,-6172,-3859,5183,75,-42,92,1,7,11
4.22E+02,-6169,-3870,5176,37,-79,97,1,7,11
4.22E+02,-6145,-3895,5158,7,-117,96,1,7,11
4.23E+02,-5862,-3928,5138,-285,109,79,1,7,11
4.23E+02,-5838,-3721,5141,-326,99,51,1,7,11
4.23E+02,-5831,-3785,5166,-349,101,15,1,7,11
4.23E+02,-5830,-3820,5189,-332,106,-285,1,7,11
4.24E+02,-5842,-3790,5182,22,-121,-332,1,7,11
4.24E+02,-5841,-3772,5165,46,-100,-321,1,7,11
4.24E+02,-5829,-3763,5145,48,-88,-290,1,7,11
4.24E+02,-5802,-3772,5120,39,-83,-274,1,7,11
4.25E+02,-5801,-3797,5126,14,-79,-275,1,7,11
4.25E+02,-5802,-3825,5135,8,-88,-277,1,7,11
4.25E+02,-5798,-4101,5131,11,-87,-287,1,7,11
4.25E+02,-5804,-4122,5128,32,-74,-291,1,7,11
4.26E+02,-5819,-4123,4855,73,-49,-297,1,7,11
4.26E+02,-5829,-4105,4825,124,-27,-292,1,7,11
4.26E+02,-5841,-3825,4807,-95,-8,-289,1,7,11
4.26E+02,-5862,-3806,4784,-51,265,-277,1,7,11
4.27E+02,-5873,-3766,4758,-10,290,-266,1,7,11
4.27E+02,-6145,-3742,4991,269,331,16,1,7,11
4.27E+02,-6175,-3744,4991,290,144,52,1,7,11
4.27E+02,-6205,-3743,4745,317,215,83,1,7,11
4.28E+02,-6251,-3753,4765,353,538,102,1,7,11
4.28E+02,-6037,-3751,4780,153,572,110,1,7,11
4.28E+02,-6056,-3713,4767,214,581,106,1,7,11
4.28E+02,-6077,-3942,4760,240,590,100,1,7,11
4.29E+02,-6080,-3933,4762,241,592,91,1,7,11
4.29E+02,-6072,-3932,4757,234,587,71,1,7,11
4.29E+02,-6045,-3925,4744,223,576,35,1,7,11
4.29E+02,-6268,-3952,4740,184,560,-271,1,7,11
4.30E+02,-6222,-3962,4989,136,518,-340,1,7,11
4.30E+02,-6184,-3756,4980,306,211,-177,1,7,11
4.30E+02,-6158,-3782,4964,-35,145,-545,1,7,11
4.30E+02,-6146,-3814,4941,116,332,-396,1,7,11
4.31E+02,-6156,-4101,4920,15,273,-464,1,7,11
4.31E+02,-6156,-4133,4908,-343,-55,-480,1,7,11
4.31E+02,-6157,-4169,4917,-185,-124,-452,1,7,11
4.31E+02,-6148,-4210,4904,-526,53,-395,1,7,11
4.32E+02,-5872,-4040,4907,-607,-297,-580,1,7,11
4.32E+02,-5853,-4071,4904,-427,-145,-252,1,7,11
4.32E+02,-5835,-4378,4910,-500,-514,-185,1,7,11
4.32E+02,-5825,-4413,4919,-811,-629,-375,1,7,11
4.33E+02,-5793,-4423,4915,-847,-484,-293,1,7,11
4.33E+02,-5764,-4436,4903,-873,-823,61,1,7,11
4.33E+02,-5984,-4436,4892,-885,-893,-87,1,7,11
4.33E+02,-5945,-4453,4909,-896,-686,271,1,7,11
4.34E+02,-5928,-4467,4949,-886,-715,352,1,7,11
4.34E+02,-5913,-4456,4737,-826,-735,166,1,7,11
4.34E+02,-5919,-4405,4769,-474,-720,232,1,7,11
4.34E+02,-5920,-4330,4781,-601,-686,563,1,7,11
4.35E+02,-5962,-3990,4806,-233,-836,423,1,7,11
4.35E+02,-5994,-4150,4826,-144,-772,501,1,7,11
4.35E+02,-5780,-3822,4862,-344,-461,821,1,7,11
4.35E+02,-5825,-3753,5170,-324,-434,888,1,7,11
4.36E+02,-5863,-3716,5220,-315,-441,694,1,7,11
4.36E+02,-6155,-3928,5008,-281,-457,744,1,7,11
4.36E+02,-6180,-3895,5054,0,-485,1038,1,7,11
4.36E+02,-6180,-3867,5103,35,-781,1060,1,7,11
4.37E+02,-6173,-3574,5401,83,-819,1057,1,7,11
4.37E+02,-6154,-3532,5435,-128,-855,1031,1,7,11
4.37E+02,-5871,-3503,5483,-85,-880,727,1,7,11
4.37E+02,-5843,-3469,5272,-38,-891,666,1,7,11
4.38E+02,-5816,-3676,5308,265,-888,851,1,7,11
4.38E+02,-5779,-3621,5337,313,-878,785,1,7,11
4.38E+02,-5980,-3321,5355,337,-854,454,1,7,11
4.38E+02,-5942,-3284,5372,354,-795,633,1,7,11
4.39E+02,-5917,-3247,5646,353,-453,551,1,7,11
4.39E+02,-5918,-3229,5671,339,-602,223,1,7,11
4.39E+02,-5934,-3223,5698,333,-236,164,1,7,11
4.39E+02,-5942,-3217,5692,327,-138,373,1,7,11
4.40E+02,-5966,-3232,5705,312,-302,332,1,7,11
4.40E+02,-5996,-3245,5711,325,30,300,1,7,11
4.40E+02,-5773,-3242,5712,349,95,269,1,7,11
4.40E+02,-5800,-3220,5703,133,-101,-13,1,7,11
4.41E+02,-5807,-3444,5695,160,-51,-29,1,7,11
4.41E+02,-5811,-3412,5677,169,-4,-47,1,7,11
4.41E+02,-5817,-3389,5661,157,295,-76,1,7,11
4.41E+02,-5841,-3370,5638,140,344,-110,1,7,11
4.42E+02,-5841,-3357,5347,363,379,109,1,7,11
4.42E+02,-5851,-3363,5307,316,153,71,1,7,11
4.42E+02,-5865,-3394,5282,-10,180,25,1,7,11
4.42E+02,-5882,-3431,5266,-64,184,-277,1,7,11
4.43E+02,-6145,-3212,5499,-110,170,-332,1,7,11
4.43E+02,-6157,-3251,5469,106,148,-381,1,7,11
4.43E+02,-6176,-3285,5450,87,382,-164,1,7,11
4.43E+02,-6192,-3303,5435,79,370,-186,1,7,11
4.44E+02,-6206,-3311,5420,78,366,-187,1,7,11
4.44E+02,-6229,-3328,5410,85,364,-160,1,7,11
4.44E+02,-6249,-3592,5402,105,360,-379,1,7,11
4.44E+02,-6250,-3311,5401,-114,357,-338,1,7,11
4.45E+02,-6243,-3298,5402,-89,346,-302,1,7,11
4.45E+02,-6236,-3309,5389,-77,311,-273,1,7,11
4.45E+02,-6204,-3621,5383,-93,-13,-264,1,7,11
4.45E+02,-6147,-3674,5081,-115,-105,-289,1,7,11
4.46E+02,-5849,-3491,5050,74,71,-357,1,7,11
4.46E+02,-5822,-3547,5028,2,-259,-173,1,7,11
4.46E+02,-5816,-3866,5035,-332,-338,-235,1,7,11
4.46E+02,-5823,-3923,5063,-381,-168,-519,1,7,11
4.47E+02,-5832,-3722,5104,-384,-519,-517,1,7,11
4.47E+02,-5827,-3736,5391,-351,-615,-231,1,7,11
4.47E+02,-5809,-3729,5416,-301,-451,-179,1,7,11
4.47E+02,-5786,-3955,5428,-260,-781,-374,1,7,11
4.48E+02,-5775,-3905,5463,23,-833,-299,1,7,11
4.48E+02,-6001,-3863,5253,39,-885,53,1,7,11
4.48E+02,-5956,-3564,5283,52,-662,-106,1,7,11
4.48E+02,-5912,-3504,5295,64,-665,-9,1,7,11
4.49E+02,-5618,-3466,5332,26,-895,332,1,7,11
4.49E+02,-5587,-3458,5651,-269,-855,152,1,7,11
4.49E+02,-5570,-3711,5696,-293,-823,202,1,7,11
4.49E+02,-5552,-3691,5712,-304,-785,224,1,7,11
4.50E+02,-5534,-3669,5726,-325,-485,239,1,7,11
4.50E+02,-5527,-3679,5752,-360,-432,243,1,7,11
4.50E+02,-5522,-3669,5748,-375,-386,243,1,7,11
4.50E+02,-5542,-3680,5505,-158,-589,223,1,7,11
4.51E+02,-5565,-3669,5757,-171,-546,209,1,7,11
4.51E+02,-5611,-3654,5515,-166,-168,539,1,7,11
4.51E+02,-5598,-3648,5518,-365,-374,563,1,7,11
4.51E+02,-5598,-3629,5519,-296,-300,552,1,7,11
4.52E+02,-5894,-3325,5521,40,52,526,1,7,11
4.52E+02,-5945,-3244,5504,114,-115,249,1,7,11
4.52E+02,-5960,-3450,5737,-83,-61,239,1,7,11
4.52E+02,-5942,-3419,5705,-46,-16,222,1,7,11
4.53E+02,-5934,-3429,5689,-25,320,185,1,7,11
4.53E+02,-5941,-3222,5696,-35,351,152,1,7,11
4.53E+02,-5952,-3267,5682,-39,361,360,1,7,11
4.53E+02,-5974,-3313,5692,-56,366,311,1,7,11
4.54E+02,-5973,-3611,5706,-55,352,272,1,7,11
4.54E+02,-5990,-3658,5741,-33,344,-5,1,7,11
4.54E+02,-5986,-3671,5757,298,325,-11,1,7,11
4.54E+02,-5978,-3653,5753,154,330,-3,1,7,11
4.55E+02,-5964,-3605,5742,531,359,266,1,7,11
4.55E+02,-5957,-3273,5717,397,162,273,1,7,11
4.55E+02,-5978,-3449,5698,478,240,268,1,7,11
4.55E+02,-6005,-3368,5672,794,561,261,1,7,11
4.56E+02,-5797,-3058,5678,813,613,-17,1,7,11
4.56E+02,-5867,-3017,5693,814,631,-38,1,7,11
4.56E+02,-6167,-2971,5693,813,610,-67,1,7,11
4.56E+02,-6220,-3173,5689,800,584,-107,1,7,11
4.57E+02,-6266,-3112,5666,773,548,123,1,7,11
4.57E+02,-6029,-2795,5640,463,251,109,1,7,11
4.57E+02,-6054,-2785,5649,612,215,108,1,7,11
4.57E+02,-6046,-2812,5649,522,148,118,1,7,11
4.58E+02,-6271,-3101,5651,187,330,108,1,7,11
4.58E+02,-6232,-3128,5643,376,259,87,1,7,11
4.58E+02,-6205,-3168,5654,305,-57,54,1,7,11
4.58E+02,-6189,-3194,5656,-12,-111,19,1,7,11
4.59E+02,-6193,-2954,5671,-64,103,-261,1,7,11
4.59E+02,-6212,-2949,5696,-98,78,-264,1,7,11
4.59E+02,-6217,-3195,5707,-103,48,25,1,7,11
4.59E+02,-6201,-3190,5711,-103,28,64,1,7,11
4.60E+02,-6168,-2950,5712,-99,14,103,1,7,11
4.60E+02,-5885,-2971,5717,-92,16,117,1,7,11
4.60E+02,-5873,-2972,5719,-72,35,112,1,7,11
4.60E+02,-5874,-2948,5735,-42,67,101,1,7,11
4.61E+02,-6149,-3167,5747,-21,105,99,1,7,11
4.61E+02,-6186,-3136,5510,-16,122,108,1,7,11
4.61E+02,-6226,-3097,5757,-8,118,123,1,7,11
4.61E+02,-6242,-2799,5753,-15,95,-113,1,7,11
4.62E+02,-6174,-2806,5669,-114,33,-76,1,7,11
4.62E+02,-5883,-3126,5674,92,42,-101,1,7,11
4.62E+02,-5871,-3170,5689,60,62,100,1,7,11
4.62E+02,-5874,-2959,5721,58,84,41,1,7,11
4.63E+02,-5880,-2969,5741,91,104,-265,1,7,11
4.63E+02,-5888,-2958,5505,125,-127,-304,1,7,11
4.63E+02,-6158,-3175,5518,-92,-99,-321,1,7,11
4.63E+02,-6191,-3121,5754,-52,-77,-309,1,7,11
4.64E+02,-6189,-2809,5721,-44,-85,-270,1,7,11
4.64E+02,-6195,-2812,5730,-103,-99,20,1,7,11
4.64E+02,-6164,-2804,5707,105,120,44,1,7,11
4.64E+02,-6161,-3086,5719,28,95,38,1,7,11
4.65E+02,-6171,-3094,5726,-274,79,32,1,7,11
4.65E+02,-6205,-3097,5749,-302,82,39,1,7,11
4.65E+02,-6248,-3102,5509,-309,84,78,1,7,11
4.65E+02,-6253,-3091,5513,-291,76,-120,1,7,11
4.66E+02,-6246,-3101,5516,-275,58,-68,1,7,11
4.66E+02,-6219,-3110,5516,5,26,-47,1,7,11
4.66E+02,-6205,-3114,5515,22,-271,-49,1,7,11
4.66E+02,-6171,-3098,5748,35,-327,-65,1,7,11
4.67E+02,-5880,-3107,5726,1,-369,-91,1,7,11
4.67E+02,-5844,-3128,5729,-316,-143,-123,1,7,11
4.67E+02,-5826,-3175,5744,-383,-154,90,1,7,11
4.67E+02,-5809,-2963,5520,-165,-162,51,1,7,11
4.68E+02,-5821,-3004,5546,-174,-144,24,1,7,11
4.68E+02,-5837,-2997,5538,-129,-130,30,1,7,11
4.68E+02,-5867,-2973,5545,-340,-358,51,1,7,11
4.68E+02,-5863,-3170,5533,-285,-318,121,1,7,11
4.69E+02,-5863,-3144,5537,11,-267,-82,1,7,11
4.69E+02,-5832,-3111,5506,52,40,-31,1,7,11
4.69E+02,-5824,-3128,5508,67,80,-23,1,7,11
4.69E+02,-5825,-3138,5509,75,126,-41,1,7,11
4.70E+02,-5832,-3176,5525,64,-125,-77,1,7,11
4.70E+02,-5841,-3194,5538,67,115,127,1,7,11
4.70E+02,-5854,-2957,5562,63,102,80,1,7,11
4.70E+02,-5858,-3188,5574,89,93,54,1,7,11
4.71E+02,-5858,-3159,5572,-128,98,50,1,7,11
4.71E+02,-5859,-3130,5560,-101,103,69,1,7,11
4.71E+02,-5847,-3118,5570,-89,101,86,1,7,11
4.71E+02,-5841,-3107,5584,-94,113,92,1,7,11
4.72E+02,-5839,-3095,5610,-96,124,90,1,7,11
4.72E+02,-5856,-3075,5888,-94,-98,78,1,7,11
4.72E+02,-5881,-2784,5905,-94,-66,60,1,7,11
4.72E+02,-6169,-2739,5919,-97,-53,39,1,7,11
4.73E+02,-6182,-2931,5902,-89,-51,12,1,7,11
4.73E+02,-6183,-2891,5624,-111,-57,1,1,7,11
4.73E+02,-6151,-2888,5601,99,-90,-263,1,7,11
4.73E+02,-5863,-2935,5586,11,126,-289,1,7,11
4.74E+02,-5833,-2742,5576,-333,69,-340,1,7,11
4.74E+02,-5815,-2801,5579,-153,31,-144,1,7,11
4.74E+02,-5790,-3127,5590,-229,10,-189,1,7,11
4.74E+02,-5789,-3180,5603,-528,16,-217,1,7,11
4.75E+02,-5799,-2958,5609,-529,57,-213,1,7,11
4.75E+02,-5817,-2967,5596,-195,101,-191,1,7,11
4.75E+02,-5854,-3200,5594,-377,-100,-142,1,7,11
4.75E+02,-5866,-3159,5572,-307,-55,-323,1,7,11
4.76E+02,-5831,-3139,5529,-272,-29,6,1,7,11
4.76E+02,-5765,-3176,5753,-272,257,34,1,7,11
4.76E+02,-5989,-2968,5726,-277,314,-262,1,7,11
4.76E+02,-5998,-3031,5707,-284,377,-336,1,7,11
4.77E+02,-5789,-3048,5685,-300,185,-171,1,7,11
4.77E+02,-5865,-3067,5691,-324,238,-245,1,7,11
4.77E+02,-6198,-3047,5696,-326,254,-524,1,7,11
4.77E+02,-6271,-3018,5699,-312,224,-240,1,7,11
4.78E+02,-6037,-2973,5691,-289,141,-175,1,7,11
4.78E+02,-6035,-2951,5679,-286,300,-357,1,7,11
4.78E+02,-6239,-2958,5653,-310,-81,-290,1,7,11
4.78E+02,-6169,-3003,5632,-374,56,-269,1,7,11
4.79E+02,-5835,-3054,5350,-193,-298,-292,1,7,11
4.79E+02,-5797,-3371,5345,-525,-326,-348,1,7,11
4.79E+02,-5803,-3420,5640,-559,-291,-129,1,7,11
4.79E+02,-5844,-3444,5691,-530,14,-133,1,7,11
4.80E+02,-6146,-3443,5738,-191,57,-361,1,7,11
4.80E+02,-6193,-3403,5520,-328,92,-318,1,7,11
4.80E+02,-6217,-3065,5536,48,114,-272,1,7,11
4.80E+02,-6200,-2955,5745,-107,122,41,1,7,11
4.81E+02,-6169,-3136,5700,-99,-123,81,1,7,11
4.81E+02,-6156,-3125,5684,108,-117,105,1,7,11
4.81E+02,-6150,-3148,5657,26,119,88,1,7,11
4.81E+02,-5882,-3169,5370,-322,97,38,1,7,11
4.82E+02,-5883,-2946,5353,-152,93,-290,1,7,11
4.82E+02,-5883,-2965,5314,-215,108,-369,1,7,11
4.82E+02,-6194,-2959,5344,-255,-101,-182,1,7,11
4.82E+02,-6032,-2958,5384,-250,-67,-201,1,7,11
4.83E+02,-6104,-3171,5657,-192,-82,-175,1,7,11
4.83E+02,-6106,-3121,5661,-139,118,-371,1,7,11
4.83E+02,-6066,-3076,5644,-362,49,-308,1,7,11
4.83E+02,-6259,-3078,5655,-137,-274,-288,1,7,11
4.84E+02,-6194,-3106,5646,-185,-352,-309,1,7,11
4.84E+02,-5865,-2955,5651,-524,-168,-380,1,7,11
4.84E+02,-5797,-3056,5663,-606,-223,-217,1,7,11
4.84E+02,-6016,-3398,5665,-406,-249,-573,1,7,11
4.85E+02,-6006,-3205,5663,-439,-521,-395,1,7,11
4.85E+02,-6005,-3263,5676,-468,-545,-443,1,7,11
4.85E+02,-5968,-3306,5682,-496,-584,-460,1,7,11
4.85E+02,-5931,-3618,5683,-784,-390,-451,1,7,11
4.86E+02,-5891,-3660,5656,-843,-451,-443,1,7,11
4.86E+02,-5577,-3699,5361,-667,-772,-433,1,7,11
4.86E+02,-5532,-3515,5350,-1061,-839,-420,1,7,11
4.86E+02,-5755,-3844,5340,-953,-862,-408,1,7,11
4.87E+02,-5728,-3921,5343,-1341,-879,-387,1,7,11
4.87E+02,-5707,-3739,5338,-1167,-876,-605,1,7,11
4.87E+02,-5692,-3820,5344,-1215,-865,-546,1,7,11
4.87E+02,-5664,-4159,5355,-1211,-855,-214,1,7,11
4.88E+02,-5364,-3989,5371,-1153,-853,-139,1,7,11
4.88E+02,-5313,-4057,5636,-1316,-848,-347,1,7,11
4.88E+02,-5266,-4093,5363,-940,-821,-322,1,7,11
4.88E+02,-5488,-4366,5364,-1069,-507,-313,1,7,11
4.89E+02,-5488,-4384,5656,-677,-441,-301,1,7,11
4.89E+02,-5500,-4396,5693,-769,-393,-280,1,7,11
4.89E+02,-5267,-4370,5716,-584,-603,9,1,7,11
4.89E+02,-5290,-4084,5753,-147,-557,63,1,7,11
4.90E+02,-5290,-4031,5523,38,-249,-123,1,7,11
4.90E+02,-5306,-4222,5553,-48,-168,-55,1,7,11
4.90E+02,-5332,-4137,5582,374,-330,271,1,7,11
4.90E+02,-5342,-3796,5612,520,8,330,1,7,11
4.91E+02,-5363,-3965,5893,396,81,372,1,7,11
4.91E+02,-5367,-3868,5904,500,-115,132,1,7,11
4.91E+02,-5635,-3535,5897,817,-56,130,1,7,11
4.91E+02,-5371,-3473,5622,832,-15,362,1,7,11
4.92E+02,-5649,-3690,5618,813,274,322,1,7,11
4.92E+02,-5696,-3674,5890,775,286,272,1,7,11
4.92E+02,-5743,-3637,5898,502,270,-18,1,7,11
4.92E+02,-5758,-3591,5624,489,-18,-32,1,7,11
4.93E+02,-5749,-3307,5623,455,-45,-31,1,7,11
4.93E+02,-5745,-3304,5897,421,-61,-28,1,7,11
4.93E+02,-5749,-3313,5932,399,-68,-48,1,7,11
4.93E+02,-5755,-3307,5969,401,-71,-85,1,7,11
4.94E+02,-5514,-3285,5982,427,-57,-115,1,7,11
4.94E+02,-5521,-3220,5969,457,-28,123,1,7,11
4.94E+02,-5536,-3435,5972,451,270,-127,1,7,11
4.94E+02,-5519,-3393,5935,439,287,-110,1,7,11
4.95E+02,-5736,-3393,5913,623,304,-110,1,7,11
4.95E+02,-5738,-3444,5923,549,322,125,1,7,11
4.95E+02,-5580,-3406,5785,238,264,101,1,7,11
4.95E+02,-5575,-3336,5814,229,268,-123,1,7,11
4.96E+02,-5587,-3023,5809,224,285,-113,1,7,11
4.96E+02,-5584,-2986,5786,229,295,-100,1,7,11
4.96E+02,-5564,-2993,5766,194,302,-97,1,7,11
4.96E+02,-5541,-3030,5982,157,311,-106,1,7,11
4.97E+02,-5505,-3345,5937,366,323,63,1,7,11
4.97E+02,-5530,-3386,5915,317,354,-281,1,7,11
4.97E+02,-5555,-3425,5906,240,162,-343,1,7,11
4.97E+02,-5595,-3454,5943,-61,207,-138,1,7,11
4.98E+02,-5905,-3203,5974,-55,234,-153,1,7,11
4.98E+02,-5934,-3428,5973,-24,237,-152,1,7,11
4.98E+02,-5969,-3387,5960,3,221,-130,1,7,11
4.98E+02,-5946,-3336,5913,274,176,-352,1,7,11
4.99E+02,-5932,-3069,5621,-17,139,-332,1,7,11
4.99E+02,-5908,-3069,5585,-86,355,-322,1,7,11
4.99E+02,-5628,-3356,5570,67,310,-331,1,7,11
4.99E+02,-5609,-3398,5569,-294,261,-347,1,7,11
5.00E+02,-5568,-3431,5589,-384,-33,-363,1,7,11
5.00E+02,-5560,-3218,5621,-194,-17,-134,1,7,11
5.00E+02,-5608,-3233,5910,-211,297,-148,1,7,11
5.00E+02,-5896,-3222,5900,-139,132,-384,1,7,11
5.01E+02,-5931,-3442,5607,-337,188,-358,1,7,11
5.01E+02,-5974,-3434,5582,-313,231,-319,1,7,11
5.01E+02,-5958,-3433,5509,-292,211,-269,1,7,11
5.01E+02,-5935,-3214,5694,-326,179,6,1,7,11
5.02E+02,-5912,-3266,5646,-381,140,-267,1,7,11
5.02E+02,-5944,-3325,5652,-180,369,-310,1,7,11
5.02E+02,-6001,-3605,5678,-206,337,-335,1,7,11
5.02E+02,-5799,-3614,5716,-194,291,-320,1,7,11
5.03E+02,-5838,-3603,5509,-130,-9,-275,1,7,11
5.03E+02,-5821,-3284,5510,-283,-54,56,1,7,11
5.03E+02,-5796,-3236,5514,41,-83,116,1,7,11
5.03E+02,-6013,-3220,5516,65,-106,-101,1,7,11
5.04E+02,-5966,-3211,5744,69,104,-100,1,7,11
5.04E+02,-5910,-3219,5700,18,51,118,1,7,11
5.04E+02,-5893,-3269,5695,-336,17,50,1,7,11
5.04E+02,-5630,-3326,5705,-153,-284,-268,1,7,11
5.05E+02,-5626,-3645,5735,-199,-327,-327,1,7,11
5.05E+02,-5890,-3676,5525,-176,-341,-359,1,7,11
5.05E+02,-5916,-3665,5537,-358,-335,-359,1,7,11
5.05E+02,-5932,-3628,5545,-276,-314,-317,1,7,11
5.06E+02,-5939,-3326,5550,52,-277,4,1,7,11
5.06E+02,-5927,-3282,5565,110,20,72,1,7,11
5.06E+02,-5903,-3246,5570,-98,52,126,1,7,11
5.06E+02,-5891,-3223,5563,-70,71,-107,1,7,11
5.07E+02,-5610,-3207,5531,-75,66,-108,1,7,11
5.07E+02,-5608,-3213,5529,-125,66,120,1,7,11
5.07E+02,-5617,-3229,5505,68,50,90,1,7,11
5.07E+02,-5622,-3277,5516,-277,21,50,1,7,11
5.08E+02,-5627,-3324,5521,-356,-285,18,1,7,11
5.08E+02,-5627,-3606,5516,-151,-336,-268,1,7,11
5.08E+02,-5621,-3621,5507,-168,-377,-278,1,7,11
5.08E+02,-5609,-3635,5507,-184,-136,-256,1,7,11
5.09E+02,-5574,-3648,5515,-172,-139,34,1,7,11
5.09E+02,-5542,-3658,5532,-151,-352,62,1,7,11
5.09E+02,-5510,-3633,5539,-354,-262,87,1,7,11
5.09E+02,-5512,-3605,5569,5,-54,110,1,7,11
5.10E+02,-5518,-3315,5580,76,326,-125,1,7,11
5.10E+02,-5525,-3277,5603,119,171,125,1,7,11
5.10E+02,-5548,-3242,5625,-113,236,100,1,7,11
5.10E+02,-5582,-3215,5894,-126,531,59,1,7,11
5.11E+02,-5597,-3443,5898,88,534,27,1,7,11
5.11E+02,-5613,-3202,5933,10,517,1,1,7,11
5.11E+02,-5625,-3238,5980,-321,231,-281,1,7,11
5.11E+02,-5599,-3259,5967,-349,164,-302,1,7,11
5.12E+02,-5530,-3268,5907,-160,362,-344,1,7,11
5.12E+02,-5722,-3260,5559,-241,351,-381,1,7,11
5.12E+02,-5716,-3317,5523,-629,380,-160,1,7,11
5.12E+02,-5642,-3621,5665,-448,371,-172,1,7,11
5.13E+02,-5341,-3473,5304,-819,149,-222,1,7,11
5.13E+02,-5388,-3947,5499,-646,213,-530,1,7,11
5.13E+02,-5741,-3805,5485,-658,541,-576,1,7,11
5.13E+02,-5588,-4108,5467,-778,603,-568,1,7,11
5.14E+02,-5946,-4108,5447,-627,630,-224,1,7,11
5.14E+02,-5804,-3830,5485,-205,392,-327,1,7,11
5.14E+02,-5872,-3790,5261,-262,619,126,1,7,11
5.14E+02,-5869,-3722,5276,-69,555,303,1,7,11
5.15E+02,-5834,-3882,5267,346,231,173,1,7,11
5.15E+02,-5803,-3567,5296,176,169,233,1,7,11
5.15E+02,-5784,-3513,5316,236,360,238,1,7,11
5.15E+02,-5783,-3702,5314,543,295,199,1,7,11
5.16E+02,-5793,-3617,5292,572,259,152,1,7,11
5.16E+02,-5805,-3286,5293,556,-8,383,1,7,11
5.16E+02,-5815,-3239,5307,251,-13,380,1,7,11
5.16E+02,-5818,-3250,5333,184,-39,383,1,7,11
5.17E+02,-5818,-3274,5359,128,-83,360,1,7,11
5.17E+02,-5822,-3275,5368,345,119,320,1,7,11
5.17E+02,-5858,-3243,5374,308,77,284,1,7,11
5.17E+02,-6149,-3217,5638,269,31,298,1,7,11
5.18E+02,-6147,-3449,5639,-20,-277,348,1,7,11
5.18E+02,-5856,-3438,5373,-57,-317,150,1,7,11
5.18E+02,-5805,-3445,5356,-107,-338,191,1,7,11
5.18E+02,-6008,-3455,5362,88,-346,194,1,7,11
5.19E+02,-5979,-3225,5368,37,-337,164,1,7,11
5.19E+02,-5955,-3256,5359,-285,-297,353,1,7,11
5.19E+02,-5973,-3290,5374,-318,12,308,1,7,11
5.19E+02,-5998,-3314,5664,-316,57,264,1,7,11
5.20E+02,-6014,-3325,5690,-281,86,-38,1,7,11
5.20E+02,-5784,-3301,5701,47,107,-81,1,7,11
5.20E+02,-5824,-3247,5707,127,126,-110,1,7,11
5.20E+02,-5844,-3439,5703,-53,-124,-114,1,7,11
5.21E+02,-5848,-3409,5687,259,-122,-95,1,7,11
5.21E+02,-5818,-3384,5635,303,-124,-72,1,7,11
5.21E+02,-5785,-3387,5344,311,-109,-55,1,7,11
5.21E+02,-6002,-3416,5316,303,-81,-48,1,7,11
5.22E+02,-6011,-3224,5329,290,-23,-57,1,7,11
5.22E+02,-6012,-3261,5334,304,273,-61,1,7,11
5.22E+02,-5791,-3289,5352,342,328,-72,1,7,11
5.22E+02,-5826,-3276,5367,155,374,-71,1,7,11
5.23E+02,-5882,-3207,5640,228,163,-65,1,7,11
5.23E+02,-6192,-3385,5667,537,192,-35,1,7,11
5.23E+02,-6219,-3021,5668,583,197,-7,1,7,11
5.23E+02,-6213,-3185,5674,590,187,272,1,7,11
5.24E+02,-6209,-3127,5687,568,188,278,1,7,11
5.24E+02,-6193,-3074,5670,521,183,-4,1,7,11
5.24E+02,-6178,-2791,5658,184,172,-60,1,7,11
5.24E+02,-6198,-2782,5661,331,179,111,1,7,11
5.25E+02,-6239,-2793,5689,-39,187,23,1,7,11
5.25E+02,-6032,-3075,5713,-124,184,-308,1,7,11
5.25E+02,-6046,-3103,5706,108,162,-366,1,7,11
5.25E+02,-6036,-3102,5659,113,159,-172,1,7,11
5.26E+02,-6027,-3136,5358,95,172,-231,1,7,11
5.26E+02,-6018,-3182,5308,65,179,-553,1,7,11
5.26E+02,-6024,-2965,5282,40,175,-618,1,7,11
5.26E+02,-6047,-3032,5267,11,154,-400,1,7,11
5.27E+02,-6047,-3092,5282,-273,352,-404,1,7,11
5.27E+02,-6049,-3393,5285,-293,289,-629,1,7,11
5.27E+02,-6258,-3424,5276,-275,-45,-542,1,7,11
5.27E+02,-6226,-3439,5254,-269,-109,-233,1,7,11
5.28E+02,-6208,-3437,5498,-267,110,-182,1,7,11
5.28E+02,-6198,-3444,5259,-293,86,-132,1,7,11
5.28E+02,-6211,-3451,5289,-286,88,-342,1,7,11
5.28E+02,-6226,-3412,5300,24,95,-284,1,7,11
5.29E+02,-6251,-3362,5296,82,118,37,1,7,11
5.29E+02,-6244,-3056,5276,-127,125,120,1,7,11
5.29E+02,-6205,-3040,5483,-119,119,-68,1,7,11
5.29E+02,-6159,-3331,5485,90,117,-50,1,7,11
5.30E+02,-5883,-3385,5248,53,113,-84,1,7,11
5.30E+02,-5879,-3428,5274,28,103,103,1,7,11
5.30E+02,-5888,-3446,5283,17,99,18,1,7,11
5.30E+02,-6184,-3432,5289,20,101,-302,1,7,11
5.31E+02,-6242,-3407,5310,27,93,-344,1,7,11
5.31E+02,-6268,-3368,5313,47,68,-348,1,7,11
5.31E+02,-6259,-3331,5301,61,44,-323,1,7,11
5.31E+02,-6244,-3330,5315,41,18,-289,1,7,11
5.32E+02,-6229,-3071,5330,38,-268,-263,1,7,11
5.32E+02,-6188,-3337,5321,17,-311,10,1,7,11
5.32E+02,-5874,-3358,5305,-284,-347,9,1,7,11
5.32E+02,-5836,-3413,5311,-359,-366,-262,1,7,11
5.33E+02,-5797,-3214,5322,-157,-381,-290,1,7,11
5.33E+02,-5776,-3270,5339,-187,-381,-323,1,7,11
5.33E+02,-6014,-3304,5347,-177,-376,-339,1,7,11
5.33E+02,-6010,-3585,5344,-148,-356,-341,1,7,11
5.34E+02,-5767,-3322,5335,-367,-314,-323,1,7,11
5.34E+02,-5805,-3307,5344,-335,-257,-286,1,7,11
5.34E+02,-5836,-3268,5356,-276,55,23,1,7,11
5.34E+02,-5862,-3216,5372,46,112,100,1,7,11
5.35E+02,-5868,-3426,5375,122,-96,-65,1,7,11
5.35E+02,-5860,-3388,5367,-84,-62,-1,1,7,11
5.35E+02,-5826,-3377,5352,-79,-56,278,1,7,11
5.35E+02,-5802,-3377,5328,-114,-58,-12,1,7,11
5.36E+02,-5829,-3405,5348,62,-49,-90,1,7,11
5.36E+02,-5866,-3410,5366,17,-61,105,1,7,11
5.36E+02,-6154,-3423,5636,-270,-81,73,1,7,11
5.36E+02,-6159,-3423,5373,-267,-100,71,1,7,11
5.37E+02,-6161,-3419,5632,4,-101,94,1,7,11
5.37E+02,-5885,-3433,5370,27,-106,-127,1,7,11
5.37E+02,-5839,-3450,5330,51,-122,-113,1,7,11
5.37E+02,-5795,-3237,5308,53,-121,116,1,7,11
5.38E+02,-5771,-3270,5282,55,-97,61,1,7,11
5.38E+02,-5784,-3282,5280,64,-41,7,1,7,11
5.38E+02,-5822,-3280,5299,89,267,-281,1,7,11
5.38E+02,-5879,-3267,5334,-115,304,-284,1,7,11
5.39E+02,-6181,-3214,5353,-43,305,-273,1,7,11
5.39E+02,-6212,-3394,5359,265,293,-259,1,7,11
5.39E+02,-6237,-3066,5374,297,281,12,1,7,11
5.39E+02,-6227,-3004,5360,305,264,37,1,7,11
5.40E+02,-6207,-2974,5354,288,-15,51,1,7,11
5.40E+02,-6163,-2960,5332,-6,-48,48,1,7,11
5.40E+02,-5870,-2978,5315,-75,-64,11,1,7,11
5.40E+02,-5834,-3010,5294,84,-79,-304,1,7,11
5.41E+02,-5856,-3334,5316,-279,-60,-373,1,7,11
5.41E+02,-6155,-3369,5327,-332,-43,-158,1,7,11
5.41E+02,-6201,-3382,5333,-344,-27,-154,1,7,11
5.41E+02,-6239,-3386,5337,-339,-26,-354,1,7,11
5.42E+02,-6252,-3387,5328,-321,-52,-275,1,7,11
5.42E+02,-6239,-3396,5315,-305,-101,51,1,7,11
5.42E+02,-6201,-3415,5288,-305,90,98,1,7,11
5.42E+02,-5883,-3439,5257,-328,22,107,1,7,11
5.43E+02,-5834,-3223,5501,-368,-271,86,1,7,11
5.43E+02,-5805,-3269,5256,-140,-262,51,1,7,11
5.43E+02,-5801,-3305,5281,-137,46,31,1,7,11
5.43E+02,-5814,-3316,5295,-343,121,32,1,7,11
5.44E+02,-5859,-3293,5308,-267,-46,49,1,7,11
5.44E+02,-6169,-3253,5314,68,270,86,1,7,11
5.44E+02,-6215,-3452,5312,-119,305,120,1,7,11
5.44E+02,-6255,-3387,5301,-65,317,-95,1,7,11
5.45E+02,-6024,-3334,5299,-36,312,-57,1,7,11
5.45E+02,-6255,-3029,5278,-26,280,-21,1,7,11
5.45E+02,-6203,-3021,5481,-65,-9,-30,1,7,11
5.45E+02,-6171,-3062,5478,112,-21,-84,1,7,11
5.46E+02,-6169,-3354,5456,38,-17,88,1,7,11
5.46E+02,-6208,-3387,5470,-286,265,-257,1,7,11
5.46E+02,-6269,-3408,5494,-303,278,-299,1,7,11
5.46E+02,-6063,-3400,5488,-276,271,-301,1,7,11
5.47E+02,-6110,-3373,5455,17,-8,-275,1,7,11
5.47E+02,-6140,-3354,5437,65,-40,30,1,7,11
5.47E+02,-6404,-3066,5420,91,-76,85,1,7,11
5.47E+02,-6133,-3049,5440,107,-110,-120,1,7,11
5.48E+02,-6089,-3045,5461,119,127,-98,1,7,11
5.48E+02,-6063,-3048,5489,-108,-105,-113,1,7,11
5.48E+02,-6035,-3048,5257,-77,-66,101,1,7,11
5.48E+02,-6272,-3048,5254,-55,-20,31,1,7,11
5.49E+02,-6258,-3028,5460,-58,268,-320,1,7,11
5.49E+02,-6244,-3036,5417,124,277,-183,1,7,11
5.49E+02,-6256,-3334,5398,25,267,-545,1,7,11
5.49E+02,-6058,-3381,5377,-331,-43,-386,1,7,11
5.50E+02,-6062,-3433,5119,-190,112,-640,1,7,11
5.50E+02,-6019,-3243,5116,-552,-365,-617,1,7,11
5.50E+02,-6231,-3321,5384,-439,-252,-592,1,7,11
5.50E+02,-6175,-3644,5383,-502,-636,-569,1,7,11
5.51E+02,-5861,-3698,5118,-807,-470,-547,1,7,11
5.51E+02,-5808,-3492,5380,-850,-775,-521,1,7,11
5.51E+02,-5775,-3546,5406,-865,-796,-237,1,7,11
5.51E+02,-6006,-3842,5442,-848,-808,-212,1,7,11
5.52E+02,-6001,-3863,5479,-785,-810,-183,1,7,11
5.52E+02,-5984,-3851,5252,-448,-809,-142,1,7,11
5.52E+02,-5960,-3582,5271,-628,-820,-345,1,7,11
5.52E+02,-5948,-3581,5320,-563,-833,-301,1,7,11
5.53E+02,-5937,-3562,5358,-233,-848,-261,1,7,11
5.53E+02,-5923,-3540,5664,-164,-843,33,1,7,11
5.53E+02,-5903,-3478,5687,-337,-812,80,1,7,11
5.53E+02,-5625,-3653,5693,-278,-499,-114,1,7,11
5.54E+02,-5587,-3601,5700,-263,-420,-36,1,7,11
5.54E+02,-5572,-3588,5712,-278,-590,294,1,7,11
5.54E+02,-5566,-3587,5717,-301,-516,349,1,7,11
5.54E+02,-5588,-3601,5725,-324,-194,382,1,7,11
5.55E+02,-5632,-3613,5724,-325,-133,165,1,7,11
5.55E+02,-5922,-3614,5734,-302,-336,219,1,7,11
5.55E+02,-5920,-3629,5751,-263,-297,534,1,7,11
5.55E+02,-5901,-3645,5511,76,3,572,1,7,11
5.56E+02,-5611,-3638,5513,-72,57,574,1,7,11
5.56E+02,-5587,-3619,5509,294,-122,531,1,7,11
5.56E+02,-5589,-3610,5515,143,-33,205,1,7,11
5.56E+02,-5603,-3587,5756,248,305,374,1,7,11
5.57E+02,-5898,-3292,5751,589,132,277,1,7,11
5.57E+02,-5940,-3241,5748,390,200,-64,1,7,11
5.57E+02,-5980,-3442,5727,433,242,113,1,7,11
5.57E+02,-5763,-3388,5709,431,518,46,1,7,11
5.58E+02,-5808,-3356,5715,404,517,-271,1,7,11
5.58E+02,-5842,-3330,5724,624,225,-315,1,7,11
5.58E+02,-5853,-3063,5732,578,181,-351,1,7,11
5.58E+02,-5855,-3052,5729,542,150,-377,1,7,11
5.59E+02,-5852,-3054,5718,248,147,-140,1,7,11
5.59E+02,-5861,-3061,5743,226,169,-147,1,7,11
5.59E+02,-5846,-3061,5732,245,184,-138,1,7,11
5.59E+02,-5841,-3059,5720,255,201,-145,1,7,11
5.60E+02,-5840,-3068,5721,513,204,-154,1,7,11
5.60E+02,-5817,-3070,5712,251,174,-174,1,7,11
5.60E+02,-5811,-3351,5710,215,133,-215,1,7,11
5.60E+02,-5809,-3366,5714,189,339,-513,1,7,11
5.61E+02,-5822,-3359,5714,163,302,-555,1,7,11
5.61E+02,-5843,-3333,5716,139,282,-564,1,7,11
5.61E+02,-5852,-3058,5724,352,279,-542,1,7,11
5.61E+02,-5859,-3040,5730,314,280,-240,1,7,11
5.62E+02,-5876,-3017,5720,282,285,-190,1,7,11
5.62E+02,-5869,-2992,5696,-7,272,-130,1,7,11
5.62E+02,-5856,-2987,5672,-65,-6,-338,1,7,11
5.62E+02,-5852,-3010,5658,116,-37,-312,1,7,11
5.63E+02,-5829,-3060,5375,36,-79,-301,1,7,11
5.63E+02,-5818,-3385,5365,-300,-103,-310,1,7,11
5.63E+02,-5829,-3441,5632,-362,-108,-330,1,7,11
5.63E+02,-5832,-3215,5643,-381,-108,-344,1,7,11
5.64E+02,-5833,-3231,5644,-130,-106,-350,1,7,11
5.64E+02,-5832,-3234,5649,-377,-114,-349,1,7,11
5.64E+02,-5823,-3220,5649,-350,110,-351,1,7,11
5.64E+02,-5830,-3233,5663,-352,69,-340,1,7,11
5.65E+02,-5790,-3239,5634,-344,-261,-330,1,7,11
5.65E+02,-6006,-3256,5334,-372,-314,-332,1,7,11
5.65E+02,-5984,-3294,5344,-163,-332,-338,1,7,11
5.65E+02,-5987,-3586,5365,-190,-316,-337,1,7,11
5.66E+02,-5988,-3599,5654,-180,-288,-313,1,7,11
5.66E+02,-6006,-3614,5690,-143,11,-274,1,7,11
5.66E+02,-5768,-3594,5716,-321,41,26,1,7,11
5.66E+02,-5782,-3284,5722,12,77,56,1,7,11
5.67E+02,-5809,-3215,5707,73,118,93,1,7,11
5.67E+02,-5832,-3412,5696,104,-108,-112,1,7,11
5.67E+02,-5836,-3375,5679,103,-93,-62,1,7,11
5.67E+02,-5837,-3357,5654,81,-98,-31,1,7,11
5.68E+02,-5817,-3359,5364,31,-117,-25,1,7,11
5.68E+02,-5792,-3394,5353,-296,119,-55,1,7,11
5.68E+02,-5779,-3205,5374,-369,102,-106,1,7,11
5.68E+02,-6014,-3256,5643,-148,83,82,1,7,11
5.69E+02,-6016,-3288,5659,-156,86,9,1,7,11
5.69E+02,-5780,-3281,5657,-136,95,-297,1,7,11
5.69E+02,-5814,-3261,5658,-370,112,-316,1,7,11
5.69E+02,-5839,-3230,5654,-340,125,-292,1,7,11
5.70E+02,-5833,-3201,5646,-321,-125,7,1,7,11
5.70E+02,-5823,-3449,5667,-315,-114,48,1,7,11
5.70E+02,-5803,-3448,5676,-310,-127,73,1,7,11
5.70E+02,-5766,-3450,5647,-309,104,68,1,7,11
5.71E+02,-5992,-3222,5632,-357,83,34,1,7,11
5.71E+02,-5978,-3271,5632,-156,61,-265,1,7,11
5.71E+02,-5968,-3585,5639,-203,37,-316,1,7,11
5.71E+02,-5969,-3623,5645,-222,14,-356,1,7,11
5.72E+02,-5973,-3649,5659,-213,1,-372,1,7,11
5.72E+02,-5968,-3651,5665,-173,3,-352,1,7,11
5.72E+02,-5955,-3633,5666,-131,33,-307,1,7,11
5.72E+02,-5956,-3608,5669,-339,86,8,1,7,11
5.73E+02,-5962,-3320,5642,-293,-112,70,1,7,11
5.73E+02,-5969,-3292,5368,-274,-63,123,1,7,11
5.73E+02,-5971,-3299,5363,-293,-30,-103,1,7,11
5.73E+02,-5982,-3317,5350,-310,-15,-103,1,7,11
5.74E+02,-5992,-3327,5337,-327,-9,124,1,7,11
5.74E+02,-5762,-3596,5334,-344,-10,96,1,7,11
5.74E+02,-5796,-3614,5338,-351,-26,82,1,7,11
5.74E+02,-5817,-3632,5340,-335,-52,88,1,7,11
5.75E+02,-5824,-3644,5355,-307,-76,90,1,7,11
5.75E+02,-5825,-3629,5356,1,-99,98,1,7,11
5.75E+02,-5809,-3609,5348,45,-116,106,1,7,11
5.75E+02,-5805,-3586,5341,83,-120,114,1,7,11
5.76E+02,-5786,-3317,5337,107,122,119,1,7,11
5.76E+02,-5763,-3302,5329,105,118,103,1,7,11
5.76E+02,-6014,-3306,5320,88,125,76,1,7,11
5.76E+02,-5761,-3302,5314,70,-125,38,1,7,11
5.77E+02,-5777,-3293,5321,56,-108,8,1,7,11
5.77E+02,-5807,-3294,5333,53,-92,-260,1,7,11
5.77E+02,-5839,-3285,5332,57,-79,1,1,7,11
5.77E+02,-5873,-3273,5339,68,-76,16,1,7,11
5.78E+02,-5888,-3259,5330,79,-87,44,1,7,11
5.78E+02,-6148,-3247,5341,82,-107,67,1,7,11
5.78E+02,-5875,-3237,5357,82,-128,79,1,7,11
5.78E+02,-5852,-3225,5358,91,103,73,1,7,11
5.79E+02,-5819,-3232,5345,77,76,50,1,7,11
5.79E+02,-5786,-3260,5335,43,45,9,1,7,11
5.79E+02,-6016,-3307,5330,0,13,-308,1,7,11
5.79E+02,-6014,-3593,5329,-293,-267,-379,1,7,11
5.80E+02,-6009,-3618,5338,-311,-284,-169,1,7,11
5.80E+02,-6013,-3636,5333,-311,-284,-181,1,7,11
5.80E+02,-6000,-3645,5321,-289,-277,-156,1,7,11
5.80E+02,-5994,-3659,5298,-262,2,-381,1,7,11
5.81E+02,-5985,-3664,5288,21,39,-355,1,7,11
5.81E+02,-5762,-3670,5299,52,93,-323,1,7,11
5.81E+02,-5793,-3654,5332,103,-119,-282,1,7,11
5.81E+02,-5806,-3611,5352,-94,-88,19,1,7,11
5.82E+02,-5803,-3297,5343,-40,-55,62,1,7,11
5.82E+02,-5806,-3250,5355,-19,-25,94,1,7,11
5.82E+02,-5806,-3215,5351,-21,-12,106,1,7,11
5.82E+02,-5811,-3454,5348,-44,-15,94,1,7,11
5.83E+02,-5814,-3439,5348,-84,-30,61,1,7,11
5.83E+02,-5808,-3448,5365,114,-44,24,1,7,11
5.83E+02,-5794,-3442,5368,68,-64,-271,1,7,11
5.83E+02,-5776,-3449,5363,15,-74,-311,1,7,11
5.84E+02,-6013,-3212,5349,-297,-74,-344,1,7,11
5.84E+02,-6001,-3249,5347,-351,-53,-376,1,7,11
5.84E+02,-6008,-3281,5333,-138,-27,-140,1,7,11
5.84E+02,-5769,-3318,5354,-187,257,-148,1,7,11
5.85E+02,-5771,-3604,5364,-224,-10,-133,1,7,11
5.85E+02,-6007,-3644,5636,-252,-56,-375,1,7,11
5.85E+02,-6002,-3669,5655,-535,-110,-369,1,7,11
5.85E+02,-5982,-3693,5687,-562,66,-365,1,7,11
5.86E+02,-5956,-3708,5703,-580,-272,-361,1,7,11
5.86E+02,-5929,-3701,5685,-591,-331,-339,1,7,11
5.86E+02,-5629,-3663,5358,-614,-382,-299,1,7,11
5.86E+02,-5550,-3702,5279,-455,-157,2,1,7,11
5.87E+02,-5519,-3495,5260,-822,-144,14,1,7,11
5.87E+02,-5546,-3556,5257,-664,-362,16,1,7,11
5.87E+02,-5610,-3868,5272,-711,-306,28,1,7,11
5.87E+02,-5927,-3893,5272,-699,27,73,1,7,11
5.88E+02,-5983,-3906,5276,-896,116,-96,1,7,11
5.88E+02,-5769,-3935,5322,-816,-48,273,1,7,11
5.88E+02,-5795,-3938,5367,-439,285,373,1,7,11
5.88E+02,-5799,-3928,5650,-544,330,189,1,7,11
5.89E+02,-5995,-3471,5632,-46,208,188,1,7,11
5.89E+02,-5962,-3650,5361,319,524,368,1,7,11
5.89E+02,-5946,-3609,5358,379,582,257,1,7,11
5.89E+02,-5951,-3588,5356,379,611,123,1,7,11
5.90E+02,-5974,-3317,5345,350,606,-287,1,7,11
5.90E+02,-5992,-3293,5303,295,575,-177,1,7,11
5.90E+02,-6013,-3283,5266,-60,535,-551,1,7,11
5.90E+02,-5791,-3302,5495,-118,243,-625,1,7,11
5.91E+02,-5813,-3595,5470,12,195,-396,1,7,11
5.91E+02,-5814,-3643,5434,-135,142,-390,1,7,11
5.91E+02,-5818,-3700,5394,-211,358,-619,1,7,11
5.91E+02,-5826,-3501,5086,-266,328,-574,1,7,11
5.92E+02,-5833,-3561,5048,-564,310,-516,1,7,11
5.92E+02,-5848,-3875,5019,-582,310,-191,1,7,11
5.92E+02,-5861,-3920,4992,-565,315,-375,1,7,11
5.92E+02,-5873,-3947,5235,-521,315,-308,1,7,11
5.93E+02,-6149,-3967,5237,-206,311,6,1,7,11
5.93E+02,-6171,-3965,5240,-129,286,56,1,7,11
5.93E+02,-6181,-3942,5235,-316,-20,89,1,7,11
5.93E+02,-6180,-3918,5235,-263,-79,115,1,7,11
5.94E+02,-6180,-3900,5233,23,114,-127,1,7,11
5.94E+02,-6185,-3892,4996,38,50,-116,1,7,11
5.94E+02,-6178,-3896,5022,62,-272,-100,1,7,11
5.94E+02,-6159,-3869,5015,94,-333,-85,1,7,11
5.95E+02,-5863,-3852,5012,96,-366,-66,1,7,11
5.95E+02,-5831,-3844,5020,86,-379,-53,1,7,11
5.95E+02,-5795,-3842,5023,59,-374,-61,1,7,11
5.95E+02,-5774,-3848,5039,27,-360,-77,1,7,11
5.96E+02,-6012,-3863,5057,-265,-345,-106,1,7,11
5.96E+02,-6015,-3874,5067,-296,-325,122,1,7,11
5.96E+02,-5775,-3880,5071,-317,-310,111,1,7,11
5.96E+02,-5795,-3894,5068,-321,-294,126,1,7,11
5.97E+02,-5816,-3904,5077,-312,-276,-100,1,7,11
5.97E+02,-5825,-3911,5098,-287,-268,-56,1,7,11
5.97E+02,-5821,-3920,5109,2,-274,-23,1,7,11
5.97E+02,-5804,-3919,5387,41,-288,-15,1,7,11
5.98E+02,-5778,-3900,5389,87,-294,-30,1,7,11
5.98E+02,-5766,-3875,5385,-125,-281,-59,1,7,11
5.98E+02,-5770,-3582,5385,-88,12,-82,1,7,11
5.98E+02,-5773,-3543,5391,-59,52,-91,1,7,11
5.99E+02,-5782,-3519,5391,-46,90,-93,1,7,11
5.99E+02,-5802,-3511,5396,-47,113,-98,1,7,11
5.99E+02,-5819,-3503,5403,-67,96,-119,1,7,11
5.99E+02,-5840,-3493,5399,-92,59,113,1,7,11
6.00E+02,-5847,-3479,5412,117,21,99,1,7,11
6.00E+02,-5850,-3464,5409,93,2,116,1,7,11
6.00E+02,-5835,-3711,5410,73,13,-99,1,7,11
6.00E+02,-5819,-3464,5427,73,59,-44,1,7,11
6.01E+02,-5792,-3472,5448,93,107,256,1,7,11
6.01E+02,-5779,-3477,5459,121,-99,270,1,7,11
6.01E+02,-5768,-3475,5452,-114,-69,-9,1,7,11
6.01E+02,-5782,-3701,5437,-94,-44,-52,1,7,11
6.02E+02,-5805,-3696,5436,-99,-41,-89,1,7,11
6.02E+02,-5817,-3704,5422,-111,-57,-110,1,7,11
6.02E+02,-5829,-3470,5420,-124,-71,-120,1,7,11
6.02E+02,-5832,-3486,5419,-126,-74,-121,1,7,11
6.03E+02,-5827,-3486,5409,-100,-73,-113,1,7,11
6.03E+02,-5821,-3497,5400,-77,-70,-105,1,7,11
6.03E+02,-5824,-3496,5394,-47,-62,-102,1,7,11
6.03E+02,-5838,-3483,5397,-21,-40,-102,1,7,11
6.04E+02,-5852,-3458,5404,269,-30,-93,1,7,11
6.04E+02,-5871,-3702,5411,291,-23,-80,1,7,11
6.04E+02,-6157,-3684,5421,314,-21,-64,1,7,11
6.04E+02,-6162,-3648,5425,338,-37,-52,1,7,11
6.05E+02,-6164,-3604,5422,351,-56,-53,1,7,11
6.05E+02,-6161,-3316,5415,348,-86,-54,1,7,11
6.05E+02,-6173,-3313,5436,303,-123,-62,1,7,11
6.05E+02,-6171,-3319,5451,292,113,-72,1,7,11
6.06E+02,-6174,-3304,5457,302,113,-91,1,7,11
6.06E+02,-6182,-3284,5468,316,127,-103,1,7,11
6.06E+02,-6174,-3254,5450,329,-117,-102,1,7,11
6.06E+02,-6172,-3235,5455,308,-96,-109,1,7,11
6.07E+02,-6172,-3220,5462,284,-79,-120,1,7,11
6.07E+02,-6178,-3231,5473,261,-69,127,1,7,11
6.07E+02,-6153,-3229,5468,-22,-83,106,1,7,11
6.07E+02,-5877,-3250,5471,-54,-86,81,1,7,11
6.08E+02,-5882,-3265,5486,-84,-89,47,1,7,11
6.08E+02,-6154,-3268,5497,-96,-90,28,1,7,11
6.08E+02,-6162,-3262,5488,-113,-99,28,1,7,11
6.08E+02,-6184,-3254,5493,125,-105,53,1,7,11
6.09E+02,-6183,-3250,5499,99,-117,90,1,7,11
6.09E+02,-6188,-3257,5501,74,126,124,1,7,11
6.09E+02,-6186,-3256,5248,63,110,-103,1,7,11
6.09E+02,-6177,-3249,5503,62,98,-89,1,7,11
6.10E+02,-6157,-3242,5480,73,100,-83,1,7,11
6.10E+02,-6156,-3245,5468,79,-128,-89,1,7,11
6.10E+02,-6162,-3231,5457,91,-93,-100,1,7,11
6.10E+02,-6168,-3231,5461,92,-63,-117,1,7,11
6.11E+02,-6201,-3224,5476,90,-47,116,1,7,11
6.11E+02,-6236,-3220,5490,85,-58,99,1,7,11
6.11E+02,-6258,-3205,5486,76,-93,83,1,7,11
6.11E+02,-6034,-3442,5477,69,119,74,1,7,11
6.12E+02,-6039,-3438,5475,52,69,77,1,7,11
6.12E+02,-6021,-3432,5457,51,30,90,1,7,11
6.12E+02,-6238,-3440,5444,54,12,95,1,7,11
6.12E+02,-6202,-3456,5427,59,23,90,1,7,11
6.13E+02,-6172,-3235,5430,59,43,77,1,7,11
6.13E+02,-6147,-3278,5436,68,55,44,1,7,11
6.13E+02,-5881,-3314,5455,79,60,-268,1,7,11
6.13E+02,-5881,-3588,5472,101,55,-331,1,7,11
6.14E+02,-6148,-3601,5488,-128,45,-384,1,7,11
6.14E+02,-6178,-3585,5497,-101,44,-162,1,7,11
6.14E+02,-6215,-3305,5249,-61,35,-159,1,7,11
6.14E+02,-6200,-3262,5498,-26,22,-130,1,7,11
6.15E+02,-6174,-3240,5248,-18,32,-350,1,7,11
6.15E+02,-6147,-3232,5252,-10,46,-322,1,7,11
6.15E+02,-5882,-3220,5273,-1,53,-306,1,7,11
6.15E+02,-5868,-3228,5277,-8,46,-302,1,7,11
6.16E+02,-5860,-3235,5287,-32,34,-306,1,7,11
6.16E+02,-5864,-3245,5298,-65,13,-312,1,7,11
6.16E+02,-5866,-3246,5320,-91,-274,-310,1,7,11
6.16E+02,-5845,-3254,5323,-106,-305,-305,1,7,11
6.17E+02,-5820,-3259,5310,-118,-313,-297,1,7,11
6.17E+02,-5811,-3256,5304,125,-287,-285,1,7,11
6.17E+02,-5832,-3243,5311,116,15,-263,1,7,11
6.17E+02,-5853,-3222,5311,108,53,27,1,7,11
6.18E+02,-5866,-3450,5294,99,78,76,1,7,11
6.18E+02,-5857,-3204,5291,75,92,125,1,7,11
6.18E+02,-5851,-3216,5304,57,101,-99,1,7,11
6.18E+02,-5852,-3227,5307,65,106,-92,1,7,11
6.19E+02,-5845,-3251,5323,67,116,-97,1,7,11
6.19E+02,-5856,-3262,5341,75,123,-110,1,7,11
6.19E+02,-5865,-3270,5356,88,120,124,1,7,11
6.19E+02,-5876,-3243,5374,106,99,97,1,7,11
6.20E+02,-5878,-3455,5364,117,64,80,1,7,11
6.20E+02,-5882,-3430,5360,93,32,77,1,7,11
6.20E+02,-5862,-3421,5351,57,-263,88,1,7,11
6.20E+02,-5811,-3444,5354,1,-302,88,1,7,11
6.21E+02,-5778,-3212,5340,-325,-304,75,1,7,11
6.21E+02,-6013,-3247,5347,-364,-281,58,1,7,11
6.21E+02,-5997,-3285,5341,-375,18,45,1,7,11
6.21E+02,-6011,-3304,5346,-357,81,33,1,7,11
6.22E+02,-5775,-3312,5344,-312,-107,37,1,7,11
6.22E+02,-5800,-3301,5333,-257,-45,49,1,7,11
6.22E+02,-5852,-3281,5333,38,256,62,1,7,11
6.22E+02,-6151,-3257,5327,62,257,84,1,7,11
6.23E+02,-6162,-3233,5317,72,-34,103,1,7,11
6.23E+02,-6170,-3203,5307,81,-75,126,1,7,11
6.23E+02,-6155,-3201,5307,69,-108,-102,1,7,11
6.23E+02,-5879,-3210,5316,72,125,-85,1,7,11
6.24E+02,-5880,-3217,5317,93,124,-84,1,7,11
6.24E+02,-5855,-3217,5295,108,115,-86,1,7,11
6.24E+02,-5844,-3232,5302,97,122,-100,1,7,11
6.24E+02,-5842,-3250,5316,76,116,-119,1,7,11
6.25E+02,-5852,-3259,5329,60,98,101,1,7,11
6.25E+02,-5868,-3256,5335,61,69,69,1,7,11
6.25E+02,-6145,-3234,5337,66,43,48,1,7,11
6.25E+02,-6161,-3211,5340,71,34,53,1,7,11
6.26E+02,-6169,-3442,5347,88,30,78,1,7,11
6.26E+02,-6157,-3415,5341,109,38,101,1,7,11
6.26E+02,-5858,-3385,5326,115,46,115,1,7,11
6.26E+02,-5822,-3400,5334,103,69,97,1,7,11
6.27E+02,-5784,-3409,5331,96,108,56,1,7,11
6.27E+02,-6012,-3448,5337,73,-107,-257,1,7,11
6.27E+02,-5766,-3229,5341,60,-59,-324,1,7,11
6.27E+02,-5803,-3246,5340,49,-31,-129,1,7,11
6.28E+02,-5832,-3258,5345,43,-36,-156,1,7,11
6.28E+02,-5854,-3258,5346,31,-68,-151,1,7,11
6.28E+02,-5850,-3263,5355,12,-124,-371,1,7,11
6.28E+02,-5824,-3268,5359,2,69,-319,1,7,11
6.29E+02,-5783,-3277,5352,-266,30,-281,1,7,11
6.29E+02,-5763,-3299,5359,-264,38,2,1,7,11
6.29E+02,-5762,-3298,5364,20,94,22,1,7,11
6.29E+02,-5794,-3275,5639,54,-70,48,1,7,11
6.30E+02,-5836,-3252,5685,96,261,84,1,7,11
6.30E+02,-5866,-3207,5685,-101,292,110,1,7,11
6.30E+02,-6148,-3429,5683,-71,283,118,1,7,11
6.30E+02,-5882,-3388,5645,-49,-12,109,1,7,11
6.31E+02,-5863,-3356,5339,-80,-53,79,1,7,11
6.31E+02,-5849,-3371,5333,90,-80,39,1,7,11
6.31E+02,-5851,-3387,5323,15,-101,0,1,7,11
6.31E+02,-5870,-3405,5323,-310,-104,-283,1,7,11
6.32E+02,-6158,-3409,5322,-362,-93,-282,1,7,11
6.32E+02,-6195,-3414,5321,-146,-86,8,1,7,11
6.32E+02,-6215,-3429,5318,-173,-86,63,1,7,11
6.32E+02,-6215,-3432,5294,-177,-102,-118,1,7,11
6.33E+02,-6182,-3207,5254,-179,-122,-59,1,7,11
6.33E+02,-5860,-3248,5477,-169,121,-44,1,7,11
6.33E+02,-5841,-3266,5453,-161,-107,-77,1,7,11
6.33E+02,-5822,-3606,5456,-177,-50,90,1,7,11
6.34E+02,-5857,-3633,5492,-153,1,31,1,7,11
6.34E+02,-6158,-3627,5260,-364,280,-271,1,7,11
6.34E+02,-6212,-3599,5285,-298,265,-291,1,7,11
6.34E+02,-6231,-3292,5271,34,-55,-286,1,7,11
6.35E+02,-6214,-3266,5264,71,103,-264,1,7,11
6.35E+02,-5880,-3277,5484,52,1,-263,1,7,11
6.35E+02,-5795,-3317,5456,-4,-323,-305,1,7,11
6.35E+02,-6003,-3620,5459,-317,-320,-374,1,7,11
6.36E+02,-6008,-3642,5474,-330,-257,-175,1,7,11
6.36E+02,-5799,-3657,5262,-319,87,-187,1,7,11
6.36E+02,-5857,-3633,5288,-257,-107,-155,1,7,11
6.36E+02,-6165,-3612,5303,71,-69,-349,1,7,11
6.37E+02,-6204,-3299,5304,-113,-65,-279,1,7,11
6.37E+02,-6205,-3230,5274,-68,-93,53,1,7,11
6.37E+02,-6172,-3444,5491,-86,114,124,1,7,11
6.37E+02,-5845,-3451,5468,103,57,-97,1,7,11
6.38E+02,-5781,-3244,5457,24,27,-115,1,7,11
6.38E+02,-5996,-3303,5455,-287,33,79,1,7,11
6.38E+02,-5995,-3594,5455,-314,94,-261,1,7,11
6.38E+02,-5808,-3628,5449,-304,-61,-318,1,7,11
6.39E+02,-6181,-3625,5451,12,307,-332,1,7,11
6.39E+02,-6058,-3318,5469,112,134,-279,1,7,11
6.39E+02,-6418,-3253,5494,-27,158,89,1,7,11
6.39E+02,-6438,-3430,5493,334,371,-41,1,7,11
6.40E+02,-6412,-3374,5250,143,285,303,1,7,11
6.40E+02,-6099,-3351,5270,163,-87,326,1,7,11
6.40E+02,-6261,-3341,5281,155,52,268,1,7,11
6.40E+02,-6183,-3340,5270,357,-285,-125,1,7,11
6.41E+02,-5881,-3365,5287,267,-327,-285,1,7,11
6.41E+02,-5868,-3384,5303,-90,-347,-187,1,7,11
6.41E+02,-5870,-3404,5320,80,-365,-553,1,7,11
6.41E+02,-5856,-3207,5337,-268,-150,-614,1,7,11
6.42E+02,-5847,-3256,5353,-321,-208,-637,1,7,11
6.42E+02,-5823,-3286,5363,-370,-543,-385,1,7,11
6.42E+02,-5779,-3311,5365,-160,-632,-619,1,7,11
6.42E+02,-5971,-3589,5357,-233,-460,-587,1,7,11
6.43E+02,-5927,-3619,5364,-596,-512,-557,1,7,11
6.43E+02,-5627,-3674,5637,-439,-813,-517,1,7,11
6.43E+02,-5574,-3491,5635,-776,-844,-222,1,7,11
6.43E+02,-5532,-3570,5642,-828,-841,-185,1,7,11
6.44E+02,-5518,-3874,5646,-836,-800,-145,1,7,11
6.44E+02,-5526,-3901,5669,-811,-490,-343,1,7,11
6.44E+02,-5522,-3959,5714,-511,-452,-267,1,7,11
6.44E+02,-5745,-3723,5713,-427,-442,60,1,7,11
6.45E+02,-5702,-3729,5704,-595,-443,99,1,7,11
6.45E+02,-5663,-3961,5682,-248,-420,103,1,7,11
6.45E+02,-5666,-3918,5655,-163,-624,112,1,7,11
6.45E+02,-5685,-3904,5658,-370,-553,-110,1,7,11
6.46E+02,-5712,-3900,5672,-319,-233,-42,1,7,11
6.46E+02,-5737,-3893,5676,-259,-186,295,1,7,11
6.46E+02,-5760,-3894,5708,58,-144,379,1,7,11
6.46E+02,-5512,-3874,5721,125,-352,196,1,7,11
6.47E+02,-5551,-3566,5739,-52,-286,252,1,7,11
6.47E+02,-5588,-3495,5759,289,47,557,1,7,11
6.47E+02,-5596,-3465,5520,367,112,613,1,7,11
6.47E+02,-5617,-3655,5545,191,-82,394,1,7,11
6.48E+02,-5618,-3606,5548,517,-29,405,1,7,11
6.48E+02,-5614,-3301,5560,575,273,621,1,7,11
6.48E+02,-5632,-3235,5543,630,316,544,1,7,11
6.48E+02,-5907,-3421,5538,401,345,193,1,7,11
6.49E+02,-5959,-3340,5550,397,373,359,1,7,11
6.49E+02,-5982,-3069,5560,629,135,285,1,7,11
6.49E+02,-5774,-3023,5559,607,143,-28,1,7,11
6.49E+02,-5819,-2986,5532,560,139,-64,1,7,11
6.50E+02,-5816,-2954,5513,234,363,-81,1,7,11
6.50E+02,-5818,-2960,5755,136,321,-100,1,7,11
6.50E+02,-5823,-2982,5749,295,265,-123,1,7,11
6.50E+02,-5828,-3017,5505,-52,-57,106,1,7,11
6.51E+02,-5850,-3054,5536,-113,-117,88,1,7,11
6.51E+02,-5856,-3335,5556,124,79,93,1,7,11
6.51E+02,-5846,-3329,5562,-114,37,109,1,7,11
6.51E+02,-5820,-3042,5573,-79,21,-122,1,7,11
6.52E+02,-5812,-3034,5594,-69,30,-101,1,7,11
6.52E+02,-5828,-3002,5623,-49,36,-80,1,7,11
6.52E+02,-5832,-2959,5619,-32,32,-76,1,7,11
6.52E+02,-5794,-3189,5592,-11,-259,-63,1,7,11
6.53E+02,-5765,-3190,5573,-46,-284,-70,1,7,11
6.53E+02,-5999,-2966,5564,-104,-289,-93,1,7,11
6.53E+02,-5978,-3013,5560,95,-296,106,1,7,11
6.53E+02,-5970,-3054,5561,48,-283,84,1,7,11
6.54E+02,-5967,-3349,5585,4,8,40,1,7,11
6.54E+02,-5967,-3365,5603,-266,47,12,1,7,11
6.54E+02,-5966,-3360,5606,-260,73,-268,1,7,11
6.54E+02,-5974,-3334,5583,18,92,-285,1,7,11
6.55E+02,-5991,-3062,5562,23,107,-295,1,7,11
6.55E+02,-5978,-3057,5544,14,113,-277,1,7,11
6.55E+02,-5972,-3350,5534,-275,96,-272,1,7,11
6.55E+02,-5966,-3367,5517,-328,84,-276,1,7,11
6.56E+02,-5970,-3402,5523,-376,83,-281,1,7,11
6.56E+02,-5977,-3440,5556,-144,80,-272,1,7,11
6.56E+02,-5982,-3214,5591,-130,78,3,1,7,11
6.56E+02,-5984,-3220,5625,-325,75,28,1,7,11
6.57E+02,-5982,-3449,5630,7,87,37,1,7,11
6.57E+02,-5984,-3391,5610,85,115,48,1,7,11
6.57E+02,-5986,-3339,5577,-126,-110,65,1,7,11
6.57E+02,-5970,-3046,5542,-125,-85,80,1,7,11
6.58E+02,-5964,-3042,5512,98,-63,79,1,7,11
6.58E+02,-5963,-3055,5746,38,-62,57,1,7,11
6.58E+02,-5973,-3350,5737,-290,-74,25,1,7,11
6.58E+02,-5973,-3404,5746,-349,-115,-258,1,7,11
6.59E+02,-6000,-3205,5519,-384,118,-294,1,7,11
6.59E+02,-5765,-3226,5537,-135,92,-304,1,7,11
6.59E+02,-5780,-3232,5572,-364,75,-293,1,7,11
6.59E+02,-5788,-3203,5585,-299,64,-260,1,7,11
6.60E+02,-5779,-3402,5569,29,67,52,1,7,11
6.60E+02,-5996,-3364,5565,70,77,103,1,7,11
6.60E+02,-5967,-3349,5556,80,89,126,1,7,11
