timestamp,ax,ay,az,gx,gy,gz,Label1,Label2,Label3
1.72313E+12,-7907,1615,913,13,-60,38,1,7,11
1.72313E+12,-7911,1613,917,2,-55,46,1,7,11
1.72313E+12,-7909,1610,909,-263,-49,54,1,7,11
1.72313E+12,-7911,1598,918,-271,-47,66,1,7,11
1.72313E+12,-7909,1589,914,-267,-48,69,1,7,11
1.72313E+12,-7912,1585,916,-260,-50,67,1,7,11
1.72313E+12,-7916,1590,916,9,-53,65,1,7,11
1.72313E+12,-7911,1591,918,16,-58,61,1,7,11
1.72313E+12,-7902,1604,914,33,-66,66,1,7,11
1.72313E+12,-7896,1611,1149,37,-76,73,1,7,11
1.72313E+12,-7891,1617,1137,25,-86,65,1,7,11
1.72313E+12,-7897,1625,1134,10,-92,56,1,7,11
1.72313E+12,-7907,1639,1132,-266,-105,52,1,7,11
1.72313E+12,-7909,1638,1131,-301,-114,45,1,7,11
1.72313E+12,-7904,1628,1133,-327,-118,46,1,7,11
1.72313E+12,-7902,1620,1150,-344,-116,46,1,7,11
1.72313E+12,-7904,1607,907,-350,-111,49,1,7,11
1.72313E+12,-7907,1603,919,-348,-105,53,1,7,11
1.72313E+12,-7907,1604,920,-339,-101,53,1,7,11
1.72313E+12,-7911,1604,928,-327,-101,48,1,7,11
1.72313E+12,-7905,1604,938,-310,-97,50,1,7,11
1.72313E+12,-7907,1606,940,-291,-91,50,1,7,11
1.72313E+12,-7901,1613,934,-275,-83,54,1,7,11
1.72313E+12,-7893,1611,933,-259,-69,61,1,7,11
1.72313E+12,-7890,1608,929,13,-64,59,1,7,11
1.72313E+12,-7888,1612,926,33,-55,58,1,7,11
1.72313E+12,-7889,1617,918,52,-52,50,1,7,11
1.72313E+12,-7890,1620,915,57,-53,45,1,7,11
1.72313E+12,-7894,1622,920,59,-63,39,1,7,11
1.72313E+12,-7896,1619,919,58,-74,31,1,7,11
1.72313E+12,-7897,1614,923,54,-87,25,1,7,11
1.72313E+12,-7896,1610,920,59,-99,20,1,7,11
1.72313E+12,-7895,1613,931,65,-106,19,1,7,11
1.72313E+12,-7887,1614,928,70,-108,20,1,7,11
1.72313E+12,-7883,1613,922,64,-102,22,1,7,11
1.72313E+12,-7876,1603,923,60,-94,21,1,7,11
1.72313E+12,-7880,1605,924,68,-82,11,1,7,11
1.72313E+12,-7896,1596,922,68,-70,4,1,7,11
1.72313E+12,-7915,1594,937,75,-55,-268,1,7,11
1.72313E+12,-7936,1585,948,87,-54,-276,1,7,11
1.72313E+12,-7932,1573,958,100,-67,-269,1,7,11
1.72313E+12,-7916,1560,946,122,-76,0,1,7,11
1.72313E+12,-7907,1549,937,-121,-69,13,1,7,11
1.72313E+12,-7902,1549,925,-103,-58,17,1,7,11
1.72313E+12,-7909,1561,913,-94,-49,22,1,7,11
1.72313E+12,-7913,1573,900,-94,-45,22,1,7,11
1.72313E+12,-7911,1578,1145,-113,-41,24,1,7,11
1.72313E+12,-7911,1581,1140,115,-39,26,1,7,11
1.72313E+12,-7906,1575,1138,99,-33,23,1,7,11
1.72313E+12,-7911,1570,1143,89,-31,15,1,7,11
1.72313E+12,-7919,1563,1141,86,-34,2,1,7,11
1.72313E+12,-7929,1574,1150,95,-44,-262,1,7,11
1.72313E+12,-8195,1587,1148,100,-64,-258,1,7,11
1.72313E+12,-7916,1580,1147,96,-88,10,1,7,11
1.72313E+12,-7894,1580,1143,103,-96,7,1,7,11
1.72313E+12,-7886,1580,902,121,-91,-263,1,7,11
1.72313E+12,-7890,1588,919,-114,-86,-281,1,7,11
1.72313E+12,-7890,1589,932,-97,-87,-297,1,7,11
1.72313E+12,-7887,1584,942,-83,-86,-311,1,7,11
1.72313E+12,-7884,1569,945,-59,-75,-325,1,7,11
1.72313E+12,-7880,1548,954,-27,-61,-338,1,7,11
1.72313E+12,-7881,1271,966,270,-45,-357,1,7,11
1.72313E+12,-7885,1246,971,337,-36,-374,1,7,11
1.72313E+12,-7898,1230,982,150,-29,-132,1,7,11
1.72313E+12,-7900,1212,976,235,-35,-140,1,7,11
1.72313E+12,-7926,1199,981,594,-40,-144,1,7,11
1.72313E+12,-8201,1169,1000,446,-58,-384,1,7,11
1.72313E+12,-8228,1385,1292,860,-95,-354,1,7,11
1.72313E+12,-8222,1369,1291,1070,100,-321,1,7,11
1.72313E+12,-7935,1353,1282,1291,45,-292,1,7,11
1.72313E+12,-7901,1370,1020,1263,23,-274,1,7,11
1.72313E+12,-7867,1389,1008,1476,31,-268,1,7,11
1.72313E+12,-7828,1386,1016,1679,54,-278,1,7,11
1.72313E+12,-8052,1370,1291,2162,83,-340,1,7,11
1.72313E+12,-8040,1349,1301,2289,121,-140,1,7,11
1.72313E+12,-8054,1342,1294,2829,-119,-200,1,7,11
1.72313E+12,-7817,1333,1293,3118,-119,-247,1,7,11
1.72313E+12,-7854,1336,999,3419,125,-539,1,7,11
1.72313E+12,-7876,1304,958,3690,111,-541,1,7,11
1.72313E+12,-7863,960,917,3962,115,-524,1,7,11
1.72313E+12,-7845,1133,1133,4020,-106,-247,1,7,11
1.72313E+12,-7852,1075,1088,4626,-24,-221,1,7,11
1.72313E+12,-7906,1077,1040,4987,336,-196,1,7,11
1.72313E+12,-8236,1142,706,5052,165,-164,1,7,11
1.72313E+12,-8293,980,852,5250,221,-364,1,7,11
1.72313E+12,-8309,1298,487,5297,234,-298,1,7,11
1.72313E+12,-8287,1347,590,5472,227,10,1,7,11
1.72313E+12,-8257,1367,206,4993,225,50,1,7,11
1.72313E+12,-8227,1352,353,4948,217,62,1,7,11
1.72313E+12,-8205,1344,-6,4343,223,52,1,7,11
1.72313E+12,-8202,1333,-94,4219,240,22,1,7,11
1.72313E+12,-8223,1336,110,3547,516,-269,1,7,11
1.72313E+12,-8246,1336,74,3374,514,-304,1,7,11
1.72313E+12,-8266,1334,36,2933,235,-338,1,7,11
1.72313E+12,-8260,1302,22,2243,186,-373,1,7,11
1.72313E+12,-8257,1281,18,2087,141,-159,1,7,11
1.72313E+12,-8273,1294,26,1449,353,-207,1,7,11
1.72313E+12,-8295,1333,22,1336,307,-241,1,7,11
1.72313E+12,-8271,1328,15,697,275,-233,1,7,11
1.72313E+12,-8225,1284,36,595,280,-211,1,7,11
1.72313E+12,-8198,964,86,303,317,-186,1,7,11
1.72313E+12,-8006,1453,-562,-742,-848,118,1,7,11
1.72313E+12,-7661,1511,-551,-140,-531,-163,1,7,11
1.72313E+12,-7980,1233,-321,25,99,16,1,7,11
1.72313E+12,-8010,1244,-332,108,-117,-276,1,7,11
1.72313E+12,-8050,1258,-350,-87,-109,-302,1,7,11
1.72313E+12,-7875,1252,-379,-72,33,-276,1,7,11
1.72313E+12,-7909,1279,-257,-154,-362,-109,1,7,11
1.72313E+12,-7896,1538,30,-197,-130,-82,1,7,11
1.72313E+12,-7855,1605,-97,-551,-368,277,1,7,11
1.72313E+12,-7846,1626,-72,-544,-341,288,1,7,11
1.72313E+12,-7855,1436,309,-167,106,-55,1,7,11
1.72313E+12,-7839,1423,294,-189,104,-50,1,7,11
1.72313E+12,-7828,1635,272,-145,172,-81,1,7,11
1.72313E+12,-7814,1647,-9,-368,186,-82,1,7,11
1.72313E+12,-7823,1448,-317,-432,556,57,1,7,11
1.72313E+12,-7831,1451,-306,-466,558,92,1,7,11
1.72313E+12,-8060,1477,-309,-585,515,-49,1,7,11
1.72313E+12,-8026,1472,-306,-517,242,-32,1,7,11
1.72313E+12,-8012,1492,-325,-171,239,-33,1,7,11
1.72313E+12,-8012,1508,-336,-355,232,-34,1,7,11
1.72313E+12,-8014,1530,-359,-287,210,-45,1,7,11
1.72313E+12,-7992,1824,-518,-70,263,-258,1,7,11
1.72313E+12,-7829,1638,-321,-206,-257,-343,1,7,11
1.72313E+12,-7844,1638,-298,-181,-262,-322,1,7,11
1.72313E+12,-7870,1426,8,-264,14,10,1,7,11
1.72313E+12,-7856,1425,14,5,17,37,1,7,11
1.72313E+12,-8056,1458,30,-94,-22,275,1,7,11
1.72313E+12,-8052,1463,27,-76,-14,267,1,7,11
1.72313E+12,-7967,1815,-378,290,-63,105,1,7,11
1.72313E+12,-7973,1807,-136,260,-40,78,1,7,11
1.72313E+12,-8004,1524,-156,-50,-17,22,1,7,11
1.72313E+12,-8003,1502,-161,-81,-24,10,1,7,11
1.72313E+12,-8057,1484,-205,96,-60,-311,1,7,11
1.72313E+12,-8043,1471,-208,62,-77,-300,1,7,11
1.72313E+12,-8041,1455,-202,34,-76,-290,1,7,11
1.72313E+12,-8041,1446,-198,13,-74,-278,1,7,11
1.72313E+12,-8049,1446,-187,3,-73,-270,1,7,11
1.72313E+12,-8051,1449,-186,-263,-73,-260,1,7,11
1.72313E+12,-8058,1448,-180,-278,-78,13,1,7,11
1.72313E+12,-8048,1447,-178,-294,-82,26,1,7,11
1.72313E+12,-8048,1444,-169,-308,-82,36,1,7,11
1.72313E+12,-8040,1438,-166,-310,-77,37,1,7,11
1.72313E+12,-8038,1440,-162,-310,-74,34,1,7,11
1.72313E+12,-8037,1455,-157,-304,-73,33,1,7,11
1.72313E+12,-8035,1464,-154,-311,-78,35,1,7,11
1.72313E+12,-8031,1465,-153,-316,-87,35,1,7,11
1.72313E+12,-8041,1466,-135,-297,-104,43,1,7,11
1.72313E+12,-8035,1457,-129,-300,-105,44,1,7,11
1.72313E+12,-8037,1467,-143,-272,-6,54,1,7,11
1.72313E+12,-8041,1466,-142,-280,276,55,1,7,11
1.72313E+12,-8042,1451,-152,-333,313,58,1,7,11
1.72313E+12,-8030,1444,-159,-345,298,57,1,7,11
1.72313E+12,-8036,1448,-172,-347,282,52,1,7,11
1.72313E+12,-8048,1454,-174,-350,265,54,1,7,11
1.72313E+12,-8050,1460,-168,-341,-19,67,1,7,11
1.72313E+12,-8033,1471,-165,-284,-90,107,1,7,11
1.72313E+12,-8021,1462,-175,-267,-123,122,1,7,11
1.72313E+12,-8006,1476,-180,11,86,100,1,7,11
1.72313E+12,-7996,1485,-190,7,89,81,1,7,11
1.72313E+12,-8004,1483,-186,-263,117,63,1,7,11
1.72313E+12,-8013,1489,-178,-267,-109,42,1,7,11
1.72313E+12,-8018,1494,-173,-277,-88,24,1,7,11
1.72313E+12,-8022,1493,-173,-296,-69,14,1,7,11
1.72313E+12,-8021,1485,-161,-332,-30,6,1,7,11
1.72313E+12,-8030,1471,-147,-371,274,-258,1,7,11
1.72313E+12,-8042,1470,-153,-135,325,-275,1,7,11
1.72313E+12,-8053,1484,-161,-143,373,-280,1,7,11
1.72313E+12,-7810,1511,-179,-167,169,-272,1,7,11
1.72313E+12,-8009,1482,-189,-524,535,-98,1,7,11
1.72313E+12,-8000,1472,-194,-252,522,-87,1,7,11
1.72313E+12,-8024,1475,-187,-229,238,-79,1,7,11
1.72313E+12,-8049,1465,-183,-177,177,-79,1,7,11
1.72313E+12,-8050,1475,-187,-372,346,-83,1,7,11
1.72313E+12,-8051,1485,-193,-323,273,-89,1,7,11
1.72313E+12,-8039,1490,-193,-284,-49,-94,1,7,11
1.72313E+12,-8025,1512,-214,20,-94,-102,1,7,11
1.72313E+12,-8001,1521,-238,35,127,-109,1,7,11
1.72313E+12,-7980,1796,-253,41,-124,-121,1,7,11
1.72313E+12,-7947,1796,-523,27,-100,-128,1,7,11
1.72313E+12,-7662,1520,-524,10,-50,111,1,7,11
1.72313E+12,-7663,1501,-544,12,267,75,1,7,11
1.72313E+12,-7654,1460,-557,11,318,48,1,7,11
1.72313E+12,-7669,1445,-561,29,369,13,1,7,11
1.72313E+12,-7948,1419,-562,56,147,-270,1,7,11
1.72313E+12,-7988,1655,-575,90,163,-293,1,7,11
1.72313E+12,-8000,1644,-599,122,160,-316,1,7,11
1.72313E+12,-8018,1642,-636,-99,156,-323,1,7,11
1.72313E+12,-8028,1639,-409,-78,152,-326,1,7,11
1.72313E+12,-8042,1640,-419,-59,135,-326,1,7,11
1.72313E+12,-8049,1636,-429,-57,370,-319,1,7,11
1.72313E+12,-8052,1640,-429,-55,355,-313,1,7,11
1.72313E+12,-8060,1643,-430,-63,339,-299,1,7,11
1.72313E+12,-8060,1643,-425,-85,320,-284,1,7,11
1.72313E+12,-8049,1641,-413,-101,291,-268,1,7,11
1.72313E+12,-8027,1625,-416,-118,260,1,1,7,11
1.72313E+12,-8010,1615,-420,-119,-7,3,1,7,11
1.72313E+12,-8011,1631,-421,-110,-8,-265,1,7,11
1.72313E+12,-8014,1646,-417,-126,-17,-267,1,7,11
1.72313E+12,-8002,1635,-422,93,-35,-262,1,7,11
1.72313E+12,-7994,1639,-427,71,-43,-258,1,7,11
1.72313E+12,-8005,1653,-437,52,-41,-258,1,7,11
1.72313E+12,-8017,1412,-433,13,-41,3,1,7,11
1.72313E+12,-8028,1422,-427,-284,-45,13,1,7,11
1.72313E+12,-8032,1425,-419,-322,-60,26,1,7,11
1.72313E+12,-8032,1425,-409,-360,-77,42,1,7,11
1.72313E+12,-8029,1424,-394,-382,-88,53,1,7,11
1.72313E+12,-8028,1433,-388,-136,-90,60,1,7,11
1.72313E+12,-8028,1441,-626,-139,-88,68,1,7,11
1.72313E+12,-8030,1449,-625,-137,-89,82,1,7,11
1.72313E+12,-8029,1469,-624,-130,-96,99,1,7,11
1.72313E+12,-8012,1469,-619,-138,-100,124,1,7,11
1.72313E+12,-7996,1470,-619,-141,-93,-114,1,7,11
1.72313E+12,-7990,1477,-615,-137,-77,-101,1,7,11
1.72313E+12,-7971,1477,-611,-129,-61,-92,1,7,11
1.72313E+12,-7962,1473,-611,-371,-41,-83,1,7,11
1.72313E+12,-7970,1479,-614,-337,-20,-85,1,7,11
1.72313E+12,-7978,1490,-623,-292,0,-85,1,7,11
1.72313E+12,-7977,1495,-386,-259,262,-80,1,7,11
1.72313E+12,-7972,1487,-391,20,271,-75,1,7,11
1.72313E+12,-7966,1482,-396,43,289,-85,1,7,11
1.72313E+12,-7961,1479,-406,79,300,-100,1,7,11
1.72313E+12,-7954,1471,-419,111,303,-117,1,7,11
1.72313E+12,-7955,1467,-431,-125,317,109,1,7,11
1.72313E+12,-7958,1470,-449,-92,327,77,1,7,11
1.72313E+12,-7964,1475,-471,-86,337,42,1,7,11
1.72313E+12,-7966,1486,-489,-93,347,16,1,7,11
1.72313E+12,-7670,1656,-795,111,160,-280,1,7,11
1.72313E+12,-7666,1631,-804,109,188,-266,1,7,11
1.72313E+12,-7656,1594,-813,117,204,13,1,7,11
1.72313E+12,-7655,1558,-832,-112,219,28,1,7,11
1.72313E+12,-7674,1272,-845,-80,235,24,1,7,11
1.72313E+12,-7969,1269,-861,-33,236,4,1,7,11
1.72313E+12,-8017,1545,-885,262,207,-272,1,7,11
1.72313E+12,-8056,1573,-648,265,156,-277,1,7,11
1.72313E+12,-7831,1624,-671,-13,347,0,1,7,11
1.72313E+12,-7859,1637,-667,-65,276,38,1,7,11
1.72313E+12,-7858,1412,-655,-124,-60,87,1,7,11
1.72313E+12,-7858,1445,-891,84,118,-125,1,7,11
1.72313E+12,-7844,1456,-887,29,44,-83,1,7,11
1.72313E+12,-8035,1481,-847,-281,-272,-54,1,7,11
1.72313E+12,-8007,1493,-826,-326,-309,-38,1,7,11
1.72313E+12,-7950,1507,-797,-361,-316,-44,1,7,11
1.72313E+12,-7941,1506,-769,-137,-304,-59,1,7,11
1.72313E+12,-7634,1498,-493,-155,-281,-87,1,7,11
1.72313E+12,-7620,1491,-493,-146,14,-98,1,7,11
1.72313E+12,-7586,1478,-500,-133,72,121,1,7,11
1.72313E+12,-7592,1468,-494,-366,-109,105,1,7,11
1.72313E+12,-7609,1462,-496,-339,-17,54,1,7,11
1.72313E+12,-7641,1461,-769,-299,279,19,1,7,11
1.72313E+12,-7676,1454,-783,-298,296,-259,1,7,11
1.72313E+12,-7960,1453,-802,-304,295,-273,1,7,11
1.72313E+12,-7990,1448,-810,-314,283,-276,1,7,11
1.72313E+12,-8014,1440,-821,-334,258,-268,1,7,11
1.72313E+12,-8031,1434,-808,-348,-31,6,1,7,11
1.72313E+12,-8042,1431,-793,-365,-77,27,1,7,11
1.72313E+12,-8047,1431,-789,-372,-127,47,1,7,11
1.72313E+12,-8035,1430,-779,-377,85,64,1,7,11
1.72313E+12,-8015,1436,-511,-383,50,78,1,7,11
1.72313E+12,-8008,1443,-495,-382,28,88,1,7,11
1.72313E+12,-7991,1444,-471,-131,12,96,1,7,11
1.72313E+12,-7967,1440,-453,-132,4,98,1,7,11
1.72313E+12,-7948,1427,-449,-129,16,95,1,7,11
1.72313E+12,-7941,1420,-441,-373,44,80,1,7,11
1.72313E+12,-7945,1661,-435,-351,77,64,1,7,11
1.72313E+12,-7962,1416,-451,-316,108,51,1,7,11
1.72313E+12,-7988,1423,-469,-302,-121,51,1,7,11
1.72313E+12,-8011,1426,-465,-299,-105,63,1,7,11
1.72313E+12,-8009,1426,-472,-291,-107,80,1,7,11
1.72313E+12,-8010,1427,-485,-282,-107,88,1,7,11
1.72313E+12,-8007,1421,-490,-287,-103,91,1,7,11
1.72313E+12,-8008,1434,-508,-291,-100,81,1,7,11
1.72313E+12,-8004,1444,-510,-313,-108,75,1,7,11
1.72313E+12,-7995,1455,-773,-352,-122,82,1,7,11
1.72313E+12,-7988,1457,-770,-148,-125,90,1,7,11
1.72313E+12,-7982,1461,-503,-204,-119,115,1,7,11
1.72313E+12,-7984,1468,-497,-523,-114,-124,1,7,11
1.72313E+12,-7987,1472,-480,-556,-119,-110,1,7,11
1.72313E+12,-7979,1469,-464,-570,127,-99,1,7,11
1.72313E+12,-7964,1463,-451,-570,123,-93,1,7,11
1.72313E+12,-7962,1462,-438,-549,123,-97,1,7,11
1.72313E+12,-7970,1465,-425,-514,124,-110,1,7,11
1.72313E+12,-7963,1484,-409,-216,120,-121,1,7,11
1.72313E+12,-7949,1489,-420,-176,114,-124,1,7,11
1.72313E+12,-7670,1489,-435,-142,123,-124,1,7,11
1.72313E+12,-7674,1503,-448,-363,-111,118,1,7,11
1.72313E+12,-7943,1515,-452,-341,-99,108,1,7,11
1.72313E+12,-7957,1514,-444,-329,-104,99,1,7,11
1.72313E+12,-7953,1512,-452,-319,-112,92,1,7,11
1.72313E+12,-7948,1512,-460,-313,-117,86,1,7,11
1.72313E+12,-7671,1509,-460,-327,-120,97,1,7,11
1.72313E+12,-7977,1481,-413,-355,-95,76,1,7,11
1.72313E+12,-8060,1469,-606,-157,-127,4,1,7,11
1.72313E+12,-7833,1449,-564,-220,18,-345,1,7,11
1.72313E+12,-7811,1479,-588,-523,-348,-192,1,7,11
1.72313E+12,-7812,1804,-599,-627,-369,-515,1,7,11
1.72313E+12,-7836,1878,-585,-788,-337,-513,1,7,11
1.72313E+12,-7840,1898,-521,-727,-285,-173,1,7,11
1.72313E+12,-7811,1843,-184,-1124,23,-300,1,7,11
1.72313E+12,-8026,1499,-356,-1151,80,73,1,7,11
1.72313E+12,-8003,1442,-311,-1049,-112,-121,1,7,11
1.72313E+12,-7989,1430,-290,-864,-54,-99,1,7,11
1.72313E+12,-7984,1434,-313,-402,-7,-104,1,7,11
1.72313E+12,-7958,1428,-347,-207,279,-122,1,7,11
1.72313E+12,-7620,1417,-150,-280,339,96,1,7,11
1.72313E+12,-7579,1415,-233,-94,148,47,1,7,11
1.72313E+12,-7796,1662,-590,318,236,-267,1,7,11
1.72313E+12,-7556,1428,-453,200,548,-344,1,7,11
1.72313E+12,-7615,1471,-802,543,461,-150,1,7,11
1.72313E+12,-7940,1509,-879,250,793,-177,1,7,11
1.72313E+12,-7993,1518,-661,158,826,-165,1,7,11
1.72313E+12,-8041,1525,-689,291,819,-384,1,7,11
1.72313E+12,-7817,1527,-699,-90,772,-326,1,7,11
1.72313E+12,-7839,1515,-696,51,447,-258,1,7,11
1.72313E+12,-7824,1474,-676,-291,620,78,1,7,11
1.72313E+12,-8033,1425,-660,-320,541,-106,1,7,11
1.72313E+12,-7978,1637,-654,-287,228,-55,1,7,11
1.72313E+12,-7670,1610,-658,52,194,-32,1,7,11
1.72313E+12,-7635,1604,-681,-94,177,-33,1,7,11
1.72313E+12,-7616,1621,-705,256,172,-49,1,7,11
1.72313E+12,-7604,1650,-737,320,172,-68,1,7,11
1.72313E+12,-7601,1420,-766,354,176,-77,1,7,11
1.72313E+12,-7585,1422,-1051,359,180,-79,1,7,11
1.72313E+12,-7586,1415,-1078,357,183,-81,1,7,11
1.72313E+12,-7592,1409,-1105,358,184,-71,1,7,11
1.72313E+12,-7609,1663,-1124,352,186,-68,1,7,11
1.72313E+12,-7664,1428,-1140,337,183,-67,1,7,11
1.72313E+12,-7979,1447,-1135,303,151,-62,1,7,11
1.72313E+12,-8028,1469,-1129,-3,341,-56,1,7,11
1.72313E+12,-8061,1484,-1115,-81,-6,-56,1,7,11
1.72313E+12,-7814,1499,-1086,90,-115,-75,1,7,11
1.72313E+12,-8032,1535,-1053,-263,24,-104,1,7,11
1.72313E+12,-8014,1802,-1046,-361,-321,118,1,7,11
1.72313E+12,-7977,1820,-767,-211,-373,88,1,7,11
1.72313E+12,-7679,1809,-700,-572,-137,62,1,7,11
1.72313E+12,-7629,1795,-652,-404,-129,32,1,7,11
1.72313E+12,-7610,1519,-853,-462,-358,-265,1,7,11
1.72313E+12,-7608,1496,-806,-489,-318,-275,1,7,11
1.72313E+12,-7625,1474,-769,-484,-272,-294,1,7,11
1.72313E+12,-7663,1454,-477,-425,58,-296,1,7,11
1.72313E+12,-7944,1433,-447,-614,81,-281,1,7,11
1.72313E+12,-7958,1454,-449,-274,64,123,1,7,11
1.72313E+12,-7941,1464,-483,59,74,-101,1,7,11
1.72313E+12,-7678,1463,-770,112,92,-82,1,7,11
1.72313E+12,-7676,1463,-786,-90,116,-91,1,7,11
1.72313E+12,-7676,1467,-817,-52,-126,-116,1,7,11
1.72313E+12,-7666,1466,-850,-49,-119,115,1,7,11
1.72313E+12,-7667,1467,-882,-65,-105,85,1,7,11
1.72313E+12,-7952,1493,-889,-99,-87,57,1,7,11
1.72313E+12,-7988,1509,-883,96,-91,58,1,7,11
1.72313E+12,-7997,1496,-881,35,-118,91,1,7,11
1.72313E+12,-7993,1479,-868,-262,115,119,1,7,11
1.72313E+12,-8011,1492,-853,-288,109,-124,1,7,11
1.72313E+12,-8017,1492,-827,-316,92,-115,1,7,11
1.72313E+12,-8012,1498,-817,-317,73,-121,1,7,11
1.72313E+12,-8009,1513,-792,-319,64,125,1,7,11
1.72313E+12,-8002,1794,-789,-312,71,111,1,7,11
1.72313E+12,-7973,1831,-776,-328,82,108,1,7,11
1.72313E+12,-7673,1827,-508,-361,106,113,1,7,11
1.72313E+12,-7634,1827,-511,-384,-74,106,1,7,11
1.72313E+12,-7607,1821,-771,-134,-41,98,1,7,11
1.72313E+12,-7599,1799,-512,-138,333,85,1,7,11
1.72313E+12,-7600,1521,-512,-368,141,66,1,7,11
1.72313E+12,-7618,1498,-778,-329,181,45,1,7,11
1.72313E+12,-7623,1468,-802,-276,196,36,1,7,11
1.72313E+12,-7659,1466,-816,50,206,16,1,7,11
1.72313E+12,-7939,1467,-838,102,173,13,1,7,11
1.72313E+12,-7954,1476,-866,-110,375,22,1,7,11
1.72313E+12,-7952,1492,-649,-84,312,41,1,7,11
1.72313E+12,-7942,1496,-676,-81,266,66,1,7,11
1.72313E+12,-7676,1496,-708,-83,-23,82,1,7,11
1.72313E+12,-7664,1493,-729,-89,-46,90,1,7,11
1.72313E+12,-7647,1478,-741,-97,-64,92,1,7,11
1.72313E+12,-7645,1472,-750,-92,-78,80,1,7,11
1.72313E+12,-7662,1464,-739,-94,-96,71,1,7,11
1.72313E+12,-7675,1463,-727,-90,-127,72,1,7,11
1.72313E+12,-7938,1467,-727,-81,85,75,1,7,11
1.72313E+12,-7674,1469,-734,-85,38,81,1,7,11
1.72313E+12,-7662,1475,-749,-95,15,72,1,7,11
1.72313E+12,-7674,1497,-752,-126,20,54,1,7,11
1.72313E+12,-7949,1509,-746,75,33,32,1,7,11
1.72313E+12,-7982,1535,-731,0,46,8,1,7,11
1.72313E+12,-8007,1808,-714,-344,52,-266,1,7,11
1.72313E+12,-8017,1816,-671,-186,72,-284,1,7,11
1.72313E+12,-8025,1820,-875,-533,94,-295,1,7,11
1.72313E+12,-8013,1817,-853,-609,111,-290,1,7,11
1.72313E+12,-7971,1506,-786,-406,-124,-262,1,7,11
1.72313E+12,-7660,1481,-769,-413,-82,22,1,7,11
1.72313E+12,-7629,1440,-467,-624,-26,40,1,7,11
1.72313E+12,-7623,1412,-459,-536,283,55,1,7,11
1.72313E+12,-7627,1410,-474,-163,319,66,1,7,11
1.72313E+12,-7645,1414,-496,-318,329,81,1,7,11
1.72313E+12,-7670,1454,-784,30,324,90,1,7,11
1.72313E+12,-7955,1471,-804,84,295,98,1,7,11
1.72313E+12,-7960,1492,-834,120,-17,97,1,7,11
1.72313E+12,-7948,1493,-862,-121,-77,95,1,7,11
1.72313E+12,-7943,1500,-890,-121,-126,89,1,7,11
1.72313E+12,-7940,1497,-657,-128,86,101,1,7,11
1.72313E+12,-7677,1493,-666,107,69,124,1,7,11
1.72313E+12,-7675,1478,-651,107,61,-116,1,7,11
1.72313E+12,-7679,1467,-643,114,46,-113,1,7,11
1.72313E+12,-7680,1452,-648,124,24,-123,1,7,11
1.72313E+12,-7940,1449,-647,-120,7,106,1,7,11
1.72313E+12,-7963,1472,-648,-128,3,72,1,7,11
1.72313E+12,-7994,1511,-651,98,7,42,1,7,11
1.72313E+12,-8024,1804,-648,32,10,25,1,7,11
1.72313E+12,-8028,1819,-885,-310,18,25,1,7,11
1.72313E+12,-8028,1826,-859,-129,41,31,1,7,11
1.72313E+12,-7995,1821,-823,-194,80,46,1,7,11
1.72313E+12,-7950,1535,-794,-222,-119,60,1,7,11
1.72313E+12,-7648,1496,-511,-216,-46,72,1,7,11
1.72313E+12,-7619,1459,-489,-175,288,75,1,7,11
1.72313E+12,-7609,1441,-486,-361,357,69,1,7,11
1.72313E+12,-7609,1437,-490,-284,144,61,1,7,11
1.72313E+12,-7624,1441,-769,49,162,51,1,7,11
1.72313E+12,-7651,1458,-805,114,160,52,1,7,11
1.72313E+12,-7676,1465,-845,-102,141,71,1,7,11
1.72313E+12,-7952,1475,-868,-76,363,102,1,7,11
1.72313E+12,-7975,1481,-882,-61,309,-122,1,7,11
1.72313E+12,-7998,1494,-887,-45,-24,-103,1,7,11
1.72313E+12,-8004,1526,-647,-32,-125,-92,1,7,11
1.72313E+12,-7990,1792,-650,-45,29,-78,1,7,11
1.72313E+12,-7938,1792,-658,-59,-309,-67,1,7,11
1.72313E+12,-7640,1795,-669,-70,-341,-68,1,7,11
1.72313E+12,-7615,1530,-668,-99,-329,-89,1,7,11
1.72313E+12,-7612,1516,-654,126,-293,122,1,7,11
1.72313E+12,-7627,1512,-641,109,-260,54,1,7,11
1.72313E+12,-7642,1503,-877,82,27,-271,1,7,11
1.72313E+12,-7663,1491,-859,48,63,-336,1,7,11
1.72313E+12,-7945,1478,-845,14,99,-381,1,7,11
1.72313E+12,-7958,1449,-845,-265,-120,-137,1,7,11
1.72313E+12,-7977,1438,-854,-263,-69,-380,1,7,11
1.72313E+12,-7994,1425,-852,-259,-16,-347,1,7,11
1.72313E+12,-8010,1661,-850,11,285,-299,1,7,11
1.72313E+12,-8031,1411,-853,38,317,2,1,7,11
1.72313E+12,-8031,1420,-861,57,333,45,1,7,11
1.72313E+12,-8004,1409,-874,63,327,104,1,7,11
1.72313E+12,-7949,1488,-648,-284,-6,-124,1,7,11
1.72313E+12,-7964,1504,-894,-319,-54,-126,1,7,11
1.72313E+12,-7965,1510,-876,-352,-110,-124,1,7,11
1.72313E+12,-7956,1505,-862,-365,96,-118,1,7,11
1.72313E+12,-7940,1504,-854,-361,65,-108,1,7,11
1.72313E+12,-7671,1499,-847,-335,50,-103,1,7,11
1.72313E+12,-7662,1511,-836,-300,47,-110,1,7,11
1.72313E+12,-7648,1513,-847,-267,48,125,1,7,11
1.72313E+12,-7643,1527,-859,8,59,86,1,7,11
1.72313E+12,-7635,1796,-868,-257,84,36,1,7,11
1.72313E+12,-7632,1811,-887,-282,122,-276,1,7,11
1.72313E+12,-7634,1810,-887,-329,-88,-322,1,7,11
1.72313E+12,-7641,1797,-878,-381,-41,-356,1,7,11
1.72313E+12,-7662,1516,-875,-171,-3,-381,1,7,11
1.72313E+12,-7939,1486,-861,-203,279,-136,1,7,11
1.72313E+12,-7960,1463,-849,-203,292,-141,1,7,11
1.72313E+12,-7971,1428,-838,-191,287,-131,1,7,11
1.72313E+12,-7969,1651,-843,-149,270,-369,1,7,11
1.72313E+12,-7972,1644,-860,-349,-1,-330,1,7,11
1.72313E+12,-7976,1656,-877,-296,-20,-297,1,7,11
1.72313E+12,-7993,1423,-888,11,-31,-263,1,7,11
1.72313E+12,-7974,1425,-895,18,-59,32,1,7,11
1.72313E+12,-7942,1422,-648,26,-83,60,1,7,11
1.72313E+12,-7648,1422,-663,45,-94,75,1,7,11
1.72313E+12,-7637,1420,-680,76,-86,78,1,7,11
1.72313E+12,-7644,1415,-686,106,-76,71,1,7,11
1.72313E+12,-7678,1409,-681,-123,-80,51,1,7,11
1.72313E+12,-7948,1409,-680,-90,-120,30,1,7,11
1.72313E+12,-7968,1409,-684,-70,89,11,1,7,11
1.72313E+12,-7975,1418,-693,-73,39,0,1,7,11
1.72313E+12,-7979,1422,-710,-106,-258,-259,1,7,11
1.72313E+12,-7972,1426,-714,103,-286,-264,1,7,11
1.72313E+12,-7983,1441,-725,41,-280,-268,1,7,11
1.72313E+12,-7996,1452,-716,-302,2,-272,1,7,11
1.72313E+12,-8004,1460,-681,-138,36,-270,1,7,11
1.72313E+12,-8009,1455,-670,-228,76,-265,1,7,11
1.72313E+12,-8001,1445,-890,-562,127,-257,1,7,11
1.72313E+12,-8008,1443,-858,-617,-78,4,1,7,11
1.72313E+12,-8005,1434,-816,-401,-35,11,1,7,11
1.72313E+12,-7983,1423,-778,-424,-7,34,1,7,11
1.72313E+12,-7945,1650,-485,-426,273,57,1,7,11
1.72313E+12,-7677,1637,-481,-388,296,64,1,7,11
1.72313E+12,-7676,1620,-476,-583,309,70,1,7,11
1.72313E+12,-7937,1604,-485,-250,302,71,1,7,11
1.72313E+12,-7938,1588,-489,-164,282,79,1,7,11
1.72313E+12,-7679,1589,-511,-322,-9,95,1,7,11
1.72313E+12,-7945,1609,-798,100,-63,120,1,7,11
1.72313E+12,-7967,1647,-828,-73,-106,-117,1,7,11
1.72313E+12,-7976,1438,-852,-35,90,-91,1,7,11
1.72313E+12,-7966,1467,-875,-40,29,-68,1,7,11
1.72313E+12,-7942,1491,-895,-67,-272,-66,1,7,11
1.72313E+12,-7661,1505,-646,-109,-295,-80,1,7,11
1.72313E+12,-7653,1518,-647,100,-295,-112,1,7,11
1.72313E+12,-7663,1524,-896,49,-280,99,1,7,11
1.72313E+12,-7672,1519,-874,-259,-259,52,1,7,11
1.72313E+12,-7948,1508,-846,-301,18,3,1,7,11
1.72313E+12,-7951,1484,-824,-340,34,-297,1,7,11
1.72313E+12,-7969,1469,-800,-358,58,-336,1,7,11
1.72313E+12,-7996,1468,-786,-369,86,-365,1,7,11
1.72313E+12,-8010,1459,-778,-131,109,-372,1,7,11
1.72313E+12,-8016,1430,-501,-147,-123,-365,1,7,11
1.72313E+12,-8007,1650,-486,-145,-94,-343,1,7,11
1.72313E+12,-8015,1630,-486,-364,-60,-322,1,7,11
1.72313E+12,-8020,1634,-493,-316,-26,-293,1,7,11
1.72313E+12,-8002,1605,-491,-293,-3,7,1,7,11
1.72313E+12,-7990,1593,-497,5,271,32,1,7,11
1.72313E+12,-7981,1582,-773,55,279,51,1,7,11
1.72313E+12,-7985,1584,-798,109,282,59,1,7,11
1.72313E+12,-8014,1607,-810,-114,289,55,1,7,11
1.72313E+12,-8021,1612,-814,-122,266,71,1,7,11
1.72313E+12,-8020,1618,-813,123,-36,83,1,7,11
1.72313E+12,-8003,1624,-837,102,-85,94,1,7,11
1.72313E+12,-7987,1632,-838,65,-116,106,1,7,11
1.72313E+12,-7972,1654,-838,24,126,108,1,7,11
1.72313E+12,-7971,1663,-822,-286,124,107,1,7,11
1.72313E+12,-7961,1408,-806,-328,124,98,1,7,11
1.72313E+12,-7956,1420,-801,-370,-122,81,1,7,11
1.72313E+12,-7953,1662,-792,-158,-100,64,1,7,11
1.72313E+12,-7960,1652,-510,-188,-72,38,1,7,11
1.72313E+12,-7992,1650,-482,-203,-37,14,1,7,11
1.72313E+12,-8007,1639,-469,-205,-21,4,1,7,11
1.72313E+12,-7982,1610,-463,-201,-25,23,1,7,11
1.72313E+12,-7949,1577,-483,-153,-15,36,1,7,11
1.72313E+12,-7946,1572,-496,-345,280,36,1,7,11
1.72313E+12,-7969,1586,-776,-285,310,32,1,7,11
1.72313E+12,-7972,1587,-821,6,315,36,1,7,11
1.72313E+12,-7968,1592,-848,29,320,29,1,7,11
1.72313E+12,-7983,1622,-882,37,334,18,1,7,11
1.72313E+12,-7995,1644,-650,16,350,16,1,7,11
1.72313E+12,-8008,1661,-668,-275,358,26,1,7,11
1.72313E+12,-8010,1657,-665,-321,354,53,1,7,11
1.72313E+12,-8008,1648,-645,-345,342,78,1,7,11
1.72313E+12,-8018,1651,-885,-336,317,106,1,7,11
1.72313E+12,-8025,1417,-873,-313,278,-109,1,7,11
1.72313E+12,-8023,1435,-858,-276,-33,-58,1,7,11
1.72313E+12,-7998,1448,-859,33,-91,257,1,7,11
1.72313E+12,-7956,1475,-875,102,-128,307,1,7,11
1.72313E+12,-7653,1487,-883,-85,116,339,1,7,11
1.72313E+12,-7609,1491,-892,-8,126,339,1,7,11
1.72313E+12,-7576,1502,-658,318,-108,302,1,7,11
1.72313E+12,-7554,1503,-680,363,-81,-11,1,7,11
1.72313E+12,-7558,1489,-700,130,-48,-82,1,7,11
1.72313E+12,-7586,1466,-715,148,-23,103,1,7,11
1.72313E+12,-7629,1454,-719,146,-10,45,1,7,11
1.72313E+12,-7666,1424,-728,137,-26,6,1,7,11
1.72313E+12,-7971,1649,-727,381,-67,-271,1,7,11
1.72313E+12,-7996,1638,-730,360,-124,-267,1,7,11
1.72313E+12,-8006,1641,-732,317,71,-259,1,7,11
1.72313E+12,-8036,1657,-736,262,14,24,1,7,11
1.72313E+12,-8058,1411,-727,-68,-309,81,1,7,11
1.72313E+12,-7813,1415,-702,66,-335,116,1,7,11
1.72313E+12,-7818,1430,-660,-260,-360,-114,1,7,11
1.72313E+12,-8051,1439,-871,-332,-129,-81,1,7,11
1.72313E+12,-7999,1430,-823,-138,-139,-48,1,7,11
1.72313E+12,-7954,1662,-785,-172,-375,-34,1,7,11
1.72313E+12,-7673,1662,-486,-168,-336,-37,1,7,11
1.72313E+12,-7666,1414,-451,-148,-292,-49,1,7,11
1.72313E+12,-7653,1412,-442,-367,3,-66,1,7,11
1.72313E+12,-7649,1663,-428,-323,39,-85,1,7,11
1.72313E+12,-7637,1641,-432,-279,78,-107,1,7,11
1.72313E+12,-7638,1623,-443,37,125,118,1,7,11
1.72313E+12,-7663,1632,-468,106,-82,80,1,7,11
1.72313E+12,-7952,1656,-502,-106,-48,51,1,7,11
1.72313E+12,-7989,1436,-801,-87,-30,41,1,7,11
1.72313E+12,-8002,1468,-844,-110,-28,49,1,7,11
1.72313E+12,-7987,1481,-878,93,-23,61,1,7,11
1.72313E+12,-7969,1475,-886,41,-7,65,1,7,11
1.72313E+12,-7955,1468,-896,-264,273,66,1,7,11
1.72313E+12,-7945,1456,-885,-314,290,62,1,7,11
1.72313E+12,-7942,1435,-865,-354,294,62,1,7,11
1.72313E+12,-7937,1662,-858,-369,288,60,1,7,11
1.72313E+12,-7668,1628,-853,-363,275,45,1,7,11
1.72313E+12,-7659,1608,-862,-341,-2,22,1,7,11
1.72313E+12,-7668,1612,-882,-300,-21,-261,1,7,11
1.72313E+12,-7958,1632,-645,-265,-23,-272,1,7,11
1.72313E+12,-7982,1643,-660,1,-36,-281,1,7,11
1.72313E+12,-7995,1657,-671,-260,-54,-274,1,7,11
1.72313E+12,-8017,1416,-676,-281,-67,-265,1,7,11
1.72313E+12,-8035,1446,-678,-314,-80,2,1,7,11
1.72313E+12,-8030,1462,-671,-361,-86,23,1,7,11
1.72313E+12,-8020,1472,-654,-165,-82,47,1,7,11
1.72313E+12,-8004,1469,-881,-250,-67,76,1,7,11
1.72313E+12,-7995,1463,-855,-544,-51,92,1,7,11
1.72313E+12,-7982,1470,-818,-557,-37,103,1,7,11
1.72313E+12,-7972,1469,-788,-559,-27,109,1,7,11
1.72313E+12,-7967,1487,-509,-548,-20,108,1,7,11
1.72313E+12,-7949,1497,-492,-538,-19,107,1,7,11
1.72313E+12,-7677,1495,-488,-524,-17,101,1,7,11
1.72313E+12,-7671,1505,-479,-244,-5,85,1,7,11
1.72313E+12,-7658,1499,-476,-233,265,82,1,7,11
1.72313E+12,-7624,1475,-467,-213,282,78,1,7,11
1.72313E+12,-7611,1449,-466,-163,307,69,1,7,11
1.72313E+12,-7626,1427,-466,-363,326,56,1,7,11
1.72313E+12,-7658,1416,-478,-297,328,39,1,7,11
1.72313E+12,-7956,1417,-486,24,307,31,1,7,11
1.72313E+12,-7970,1655,-769,71,261,38,1,7,11
1.72313E+12,-7964,1637,-810,116,-37,45,1,7,11
1.72313E+12,-7967,1649,-848,-101,-55,44,1,7,11
1.72313E+12,-7990,1418,-884,-97,-62,47,1,7,11
1.72313E+12,-8005,1447,-655,-124,-71,63,1,7,11
1.72313E+12,-8009,1460,-676,77,-84,94,1,7,11
1.72313E+12,-7985,1443,-688,16,-80,115,1,7,11
1.72313E+12,-8018,1824,-705,-414,562,12,1,7,11
1.72313E+12,-8050,1810,-661,-789,615,99,1,7,11
1.72313E+12,-8046,1509,-885,-891,634,-25,1,7,11
1.72313E+12,-8048,1488,-883,-681,404,381,1,7,11
1.72313E+12,-7821,1793,-652,-710,435,544,1,7,11
1.72313E+12,-7843,1906,-727,-925,478,724,1,7,11
1.72313E+12,-8032,1681,-1043,-1337,786,952,1,7,11
1.72313E+12,-7965,1726,-1100,-1220,884,1406,1,7,11
1.72313E+12,-7643,1780,-1137,-1611,762,1579,1,7,11
1.72313E+12,-7598,2104,-899,-1459,922,1473,1,7,11
1.72313E+12,-7804,1930,-971,-1803,1323,1878,1,7,11
1.72313E+12,-7731,1951,-988,-1876,1217,1745,1,7,11
1.72313E+12,-7415,1974,-1001,-1687,1636,2069,1,7,11
1.72313E+12,-7368,2002,-1010,-1702,1515,2069,1,7,11
1.72313E+12,-7327,2319,-1301,-1911,1861,1756,1,7,11
1.72313E+12,-7544,2431,-1380,-1806,1695,1699,1,7,11
1.72313E+12,-7457,2576,-1265,-1567,2072,1684,1,7,11
1.72313E+12,-7119,2462,-1631,-1319,2325,1708,1,7,11
1.72313E+12,-7059,2536,-1586,-956,2449,1756,1,7,11
1.72313E+12,-7082,2558,-1270,-999,3108,1780,1,7,11
1.72313E+12,-7105,2855,-1268,-1011,3389,1750,1,7,11
1.72313E+12,-7082,2907,-1596,-987,3406,1756,1,7,11
1.72313E+12,-7292,2926,-1433,-974,3500,1775,1,7,11
1.72313E+12,-7233,2696,-1796,-982,3716,2071,1,7,11
1.72313E+12,-6899,2783,-1695,-947,4191,2138,1,7,11
1.72313E+12,-6805,3132,-2126,-906,4327,1996,1,7,11
1.72313E+12,-6919,2969,-2333,-921,4902,2409,1,7,11
1.72313E+12,-6580,2985,-2227,-1170,5046,2303,1,7,11
1.72313E+12,-6760,2985,-2593,-1257,5427,2444,1,7,11
1.72313E+12,-6675,3069,-2526,-1540,5789,2833,1,7,11
1.72313E+12,-6384,3364,-2854,-1597,6418,2718,1,7,11
1.72313E+12,-6316,3395,-2859,-1580,6674,3094,1,7,11
1.72313E+12,-6485,3234,-2907,-1394,6535,3196,1,7,11
1.72313E+12,-6410,3594,-2691,-919,6561,3069,1,7,11
1.72313E+12,-6264,3697,-2753,-890,6729,3217,1,7,11
1.72313E+12,-5861,3542,-2810,-566,6358,3635,1,7,11
1.72313E+12,-5947,3931,-3177,16,6412,3523,1,7,11
1.72313E+12,-5732,3783,-3051,302,6145,3907,1,7,11
1.72313E+12,-5485,4161,-3233,585,5623,3754,1,7,11
1.72313E+12,-5241,4033,-3682,840,5354,3837,1,7,11
1.72313E+12,-4974,4452,-3926,736,5094,4107,1,7,11
1.72313E+12,-4722,4332,-4164,1025,4861,3820,1,7,11
1.72313E+12,-4441,4693,-4411,685,4873,3738,1,7,11
1.72313E+12,-4172,4521,-4642,781,4638,3844,1,7,11
1.72313E+12,-3953,4592,-4565,555,4428,3624,1,7,11
1.72313E+12,-3501,4925,-4964,306,4184,3350,1,7,11
1.72313E+12,-3289,4972,-4819,64,3914,2805,1,7,11
1.72313E+12,-3334,4769,-5182,-141,3639,2484,1,7,11
1.72313E+12,-3151,4851,-4999,-600,3383,2396,1,7,11
1.72313E+12,-2698,5201,-5091,-820,3139,2072,1,7,11
1.72313E+12,-2470,5025,-5120,-1070,2696,1513,1,7,11
1.72313E+12,-2288,5075,-5401,-1364,2861,1198,1,7,11
1.72313E+12,-2206,5043,-5107,-1461,2852,1116,1,7,11
1.72313E+12,-2275,5228,-5206,-1746,2860,770,1,7,11
1.72313E+12,-2679,5180,-4989,-2134,2507,204,1,7,11
1.72313E+12,-2526,5147,-4725,-2083,2300,266,1,7,11
1.72313E+12,-2856,5173,-4345,-1899,2309,-51,1,7,11
1.72313E+12,-2880,5239,-4294,-1642,1788,259,1,7,11
1.72313E+12,-2886,5014,-4280,-1355,1792,362,1,7,11
1.72313E+12,-2497,5039,-4317,-1084,1564,223,1,7,11
1.72313E+12,-2631,5064,-4636,-822,1399,561,1,7,11
1.72313E+12,-2293,5109,-4702,-247,1333,627,1,7,11
1.72313E+12,-2221,5376,-4513,-382,1359,395,1,7,11
1.72313E+12,-2410,5378,-4561,-309,1153,634,1,7,11
1.72313E+12,-2351,5112,-4876,-273,1208,592,1,7,11
1.72313E+12,-2330,5397,-4917,11,1267,542,1,7,11
1.72313E+12,-2028,5379,-4924,-263,1543,515,1,7,11
1.72313E+12,-1983,5386,-4958,10,1277,221,1,7,11
1.72313E+12,-1935,5385,-4982,-263,1250,187,1,7,11
1.72313E+12,-1921,5415,-4784,-262,1210,138,1,7,11
1.72313E+12,-2176,5390,-4771,-309,1165,376,1,7,11
1.72313E+12,-1942,5396,-4984,-289,1338,354,1,7,11
1.72313E+12,-1944,5383,-4924,-270,960,369,1,7,11
1.72313E+12,-2157,5116,-4931,46,1067,135,1,7,11
1.72313E+12,-2114,5109,-4935,110,683,155,1,7,11
1.72313E+12,-2060,5086,-4947,-96,835,185,1,7,11
1.72313E+12,-2059,5111,-4964,-16,501,204,1,7,11
1.72313E+12,-1767,5111,-4991,298,432,239,1,7,11
1.72313E+12,-1710,5087,-4770,337,615,516,1,7,11
1.72313E+12,-1670,5065,-4798,383,562,516,1,7,11
1.72313E+12,-1893,5092,-4860,185,545,239,1,7,11
1.72313E+12,-1845,5085,-5174,198,548,233,1,7,11
1.72313E+12,-1798,5060,-5192,168,564,220,1,7,11
1.72313E+12,-1508,5079,-5234,146,570,196,1,7,11
1.72313E+12,-1500,5059,-5235,328,580,180,1,7,11
1.72313E+12,-1465,5039,-5242,290,567,154,1,7,11
1.72313E+12,-1436,5045,-5009,267,563,373,1,7,11
1.72313E+12,-1429,5057,-5035,-21,570,338,1,7,11
1.72313E+12,-1412,5064,-5050,-68,574,314,1,7,11
1.72313E+12,-1654,5060,-5058,-110,583,296,1,7,11
1.72313E+12,-1644,5051,-5050,105,589,282,1,7,11
1.72313E+12,-1641,5048,-5038,88,585,269,1,7,11
1.72313E+12,-1642,5044,-5025,69,579,259,1,7,11
1.72313E+12,-1638,5032,-5012,58,563,-5,1,7,11
1.72313E+12,-1632,5021,-5008,65,552,-22,1,7,11
1.72313E+12,-1631,5024,-5013,84,554,-40,1,7,11
1.72313E+12,-1629,5024,-5000,94,558,-42,1,7,11
1.72313E+12,-1618,5021,-5242,105,556,-31,1,7,11
1.72313E+12,-1592,5024,-4994,121,546,-4,1,7,11
1.72313E+12,-1566,5021,-5005,127,535,279,1,7,11
1.72313E+12,-1261,5010,-5010,-118,253,300,1,7,11
1.72313E+12,-1221,5015,-5026,-98,235,301,1,7,11
1.72313E+12,-1199,5027,-5044,-81,217,282,1,7,11
1.72313E+12,-1189,5055,-5085,-65,199,-13,1,7,11
1.72313E+12,-1194,5050,-5086,-90,189,-45,1,7,11
1.72313E+12,-1175,5009,-5079,-115,176,-79,1,7,11
1.72313E+12,-1183,5005,-5076,-109,174,-92,1,7,11
1.72313E+12,-1179,5004,-5083,-123,160,-88,1,7,11
1.72313E+12,-1163,5245,-5093,120,135,-77,1,7,11
1.72313E+12,-1388,5221,-5090,122,377,-73,1,7,11
1.72313E+12,-1378,5247,-5393,-105,371,-83,1,7,11
1.72313E+12,-1377,5244,-5414,-120,381,-97,1,7,11
1.72313E+12,-1394,5240,-5419,119,380,124,1,7,11
1.72313E+12,-1391,5240,-5415,95,372,95,1,7,11
1.72313E+12,-1394,5235,-5398,75,369,88,1,7,11
1.72313E+12,-1394,5226,-5391,53,359,103,1,7,11
1.72313E+12,-1379,5193,-5385,33,352,116,1,7,11
1.72313E+12,-1373,5196,-5389,41,343,106,1,7,11
1.72313E+12,-1384,5213,-5392,45,335,91,1,7,11
1.72313E+12,-1379,5216,-5392,35,315,86,1,7,11
1.72313E+12,-1370,5211,-5394,35,298,89,1,7,11
1.72313E+12,-1358,5210,-5414,32,276,87,1,7,11
1.72313E+12,-1350,5203,-5420,31,259,80,1,7,11
1.72313E+12,-1347,5219,-5449,29,258,68,1,7,11
1.72313E+12,-1351,5235,-5444,1,265,62,1,7,11
1.72313E+12,-1350,5237,-5420,-295,260,67,1,7,11
1.72313E+12,-1353,5188,-5379,-332,258,91,1,7,11
1.72313E+12,-1355,5187,-5113,-307,-27,86,1,7,11
1.72313E+12,-1341,5205,-5386,-284,-47,79,1,7,11
1.72313E+12,-1329,5219,-5410,-285,-57,69,1,7,11
1.72313E+12,-1332,5234,-5412,-304,-60,57,1,7,11
1.72313E+12,-1353,4995,-5399,-320,-63,47,1,7,11
1.72313E+12,-1380,5002,-5115,-327,-84,44,1,7,11
1.72313E+12,-1390,5247,-5097,-329,-116,45,1,7,11
1.72313E+12,-1394,5234,-5081,-317,112,46,1,7,11
1.72313E+12,-1400,5218,-5071,-306,90,50,1,7,11
1.72313E+12,-1388,5208,-5081,-284,78,52,1,7,11
1.72313E+12,-1392,5209,-5086,-258,79,48,1,7,11
1.72313E+12,-1391,5209,-5103,15,80,47,1,7,11
1.72313E+12,-1382,5211,-5394,29,87,45,1,7,11
1.72313E+12,-1398,5224,-5404,31,103,43,1,7,11
1.72313E+12,-1406,5237,-5429,20,104,42,1,7,11
1.72313E+12,-1160,4996,-5427,-259,97,40,1,7,11
1.72313E+12,-1180,4996,-5419,-285,83,47,1,7,11
1.72313E+12,-1169,5216,-5404,-308,36,57,1,7,11
1.72313E+12,-1174,5213,-5401,-304,21,60,1,7,11
1.72313E+12,-1163,5210,-5389,-305,8,65,1,7,11
1.72313E+12,-1406,5212,-5389,-300,6,67,1,7,11
1.72313E+12,-1386,5209,-5388,-298,19,65,1,7,11
1.72313E+12,-1393,5234,-5393,-298,44,40,1,7,11
1.72313E+12,-1402,5237,-5381,-333,63,14,1,7,11
1.72313E+12,-1404,5205,-5092,-353,73,-271,1,7,11
1.72313E+12,-1169,5212,-5081,-328,77,-299,1,7,11
1.72313E+12,-1205,5246,-5098,-293,70,-311,1,7,11
1.72313E+12,-1250,4995,-5097,-281,63,-300,1,7,11
1.72313E+12,-1249,5239,-5097,-268,39,-288,1,7,11
1.72313E+12,-1233,5231,-5109,6,33,-282,1,7,11
1.72313E+12,-1245,5226,-5108,9,56,-277,1,7,11
1.72313E+12,-1260,5221,-5107,8,90,-272,1,7,11
1.72313E+12,-1270,5217,-5098,4,111,-257,1,7,11
1.72313E+12,-1266,5214,-5102,10,-122,9,1,7,11
1.72313E+12,-1259,5198,-5104,11,-100,9,1,7,11
1.72313E+12,-1250,5199,-5383,15,-78,-268,1,7,11
1.72313E+12,-1246,5202,-5397,-259,-45,-287,1,7,11
1.72313E+12,-1264,5210,-5395,-277,-17,-301,1,7,11
1.72313E+12,-1273,5216,-5390,-301,-5,-298,1,7,11
1.72313E+12,-1542,5219,-5390,-313,-7,-286,1,7,11
1.72313E+12,-1549,5232,-5378,-329,-15,-274,1,7,11
1.72313E+12,-1272,5231,-5105,-345,-38,3,1,7,11
1.72313E+12,-1251,5212,-5093,-347,-53,21,1,7,11
1.72313E+12,-1244,5207,-5091,-317,-63,24,1,7,11
1.72313E+12,-1253,5247,-5112,-293,-80,15,1,7,11
1.72313E+12,-1252,5000,-5110,-310,-96,21,1,7,11
1.72313E+12,-1242,5244,-5108,-318,-108,26,1,7,11
1.72313E+12,-1235,5235,-5097,-322,-109,34,1,7,11
1.72313E+12,-1234,5220,-5087,-319,-114,43,1,7,11
1.72313E+12,-1230,5211,-5078,-310,124,46,1,7,11
1.72313E+12,-1222,5225,-5108,-303,104,45,1,7,11
1.72313E+12,-1214,5226,-5380,-316,89,45,1,7,11
1.72313E+12,-1212,5227,-5382,-329,80,40,1,7,11
1.72313E+12,-1221,5233,-5117,-340,69,29,1,7,11
1.72313E+12,-1228,5239,-5116,-343,48,20,1,7,11
1.72313E+12,-1202,5224,-5102,-345,28,11,1,7,11
1.72313E+12,-1185,5217,-5097,-329,7,-269,1,7,11
1.72313E+12,-1174,5221,-5101,-311,-276,-302,1,7,11
1.72313E+12,-1170,5232,-5120,-290,-311,-344,1,7,11
1.72313E+12,-1168,5227,-5386,-280,-345,-136,1,7,11
1.72313E+12,-1205,5225,-5392,-276,-370,-190,1,7,11
1.72313E+12,-1237,5209,-5118,-298,-151,-250,1,7,11
1.72313E+12,-1274,5198,-5097,-289,-180,-535,1,7,11
1.72313E+12,-1569,5194,-5081,-282,-208,-543,1,7,11
1.72313E+12,-1585,5180,-5086,-274,-232,-540,1,7,11
1.72313E+12,-1607,5190,-5111,-259,-514,-548,1,7,11
1.72313E+12,-1626,5198,-5384,-276,-532,-544,1,7,11
1.72313E+12,-1632,5176,-5381,-312,-555,-537,1,7,11
1.72313E+12,-1610,5157,-5395,-331,-593,-556,1,7,11
1.72313E+12,-1614,5172,-5416,-336,-630,-607,1,7,11
1.72313E+12,-1626,5173,-5422,-371,-429,-412,1,7,11
1.72313E+12,-1413,5171,-5419,-130,-769,-512,1,7,11
1.72313E+12,-1485,5175,-5435,-133,-896,-649,1,7,11
1.72313E+12,-1805,5167,-5451,-365,-1048,-1076,1,7,11
1.72313E+12,-1881,5193,-5487,-321,-956,-1283,1,7,11
1.72313E+12,-1900,5183,-5279,-352,-1406,-1219,1,7,11
1.72313E+12,-1889,4850,-5253,-188,-1593,-1656,1,7,11
1.72313E+12,-1886,4773,-5434,-209,-1526,-1847,1,7,11
1.72313E+12,-1702,4768,-5384,-184,-1724,-1774,1,7,11
1.72313E+12,-1752,4982,-5056,-188,-1978,-1925,1,7,11
1.72313E+12,-2081,4743,-5019,-383,-2246,-2325,1,7,11
1.72313E+12,-2173,4740,-5191,-323,-2505,-2426,1,7,11
1.72313E+12,-2314,4738,-5131,28,-2776,-2254,1,7,11
1.72313E+12,-2212,4740,-4849,89,-3022,-2579,1,7,11
1.72313E+12,-2631,4763,-4843,-89,-3265,-2684,1,7,11
1.72313E+12,-2859,4778,-4981,-63,-3519,-2836,1,7,11
1.72313E+12,-3191,4933,-4579,-93,-3724,-2787,1,7,11
1.72313E+12,-3445,4873,-4488,-41,-4286,-3186,1,7,11
1.72313E+12,-3478,4549,-4630,-51,-4553,-3044,1,7,11
1.72313E+12,-3734,4718,-4250,262,-5136,-3406,1,7,11
1.72313E+12,-4010,4686,-4428,371,-5255,-3297,1,7,11
1.72313E+12,-4292,4662,-4361,170,-5902,-3650,1,7,11
1.72313E+12,-4499,4345,-4355,186,-6064,-3694,1,7,11
1.72313E+12,-4991,4272,-4027,134,-6700,-3480,1,7,11
1.72313E+12,-5247,4407,-4127,307,-6834,-3515,1,7,11
1.72313E+12,-5486,4016,-3726,275,-7484,-3526,1,7,11
1.72313E+12,-5653,3819,-3566,262,-7575,-3498,1,7,11
1.72313E+12,-5528,3905,-3653,354,-7809,-3702,1,7,11
1.72313E+12,-5930,3508,-3221,243,-8195,-3647,1,7,11
1.72313E+12,-5863,3623,-2993,426,-8274,-3604,1,7,11
1.72313E+12,-6445,3301,-2727,1035,-8141,-3301,1,7,11
1.72313E+12,-6374,3288,-2548,962,-8503,-3248,1,7,11
1.72313E+12,-6781,3294,-2659,1395,-8350,-3403,1,7,11
1.72313E+12,-6616,3263,-2564,1268,-8393,-2947,1,7,11
1.72313E+12,-6948,3408,-2177,1588,-8570,-2943,1,7,11
1.72313E+12,-7014,3051,-2031,1420,-8137,-2681,1,7,11
1.72313E+12,-7011,2995,-1941,1526,-7865,-2417,1,7,11
1.72313E+12,-7010,2987,-2103,1857,-7416,-2157,1,7,11
1.72313E+12,-6791,2981,-1690,1804,-6815,-1885,1,7,11
1.72313E+12,-6868,2952,-1456,1652,-6141,-1639,1,7,11
1.72313E+12,-7218,3199,-1250,1186,-5525,-1210,1,7,11
1.72313E+12,-7086,3168,-1282,1130,-5017,-1183,1,7,11
1.72313E+12,-7497,3159,-1039,882,-4711,-1301,1,7,11
1.72313E+12,-7552,2791,-836,604,-4015,-1087,1,7,11
1.72313E+12,-7483,2901,-444,217,-3583,-870,1,7,11
1.72313E+12,-7511,2828,-633,153,-3335,-788,1,7,11
1.72313E+12,-7542,2506,-524,314,-2843,-496,1,7,11
1.72313E+12,-7354,2492,-198,-8,-2346,-506,1,7,11
1.72313E+12,-7418,2467,-372,-122,-1916,-491,1,7,11
1.72313E+12,-7419,2619,-289,12,-1563,-426,1,7,11
1.72313E+12,-7707,2278,60,-286,-968,-402,1,7,11
1.72313E+12,-7772,2223,-119,-269,-701,-390,1,7,11
1.72313E+12,-7586,2211,-65,32,-507,-619,1,7,11
1.72313E+12,-7657,2245,-56,112,-627,-541,1,7,11
1.72313E+12,-7974,2266,-36,-112,-548,-159,1,7,11
1.72313E+12,-7988,2289,-32,-91,-240,5,1,7,11
1.72313E+12,-7995,2275,-26,-85,-223,-76,1,7,11
1.72313E+12,-7958,2270,256,-27,-240,346,1,7,11
1.72313E+12,-7661,2263,268,332,-531,196,1,7,11
1.72313E+12,-7604,2565,-18,174,-568,515,1,7,11
1.72313E+12,-7565,2591,-27,192,-565,544,1,7,11
1.72313E+12,-7794,2636,-28,181,-552,561,1,7,11
1.72313E+12,-7789,2468,-32,156,-533,561,1,7,11
1.72313E+12,-7802,2558,-40,378,-528,569,1,7,11
1.72313E+12,-7561,2835,275,272,-534,604,1,7,11
1.72313E+12,-7569,2897,313,-102,-586,620,1,7,11
1.72313E+12,-7586,2740,323,75,-401,602,1,7,11
1.72313E+12,-7576,2812,347,-332,-470,639,1,7,11
1.72313E+12,-7559,3123,134,-248,-512,431,1,7,11
1.72313E+12,-7792,3163,187,-437,-794,452,1,7,11
1.72313E+12,-7769,2952,247,-863,-789,492,1,7,11
1.72313E+12,-7714,2989,576,-1044,-775,786,1,7,11
1.72313E+12,-7683,3020,392,-952,-492,825,1,7,11
1.72313E+12,-7388,3005,487,-1383,-435,841,1,7,11
1.72313E+12,-7359,2977,850,-1274,-389,812,1,7,11
1.72313E+12,-7351,2979,680,-1613,-595,497,1,7,11
1.72313E+12,-7342,2978,1044,-1603,-551,434,1,7,11
1.72313E+12,-7330,2989,1127,-1551,-523,613,1,7,11
1.72313E+12,-7327,3023,937,-1216,-514,526,1,7,11
1.72313E+12,-7318,3055,977,-1385,-516,190,1,7,11
1.72313E+12,-7320,3064,1010,-1299,-521,379,1,7,11
1.72313E+12,-7321,3067,1293,-942,-544,317,1,7,11
1.72313E+12,-7317,3056,1304,-1091,-576,-2,1,7,11
1.72313E+12,-7313,3057,1311,-713,-601,-75,1,7,11
1.72313E+12,-7322,3053,1325,-855,-625,117,1,7,11
1.72313E+12,-7314,3058,1328,-476,-629,73,1,7,11
1.72313E+12,-7332,3059,1342,-632,-592,46,1,7,11
1.72313E+12,-7345,3036,1356,-547,-541,38,1,7,11
1.72313E+12,-7374,3000,1385,-204,-217,29,1,7,11
1.72313E+12,-7408,2968,1171,-367,-159,22,1,7,11
1.72313E+12,-7708,3192,1206,-262,-378,-258,1,7,11
1.72313E+12,-7751,3148,1273,91,-357,-297,1,7,11
1.72313E+12,-7776,3120,1566,-20,-376,-338,1,7,11
1.72313E+12,-7764,3116,1566,378,-142,-371,1,7,11
1.72313E+12,-7739,3127,1548,239,-375,-377,1,7,11
1.72313E+12,-7717,3109,1274,580,-305,-357,1,7,11
1.72313E+12,-7713,3125,1233,395,41,-332,1,7,11
1.72313E+12,-7719,3138,1176,407,-103,-293,1,7,11
1.72313E+12,-7758,3171,1363,627,273,13,1,7,11
1.72313E+12,-7777,2980,1002,524,374,92,1,7,11
1.72313E+12,-7782,3040,1110,-35,532,-87,1,7,11
1.72313E+12,-7765,3068,1081,-595,510,-55,1,7,11
1.72313E+12,-7423,3346,1083,-1060,1123,-63,1,7,11
1.72313E+12,-7765,3054,1145,-1400,1600,118,1,7,11
1.72313E+12,-7556,2984,898,-1259,1874,-50,1,7,11
1.72313E+12,-7632,2985,918,-1561,2053,313,1,7,11
1.72313E+12,-7963,3006,940,-1642,2089,228,1,7,11
1.72313E+12,-7626,2953,947,-1483,1729,428,1,7,11
1.72313E+12,-7737,3180,925,-1488,1683,786,1,7,11
1.72313E+12,-7368,2948,1101,-1460,1691,825,1,7,11
1.72313E+12,-7538,2996,1038,-1446,1720,852,1,7,11
1.72313E+12,-7470,3439,689,-1449,1743,872,1,7,11
1.72313E+12,-7148,3708,481,-1481,1788,677,1,7,11
1.72313E+12,-7087,3719,191,-1732,2172,1031,1,7,11
1.72313E+12,-6890,3833,-118,-2590,2399,906,1,7,11
1.72313E+12,-6954,3772,-188,-3441,2543,1022,1,7,11
1.72313E+12,-6558,3876,-408,-4087,3216,1006,1,7,11
1.72313E+12,-6547,3678,-474,-5173,4327,1133,1,7,11
1.72313E+12,-6951,3310,-422,-5622,5737,655,1,7,11
1.72313E+12,-6890,3284,-588,-6261,6413,452,1,7,11
1.72313E+12,-7157,3269,-191,-6308,6567,529,1,7,11
1.72313E+12,-7373,3217,-286,-6324,6613,174,1,7,11
1.72313E+12,-7719,3375,-121,-6117,6360,148,1,7,11
1.72313E+12,-7711,3350,-88,-5906,6214,154,1,7,11
1.72313E+12,-7369,3343,-128,-5083,5510,183,1,7,11
1.72313E+12,-7497,3379,21,-4481,5098,219,1,7,11
1.72313E+12,-7125,3249,-135,-4157,4777,544,1,7,11
1.72313E+12,-7265,3653,-587,-3680,4576,409,1,7,11
1.72313E+12,-7171,3524,-773,-3345,4521,851,1,7,11
1.72313E+12,-7038,3577,-705,-3098,4874,1088,1,7,11
1.72313E+12,-6951,3935,-1142,-2895,5142,1022,1,7,11
1.72313E+12,-6653,3778,-993,-2513,5253,1222,1,7,11
1.72313E+12,-6599,4103,-1337,-2621,5605,1417,1,7,11
1.72313E+12,-6761,4169,-1196,-2410,6164,1830,1,7,11
1.72313E+12,-6695,4223,-1267,-2146,6442,1707,1,7,11
1.72313E+12,-6344,4095,-1492,-1526,6370,2076,1,7,11
1.72313E+12,-6493,4392,-1824,-1201,6730,1923,1,7,11
1.72313E+12,-6078,4478,-1749,-1125,6745,2029,1,7,11
1.72313E+12,-5874,4301,-2064,-831,6726,2407,1,7,11
1.72313E+12,-5937,4608,-2235,-605,6711,2238,1,7,11
1.72313E+12,-5535,4712,-2656,-132,6660,2301,1,7,11
1.72313E+12,-5331,4518,-2824,44,6308,2624,1,7,11
1.72313E+12,-5099,4591,-2704,-44,6475,2648,1,7,11
1.72313E+12,-4996,4737,-3149,159,6119,2642,1,7,11
1.72313E+12,-5164,4790,-3012,231,6239,2654,1,7,11
1.72313E+12,-4822,4824,-3404,538,5901,2642,1,7,11
1.72313E+12,-4933,5134,-3326,572,5350,2642,1,7,11
1.72313E+12,-4525,5136,-3700,539,5071,2648,1,7,11
1.72313E+12,-4638,5170,-3568,550,4795,2641,1,7,11
1.72313E+12,-4471,5186,-3941,539,4527,2632,1,7,11
1.72313E+12,-4069,5214,-3763,526,4294,2622,1,7,11
1.72313E+12,-4189,5000,-3833,535,4062,2598,1,7,11
1.72313E+12,-3806,5016,-4126,518,3822,2572,1,7,11
1.72313E+12,-3920,5029,-4154,543,3580,2283,1,7,11
1.72313E+12,-3546,5083,-4222,602,3603,2230,1,7,11
1.72313E+12,-3696,5113,-4014,599,3376,2418,1,7,11
1.72313E+12,-3323,5378,-4057,579,3125,2321,1,7,11
1.72313E+12,-3455,5416,-4385,577,2888,1966,1,7,11
1.72313E+12,-3069,5416,-4412,537,2437,2146,1,7,11
1.72313E+12,-2965,5436,-4447,553,2275,2072,1,7,11
1.72313E+12,-3143,5462,-4467,565,2375,1749,1,7,11
1.72313E+12,-3077,5502,-4251,597,1964,1919,1,7,11
1.72313E+12,-2746,5273,-4289,582,2079,1838,1,7,11
1.72313E+12,-2886,5259,-4328,555,1706,1500,1,7,11
1.72313E+12,-2499,5264,-4614,536,1898,1646,1,7,11
1.72313E+12,-2663,5254,-4627,514,1839,1586,1,7,11
1.72313E+12,-2588,5266,-4658,531,1808,1275,1,7,11
1.72313E+12,-2249,5254,-4699,544,1530,1239,1,7,11
1.72313E+12,-2420,5251,-4736,543,1519,1202,1,7,11
1.72313E+12,-2358,5503,-4502,530,1494,1152,1,7,11
1.72313E+12,-2023,5498,-4536,527,1437,1352,1,7,11
1.72313E+12,-1951,5262,-4873,529,1619,1293,1,7,11
1.72313E+12,-2124,5272,-4965,243,1563,982,1,7,11
1.72313E+12,-2064,5267,-4757,188,1257,915,1,7,11
1.72313E+12,-1739,5272,-4795,133,1189,1089,1,7,11
1.72313E+12,-1709,5277,-4802,312,1362,738,1,7,11
1.72313E+12,-1666,5260,-4794,-32,1009,672,1,7,11
1.72313E+12,-1865,5495,-4784,-88,918,877,1,7,11
1.72313E+12,-1840,5500,-4761,-109,1092,842,1,7,11
1.72313E+12,-1810,5267,-4760,-114,749,826,1,7,11
1.72313E+12,-1524,5276,-4748,-126,660,820,1,7,11
1.72313E+12,-1483,5266,-4983,116,836,819,1,7,11
1.72313E+12,-1433,5260,-4988,-115,776,819,1,7,11
1.72313E+12,-1655,5268,-4991,-76,488,814,1,7,11
1.72313E+12,-1623,5270,-4739,-46,470,811,1,7,11
1.72313E+12,-1578,5271,-4757,-4,464,802,1,7,11
1.72313E+12,-1546,5291,-4771,273,484,798,1,7,11
1.72313E+12,-1255,5301,-4795,265,498,800,1,7,11
1.72313E+12,-1179,5252,-4815,-27,772,803,1,7,11
1.72313E+12,-1384,5259,-5127,-26,795,768,1,7,11
1.72313E+12,-1359,5274,-5163,-56,810,459,1,7,11
1.72313E+12,-1356,5280,-5178,-112,804,411,1,7,11
1.72313E+12,-1355,5258,-5171,101,769,632,1,7,11
1.72313E+12,-1337,5491,-5155,99,452,600,1,7,11
1.72313E+12,-1335,5495,-5172,124,389,574,1,7,11
1.72313E+12,-1320,5487,-5171,-123,588,550,1,7,11
1.72313E+12,-1288,5465,-5173,-114,540,524,1,7,11
1.72313E+12,-1004,5450,-5172,-109,518,240,1,7,11
1.72313E+12,-1000,5443,-5171,-88,516,219,1,7,11
1.72313E+12,-1012,5450,-5185,-65,255,208,1,7,11
1.72313E+12,-1008,5444,-5186,-66,235,202,1,7,11
1.72313E+12,-967,5443,-5214,-53,221,188,1,7,11
1.72313E+12,-964,5451,-5242,-55,230,161,1,7,11
1.72313E+12,-960,5454,-5248,-78,233,138,1,7,11
1.72313E+12,-950,5450,-5237,-99,228,369,1,7,11
1.72313E+12,-954,5437,-5218,-119,219,351,1,7,11
1.72313E+12,-958,5442,-5218,-114,210,339,1,7,11
1.72313E+12,-951,5448,-5216,-115,199,342,1,7,11
1.72313E+12,-929,5431,-5211,-118,190,350,1,7,11
1.72313E+12,-898,5418,-5202,-111,180,353,1,7,11
1.72313E+12,-1125,5402,-5203,-84,173,356,1,7,11
1.72313E+12,-1115,5413,-5205,-52,180,347,1,7,11
1.72313E+12,-1105,5440,-5246,-37,182,339,1,7,11
1.72313E+12,-1095,5449,-5014,-44,182,330,1,7,11
1.72313E+12,-1080,5445,-5032,-54,178,303,1,7,11
1.72313E+12,-1070,5440,-5040,-79,174,264,1,7,11
1.72313E+12,-1064,5417,-5012,-112,172,-16,1,7,11
1.72313E+12,-1060,5409,-4994,-121,159,-30,1,7,11
1.72313E+12,-1080,5412,-5244,-125,136,-28,1,7,11
1.72313E+12,-1072,5405,-5002,-123,351,-12,1,7,11
1.72313E+12,-1047,5405,-5036,-119,311,257,1,7,11
1.72313E+12,-768,5404,-5054,-119,286,264,1,7,11
1.72313E+12,-761,5416,-5065,-126,276,259,1,7,11
1.72313E+12,-759,5416,-5060,117,265,-2,1,7,11
1.72313E+12,-751,5415,-5067,109,-2,257,1,7,11
1.72313E+12,-736,5392,-5063,98,-13,271,1,7,11
1.72313E+12,-719,5393,-5067,106,-25,278,1,7,11
1.72313E+12,-715,5404,-5067,101,-29,273,1,7,11
1.72313E+12,-688,5402,-5068,68,-38,273,1,7,11
1.72313E+12,-657,5113,-5059,38,-31,270,1,7,11
1.72313E+12,-646,5118,-5075,55,-23,260,1,7,11
1.72313E+12,-653,5389,-5076,62,-20,-6,1,7,11
1.72313E+12,-893,5377,-5077,60,-33,-23,1,7,11
1.72313E+12,-865,5105,-5085,56,-42,-48,1,7,11
1.72313E+12,-852,5097,-5100,66,-33,-79,1,7,11
1.72313E+12,-865,5085,-5108,66,-25,-109,1,7,11
1.72313E+12,-877,5086,-5125,79,-24,121,1,7,11
1.72313E+12,-895,5078,-5380,66,-28,105,1,7,11
1.72313E+12,-648,5085,-5397,68,-34,89,1,7,11
1.72313E+12,-664,5091,-5393,52,-43,85,1,7,11
1.72313E+12,-677,5095,-5396,36,-65,94,1,7,11
1.72313E+12,-669,5094,-5387,16,-86,107,1,7,11
1.72313E+12,-656,5084,-5383,1,-104,121,1,7,11
1.72313E+12,-644,5081,-5383,-263,-112,120,1,7,11
1.72313E+12,-662,5094,-5117,-258,-110,107,1,7,11
1.72313E+12,-666,5099,-5111,2,-108,101,1,7,11
1.72313E+12,-668,5089,-5104,-259,-108,93,1,7,11
1.72313E+12,-676,5073,-5098,-263,-103,84,1,7,11
1.72313E+12,-682,5081,-5096,5,-104,65,1,7,11
1.72313E+12,-704,5094,-5095,8,-101,54,1,7,11
1.72313E+12,-708,5111,-5098,7,-117,47,1,7,11
1.72313E+12,-710,5112,-5098,-265,126,50,1,7,11
1.72313E+12,-701,5099,-5076,-282,104,59,1,7,11
1.72313E+12,-701,5107,-5073,-264,94,72,1,7,11
1.72313E+12,-709,5117,-5097,6,87,80,1,7,11
1.72313E+12,-707,5108,-5097,20,90,70,1,7,11
1.72313E+12,-729,5379,-5091,40,105,35,1,7,11
1.72313E+12,-742,5116,-5082,28,121,8,1,7,11
1.72313E+12,-759,5088,-5068,0,-108,5,1,7,11
1.72313E+12,-768,5061,-5053,-269,-87,19,1,7,11
1.72313E+12,-1041,5060,-5063,-269,-80,40,1,7,11
1.72313E+12,-1044,5062,-5070,-272,-84,72,1,7,11
1.72313E+12,-1031,5090,-5107,-277,-94,96,1,7,11
1.72313E+12,-751,5086,-5380,-315,-88,115,1,7,11
1.72313E+12,-730,5082,-5387,-344,-75,117,1,7,11
1.72313E+12,-712,5080,-5382,-357,-57,108,1,7,11
1.72313E+12,-715,5084,-5112,-365,-44,97,1,7,11
1.72313E+12,-715,5088,-5105,-360,-49,88,1,7,11
1.72313E+12,-709,5092,-5099,-345,-58,81,1,7,11
1.72313E+12,-709,5098,-5072,-346,-62,80,1,7,11
1.72313E+12,-701,5119,-5068,-343,-80,82,1,7,11
1.72313E+12,-671,5097,-5067,-366,-94,90,1,7,11
1.72313E+12,-650,5103,-5067,-356,-90,73,1,7,11
1.72313E+12,-651,5389,-5077,-361,-78,53,1,7,11
1.72313E+12,-643,5384,-5079,-380,-66,36,1,7,11
1.72313E+12,-885,5379,-5096,-132,-50,10,1,7,11
1.72313E+12,-871,5390,-5120,-147,-25,-278,1,7,11
1.72313E+12,-869,5394,-5391,-185,267,-313,1,7,11
1.72313E+12,-876,5379,-5386,-243,299,-345,1,7,11
1.72313E+12,-893,5108,-5114,-544,318,-376,1,7,11
1.72313E+12,-673,5097,-5078,-566,311,-135,1,7,11
1.72313E+12,-693,5098,-5057,-556,275,-144,1,7,11
1.72313E+12,-702,5376,-5053,-529,-92,-142,1,7,11
1.72313E+12,-690,5383,-5053,-518,84,-132,1,7,11
1.72313E+12,-678,5386,-5032,-520,19,-383,1,7,11
1.72313E+12,-653,5382,-5015,-255,-300,-134,1,7,11
1.72313E+12,-876,5383,-5000,-219,-358,-167,1,7,11
1.72313E+12,-856,5393,-5003,-166,-146,-215,1,7,11
1.72313E+12,-854,5402,-5246,-374,-179,-529,1,7,11
1.72313E+12,-860,5435,-5003,-307,-228,-604,1,7,11
1.72313E+12,-885,5427,-5228,-294,-549,-421,1,7,11
1.72313E+12,-676,5439,-5209,-258,-639,-498,1,7,11
1.72313E+12,-721,5442,-5182,11,-505,-812,1,7,11
1.72313E+12,-1074,5452,-4860,19,-659,-871,1,7,11
1.72313E+12,-931,5450,-4797,45,-897,-652,1,7,11
1.72313E+12,-1298,5438,-4740,89,-1217,-676,1,7,11
1.72313E+12,-1380,5423,-4970,-86,-1849,-694,1,7,11
1.72313E+12,-1156,5406,-4979,294,-1978,-699,1,7,11
1.72313E+12,-1157,5389,-4763,167,-2580,-700,1,7,11
1.72313E+12,-1366,5085,-4830,562,-2871,-720,1,7,11
1.72313E+12,-1362,5061,-5169,469,-2799,-1063,1,7,11
1.72313E+12,-1399,5047,-5236,854,-3162,-939,1,7,11
1.72313E+12,-1243,5051,-5030,648,-2984,-1400,1,7,11
1.72313E+12,-1647,5003,-5008,847,-3363,-1411,1,7,11
1.72313E+12,-1815,5203,-5245,800,-3591,-1758,1,7,11
1.72313E+12,-1759,5173,-5239,476,-3895,-2411,1,7,11
1.72313E+12,-1974,5160,-5225,388,-4000,-2550,1,7,11
1.72313E+12,-2221,5168,-5235,532,-4685,-3193,1,7,11
1.72313E+12,-2496,5140,-5178,338,-5159,-3303,1,7,11
1.72313E+12,-2697,4811,-5141,-75,-5700,-3914,1,7,11
1.72313E+12,-3181,4740,-4851,76,-6195,-3996,1,7,11
1.72313E+12,-3414,4902,-4980,1,-6390,-4296,1,7,11
1.72313E+12,-3460,4577,-4872,-283,-6818,-4585,1,7,11
1.72313E+12,-3802,4509,-4735,-298,-7479,-4808,1,7,11
1.72313E+12,-4280,4309,-4292,-324,-7601,-5191,1,7,11
1.72313E+12,-4538,4356,-4370,-366,-8230,-4994,1,7,11
1.72313E+12,-4772,4209,-4009,-261,-8544,-5020,1,7,11
1.72313E+12,-5043,4136,-4156,-105,-8729,-5180,1,7,11
1.72313E+12,-5333,4117,-3756,318,-8785,-4757,1,7,11
1.72313E+12,-5620,4098,-3567,163,-8771,-4536,1,7,11
1.72313E+12,-5844,3812,-3646,170,-8768,-4302,1,7,11
1.72313E+12,-6240,3757,-3226,368,-8734,-4072,1,7,11
1.72313E+12,-6070,3917,-3045,90,-8358,-4146,1,7,11
1.72313E+12,-6422,3567,-3099,-153,-8156,-3789,1,7,11
1.72313E+12,-6282,3479,-2866,-440,-7894,-3775,1,7,11
1.72313E+12,-6388,3623,-2602,-1026,-7609,-3783,1,7,11
1.72313E+12,-6749,3266,-2357,-915,-7760,-3775,1,7,11
1.72313E+12,-6629,3403,-2110,-1205,-7067,-3951,1,7,11
1.72313E+12,-7008,3035,-1881,-1487,-6351,-3540,1,7,11
1.72313E+12,-6882,3183,-1662,-1908,-5883,-3615,1,7,11
1.72313E+12,-7262,3093,-1202,-2415,-5680,-3385,1,7,11
1.72313E+12,-7076,2701,-990,-2652,-5239,-3113,1,7,11
1.72313E+12,-7436,2833,-1040,-2544,-4518,-2885,1,7,11
1.72313E+12,-7305,2516,-871,-2837,-4064,-2632,1,7,11
1.72313E+12,-7415,2477,-444,-2871,-3897,-2349,1,7,11
1.72313E+12,-7774,2458,-540,-2899,-3258,-2061,1,7,11
1.72313E+12,-7579,2625,-368,-2695,-2963,-1512,1,7,11
1.72313E+12,-7572,2293,9,-2916,-2717,-1228,1,7,11
1.72313E+12,-7589,2241,117,-2886,-2481,-1018,1,7,11
1.72313E+12,-7586,2207,-36,-2869,-2260,-1090,1,7,11
1.72313E+12,-7608,2182,329,-2887,-2027,-693,1,7,11
1.72313E+12,-7608,2405,187,-2932,-2078,-824,1,7,11
1.72313E+12,-7626,2398,533,-2709,-1855,-470,1,7,11
1.72313E+12,-7629,2406,614,-2757,-1653,-627,1,7,11
1.72313E+12,-7625,2388,437,-3078,-1202,-528,1,7,11
1.72313E+12,-7641,2385,783,-3145,-1015,-193,1,7,11
1.72313E+12,-7680,2400,877,-2959,-1106,-376,1,7,11
1.72313E+12,-7987,2382,708,-3068,-724,-314,1,7,11
1.72313E+12,-7988,2347,1065,-3431,-888,9,1,7,11
1.72313E+12,-7976,2328,1139,-3244,-801,59,1,7,11
1.72313E+12,-7946,2309,950,-3298,-455,88,1,7,11
1.72313E+12,-7673,2307,1009,-3603,-597,113,1,7,11
1.72313E+12,-7644,2016,1388,-3659,-232,-120,1,7,11
1.72313E+12,-7638,1966,1240,-3710,-321,-123,1,7,11
1.72313E+12,-7601,2172,1587,-3686,3,-111,1,7,11
1.72313E+12,-7595,2140,1427,-3618,72,113,1,7,11
1.72313E+12,-7629,2118,1533,-3309,-121,42,1,7,11
1.72313E+12,-7660,2071,1673,-3241,-110,-275,1,7,11
1.72313E+12,-7948,1778,1786,-3351,117,-328,1,7,11
1.72313E+12,-7954,1769,2114,-3139,62,-335,1,7,11
1.72313E+12,-7965,1766,1939,-2929,40,-355,1,7,11
1.72313E+12,-7984,1772,2031,-2663,22,-362,1,7,11
1.72313E+12,-8008,2052,2342,-2364,-267,-334,1,7,11
1.72313E+12,-8000,2069,2376,-2067,-311,-276,1,7,11
1.72313E+12,-7969,2078,2389,-1487,-346,43,1,7,11
1.72313E+12,-7948,2129,2385,-1188,-360,116,1,7,11
1.72313E+12,-7678,2156,2374,-947,-379,-111,1,7,11
1.72313E+12,-7680,1936,2332,-719,-384,-103,1,7,11
1.72313E+12,-7658,1978,2014,-790,-366,-98,1,7,11
1.72313E+12,-7643,2010,1958,-631,-312,-101,1,7,11
1.72313E+12,-7636,2313,2128,-584,29,-108,1,7,11
1.72313E+12,-7644,2338,2061,-633,-105,-110,1,7,11
1.72313E+12,-7649,2334,1742,-492,284,-104,1,7,11
1.72313E+12,-7672,2351,1906,-879,184,-104,1,7,11
1.72313E+12,-7966,2318,1845,-1091,583,-103,1,7,11
1.72313E+12,-7985,2023,1792,-1284,441,-120,1,7,11
1.72313E+12,-8014,1988,1488,-1210,797,85,1,7,11
1.72313E+12,-8059,1968,1454,-1612,870,23,1,7,11
1.72313E+12,-7856,1925,1442,-1496,890,-284,1,7,11
1.72313E+12,-7869,2160,1421,-1849,875,-282,1,7,11
1.72313E+12,-7877,2166,1416,-1712,875,-275,1,7,11
1.72313E+12,-7899,2144,1473,-1758,868,46,1,7,11
1.72313E+12,-7923,1920,1460,-2052,832,117,1,7,11
1.72313E+12,-7888,1921,1507,-2161,781,-33,1,7,11
1.72313E+12,-7865,1929,1810,-1963,509,302,1,7,11
1.72313E+12,-7868,1921,1874,-2003,490,381,1,7,11
1.72313E+12,-7856,1927,1673,-2009,446,185,1,7,11
1.72313E+12,-7843,1942,1716,-1997,395,215,1,7,11
1.72313E+12,-7833,1936,1787,-1977,583,237,1,7,11
1.72313E+12,-8056,1969,2079,-2156,212,512,1,7,11
1.72313E+12,-8029,1998,2118,-2084,324,514,1,7,11
1.72313E+12,-8003,2321,2137,-1729,-113,253,1,7,11
1.72313E+12,-7975,2350,2140,-1920,-295,525,1,7,11
1.72313E+12,-7939,2387,2164,-1824,-200,534,1,7,11
1.72313E+12,-7629,2176,1921,-1456,-592,549,1,7,11
1.72313E+12,-7566,2187,1957,-1589,-411,567,1,7,11
1.72313E+12,-7758,2213,1953,-1239,-447,577,1,7,11
1.72313E+12,-7720,2266,1931,-1178,-440,577,1,7,11
1.72313E+12,-7732,2243,2046,-1235,-613,556,1,7,11
1.72313E+12,-7786,2269,2353,-1226,-571,249,1,7,11
1.72313E+12,-7798,2275,2361,-1222,-393,192,1,7,11
1.72313E+12,-7566,2259,2406,-1581,-411,146,1,7,11
1.72313E+12,-7577,2283,2178,-1498,-399,156,1,7,11
1.72313E+12,-7581,2276,2249,-1889,-608,190,1,7,11
1.72313E+12,-7560,2257,2590,-1891,-558,219,1,7,11
1.72313E+12,-7558,2263,2632,-1519,-517,209,1,7,11
1.72313E+12,-7561,2264,2660,-1643,-521,193,1,7,11
1.72313E+12,-7804,2294,2654,-1241,-535,177,1,7,11
1.72313E+12,-7797,2572,2635,-1390,-566,166,1,7,11
1.72313E+12,-7771,2560,2634,-1335,-599,151,1,7,11
1.72313E+12,-7749,2303,2634,-1290,-610,382,1,7,11
1.72313E+12,-7704,2580,2621,-983,-611,353,1,7,11
1.72313E+12,-7698,2601,2623,-935,-579,304,1,7,11
1.72313E+12,-7681,2598,2664,-1125,-560,301,1,7,11
1.72313E+12,-7703,2606,2454,-1029,-530,311,1,7,11
1.72313E+12,-7728,2588,2525,-704,-544,344,1,7,11
1.72313E+12,-7700,2299,2854,-864,-592,143,1,7,11
1.72313E+12,-7406,2297,2873,-444,-622,164,1,7,11
1.72313E+12,-7378,2596,2861,-539,-610,166,1,7,11
1.72313E+12,-7330,2641,2857,-160,-546,180,1,7,11
1.72313E+12,-7307,2435,2856,-365,-152,161,1,7,11
1.72313E+12,-7318,2448,2901,-376,7,378,1,7,11
1.72313E+12,-7331,2456,2931,-370,-119,340,1,7,11
1.72313E+12,-7348,2459,2694,-373,-26,293,1,7,11
1.72313E+12,-7360,2453,2709,-382,302,257,1,7,11
1.72313E+12,-7377,2445,2725,-370,362,-33,1,7,11
1.72313E+12,-7396,2676,2747,-337,142,-64,1,7,11
1.72313E+12,-7418,2646,2770,-263,156,-92,1,7,11
1.72313E+12,-7689,2627,2791,93,141,-113,1,7,11
1.72313E+12,-7718,2606,2811,-41,376,110,1,7,11
1.72313E+12,-7735,2588,2804,373,327,108,1,7,11
1.72313E+12,-7736,2584,2794,532,283,110,1,7,11
1.72313E+12,-7731,2573,2792,449,-4,127,1,7,11
1.72313E+12,-7758,2299,3076,875,-19,-126,1,7,11
1.72313E+12,-7789,2295,2795,1088,-47,-104,1,7,11
1.72313E+12,-7760,2271,2789,1009,-81,-35,1,7,11
1.72313E+12,-7762,2276,2811,1538,-5,-90,1,7,11
1.72313E+12,-7586,2261,3107,1843,-36,-45,1,7,11
1.72313E+12,-7805,2265,3084,1993,-82,279,1,7,11
1.72313E+12,-7567,2583,2756,2654,-74,320,1,7,11
1.72313E+12,-7801,2622,2696,2707,-64,155,1,7,11
1.72313E+12,-7774,2641,2889,2954,-39,212,1,7,11
1.72313E+12,-7745,2665,2819,3422,-34,245,1,7,11
1.72313E+12,-7731,2494,2435,3612,-16,528,1,7,11
1.72313E+12,-7694,2546,2594,3680,-15,552,1,7,11
1.72313E+12,-7383,2856,2209,3474,-18,527,1,7,11
1.72313E+12,-7345,2911,2345,3673,268,207,1,7,11
1.72313E+12,-7332,2938,2017,3613,329,138,1,7,11
1.72313E+12,-7337,3090,2108,3672,140,314,1,7,11
1.72313E+12,-7350,3137,1736,3256,178,325,1,7,11
1.72313E+12,-7319,3173,1903,2975,254,318,1,7,11
1.72313E+12,-7549,3174,1866,2765,607,272,1,7,11
1.72313E+12,-7501,2944,1525,2874,446,-64,1,7,11
1.72313E+12,-7485,2944,1463,2511,830,92,1,7,11
1.72313E+12,-7492,2959,1643,2441,891,17,1,7,11
1.72313E+12,-7512,2947,1601,2593,880,-301,1,7,11
1.72313E+12,-7529,2957,1277,2262,773,-372,1,7,11
1.72313E+12,-7520,2945,1209,2393,610,-200,1,7,11
1.72313E+12,-7493,3157,1172,2010,187,-584,1,7,11
1.72313E+12,-7503,3167,1380,2156,311,-495,1,7,11
1.72313E+12,-7504,3144,1357,1753,-59,-664,1,7,11
1.72313E+12,-7515,3131,1325,1862,125,-1101,1,7,11
1.72313E+12,-7518,3095,1302,1437,88,-1002,1,7,11
1.72313E+12,-7522,2797,1292,1536,95,-1397,1,7,11
1.72313E+12,-7305,2758,1299,1399,-109,-1261,1,7,11
1.72313E+12,-7349,2710,1318,1018,-42,-1604,1,7,11
1.72313E+12,-7383,2939,1293,928,302,-1655,1,7,11
1.72313E+12,-7683,2898,1015,1095,177,-1410,1,7,11
1.72313E+12,-7739,2858,991,1036,574,-1650,1,7,11
1.72313E+12,-7781,2818,949,747,458,-1603,1,7,11
1.72313E+12,-7568,2483,935,745,834,-1548,1,7,11
1.72313E+12,-7609,2665,898,1045,657,-1257,1,7,11
1.72313E+12,-7629,2593,1118,1097,700,-1224,1,7,11
1.72313E+12,-7654,2285,1057,916,729,-1204,1,7,11
1.72313E+12,-7675,2245,753,978,746,-1186,1,7,11
1.72313E+12,-7992,2213,721,1299,733,-1169,1,7,11
1.72313E+12,-8026,2182,667,1349,661,-1397,1,7,11
1.72313E+12,-8050,2400,878,1353,833,-1359,1,7,11
1.72313E+12,-7821,2368,841,1333,492,-1317,1,7,11
1.72313E+12,-7842,2333,824,1288,400,-1002,1,7,11
1.72313E+12,-7864,2038,799,986,561,-928,1,7,11
1.72313E+12,-7883,1999,502,935,214,-1096,1,7,11
1.72313E+12,-7889,1942,474,1108,137,-742,1,7,11
1.72313E+12,-7895,2156,445,1030,337,-647,1,7,11
1.72313E+12,-7921,2134,422,682,304,-818,1,7,11
1.72313E+12,-7933,2105,421,817,287,-473,1,7,11
1.72313E+12,-8226,2090,403,450,291,-385,1,7,11
1.72313E+12,-8251,2090,627,601,304,-526,1,7,11
1.72313E+12,-8269,2115,579,515,343,-370,1,7,11
1.72313E+12,-8267,2098,567,139,148,84,1,7,11
1.72313E+12,-8261,1790,597,-2,213,280,1,7,11
1.72313E+12,-8260,1756,636,-112,250,182,1,7,11
1.72313E+12,-8253,1744,410,54,247,555,1,7,11
1.72313E+12,-8214,1727,448,-265,208,395,1,7,11
1.72313E+12,-7898,1777,427,-264,174,771,1,7,11
1.72313E+12,-7866,2079,443,-285,184,850,1,7,11
1.72313E+12,-7820,2121,430,-296,212,693,1,7,11
1.72313E+12,-8018,2159,416,-326,533,1048,1,7,11
1.72313E+12,-7965,1968,396,-341,391,1141,1,7,11
1.72313E+12,-7661,2046,613,-372,799,980,1,7,11
1.72313E+12,-7641,2369,604,-191,722,1331,1,7,11
1.72313E+12,-7602,2180,588,-529,1134,1168,1,7,11
1.72313E+12,-7775,2230,547,-595,1286,1253,1,7,11
1.72313E+12,-7713,2583,238,-388,1207,1554,1,7,11
1.72313E+12,-7374,2450,152,-456,1656,1587,1,7,11
1.72313E+12,-7373,2857,336,-851,1890,1582,1,7,11
1.72313E+12,-7362,2712,318,-1049,2084,1595,1,7,11
1.72313E+12,-7311,2788,288,-992,2016,1619,1,7,11
1.72313E+12,-7517,2799,266,-1182,2220,1627,1,7,11
1.72313E+12,-7439,2742,-21,-1554,2680,1608,1,7,11
1.72313E+12,-7427,2745,-71,-1270,2903,1260,1,7,11
1.72313E+12,-7435,2756,127,-1194,3075,1158,1,7,11
1.72313E+12,-7438,2771,38,-1301,3196,1319,1,7,11
1.72313E+12,-7488,2806,-314,-1123,3023,984,1,7,11
1.72313E+12,-7516,2815,-160,-671,3033,938,1,7,11
1.72313E+12,-7550,3125,-555,-422,2995,902,1,7,11
1.72313E+12,-7338,3158,-437,-212,3187,902,1,7,11
1.72313E+12,-7322,3169,-840,-265,3097,935,1,7,11
1.72313E+12,-7319,2949,-723,-71,2791,975,1,7,11
1.72313E+12,-7530,2990,-1098,335,2735,1314,1,7,11
1.72313E+12,-7443,3371,-1006,527,2743,1183,1,7,11
1.72313E+12,-7149,3452,-1362,565,3090,1622,1,7,11
1.72313E+12,-7294,3207,-1183,566,3183,1842,1,7,11
1.72313E+12,-7217,3241,-1541,587,3359,1763,1,7,11
1.72313E+12,-7182,3220,-1551,548,3292,2150,1,7,11
1.72313E+12,-6858,3200,-1579,551,3677,1943,1,7,11
1.72313E+12,-7014,3222,-1663,598,3508,1929,1,7,11
1.72313E+12,-6949,3267,-1504,636,3861,2148,1,7,11
1.72313E+12,-6641,3588,-1889,384,3714,2130,1,7,11
1.72313E+12,-6643,3628,-1699,589,4101,2144,1,7,11
1.72313E+12,-6623,3698,-1778,563,4179,1924,1,7,11
1.72313E+12,-6544,3570,-1944,589,3989,2309,1,7,11
1.72313E+12,-6755,3950,-2327,603,4373,2589,1,7,11
1.72313E+12,-6677,3734,-2193,387,4282,2803,1,7,11
1.72313E+12,-6774,3857,-2308,599,4866,3656,1,7,11
1.72313E+12,-6650,3547,-2167,504,4808,3969,1,7,11
1.72313E+12,-6766,3504,-2148,1051,4828,4513,1,7,11
1.72313E+12,-6328,3873,-2006,1273,5223,5230,1,7,11
1.72313E+12,-6139,4096,-2227,1684,5385,5352,1,7,11
1.72313E+12,-5815,4067,-2548,2174,5476,5622,1,7,11
1.72313E+12,-5728,4239,-3102,1958,5493,6010,1,7,11
1.72313E+12,-5066,4644,-3444,2172,5417,5783,1,7,11
1.72313E+12,-4906,4732,-3508,2052,5059,5959,1,7,11
1.72313E+12,-4380,4589,-4200,1898,5201,5759,1,7,11
1.72313E+12,-3983,4882,-4435,1471,4787,5493,1,7,11
1.72313E+12,-3928,4944,-4627,1554,4563,5170,1,7,11
1.72313E+12,-3786,4973,-4498,1388,4261,4549,1,7,11
1.72313E+12,-3648,4749,-4587,960,4114,4434,1,7,11
1.72313E+12,-3244,4787,-4909,1116,3639,3911,1,7,11
1.72313E+12,-3069,4809,-4957,1036,3156,3631,1,7,11
1.72313E+12,-3189,4844,-4990,727,2558,3393,1,7,11
1.72313E+12,-2782,5146,-4768,676,2265,3182,1,7,11
1.72313E+12,-2886,5149,-4744,827,2080,2739,1,7,11
1.72313E+12,-2468,5188,-4751,460,1748,2557,1,7,11
1.72313E+12,-2655,5026,-4750,384,2067,2656,1,7,11
1.72313E+12,-2569,5045,-4969,574,2174,2292,1,7,11
1.72313E+12,-2246,5053,-4931,188,2035,2431,1,7,11
1.72313E+12,-2409,5054,-4903,150,2374,2326,1,7,11
1.72313E+12,-2029,5074,-4919,157,2179,1979,1,7,11
1.72313E+12,-1933,5058,-4896,154,2222,2173,1,7,11
1.72313E+12,-2057,5038,-4933,196,2185,2095,1,7,11
1.72313E+12,-1691,5051,-4992,242,2386,1737,1,7,11
1.72313E+12,-1824,5021,-4786,255,2035,1880,1,7,11
1.72313E+12,-1424,5017,-5135,558,1928,1478,1,7,11
1.72313E+12,-1574,5033,-5224,566,2096,1585,1,7,11
1.72313E+12,-1189,5044,-5058,537,1749,1181,1,7,11
1.72313E+12,-1397,5078,-5395,224,1685,1021,1,7,11
1.72313E+12,-1358,5056,-5422,363,1854,1134,1,7,11
1.72313E+12,-1293,5037,-5417,269,1508,743,1,7,11
1.72313E+12,-1009,5043,-5401,-79,1431,888,1,7,11
1.72313E+12,-985,5010,-5100,76,1577,811,1,7,11
1.72313E+12,-925,5016,-5113,30,1184,485,1,7,11
1.72313E+12,-1117,5023,-5108,-269,1333,426,1,7,11
1.72313E+12,-1062,5036,-5111,-302,991,606,1,7,11
1.72313E+12,-765,5040,-5085,-335,931,524,1,7,11
1.72313E+12,-756,5071,-5075,-343,1143,179,1,7,11
1.72313E+12,-1029,5067,-5042,-363,1103,360,1,7,11
1.72313E+12,-1032,5070,-5035,-357,1043,299,1,7,11
1.72313E+12,-1053,5061,-5009,-349,730,259,1,7,11
1.72313E+12,-1041,5058,-5002,-329,646,-12,1,7,11
1.72313E+12,-1031,5048,-4998,-298,823,256,1,7,11
1.72313E+12,-746,5050,-5011,-264,465,273,1,7,11
1.72313E+12,-708,5061,-5032,23,612,291,1,7,11
1.72313E+12,-683,5066,-5055,39,250,310,1,7,11
1.72313E+12,-688,5063,-5046,51,139,326,1,7,11
1.72313E+12,-689,5063,-5037,81,265,341,1,7,11
1.72313E+12,-680,5040,-5014,126,-126,367,1,7,11
1.72313E+12,-664,5024,-5020,-44,17,135,1,7,11
1.72313E+12,-642,5015,-5049,288,-325,158,1,7,11
1.72313E+12,-865,5013,-5086,353,-140,160,1,7,11
1.72313E+12,-832,5042,-5404,145,-184,146,1,7,11
1.72313E+12,-806,5074,-5449,143,-209,132,1,7,11
1.72313E+12,-775,5068,-5497,359,-212,367,1,7,11
1.72313E+12,-491,5033,-5256,296,-205,321,1,7,11
1.72313E+12,-485,5039,-5303,278,-185,-18,1,7,11
1.72313E+12,-777,5032,-5323,-28,-141,-99,1,7,11
1.72313E+12,-829,5041,-5333,-55,-367,55,1,7,11
1.72313E+12,-701,5045,-5293,-96,-329,-323,1,7,11
1.72313E+12,-1025,5006,-5485,75,-305,-355,1,7,11
1.72313E+12,-1075,5224,-5441,46,-320,-365,1,7,11
1.72313E+12,-1106,5208,-5414,36,-319,-337,1,7,11
1.72313E+12,-1138,5212,-5415,42,-303,-283,1,7,11
1.72313E+12,-898,5232,-5422,33,-285,37,1,7,11
1.72313E+12,-1142,5223,-5436,5,-260,111,1,7,11
1.72313E+12,-1092,5213,-5458,-261,28,-86,1,7,11
1.72313E+12,-1057,5218,-5470,0,76,-49,1,7,11
1.72313E+12,-1036,5221,-5481,4,119,-31,1,7,11
1.72313E+12,-765,5206,-5469,-257,-114,-30,1,7,11
1.72313E+12,-743,5196,-5449,3,-125,-51,1,7,11
1.72313E+12,-731,5204,-5457,10,102,-75,1,7,11
1.72313E+12,-712,5183,-5454,5,66,-105,1,7,11
1.72313E+12,-711,5204,-5470,14,27,99,1,7,11
1.72313E+12,-732,5222,-5481,12,5,49,1,7,11
1.72313E+12,-764,5216,-5472,0,-264,1,1,7,11
1.72313E+12,-1063,5215,-5459,-263,-273,-300,1,7,11
1.72313E+12,-1095,5195,-5441,-273,-272,-331,1,7,11
1.72313E+12,-1147,5196,-5430,-268,0,-362,1,7,11
1.72313E+12,-914,5196,-5426,-259,30,-361,1,7,11
1.72313E+12,-954,5192,-5427,1,50,-344,1,7,11
1.72313E+12,-975,5195,-5444,8,62,-317,1,7,11
1.72313E+12,-961,5195,-5471,9,64,-278,1,7,11
1.72313E+12,-949,5202,-5488,3,82,32,1,7,11
1.72313E+12,-925,5215,-5262,-268,93,54,1,7,11
1.72313E+12,-899,5204,-5264,-296,104,60,1,7,11
1.72313E+12,-1141,5205,-5271,-317,122,48,1,7,11
1.72313E+12,-1135,5205,-5262,-336,-116,28,1,7,11
1.72313E+12,-1141,5208,-5502,-352,-101,0,1,7,11
1.72313E+12,-906,5202,-5465,-372,-86,-275,1,7,11
1.72313E+12,-928,5214,-5430,-371,-86,-285,1,7,11
1.72313E+12,-938,5209,-5399,-369,-90,-260,1,7,11
1.72313E+12,-943,5223,-5393,-345,-102,25,1,7,11
1.72313E+12,-934,5211,-5392,-344,-120,58,1,7,11
1.72313E+12,-908,5213,-5402,-329,114,59,1,7,11
1.72313E+12,-902,5215,-5431,-318,111,52,1,7,11
1.72313E+12,-901,5217,-5452,-302,123,42,1,7,11
1.72313E+12,-927,5230,-5470,-276,-113,29,1,7,11
1.72313E+12,-944,5233,-5473,-277,-106,21,1,7,11
1.72313E+12,-937,5229,-5464,-296,-93,12,1,7,11
1.72313E+12,-929,5219,-5456,-323,-75,4,1,7,11
1.72313E+12,-923,5203,-5442,-352,-45,0,1,7,11
1.72313E+12,-935,5209,-5437,-367,-3,2,1,7,11
1.72313E+12,-955,5219,-5420,-381,287,5,1,7,11
1.72313E+12,-968,5237,-5405,-139,305,16,1,7,11
1.72313E+12,-965,5226,-5392,-150,310,34,1,7,11
1.72313E+12,-954,5229,-5395,-131,307,34,1,7,11
1.72313E+12,-936,5244,-5403,-364,300,26,1,7,11
1.72313E+12,-923,4995,-5412,-379,307,31,1,7,11
1.72313E+12,-905,4993,-5414,-130,304,27,1,7,11
1.72313E+12,-1149,5245,-5402,-141,295,24,1,7,11
1.72313E+12,-1122,5238,-5403,-154,268,20,1,7,11
1.72313E+12,-1096,5225,-5414,-158,-15,14,1,7,11
1.72313E+12,-1081,5225,-5421,-146,-34,-266,1,7,11
1.72313E+12,-1069,5244,-5440,-143,-59,-294,1,7,11
1.72313E+12,-1071,5009,-5449,-151,-79,-319,1,7,11
1.72313E+12,-1068,5032,-5468,-175,-102,-334,1,7,11
1.72313E+12,-1084,5050,-5473,-220,-125,-347,1,7,11
1.72313E+12,-1102,5070,-5485,-537,88,-361,1,7,11
1.72313E+12,-1123,5083,-5471,-614,21,-341,1,7,11
1.72313E+12,-1117,5058,-5429,-476,-291,-316,1,7,11
1.72313E+12,-1109,5031,-5391,-772,-352,-314,1,7,11
1.72313E+12,-1094,5043,-5388,-512,-143,-331,1,7,11
1.72313E+12,-1093,5045,-5103,-777,-172,-353,1,7,11
1.72313E+12,-1103,5056,-5082,-772,-213,-141,1,7,11
1.72313E+12,-1093,5070,-5072,-503,-513,-199,1,7,11
1.72313E+12,-1091,5058,-5037,-494,-545,-518,1,7,11
1.72313E+12,-1101,5080,-5025,-442,-578,-590,1,7,11
1.72313E+12,-1131,5099,-5008,-409,-607,-392,1,7,11
1.72313E+12,-905,5117,-5240,-388,-396,-443,1,7,11
1.72313E+12,-924,5379,-5230,-636,-455,-498,1,7,11
1.72313E+12,-934,5391,-5220,-623,-775,-828,1,7,11
1.72313E+12,-970,5396,-5189,-602,-840,-645,1,7,11
1.72313E+12,-1287,5406,-5136,-561,-684,-720,1,7,11
1.72313E+12,-1405,5389,-4766,-184,-936,-1064,1,7,11
1.72313E+12,-1262,5377,-4954,-300,-1392,-1105,1,7,11
1.72313E+12,-1464,5067,-4531,62,-1589,-1111,1,7,11
1.72313E+12,-1907,5218,-4296,300,-1906,-1137,1,7,11
1.72313E+12,-2136,5194,-4367,497,-2423,-990,1,7,11
1.72313E+12,-2325,5183,-4021,1012,-2808,-1321,1,7,11
1.72313E+12,-2251,5225,-4037,1502,-3687,-1354,1,7,11
1.72313E+12,-2594,5232,-4404,1924,-4033,-1302,1,7,11
1.72313E+12,-2623,5219,-4611,2273,-4598,-1000,1,7,11
1.72313E+12,-2644,5133,-4605,2492,-5095,-945,1,7,11
1.72313E+12,-2681,4966,-4810,2843,-5553,-930,1,7,11
1.72313E+12,-2518,4568,-5047,2933,-6254,-1293,1,7,11
1.72313E+12,-2749,4679,-5377,2900,-6399,-1202,1,7,11
1.72313E+12,-3049,4648,-5444,2937,-6882,-1660,1,7,11
1.72313E+12,-3626,4660,-5300,2927,-7409,-1814,1,7,11
1.72313E+12,-3931,4256,-5279,2509,-7900,-1869,1,7,11
1.72313E+12,-4205,4036,-5399,2678,-8360,-1916,1,7,11
1.72313E+12,-4451,4125,-5037,2474,-9056,-1723,1,7,11
1.72313E+12,-4696,3745,-5175,2831,-9166,-1781,1,7,11
1.72313E+12,-4992,3960,-4801,2715,-9439,-2082,1,7,11
1.72313E+12,-5007,3567,-4589,2712,-9634,-1792,1,7,11
1.72313E+12,-5440,3634,-4640,2753,-10051,-1765,1,7,11
1.72313E+12,-5638,3271,-4470,3112,-9894,-2088,1,7,11
1.72313E+12,-5611,3227,-4037,3182,-9938,-1950,1,7,11
1.72313E+12,-5822,3222,-4125,3180,-9954,-2334,1,7,11
1.72313E+12,-6226,3200,-3869,3075,-9944,-2186,1,7,11
1.72313E+12,-6112,3205,-3710,2896,-9889,-2563,1,7,11
1.72313E+12,-6521,3376,-3282,2286,-10085,-2450,1,7,11
1.72313E+12,-6361,3009,-3362,2087,-10102,-2845,1,7,11
1.72313E+12,-6357,3003,-2964,1799,-9989,-2700,1,7,11
1.72313E+12,-6398,3017,-3082,1634,-9594,-2767,1,7,11
1.72313E+12,-6663,3100,-2845,1218,-9007,-2791,1,7,11
1.72313E+12,-6770,2870,-2206,980,-8270,-2630,1,7,11
1.72313E+12,-6994,2520,-2110,927,-7440,-2253,1,7,11
1.72313E+12,-7205,2621,-1485,1035,-6580,-2319,1,7,11
1.72313E+12,-7097,2278,-1218,736,-5666,-2119,1,7,11
1.72313E+12,-7709,2038,-855,916,-3796,-1237,1,7,11
1.72313E+12,-7747,2170,-404,1000,-3661,-1006,1,7,11
1.72313E+12,-7753,2097,-518,1309,-3063,-1082,1,7,11
1.72313E+12,-7777,2066,-167,1217,-2742,-720,1,7,11
1.72313E+12,-7575,2061,-352,1537,-2454,-641,1,7,11
1.72313E+12,-7640,2056,-292,1558,-2202,-828,1,7,11
1.72313E+12,-7977,1737,85,1274,-2018,-506,1,7,11
1.72313E+12,-8029,1667,-56,1588,-1930,-424,1,7,11
1.72313E+12,-7832,1864,315,1658,-2143,-636,1,7,11
1.72313E+12,-7877,1819,160,1506,-2134,-570,1,7,11
1.72313E+12,-8202,1848,208,1905,-2114,-229,1,7,11
1.72313E+12,-8256,1892,208,1739,-2117,-330,1,7,11
1.72313E+12,-8285,1681,200,1761,-2107,113,1,7,11
1.72313E+12,-8255,1710,176,1724,-2082,325,1,7,11
1.72313E+12,-8205,1706,175,1885,-1753,512,1,7,11
1.72313E+12,-7857,1700,174,1521,-1897,402,1,7,11
1.72313E+12,-8033,1710,170,1412,-1454,480,1,7,11
1.72313E+12,-8000,1748,171,1262,-1200,509,1,7,11
1.72313E+12,-7943,1751,203,1340,-927,810,1,7,11
1.72313E+12,-7676,1719,539,940,-896,802,1,7,11
1.72313E+12,-7942,1742,585,922,-408,802,1,7,11
1.72313E+12,-7985,1790,593,920,-246,803,1,7,11
1.72313E+12,-7992,2057,389,1148,-154,802,1,7,11
1.72313E+12,-8017,2099,418,917,-370,775,1,7,11
1.72313E+12,-8041,1920,417,923,-157,473,1,7,11
1.72313E+12,-8048,1987,418,1140,-252,428,1,7,11
1.72313E+12,-8029,2037,406,1062,-622,406,1,7,11
1.72313E+12,-7983,2304,407,719,-472,384,1,7,11
1.72313E+12,-7943,2311,414,650,-818,609,1,7,11
1.72313E+12,-7641,2046,438,890,-887,592,1,7,11
1.72313E+12,-7634,2338,447,671,-661,561,1,7,11
1.72313E+12,-7634,2352,476,697,-695,534,1,7,11
1.72313E+12,-7641,2382,491,704,-704,235,1,7,11
1.72313E+12,-7655,2401,466,641,-688,164,1,7,11
1.72313E+12,-7639,2407,466,465,-891,357,1,7,11
1.72313E+12,-7583,2340,798,603,-770,282,1,7,11
1.72313E+12,-7633,2363,816,584,-613,-56,1,7,11
1.72313E+12,-7671,2369,839,579,-243,-68,1,7,11
1.72313E+12,-7995,2378,866,591,-144,-63,1,7,11
1.72313E+12,-7999,2305,839,415,-304,-16,1,7,11
1.72313E+12,-7997,2044,799,468,8,-28,1,7,11
1.72313E+12,-8015,2327,499,490,65,-75,1,7,11
1.72313E+12,-8051,2376,464,458,121,-104,1,7,11
1.72313E+12,-8016,2365,405,535,-77,-80,1,7,11
1.72313E+12,-7640,2029,603,-112,371,-267,1,7,11
1.72313E+12,-7636,2018,574,120,164,-312,1,7,11
1.72313E+12,-7671,2024,547,79,235,-346,1,7,11
1.72313E+12,-7949,2032,253,23,563,-356,1,7,11
1.72313E+12,-7971,2046,238,-318,628,-355,1,7,11
1.72313E+12,-7997,2309,240,-151,403,-354,1,7,11
1.72313E+12,-8021,2043,537,-216,631,-359,1,7,11
1.72313E+12,-8034,2047,533,-200,569,-344,1,7,11
1.72313E+12,-8036,2038,506,-197,238,-342,1,7,11
1.72313E+12,-8014,2034,216,-199,171,-329,1,7,11
1.72313E+12,-8010,2306,199,-226,133,-317,1,7,11
1.72313E+12,-8003,2311,200,-534,362,-281,1,7,11
1.72313E+12,-8004,2322,204,-583,348,15,1,7,11
1.72313E+12,-8006,2333,204,-619,349,58,1,7,11
1.72313E+12,-8012,2322,217,-414,363,92,1,7,11
1.72313E+12,-8004,2312,228,-452,132,126,1,7,11
1.72313E+12,-8002,2014,521,-769,193,-106,1,7,11
1.72313E+12,-8008,2004,535,-485,232,-99,1,7,11
1.72313E+12,-8038,1997,547,-458,252,-93,1,7,11
1.72313E+12,-8018,1986,576,-401,235,-62,1,7,11
1.72313E+12,-8004,2340,254,-359,149,287,1,7,11
1.72313E+12,-7987,2383,212,-300,373,356,1,7,11
1.72313E+12,-7963,2411,160,-277,344,196,1,7,11
1.72313E+12,-7647,2427,357,-264,352,554,1,7,11
1.72313E+12,-7614,2395,150,-270,171,628,1,7,11
1.72313E+12,-7626,2407,378,119,520,462,1,7,11
1.72313E+12,-7958,2391,208,-101,549,487,1,7,11
1.72313E+12,-7949,2194,142,298,220,800,1,7,11
1.72313E+12,-7663,2251,353,-60,157,461,1,7,11
1.72313E+12,-7624,2247,373,84,357,605,1,7,11
1.72313E+12,-7565,2270,339,-265,318,200,1,7,11
1.72313E+12,-7784,2282,336,-359,300,321,1,7,11
1.72313E+12,-7750,2296,336,-161,295,-71,1,7,11
1.72313E+12,-7744,2560,337,-201,310,47,1,7,11
1.72313E+12,-7747,2576,330,-212,322,-317,1,7,11
1.72313E+12,-7756,2587,316,-218,343,-151,1,7,11
1.72313E+12,-7774,2291,325,-249,367,-223,1,7,11
1.72313E+12,-7556,2277,339,-517,380,-535,1,7,11
1.72313E+12,-7594,2268,339,-517,359,-573,1,7,11
1.72313E+12,-7613,2254,352,-517,317,-585,1,7,11
1.72313E+12,-7626,2235,345,-249,273,-576,1,7,11
1.72313E+12,-7620,2201,355,-234,-23,-563,1,7,11
1.72313E+12,-7643,2431,360,-206,-57,-563,1,7,11
1.72313E+12,-7662,2414,358,-166,-95,-555,1,7,11
1.72313E+12,-7672,2411,339,-383,-128,-537,1,7,11
1.72313E+12,-7679,2405,323,-351,120,-232,1,7,11
1.72313E+12,-7674,2407,310,-322,-111,-164,1,7,11
1.72313E+12,-7949,2405,281,-314,-44,-345,1,7,11
1.72313E+12,-7975,2369,301,-351,283,-263,1,7,11
1.72313E+12,-7995,2364,307,-377,326,47,1,7,11
1.72313E+12,-8010,2359,318,-148,329,77,1,7,11
1.72313E+12,-8016,2363,322,-184,305,94,1,7,11
1.72313E+12,-8003,2361,319,-226,260,100,1,7,11
1.72313E+12,-7982,2357,319,-518,-40,97,1,7,11
1.72313E+12,-7939,2373,305,-527,-64,87,1,7,11
1.72313E+12,-7659,2369,303,-557,-33,81,1,7,11
1.72313E+12,-7648,2349,319,-579,266,86,1,7,11
1.72313E+12,-7652,2339,344,-571,297,76,1,7,11
1.72313E+12,-7667,2336,359,-548,307,71,1,7,11
1.72313E+12,-7675,2350,352,-515,302,71,1,7,11
1.72313E+12,-7946,2372,342,-228,297,78,1,7,11
1.72313E+12,-7954,2383,332,-223,291,102,1,7,11
1.72313E+12,-7955,2399,328,-228,288,-128,1,7,11
1.72313E+12,-7945,2406,318,-242,274,-98,1,7,11
1.72313E+12,-7680,2419,295,-516,257,-93,1,7,11
1.72313E+12,-7670,2415,315,-573,-12,-87,1,7,11
1.72313E+12,-7659,2419,297,-622,-30,-87,1,7,11
1.72313E+12,-7630,2180,271,-399,-40,-86,1,7,11
1.72313E+12,-7599,2181,293,-516,257,-109,1,7,11
1.72313E+12,-7609,2403,328,-832,297,103,1,7,11
1.72313E+12,-7606,2426,321,-827,322,54,1,7,11
1.72313E+12,-7610,2425,327,-872,343,-269,1,7,11
1.72313E+12,-7614,2404,347,-864,131,-328,1,7,11
1.72313E+12,-7649,2421,337,-813,168,-382,1,7,11
1.72313E+12,-7668,2403,363,-772,154,-144,1,7,11
1.72313E+12,-7679,2395,132,-407,382,-140,1,7,11
1.72313E+12,-7951,2417,375,-572,355,-367,1,7,11
1.72313E+12,-7963,2401,132,-548,328,-332,1,7,11
1.72313E+12,-7940,2394,376,-523,318,-291,1,7,11
1.72313E+12,-7944,2384,132,-250,339,-281,1,7,11
1.72313E+12,-7953,2378,148,-224,357,-266,1,7,11
1.72313E+12,-7959,2376,164,-174,361,16,1,7,11
1.72313E+12,-7959,2385,167,-360,350,49,1,7,11
1.72313E+12,-7947,2397,144,-306,342,78,1,7,11
1.72313E+12,-7675,2419,359,-277,355,103,1,7,11
1.72313E+12,-7655,2199,312,0,138,126,1,7,11
1.72313E+12,-7657,2254,-27,-279,218,-111,1,7,11
1.72313E+12,-7654,2570,-75,-141,569,-61,1,7,11
1.72313E+12,-7640,2629,-120,-536,440,-23,1,7,11
1.72313E+12,-7952,2521,9,-471,814,267,1,7,11
1.72313E+12,-7952,2941,-153,-1121,662,348,1,7,11
1.72313E+12,-7983,3094,-599,-1477,1101,168,1,7,11
1.72313E+12,-7997,3107,-497,-2646,1291,254,1,7,11
1.72313E+12,-7645,2875,-791,-3676,1226,588,1,7,11
1.72313E+12,-7734,2255,-436,-4288,1495,574,1,7,11
1.72313E+12,-7401,1938,-242,-4786,2164,194,1,7,11
1.72313E+12,-7701,1725,-274,-5177,2596,285,1,7,11
1.72313E+12,-7565,1683,-94,-4746,2701,-99,1,7,11
1.72313E+12,-8002,1768,297,-4698,3165,89,1,7,11
1.72313E+12,-7891,1955,345,-4071,3192,-120,1,7,11
1.72313E+12,-8247,2183,308,-3774,3087,264,1,7,11
1.72313E+12,-8237,2616,-39,-3584,2878,218,1,7,11
1.72313E+12,-7881,2519,96,-3458,2667,425,1,7,11
1.72313E+12,-8040,2714,-303,-3636,2260,844,1,7,11
1.72313E+12,-7675,3126,-155,-3683,2392,708,1,7,11
1.72313E+12,-7766,2954,-223,-3555,2038,1064,1,7,11
1.72313E+12,-7549,3196,-222,-3721,1986,1130,1,7,11
1.72313E+12,-7517,3687,-1174,-3540,3499,940,1,7,11
1.72313E+12,-7334,3677,-1548,-4174,3568,1326,1,7,11
1.72313E+12,-7326,3632,-1623,-4332,3521,1153,1,7,11
1.72313E+12,-7468,3316,-1425,-4942,3565,1240,1,7,11
1.72313E+12,-7069,3292,-1424,-5209,3269,1273,1,7,11
1.72313E+12,-6894,3309,-1656,-5103,3327,1549,1,7,11
1.72313E+12,-6978,3594,-1593,-5455,3523,1255,1,7,11
1.72313E+12,-6602,3606,-1209,-5449,3797,1172,1,7,11
1.72313E+12,-6679,3668,-1164,-5007,4353,1359,1,7,11
1.72313E+12,-6283,3480,-1379,-4793,4505,1007,1,7,11
1.72313E+12,-6480,3868,-1369,-4543,5003,900,1,7,11
1.72313E+12,-6421,3748,-1384,-4312,5759,1105,1,7,11
1.72313E+12,-6460,4140,-1373,-4414,6022,1059,1,7,11
1.72313E+12,-6511,4030,-1360,-4222,6669,1056,1,7,11
1.72313E+12,-6328,4383,-1333,-3820,6940,1092,1,7,11
1.72313E+12,-6662,4451,-1296,-3872,6813,916,1,7,11
1.72313E+12,-6682,4233,-999,-3586,7022,1309,1,7,11
1.72313E+12,-6375,4236,-972,-2946,6616,1206,1,7,11
1.72313E+12,-6352,4272,-946,-2449,6672,1570,1,7,11
1.72313E+12,-6304,4341,-978,-2157,6118,1416,1,7,11
1.72313E+12,-6486,4687,-1018,-1620,6013,1495,1,7,11
1.72313E+12,-6428,4595,-1369,-1113,5353,1823,1,7,11
1.72313E+12,-6081,4962,-1203,-483,5138,1692,1,7,11
1.72313E+12,-5879,4965,-1552,-169,4624,2131,1,7,11
1.72313E+12,-5581,4928,-1427,-29,4159,2315,1,7,11
1.72313E+12,-5477,4923,-1900,489,3843,2240,1,7,11
1.72313E+12,-5214,4762,-1933,1296,3491,2639,1,7,11
1.72313E+12,-4787,5180,-2298,1477,3498,2489,1,7,11
1.72313E+12,-4935,5012,-2872,1698,3556,2833,1,7,11
1.72313E+12,-4599,5051,-3143,2049,3569,2831,1,7,11
1.72313E+12,-4671,5003,-3211,1785,3487,2485,1,7,11
1.72313E+12,-4276,4999,-3667,1755,3306,2219,1,7,11
1.72313E+12,-4392,5232,-3851,1691,3450,2032,1,7,11
1.72313E+12,-4029,5181,-3719,1852,3350,2120,1,7,11
1.72313E+12,-4195,5173,-4140,1819,3004,1720,1,7,11
1.72313E+12,-4114,5165,-4046,1497,3198,1883,1,7,11
1.72313E+12,-3824,5167,-4397,1434,3141,1816,1,7,11
1.72313E+12,-3806,5206,-4243,1618,2773,1501,1,7,11
1.72313E+12,-3754,5198,-4297,1206,2849,1460,1,7,11
1.72313E+12,-3927,5169,-4332,1331,2649,1416,1,7,11
1.72313E+12,-3565,5140,-4345,975,2205,1625,1,7,11
1.72313E+12,-3481,5137,-4334,922,2305,1574,1,7,11
1.72313E+12,-3659,5179,-4360,903,2130,1272,1,7,11
1.72313E+12,-3302,5181,-4643,1115,1679,1242,1,7,11
1.72313E+12,-3451,5198,-4677,1097,1489,1192,1,7,11
1.72313E+12,-3069,4998,-4481,1052,1246,1333,1,7,11
1.72313E+12,-2990,5052,-4539,691,1367,1003,1,7,11
1.72313E+12,-3145,5055,-4593,795,1000,938,1,7,11
1.72313E+12,-2796,5015,-4868,622,930,1136,1,7,11
1.72313E+12,-2698,5210,-4902,238,896,1066,1,7,11
1.72313E+12,-2912,5201,-4937,161,914,742,1,7,11
1.72313E+12,-2884,5182,-4954,344,947,699,1,7,11
1.72313E+12,-2864,5195,-4990,293,983,658,1,7,11
1.72313E+12,-2854,5184,-4992,-41,1003,893,1,7,11
1.72313E+12,-2559,5179,-4741,-84,1011,874,1,7,11
1.72313E+12,-2554,5197,-4992,-118,1286,861,1,7,11
1.72313E+12,-2546,5209,-4968,100,1022,868,1,7,11
1.72313E+12,-2511,5209,-4962,80,997,888,1,7,11
1.72313E+12,-2443,5193,-4952,76,981,670,1,7,11
1.72313E+12,-2640,5200,-4950,114,978,704,1,7,11
1.72313E+12,-2565,5244,-4969,-106,969,728,1,7,11
1.72313E+12,-2282,5016,-4977,-68,938,762,1,7,11
1.72313E+12,-2249,5047,-4740,-61,1148,1034,1,7,11
1.72313E+12,-2196,5061,-4766,-69,1104,1036,1,7,11
1.72313E+12,-2404,5060,-4779,-87,1065,763,1,7,11
1.72313E+12,-2344,5052,-4806,-99,1035,751,1,7,11
1.72313E+12,-2305,5042,-4835,-120,759,740,1,7,11
1.72313E+12,-1998,5030,-4859,113,744,750,1,7,11
1.72313E+12,-1947,5007,-4861,78,721,1027,1,7,11
1.72313E+12,-2159,5013,-5139,68,677,1036,1,7,11
1.72313E+12,-2097,5020,-5148,41,885,1048,1,7,11
1.72313E+12,-1777,5042,-5173,38,846,1048,1,7,11
1.72313E+12,-1713,5048,-5167,20,830,1048,1,7,11
1.72313E+12,-1672,5068,-5163,46,819,758,1,7,11
1.72313E+12,-1898,5097,-5153,56,795,707,1,7,11
1.72313E+12,-1849,5111,-5152,64,509,645,1,7,11
1.72313E+12,-1531,5102,-5164,49,498,836,1,7,11
1.72313E+12,-1492,5085,-5158,44,778,500,1,7,11
1.72313E+12,-1466,5081,-5156,50,815,410,1,7,11
1.72313E+12,-1468,5095,-5153,60,867,583,1,7,11
1.72313E+12,-1484,5112,-5140,61,653,521,1,7,11
1.72313E+12,-1513,5109,-4852,53,677,229,1,7,11
1.72313E+12,-1535,5096,-4813,65,667,205,1,7,11
1.72313E+12,-1797,5098,-4809,114,887,207,1,7,11
1.72313E+12,-1529,5086,-4818,-106,837,233,1,7,11
1.72313E+12,-1500,5073,-4832,-69,503,254,1,7,11
1.72313E+12,-1443,5080,-5135,-36,411,534,1,7,11
1.72313E+12,-1636,5060,-5185,-20,596,565,1,7,11
1.72313E+12,-1582,5056,-5241,274,538,575,1,7,11
1.72313E+12,-1541,5065,-5043,282,231,570,1,7,11
1.72313E+12,-1265,5082,-5079,273,182,547,1,7,11
1.72313E+12,-1238,5080,-5088,-27,134,523,1,7,11
1.72313E+12,-1202,5058,-5084,-62,353,240,1,7,11
1.72313E+12,-1192,5053,-5076,-73,334,201,1,7,11
1.72313E+12,-1187,5053,-5069,-85,328,170,1,7,11
1.72313E+12,-1180,5045,-5054,-116,329,145,1,7,11
1.72313E+12,-1173,5037,-5050,-125,327,380,1,7,11
1.72313E+12,-1171,5045,-5059,-125,325,362,1,7,11
1.72313E+12,-1167,5041,-5065,120,330,355,1,7,11
1.72313E+12,-1160,5036,-5057,108,330,352,1,7,11
1.72313E+12,-1154,5027,-5056,111,317,351,1,7,11
1.72313E+12,-1400,5020,-5048,122,294,346,1,7,11
1.72313E+12,-1376,5017,-5057,-110,263,343,1,7,11
1.72313E+12,-1357,5023,-5081,-85,-21,332,1,7,11
1.72313E+12,-1327,5041,-5379,-76,-42,320,1,7,11
1.72313E+12,-1301,5026,-5396,-86,-46,300,1,7,11
1.72313E+12,-1018,5020,-5410,-116,-50,275,1,7,11
1.72313E+12,-1015,5035,-5432,107,-48,-22,1,7,11
1.72313E+12,-1015,5031,-5420,54,-49,-64,1,7,11
1.72313E+12,-999,5020,-5412,14,-52,-108,1,7,11
1.72313E+12,-1020,5020,-5413,-261,-36,110,1,7,11
1.72313E+12,-1287,5006,-5406,-265,-26,82,1,7,11
1.72313E+12,-1320,5031,-5419,5,-9,54,1,7,11
1.72313E+12,-1350,5025,-5396,-275,258,47,1,7,11
1.72313E+12,-1366,5011,-5116,-286,-2,47,1,7,11
1.72313E+12,-1375,4994,-5083,-285,-19,55,1,7,11
1.72313E+12,-1386,4994,-5071,-269,-47,64,1,7,11
1.72313E+12,-1376,5000,-5083,2,-69,85,1,7,11
1.72313E+12,-1370,5007,-5100,11,-75,100,1,7,11
1.72313E+12,-1365,5017,-5117,14,-67,101,1,7,11
1.72313E+12,-1366,5012,-5117,-261,-49,97,1,7,11
1.72313E+12,-1363,4994,-5113,-282,-25,93,1,7,11
1.72313E+12,-1376,4996,-5117,-273,258,85,1,7,11
1.72313E+12,-1392,5008,-5378,-275,280,97,1,7,11
1.72313E+12,-1395,5008,-5109,-298,297,112,1,7,11
1.72313E+12,-1389,5016,-5095,-321,294,122,1,7,11
1.72313E+12,-1374,5002,-5087,-350,273,-118,1,7,11
1.72313E+12,-1353,5008,-5084,-347,-1,-111,1,7,11
1.72313E+12,-1343,5024,-5089,-344,-25,-119,1,7,11
1.72313E+12,-1325,5021,-5094,-348,-53,121,1,7,11
1.72313E+12,-1325,5032,-5097,-343,-72,90,1,7,11
1.72313E+12,-1344,5034,-5087,-329,-96,62,1,7,11
1.72313E+12,-1359,5042,-5091,-316,122,42,1,7,11
1.72313E+12,-1374,5026,-5079,-324,98,48,1,7,11
1.72313E+12,-1377,5018,-5077,-315,69,59,1,7,11
1.72313E+12,-1386,5018,-5078,-300,41,75,1,7,11
1.72313E+12,-1385,5021,-5087,-283,15,87,1,7,11
1.72313E+12,-1371,5024,-5096,-284,4,101,1,7,11
1.72313E+12,-1354,5022,-5110,-280,4,100,1,7,11
1.72313E+12,-1343,5033,-5118,-280,13,96,1,7,11
1.72313E+12,-1331,5027,-5111,-304,35,96,1,7,11
1.72313E+12,-1322,5025,-5102,-309,44,79,1,7,11
1.72313E+12,-1310,5018,-5092,-311,43,66,1,7,11
1.72313E+12,-1306,5023,-5086,-301,32,42,1,7,11
1.72313E+12,-1296,5037,-5101,-298,14,16,1,7,11
1.72313E+12,-1293,5039,-5118,-309,3,-268,1,7,11
1.72313E+12,-1301,5042,-5392,-318,-258,-290,1,7,11
1.72313E+12,-1334,5045,-5394,-337,12,-295,1,7,11
1.72313E+12,-1373,5038,-5381,-361,12,-273,1,7,11
1.72313E+12,-1153,5045,-5382,-137,-277,8,1,7,11
1.72313E+12,-1400,5036,-5393,-197,-334,25,1,7,11
1.72313E+12,-1364,5026,-5416,-518,-379,20,1,7,11
1.72313E+12,-1333,4997,-5418,-586,-136,4,1,7,11
1.72313E+12,-1327,5003,-5410,-629,-135,-296,1,7,11
1.72313E+12,-1339,5032,-5418,-407,-145,-354,1,7,11
1.72313E+12,-1330,5030,-5394,-469,-166,-153,1,7,11
1.72313E+12,-1319,5025,-5093,-511,-194,-210,1,7,11
1.72313E+12,-1337,5036,-5042,-783,-242,-533,1,7,11
1.72313E+12,-1363,5062,-5012,-773,-580,-600,1,7,11
1.72313E+12,-1388,5077,-5237,-505,-410,-404,1,7,11
1.72313E+12,-1167,5099,-5208,-481,-497,-460,1,7,11
1.72313E+12,-1183,5097,-5187,-464,-848,-507,1,7,11
1.72313E+12,-1213,5076,-5151,-430,-660,-812,1,7,11
1.72313E+12,-1268,5091,-5134,-591,-736,-876,1,7,11
1.72313E+12,-1590,5384,-5155,-523,-1076,-663,1,7,11
1.72313E+12,-1658,5117,-5125,-240,-1145,-651,1,7,11
1.72313E+12,-1473,5108,-4806,-174,-1007,-643,1,7,11
1.72313E+12,-1799,5424,-4795,-354,-1208,-664,1,7,11
1.72313E+12,-1847,5410,-4771,-355,-1462,-686,1,7,11
1.72313E+12,-1907,5412,-4742,-305,-1776,-1036,1,7,11
1.72313E+12,-1767,5462,-4978,-268,-2378,-926,1,7,11
1.72313E+12,-2125,5476,-4915,-271,-2527,-1344,1,7,11
1.72313E+12,-1966,5476,-4604,-259,-2953,-1538,1,7,11
1.72313E+12,-2343,5454,-4503,1,-3633,-1474,1,7,11
1.72313E+12,-2348,5415,-4643,-273,-3797,-1680,1,7,11
1.72313E+12,-2540,5405,-4331,47,-4281,-1941,1,7,11
1.72313E+12,-2738,5113,-4243,57,-4794,-2383,1,7,11
1.72313E+12,-3186,5411,-4253,-92,-5344,-2680,1,7,11
1.72313E+12,-3334,5408,-4296,313,-6120,-3096,1,7,11
1.72313E+12,-3312,5018,-4421,375,-6752,-3161,1,7,11
1.72313E+12,-3888,5167,-4019,553,-6879,-2975,1,7,11
1.72313E+12,-4214,4825,-4139,476,-7310,-3049,1,7,11
1.72313E+12,-4305,4989,-3717,642,-8009,-3378,1,7,11
1.72313E+12,-4880,4958,-3863,1094,-8469,-3438,1,7,11
1.72313E+12,-5140,4894,-3516,945,-8621,-3414,1,7,11
1.72313E+12,-5069,4528,-3685,1283,-8932,-3333,1,7,11
1.72313E+12,-5456,4668,-3611,1359,-9093,-2960,1,7,11
1.72313E+12,-5324,4292,-3222,1164,-9104,-3115,1,7,11
1.72313E+12,-5691,4476,-3359,1244,-9265,-2806,1,7,11
1.72313E+12,-5519,4419,-2969,1538,-8836,-2812,1,7,11
1.72313E+12,-5604,4375,-3079,1558,-8780,-2758,1,7,11
1.72313E+12,-5951,4024,-2901,1266,-8112,-2927,1,7,11
1.72313E+12,-5811,4205,-2467,1247,-7598,-2544,1,7,11
1.72313E+12,-6193,4144,-2581,1235,-7283,-2591,1,7,11
1.72313E+12,-6082,3836,-2209,1193,-6376,-2315,1,7,11
1.72313E+12,-6322,3740,-2316,1320,-5922,-1752,1,7,11
1.72313E+12,-6772,3887,-2149,934,-5013,-1646,1,7,11
1.72313E+12,-6916,3523,-1759,1118,-4673,-1299,1,7,11
1.72313E+12,-6973,3687,-1891,1091,-4128,-732,1,7,11
1.72313E+12,-7028,3613,-1508,1105,-3611,-496,1,7,11
1.72313E+12,-6820,3280,-1424,1121,-3149,-587,1,7,11
1.72313E+12,-6859,3449,-1573,1134,-2490,-231,1,7,11
1.72313E+12,-6905,3407,-1236,935,-2427,-185,1,7,11
1.72313E+12,-6902,3374,-1165,989,-1966,-151,1,7,11
1.72313E+12,-6898,3343,-1371,1296,-2082,-162,1,7,11
1.72313E+12,-6910,3342,-1341,1335,-1776,-236,1,7,11
1.72313E+12,-7179,3351,-1295,1305,-1763,-640,1,7,11
1.72313E+12,-7208,3354,-1013,978,-1786,-840,1,7,11
1.72313E+12,-7265,3381,-1008,1135,-2072,-1047,1,7,11
1.72313E+12,-7071,3333,-910,687,-2128,-936,1,7,11
1.72313E+12,-7164,2975,-1053,796,-1953,-1370,1,7,11
1.72313E+12,-7516,3167,-689,636,-2343,-1538,1,7,11
1.72313E+12,-7525,3163,-696,566,-2223,-1626,1,7,11
1.72313E+12,-7306,3116,-884,220,-2245,-1618,1,7,11
1.72313E+12,-7347,3087,-816,194,-2184,-1266,1,7,11
1.72313E+12,-7389,2807,-429,166,-2316,-1339,1,7,11
1.72313E+12,-7685,2730,-560,140,-1952,-1132,1,7,11
1.72313E+12,-7700,2731,-204,174,-2161,-697,1,7,11
1.72313E+12,-7720,2734,-158,196,-2100,-426,1,7,11
1.72313E+12,-7687,2919,-362,154,-1778,-244,1,7,11
1.72313E+12,-7362,2822,-310,138,-1898,-377,1,7,11
1.72313E+12,-7304,2542,-289,217,-1449,-332,1,7,11
1.72313E+12,-7546,2843,-321,573,-1216,-327,1,7,11
1.72313E+12,-7548,2854,-332,616,-965,-336,1,7,11
1.72313E+12,-7300,2867,-344,391,-723,-358,1,7,11
1.72313E+12,-7315,2865,-326,397,-509,-140,1,7,11
1.72313E+12,-7351,2877,-313,436,-592,-194,1,7,11
1.72313E+12,-7396,2883,-301,472,-204,-226,1,7,11
1.72313E+12,-7706,2877,-308,769,-359,-239,1,7,11
1.72313E+12,-7757,2884,-308,802,-304,-239,1,7,11
1.72313E+12,-7790,2897,-309,800,-281,-223,1,7,11
1.72313E+12,-7558,2894,-302,781,-284,-194,1,7,11
1.72313E+12,-7582,2899,-314,509,-306,-149,1,7,11
1.72313E+12,-7571,2874,-323,473,-336,-344,1,7,11
1.72313E+12,-7556,2853,-323,464,-353,-295,1,7,11
1.72313E+12,-7801,2845,-285,464,-357,-272,1,7,11
1.72313E+12,-7805,2552,42,456,-373,-266,1,7,11
1.72313E+12,-7775,2521,97,496,-165,2,1,7,11
1.72313E+12,-7777,2840,80,838,-187,-266,1,7,11
1.72313E+12,-7711,2875,85,858,-193,-259,1,7,11
1.72313E+12,-7753,2913,119,828,-151,-289,1,7,11
1.72313E+12,-7761,2908,-70,778,-173,-261,1,7,11
1.72313E+12,-7709,2861,-65,507,-240,52,1,7,11
1.72313E+12,-7404,2554,-64,769,-522,49,1,7,11
1.72313E+12,-7342,2497,-62,810,-254,22,1,7,11
1.72313E+12,-7327,2499,-103,673,-180,-307,1,7,11
1.72313E+12,-7318,2486,93,1032,-354,-368,1,7,11
1.72313E+12,-7329,2509,29,1138,38,-165,1,7,11
1.72313E+12,-7357,2498,-289,921,-85,-202,1,7,11
1.72313E+12,-7307,2607,-571,1375,594,-590,1,7,11
1.72313E+12,-7556,2592,-682,1014,972,-546,1,7,11
1.72313E+12,-7804,2563,-711,941,981,-226,1,7,11
1.72313E+12,-7555,2284,-744,1149,967,-171,1,7,11
1.72313E+12,-7795,2262,-1041,1104,930,-367,1,7,11
1.72313E+12,-7793,2242,-1070,1070,1147,-322,1,7,11
1.72313E+12,-7788,2220,-1097,1045,1102,-276,1,7,11
1.72313E+12,-7781,2213,-1116,1041,1040,13,1,7,11
1.72313E+12,-7785,2233,-898,1028,703,22,1,7,11
1.72313E+12,-7802,2286,-958,729,888,38,1,7,11
1.72313E+12,-7803,2278,-941,841,795,86,1,7,11
1.72313E+12,-7780,2282,-932,492,390,102,1,7,11
1.72313E+12,-7750,2565,-972,638,250,99,1,7,11
1.72313E+12,-7724,2298,-974,243,143,102,1,7,11
1.72313E+12,-7713,2582,-999,356,324,92,1,7,11
1.72313E+12,-7699,2581,-1016,-49,265,123,1,7,11
1.72313E+12,-7682,2302,-974,43,-8,-82,1,7,11
1.72313E+12,-7417,2303,-907,-367,-18,-37,1,7,11
1.72313E+12,-7691,2590,-1131,-252,-65,-54,1,7,11
1.72313E+12,-7415,2586,-1134,-605,-124,-64,1,7,11
1.72313E+12,-7377,2584,-1144,-450,122,-69,1,7,11
1.72313E+12,-7346,2287,-1123,-832,-106,-61,1,7,11
1.72313E+12,-7546,2201,-1073,-648,-62,-57,1,7,11
1.72313E+12,-7309,2421,-1050,-892,-1,-111,1,7,11
1.72313E+12,-7320,2367,-1028,-804,264,80,1,7,11
1.72313E+12,-7368,2392,-1072,-394,302,-288,1,7,11
1.72313E+12,-7706,2406,-1099,-605,323,-137,1,7,11
1.72313E+12,-7754,2407,-1110,-594,314,-200,1,7,11
1.72313E+12,-7798,2414,-1120,-615,297,-531,1,7,11
1.72313E+12,-7580,2401,-1110,-439,260,-601,1,7,11
1.72313E+12,-7580,2391,-1096,-507,-50,-626,1,7,11
1.72313E+12,-7578,2389,-1047,-822,-77,-400,1,7,11
1.72313E+12,-7612,2395,-745,-879,-110,-400,1,7,11
1.72313E+12,-7597,2363,-689,-666,82,-602,1,7,11
1.72313E+12,-7567,2353,-646,-650,32,-553,1,7,11
1.72313E+12,-7806,2341,-852,-847,10,-516,1,7,11
1.72313E+12,-7770,2324,-820,-497,-265,-208,1,7,11
1.72313E+12,-7734,2329,-796,-596,-283,-140,1,7,11
1.72313E+12,-7708,2332,-780,-169,-271,-338,1,7,11
1.72313E+12,-7418,2328,-781,7,-270,-352,1,7,11
1.72313E+12,-7415,2359,-819,-10,59,-135,1,7,11
1.72313E+12,-7409,2346,-849,331,-123,-159,1,7,11
1.72313E+12,-7688,2362,-647,154,-41,-200,1,7,11
1.72313E+12,-7694,2358,-692,163,274,-221,1,7,11
1.72313E+12,-7697,2393,-1033,168,342,-249,1,7,11
1.72313E+12,-7714,2415,-1076,342,190,-237,1,7,11
1.72313E+12,-7725,2404,-1105,266,545,-206,1,7,11
1.72313E+12,-7743,2414,-1147,-42,597,-180,1,7,11
1.72313E+12,-7739,2380,-1138,-111,614,-139,1,7,11
1.72313E+12,-7734,2369,-911,117,613,-131,1,7,11
1.72313E+12,-7746,2377,-984,-109,581,-367,1,7,11
1.72313E+12,-7763,2430,-1001,124,567,-330,1,7,11
1.72313E+12,-7751,2390,-960,-269,577,4,1,7,11
1.72313E+12,-7729,2394,-969,-325,542,7,1,7,11
1.72313E+12,-7708,2405,-993,-362,522,23,1,7,11
1.72313E+12,-7414,2389,-998,-151,546,38,1,7,11
1.72313E+12,-7404,2366,-986,-161,587,34,1,7,11
1.72313E+12,-7402,2336,-985,-154,603,16,1,7,11
1.72313E+12,-7403,2327,-991,-370,600,-274,1,7,11
1.72313E+12,-7410,2306,-994,-342,582,-284,1,7,11
1.72313E+12,-7399,1994,-984,-305,547,-282,1,7,11
1.72313E+12,-7405,1984,-1002,22,248,-296,1,7,11
1.72313E+12,-7397,1971,-1282,88,208,-297,1,7,11
1.72313E+12,-7375,1934,-1308,-101,179,-284,1,7,11
1.72313E+12,-7369,2151,-1345,-32,183,-294,1,7,11
1.72313E+12,-7389,2134,-1367,308,208,-317,1,7,11
1.72313E+12,-7418,2143,-1153,135,259,-326,1,7,11
1.72313E+12,-7705,2146,-1188,184,528,-310,1,7,11
1.72313E+12,-7728,2153,-1222,180,526,-283,1,7,11
1.72313E+12,-7740,2165,-1242,147,512,19,1,7,11
1.72313E+12,-7735,2166,-1257,355,236,82,1,7,11
1.72313E+12,-7710,1920,-1557,317,212,-105,1,7,11
1.72313E+12,-7711,1934,-1565,284,224,-53,1,7,11
1.72313E+12,-7713,1957,-1553,-16,221,-13,1,7,11
1.72313E+12,-7712,1978,-1277,-59,211,-9,1,7,11
1.72313E+12,-7717,1992,-1257,-102,179,-36,1,7,11
1.72313E+12,-7705,1991,-1249,118,128,-63,1,7,11
1.72313E+12,-7417,1986,-1241,98,328,-92,1,7,11
1.72313E+12,-7388,1985,-1247,84,283,-120,1,7,11
1.72313E+12,-7361,1969,-1262,73,256,113,1,7,11
1.72313E+12,-7339,1946,-1272,80,-19,87,1,7,11
1.72313E+12,-7354,1967,-1553,99,-30,67,1,7,11
1.72313E+12,-7378,1975,-1560,82,-42,68,1,7,11
1.72313E+12,-7382,1981,-1595,46,-62,85,1,7,11
1.72313E+12,-7369,1967,-1639,-299,-49,119,1,7,11
1.72313E+12,-7373,1936,-1655,-179,276,-109,1,7,11
1.72313E+12,-7415,1923,-1655,-572,334,-108,1,7,11
1.72313E+12,-7689,1958,-1435,-451,357,123,1,7,11
1.72313E+12,-7703,1969,-1418,-654,321,84,1,7,11
1.72313E+12,-7684,1956,-1634,-751,329,75,1,7,11
1.72313E+12,-7683,1962,-1583,-758,354,16,1,7,11
1.72313E+12,-7768,1990,-1279,-730,314,-283,1,7,11
1.72313E+12,-7783,2010,-1257,-738,-88,-259,1,7,11
1.72313E+12,-7774,1994,-1235,-739,5,11,1,7,11
1.72313E+12,-7728,1964,-1219,-722,-159,20,1,7,11
1.72313E+12,-7413,1933,-1210,-660,-546,20,1,7,11
1.72313E+12,-7356,1920,-1192,-816,-620,-266,1,7,11
1.72313E+12,-7334,1929,-1170,-438,-395,-310,1,7,11
1.72313E+12,-7336,1950,-1388,-573,-414,-350,1,7,11
1.72313E+12,-7367,1992,-1351,-191,-437,-380,1,7,11
1.72313E+12,-7410,2040,-1330,-344,-475,-132,1,7,11
1.72313E+12,-7684,2336,-1294,-293,-780,-372,1,7,11
1.72313E+12,-7424,2338,-995,-289,-816,-353,1,7,11
1.72313E+12,-7373,2349,-987,-279,-827,-330,1,7,11
1.72313E+12,-7385,2377,-1003,-265,-506,-323,1,7,11
1.72313E+12,-7303,2042,-953,-297,-433,-279,1,7,11
1.72313E+12,-7353,2026,-898,36,-527,-311,1,7,11
1.72313E+12,-7365,1996,-1116,125,-200,-293,1,7,11
1.72313E+12,-7381,1949,-1082,-21,-132,-306,1,7,11
1.72313E+12,-7409,1961,-1094,368,-335,-332,1,7,11
1.72313E+12,-7695,1968,-1108,189,-301,-370,1,7,11
1.72313E+12,-7734,1981,-1129,512,-279,-151,1,7,11
1.72313E+12,-7761,1987,-906,549,-289,-170,1,7,11
1.72313E+12,-7799,2009,-943,556,-301,-190,1,7,11
1.72313E+12,-7571,1995,-923,215,-334,-195,1,7,11
1.72313E+12,-7777,2160,-926,138,-131,-179,1,7,11
1.72313E+12,-7794,2128,-908,345,-356,-185,1,7,11
1.72313E+12,-7800,2111,-1134,324,-325,-164,1,7,11
1.72313E+12,-7558,2074,-1100,312,-301,-131,1,7,11
1.72313E+12,-7556,1772,-1089,336,-301,-348,1,7,11
1.72313E+12,-7799,1722,-1078,381,-296,-314,1,7,11
1.72313E+12,-7783,1691,-1091,204,-271,-291,1,7,11
1.72313E+12,-7785,1680,-1127,552,24,-281,1,7,11
1.72313E+12,-7794,1689,-923,623,80,-270,1,7,11
1.72313E+12,-7802,1685,-969,415,-118,4,1,7,11
1.72313E+12,-7804,1698,-1293,450,-66,36,1,7,11
1.72313E+12,-7807,1712,-1332,470,-1,73,1,7,11
1.72313E+12,-7803,1753,-1394,778,289,125,1,7,11
1.72313E+12,-7573,1760,-1399,469,335,-74,1,7,11
1.72313E+12,-7796,1747,-1177,407,322,-18,1,7,11
1.72313E+12,-7776,1738,-1198,592,324,-12,1,7,11
1.72313E+12,-7767,1739,-1200,184,322,-27,1,7,11
1.72313E+12,-7783,1769,-1205,352,304,-43,1,7,11
1.72313E+12,-7559,2078,-1197,260,271,-47,1,7,11
1.72313E+12,-7607,2139,-1167,-113,-48,-27,1,7,11
1.72313E+12,-7628,2175,-1374,5,109,269,1,7,11
1.72313E+12,-7620,1939,-1316,-372,-284,292,1,7,11
1.72313E+12,-7601,1968,-1007,-215,-164,302,1,7,11
1.72313E+12,-7589,1984,-927,-549,-533,310,1,7,11
1.72313E+12,-7576,1993,-1114,-604,-393,302,1,7,11
1.72313E+12,-7805,1987,-1054,-632,-504,292,1,7,11
1.72313E+12,-7778,1974,-750,-630,-850,278,1,7,11
1.72313E+12,-7750,1957,-704,-598,-652,258,1,7,11
1.72313E+12,-7746,1957,-675,-527,-683,-33,1,7,11
1.72313E+12,-7743,1952,-873,-206,-693,-64,1,7,11
1.72313E+12,-7740,1938,-846,-139,-680,-104,1,7,11
1.72313E+12,-7749,1952,-838,-310,-895,123,1,7,11
1.72313E+12,-7772,1982,-835,10,-856,102,1,7,11
1.72313E+12,-7787,2013,-832,33,-810,97,1,7,11
1.72313E+12,-7801,2032,-818,2,-506,96,1,7,11
1.72313E+12,-7568,2306,-799,-305,-464,95,1,7,11
1.72313E+12,-7576,2307,-512,-369,-427,110,1,7,11
1.72313E+12,-7589,2339,-500,-154,-637,-120,1,7,11
1.72313E+12,-7581,2320,-488,-199,-568,-44,1,7,11
1.72313E+12,-7806,2006,-474,-203,-216,304,1,7,11
1.72313E+12,-7754,2158,-460,-184,-357,139,1,7,11
1.72313E+12,-7725,2079,-436,-351,29,173,1,7,11
1.72313E+12,-7745,2063,-433,16,-128,150,1,7,11
1.72313E+12,-7787,2097,-469,87,-90,367,1,7,11
1.72313E+12,-7571,2147,-510,90,-97,312,1,7,11
1.72313E+12,-7595,1929,-808,21,120,256,1,7,11
1.72313E+12,-7613,1938,-816,-360,63,-62,1,7,11
1.72313E+12,-7614,2154,-792,-232,-262,108,1,7,11
1.72313E+12,-7620,2117,-498,-594,-330,6,1,7,11
1.72313E+12,-7634,2104,-485,-431,-142,-132,1,7,11
1.72313E+12,-7649,2113,-487,-461,-161,-189,1,7,11
1.72313E+12,-7637,2079,-477,-492,-143,-185,1,7,11
1.72313E+12,-7629,2058,-476,-464,-337,-160,1,7,11
1.72313E+12,-7637,2060,-491,-417,10,-378,1,7,11
1.72313E+12,-7659,2085,-771,-617,115,-325,1,7,11
1.72313E+12,-7951,2134,-794,-577,-42,-265,1,7,11
1.72313E+12,-7978,1928,-815,-572,287,76,1,7,11
1.72313E+12,-7954,1930,-823,-589,329,-83,1,7,11
1.72313E+12,-7676,1945,-843,-570,358,-6,1,7,11
1.72313E+12,-7659,1972,-848,-546,376,310,1,7,11
1.72313E+12,-7590,2382,-804,-529,-94,184,1,7,11
1.72313E+12,-7581,2414,-777,-556,42,193,1,7,11
1.72313E+12,-7559,2424,-453,-590,-347,195,1,7,11
1.72313E+12,-7796,2429,-433,-599,-212,185,1,7,11
1.72313E+12,-7791,2217,-398,-580,-567,165,1,7,11
1.72313E+12,-7558,2249,-609,-578,-387,145,1,7,11
1.72313E+12,-7568,2267,-547,-566,-459,381,1,7,11
1.72313E+12,-7689,2301,-324,-568,-733,-50,1,7,11
1.72313E+12,-7413,2282,-298,-557,-726,-120,1,7,11
1.72313E+12,-7408,2287,-287,-514,-689,59,1,7,11
1.72313E+12,-7406,2277,-278,-224,-887,-265,1,7,11
1.72313E+12,-7419,2247,-270,-180,-816,-315,1,7,11
1.72313E+12,-7703,2209,14,-130,-479,-354,1,7,11
1.72313E+12,-7753,2200,40,-311,-404,-143,1,7,11
1.72313E+12,-7808,2203,55,12,-606,-171,1,7,11
1.72313E+12,-7596,2198,81,46,-574,-182,1,7,11
1.72313E+12,-7643,2210,102,78,-552,-185,1,7,11
1.72313E+12,-7679,2217,124,78,-545,-172,1,7,11
1.72313E+12,-7951,2213,-92,62,-556,-151,1,7,11
1.72313E+12,-7948,2207,-73,40,-573,-381,1,7,11
1.72313E+12,-7675,2182,-66,13,-577,-361,1,7,11
1.72313E+12,-7655,2416,-58,0,-558,-363,1,7,11
1.72313E+12,-7637,2414,-64,-257,-520,-135,1,7,11
1.72313E+12,-7648,2418,-51,-270,-209,-176,1,7,11
1.72313E+12,-7657,2423,-41,-297,-157,-219,1,7,11
1.72313E+12,-7639,2380,-31,-357,-357,-254,1,7,11
1.72313E+12,-7607,2036,-10,-159,-291,-555,1,7,11
1.72313E+12,-7575,1952,-5,-175,44,-623,1,7,11
1.72313E+12,-7574,2122,-4,-158,-116,-447,1,7,11
1.72313E+12,-7579,1786,-10,-374,-22,-781,1,7,11
1.72313E+12,-7622,1753,-42,-298,330,-851,1,7,11
1.72313E+12,-7940,1749,-79,3,153,-878,1,7,11
1.72313E+12,-7985,1725,-108,11,213,-853,1,7,11
1.72313E+12,-8025,1693,120,27,513,-807,1,7,11
1.72313E+12,-7811,1674,103,47,546,-496,1,7,11
1.72313E+12,-7849,1688,71,86,551,-432,1,7,11
1.72313E+12,-7883,1690,59,101,540,-611,1,7,11
1.72313E+12,-7884,1669,48,124,248,-529,1,7,11
1.72313E+12,-7897,1698,-261,-67,212,-213,1,7,11
1.72313E+12,-7909,1746,-300,-45,177,-153,1,7,11
1.72313E+12,-7905,1780,-319,-49,130,-345,1,7,11
1.72313E+12,-7870,2054,-358,-81,323,-280,1,7,11
1.72313E+12,-7812,2063,-376,116,276,36,1,7,11
1.72313E+12,-8036,2092,-147,52,-10,72,1,7,11
1.72313E+12,-8021,2125,-162,-298,-26,105,1,7,11
1.72313E+12,-8011,2141,-148,-152,-43,-121,1,7,11
1.72313E+12,-8016,2171,-134,-244,-65,-103,1,7,11
1.72313E+12,-8029,1956,-368,-602,-91,-86,1,7,11
1.72313E+12,-8031,1983,-324,-460,-123,-60,1,7,11
1.72313E+12,-8018,1995,-282,-798,90,-46,1,7,11
1.72313E+12,-8028,2046,30,-853,52,-46,1,7,11
1.72313E+12,-8039,2337,93,-649,1,-31,1,7,11
1.72313E+12,-8012,2363,-107,-675,-324,258,1,7,11
1.72313E+12,-7964,2344,-45,-690,-133,296,1,7,11
1.72313E+12,-7630,2304,264,-642,-185,323,1,7,11
1.72313E+12,-7561,2019,293,-779,-198,326,1,7,11
1.72313E+12,-7762,1982,319,-618,-187,307,1,7,11
1.72313E+12,-7716,1957,312,-172,-161,260,1,7,11
1.72313E+12,-7717,1940,301,22,-380,-84,1,7,11
1.72313E+12,-7735,1932,274,-75,-362,67,1,7,11
1.72313E+12,-7765,2165,-2,282,-373,-293,1,7,11
1.72313E+12,-7788,2117,-28,343,-150,-132,1,7,11
1.72313E+12,-7565,2074,-57,134,-181,-230,1,7,11
1.72313E+12,-7638,2064,-118,163,-201,-580,1,7,11
1.72313E+12,-7987,2069,118,132,-221,-634,1,7,11
1.72313E+12,-7848,2048,-125,300,-267,-640,1,7,11
1.72313E+12,-7900,1762,-101,-125,-570,-622,1,7,11
1.72313E+12,-8202,1762,-63,23,-613,-614,1,7,11
1.72313E+12,-8233,1765,-19,-355,-409,-607,1,7,11
1.72313E+12,-8232,1753,302,-211,-470,-590,1,7,11
1.72313E+12,-8196,1749,362,-551,-773,-574,1,7,11
1.72313E+12,-7897,1736,160,-607,-803,-560,1,7,11
1.72313E+12,-7850,1729,205,-619,-805,-542,1,7,11
1.72313E+12,-8058,1731,237,-593,-779,-254,1,7,11
1.72313E+12,-8006,1711,512,-540,-468,-205,1,7,11
1.72313E+12,-7951,1671,542,-203,-388,-156,1,7,11
1.72313E+12,-7680,1907,549,-330,-542,-142,1,7,11
1.72313E+12,-7948,1887,553,53,-188,-148,1,7,11
1.72313E+12,-7987,1879,564,-74,-362,-171,1,7,11
1.72313E+12,-8027,1890,540,305,-309,-182,1,7,11
1.72313E+12,-8050,1904,240,134,-281,-162,1,7,11
1.72313E+12,-7812,1668,194,180,9,-374,1,7,11
1.72313E+12,-7841,1689,156,181,48,-322,1,7,11
1.72313E+12,-7863,1711,133,158,72,-263,1,7,11
1.72313E+12,-7873,1732,379,361,76,49,1,7,11
1.72313E+12,-7867,1740,377,291,69,106,1,7,11
1.72313E+12,-7865,1747,129,-39,62,-106,1,7,11
1.72313E+12,-7857,1764,132,-110,61,-66,1,7,11
1.72313E+12,-7854,1776,152,68,65,-25,1,7,11
1.72313E+12,-7841,1777,182,-270,74,276,1,7,11
1.72313E+12,-7830,2054,207,-319,91,322,1,7,11
1.72313E+12,-7843,2113,227,-360,126,373,1,7,11
1.72313E+12,-7861,1929,251,-162,-96,200,1,7,11
1.72313E+12,-7846,1970,544,-250,-78,557,1,7,11
1.72313E+12,-7814,1989,541,-581,-70,398,1,7,11
1.72313E+12,-8009,1954,554,-388,-58,483,1,7,11
1.72313E+12,-7639,1926,563,-397,-39,789,1,7,11
1.72313E+12,-7606,2154,577,-615,-5,770,1,7,11
1.72313E+12,-7597,2148,585,-546,281,634,1,7,11
1.72313E+12,-7630,1935,564,-193,295,230,1,7,11
1.72313E+12,-7646,1982,564,-159,284,152,1,7,11
1.72313E+12,-7952,2012,567,-183,-10,260,1,7,11
1.72313E+12,-7953,2008,588,-515,-69,100,1,7,11
1.72313E+12,-7664,1975,602,-614,117,32,1,7,11
1.72313E+12,-7642,1937,617,-387,-123,-296,1,7,11
1.72313E+12,-7641,2151,638,-398,-74,-349,1,7,11
1.72313E+12,-7677,2122,390,-392,-3,-135,1,7,11
1.72313E+12,-7961,2082,402,-617,316,-140,1,7,11
1.72313E+12,-8001,2071,635,-533,371,-370,1,7,11
1.72313E+12,-8012,2057,605,-201,148,-320,1,7,11
1.72313E+12,-8004,1750,590,-135,165,-270,1,7,11
1.72313E+12,-8004,1728,560,-273,186,9,1,7,11
1.72313E+12,-8008,1720,520,93,193,10,1,7,11
1.72313E+12,-8009,1711,215,-81,189,0,1,7,11
1.72313E+12,-8008,1699,174,-24,178,-285,1,7,11
1.72313E+12,-8023,1713,378,278,172,-323,1,7,11
1.72313E+12,-8043,1712,342,256,158,-364,1,7,11
1.72313E+12,-8052,1688,315,-49,151,-151,1,7,11
1.72313E+12,-7817,1687,293,-103,141,-186,1,7,11
1.72313E+12,-7821,1696,264,71,129,-206,1,7,11
1.72313E+12,-7864,1747,-20,-290,129,-225,1,7,11
1.72313E+12,-7920,2069,-36,-195,350,-212,1,7,11
1.72313E+12,-8221,2121,-8,-405,288,-168,1,7,11
1.72313E+12,-8258,2166,312,-881,-68,-347,1,7,11
1.72313E+12,-8257,1928,135,-1084,59,5,1,7,11
1.72313E+12,-8247,1944,234,-985,-329,88,1,7,11
1.72313E+12,-8216,1932,597,-1361,-218,-90,1,7,11
1.72313E+12,-7890,2164,438,-1377,-609,-18,1,7,11
1.72313E+12,-8062,2149,503,-1308,-449,291,1,7,11
1.72313E+12,-7989,2133,827,-934,-495,317,1,7,11
1.72313E+12,-7940,2140,877,-747,-500,325,1,7,11
1.72313E+12,-7650,2162,642,-788,-495,328,1,7,11
1.72313E+12,-7607,1926,883,-565,-476,330,1,7,11
1.72313E+12,-7575,1955,858,-356,-435,313,1,7,11
1.72313E+12,-7806,1970,842,70,-635,273,1,7,11
1.72313E+12,-7553,1971,832,-48,-572,-57,1,7,11
1.72313E+12,-7578,1988,805,333,-526,115,1,7,11
1.72313E+12,-7608,2005,500,163,-239,30,1,7,11
1.72313E+12,-7632,2014,451,208,-210,-296,1,7,11
1.72313E+12,-7667,2023,422,188,-159,-375,1,7,11
1.72313E+12,-7988,1978,421,354,-361,-186,1,7,11
1.72313E+12,-8017,1921,443,-66,-311,-243,1,7,11
1.72313E+12,-8038,2113,477,99,-293,-520,1,7,11
1.72313E+12,-8037,1779,504,35,-285,-520,1,7,11
1.72313E+12,-8049,1714,781,11,1,-527,1,7,11
1.72313E+12,-7819,1679,804,8,42,-532,1,7,11
1.72313E+12,-7834,1913,809,16,78,-514,1,7,11
1.72313E+12,-7850,1906,818,22,117,-231,1,7,11
1.72313E+12,-7852,1901,819,51,-118,-186,1,7,11
1.72313E+12,-7871,1678,795,90,-92,-145,1,7,11
1.72313E+12,-7899,1713,785,104,-80,-356,1,7,11
1.72313E+12,-7900,1737,781,92,-99,-305,1,7,11
1.72313E+12,-7873,1725,806,95,120,5,1,7,11
1.72313E+12,-7837,1744,800,-100,88,57,1,7,11
1.72313E+12,-8053,1750,800,-58,77,93,1,7,11
1.72313E+12,-8035,1752,801,-4,96,108,1,7,11
1.72313E+12,-8040,1742,818,313,103,110,1,7,11
1.72313E+12,-8029,1738,831,381,80,123,1,7,11
1.72313E+12,-8027,1713,839,184,54,117,1,7,11
1.72313E+12,-8026,1726,817,528,31,114,1,7,11
1.72313E+12,-8048,1753,830,582,15,107,1,7,11
1.72313E+12,-7814,2068,496,633,-257,-107,1,7,11
1.72313E+12,-7822,2094,466,244,10,-98,1,7,11
1.72313E+12,-7840,2124,468,353,41,-95,1,7,11
1.72313E+12,-7848,2145,474,120,113,-85,1,7,11
1.72313E+12,-7859,2139,498,-283,-83,-71,1,7,11
1.72313E+12,-7856,2126,788,-134,-37,-55,1,7,11
1.72313E+12,-7858,2096,833,-206,-8,-41,1,7,11
1.72313E+12,-7829,2095,839,-233,271,-18,1,7,11
1.72313E+12,-8054,2086,845,-531,299,260,1,7,11
1.72313E+12,-8015,2064,846,-528,335,276,1,7,11
1.72313E+12,-7999,2052,836,-238,372,268,1,7,11
1.72313E+12,-7991,1780,840,-191,149,-9,1,7,11
1.72313E+12,-8013,1780,857,-376,175,-53,1,7,11
1.72313E+12,-8043,2054,849,-301,157,-86,1,7,11
1.72313E+12,-8055,2073,855,-258,364,-104,1,7,11
1.72313E+12,-8056,2092,843,38,319,-104,1,7,11
1.72313E+12,-8050,2118,823,72,292,-98,1,7,11
1.72313E+12,-8062,2132,825,86,278,-90,1,7,11
1.72313E+12,-8063,2140,811,94,-1,-74,1,7,11
1.72313E+12,-8053,2149,805,96,-13,-66,1,7,11
1.72313E+12,-8041,2153,797,99,-8,-56,1,7,11
1.72313E+12,-8030,2155,791,93,267,-48,1,7,11
1.72313E+12,-8003,2135,799,83,290,-42,1,7,11
1.72313E+12,-7997,2125,796,96,326,-58,1,7,11
1.72313E+12,-7990,2135,787,107,359,-73,1,7,11
1.72313E+12,-7988,2151,770,100,139,-86,1,7,11
1.72313E+12,-7980,2163,472,84,177,-90,1,7,11
1.72313E+12,-7987,2171,452,36,230,-92,1,7,11
1.72313E+12,-7985,2168,428,-273,539,-80,1,7,11
1.72313E+12,-7993,2147,423,-308,598,-64,1,7,11
1.72313E+12,-8020,2172,402,-285,638,-41,1,7,11
1.72313E+12,-8046,1944,623,-261,452,268,1,7,11
1.72313E+12,-7815,1976,593,-268,502,306,1,7,11
1.72313E+12,-7825,2006,571,-300,799,349,1,7,11
1.72313E+12,-8062,2020,574,-353,823,150,1,7,11
1.72313E+12,-8025,2023,563,-147,853,190,1,7,11
1.72313E+12,-8003,2029,564,-190,895,220,1,7,11
1.72313E+12,-7971,2306,546,-212,681,519,1,7,11
1.72313E+12,-7668,2034,533,-245,730,569,1,7,11
1.72313E+12,-7633,1997,517,-243,1045,591,1,7,11
1.72313E+12,-7616,1994,229,-205,1095,585,1,7,11
1.72313E+12,-7599,1970,196,-179,1122,559,1,7,11
1.72313E+12,-7603,1954,153,-131,1133,247,1,7,11
1.72313E+12,-7631,1962,378,-335,1123,163,1,7,11
1.72313E+12,-7673,1984,343,-302,1092,339,1,7,11
1.72313E+12,-7962,2035,288,-273,1048,273,1,7,11
1.72313E+12,-7983,2335,-9,-301,748,-20,1,7,11
1.72313E+12,-7983,2372,-61,-345,707,-52,1,7,11
1.72313E+12,-7970,2377,-75,-135,683,-63,1,7,11
1.72313E+12,-7957,2363,-61,-187,671,-63,1,7,11
1.72313E+12,-7947,2359,-82,-206,646,-57,1,7,11
1.72313E+12,-7669,2364,-128,-197,880,-34,1,7,11
1.72313E+12,-7605,2045,96,-200,879,280,1,7,11
1.72313E+12,-7588,2026,45,-379,674,318,1,7,11
1.72313E+12,-7566,2016,-266,-279,729,357,1,7,11
1.72313E+12,-7808,2020,-333,80,1044,370,1,7,11
1.72313E+12,-7560,2025,-384,-72,1099,370,1,7,11
1.72313E+12,-7808,2047,-201,324,1131,380,1,7,11
1.72313E+12,-7555,2351,-549,200,915,377,1,7,11
1.72313E+12,-7553,2389,-405,544,955,128,1,7,11
1.72313E+12,-7779,2200,-789,564,1300,169,1,7,11
1.72313E+12,-7777,2222,-863,521,1191,235,1,7,11
1.72313E+12,-7733,2290,-661,218,1621,613,1,7,11
1.72313E+12,-7774,2363,-780,273,1518,622,1,7,11
1.72313E+12,-7711,2362,-848,134,1795,628,1,7,11
1.72313E+12,-7687,2184,-704,174,1868,552,1,7,11
1.72313E+12,-7694,2177,-733,358,1722,523,1,7,11
1.72313E+12,-7697,2190,-746,326,2061,519,1,7,11
1.72313E+12,-7722,2187,-745,266,2070,232,1,7,11
1.72313E+12,-7730,2193,-1027,-16,1751,194,1,7,11
1.72313E+12,-7728,2200,-1087,-59,1678,146,1,7,11
1.72313E+12,-7727,2212,-1107,125,1867,367,1,7,11
1.72313E+12,-7711,2208,-907,52,1530,345,1,7,11
1.72313E+12,-7420,2248,-959,17,1464,332,1,7,11
1.72313E+12,-7377,2286,-1282,3,1427,359,1,7,11
1.72313E+12,-7312,2279,-1319,53,1426,169,1,7,11
1.72313E+12,-7302,2593,-1403,-45,1450,237,1,7,11
1.72313E+12,-7540,2630,-1214,263,1476,587,1,7,11
1.72313E+12,-7517,2675,-1265,260,1528,389,1,7,11
1.72313E+12,-7516,2475,-1559,-85,1836,424,1,7,11
1.72313E+12,-7490,2518,-1561,57,1812,448,1,7,11
1.72313E+12,-7466,2840,-1583,27,1456,434,1,7,11
1.72313E+12,-7428,2920,-1619,-294,1562,437,1,7,11
1.72313E+12,-7101,2930,-1603,-132,1366,467,1,7,11
1.72313E+12,-7273,2908,-1590,-170,1149,458,1,7,11
1.72313E+12,-7220,2910,-1606,-145,672,397,1,7,11
1.72313E+12,-7203,2708,-1413,-359,468,561,1,7,11
1.72313E+12,-7205,2749,-1450,-347,553,223,1,7,11
1.72313E+12,-7194,2799,-1487,-175,168,164,1,7,11
1.72313E+12,-7223,3079,-1451,-534,338,339,1,7,11
1.72313E+12,-7287,3107,-1473,-561,-52,292,1,7,11
1.72313E+12,-7287,3123,-1469,-519,23,304,1,7,11
1.72313E+12,-7280,3117,-1497,-235,-381,293,1,7,11
1.72313E+12,-7250,3117,-1504,-154,-242,265,1,7,11
1.72313E+12,-7276,3074,-1479,-384,-555,-69,1,7,11
1.72313E+12,-7052,2792,-1461,-354,-623,98,1,7,11
1.72313E+12,-7102,2806,-1435,-304,-444,-281,1,7,11
1.72313E+12,-7155,3103,-1426,-276,-787,-266,1,7,11
1.72313E+12,-7451,3134,-1627,-288,-881,-416,1,7,11
1.72313E+12,-7463,3151,-1572,-356,-757,-781,1,7,11
1.72313E+12,-7435,3137,-1269,-169,-1068,-828,1,7,11
1.72313E+12,-7123,2799,-1196,-252,-1055,-827,1,7,11
1.72313E+12,-7058,2707,-1368,-525,-706,-807,1,7,11
1.72313E+12,-7264,2837,-1020,-200,-797,-775,1,7,11
1.72313E+12,-7248,2464,-931,-285,-607,-497,1,7,11
1.72313E+12,-7270,2643,-1145,-23,-177,-490,1,7,11
1.72313E+12,-7073,2599,-899,533,-290,-512,1,7,11
1.72313E+12,-7165,2586,-978,813,80,-791,1,7,11
1.72313E+12,-7500,2614,-1362,741,-95,-787,1,7,11
1.72313E+12,-7546,2572,-1193,754,-13,-497,1,7,11
1.72313E+12,-7320,2258,-1267,745,307,-488,1,7,11
1.72313E+12,-7346,2234,-1623,703,354,-490,1,7,11
1.72313E+12,-7359,2209,-1440,860,147,-481,1,7,11
1.72313E+12,-7382,2216,-1516,472,199,-463,1,7,11
1.72313E+12,-7416,2223,-1819,530,239,-416,1,7,11
1.72313E+12,-7711,2216,-1826,289,512,-611,1,7,11
1.72313E+12,-7751,2203,-1526,46,223,-548,1,7,11
1.72313E+12,-7556,2177,-1495,-380,137,-244,1,7,11
1.72313E+12,-7574,2191,-1496,-558,-10,-184,1,7,11
1.72313E+12,-7803,2421,-1453,-498,111,-383,1,7,11
1.72313E+12,-7786,2426,-1417,-887,4,-352,1,7,11
1.72313E+12,-7748,2421,-1622,-751,-352,-312,1,7,11
1.72313E+12,-7700,2416,-1576,-1071,-174,-284,1,7,11
1.72313E+12,-7415,2423,-1259,-1103,-215,3,1,7,11
1.72313E+12,-7381,2425,-1195,-1094,-235,46,1,7,11
1.72313E+12,-7359,2189,-1406,-1042,-233,88,1,7,11
1.72313E+12,-7337,2202,-1373,-723,-216,-127,1,7,11
1.72313E+12,-7328,2220,-1340,-648,-183,-100,1,7,11
1.72313E+12,-7320,2245,-1311,-820,-155,-73,1,7,11
1.72313E+12,-7304,2271,-1312,-483,-381,-50,1,7,11
1.72313E+12,-7541,2296,-1312,-409,-344,-36,1,7,11
1.72313E+12,-7514,2570,-1320,-607,-294,-33,1,7,11
1.72313E+12,-7492,2572,-1318,-564,29,-40,1,7,11
1.72313E+12,-7487,2593,-1328,-253,98,-65,1,7,11
1.72313E+12,-7487,2598,-1335,-219,-99,-95,1,7,11
1.72313E+12,-7486,2605,-1341,-178,-54,124,1,7,11
1.72313E+12,-7486,2605,-1363,-142,-15,79,1,7,11
1.72313E+12,-7496,2601,-1375,-367,278,34,1,7,11
1.72313E+12,-7517,2597,-1396,-314,323,-291,1,7,11
1.72313E+12,-7535,2593,-1403,-282,340,-321,1,7,11
1.72313E+12,-7297,2595,-1157,6,347,-325,1,7,11
1.72313E+12,-7299,2587,-1164,26,345,-309,1,7,11
1.72313E+12,-7541,2570,-1181,48,331,-276,1,7,11
1.72313E+12,-7529,2564,-1194,85,310,8,1,7,11
1.72313E+12,-7525,2300,-1216,105,290,27,1,7,11
1.72313E+12,-7532,2298,-1226,-126,277,28,1,7,11
1.72313E+12,-7298,2584,-1253,-90,-14,24,1,7,11
1.72313E+12,-7298,2620,-1547,-93,-63,25,1,7,11
1.72313E+12,-7543,2648,-1572,114,-98,37,1,7,11
1.72313E+12,-7524,2652,-1579,35,-122,54,1,7,11
1.72313E+12,-7510,2661,-1578,-301,-124,63,1,7,11
1.72313E+12,-7504,2657,-1567,-130,-119,61,1,7,11
1.72313E+12,-7495,2647,-1551,-204,-117,51,1,7,11
1.72313E+12,-7500,2630,-1261,-523,-110,30,1,7,11
1.72313E+12,-7508,2601,-1234,-564,-103,-260,1,7,11
1.72313E+12,-7524,2577,-1210,-572,-98,-295,1,7,11
1.72313E+12,-7539,2292,-1180,-558,-99,-332,1,7,11
1.72313E+12,-7303,2274,-1402,-513,-108,-349,1,7,11
1.72313E+12,-7308,2269,-1399,-189,-122,-350,1,7,11
1.72313E+12,-7314,2264,-1396,-129,-123,-339,1,7,11
1.72313E+12,-7321,2252,-1395,-331,-124,-319,1,7,11
1.72313E+12,-7331,2249,-1396,-270,-126,-305,1,7,11
1.72313E+12,-7341,2263,-1165,32,-126,-293,1,7,11
1.72313E+12,-7344,2245,-1169,49,126,-276,1,7,11
1.72313E+12,-7335,2237,-1170,72,120,-267,1,7,11
1.72313E+12,-7334,2227,-1178,73,118,-265,1,7,11
1.72313E+12,-7336,2217,-1184,77,116,-261,1,7,11
1.72313E+12,-7332,2210,-1187,82,111,-262,1,7,11
1.72313E+12,-7336,2206,-1183,81,110,-266,1,7,11
1.72313E+12,-7335,2202,-1175,76,105,-268,1,7,11
1.72313E+12,-7350,2199,-1184,64,95,-271,1,7,11
1.72313E+12,-7355,2188,-1176,46,84,-275,1,7,11
1.72313E+12,-7363,2189,-1170,24,72,-279,1,7,11
1.72313E+12,-7368,2192,-1173,6,66,-280,1,7,11
1.72313E+12,-7371,2193,-1164,-281,67,-280,1,7,11
1.72313E+12,-7376,2202,-1153,-317,76,-279,1,7,11
1.72313E+12,-7383,2208,-1402,-325,84,-266,1,7,11
1.72313E+12,-7384,2210,-1398,-355,93,8,1,7,11
1.72313E+12,-7385,2217,-1386,-368,102,32,1,7,11
1.72313E+12,-7379,2228,-1376,-379,108,57,1,7,11
1.72313E+12,-7379,2230,-1357,-141,118,82,1,7,11
1.72313E+12,-7368,2237,-1353,-143,116,105,1,7,11
1.72313E+12,-7375,2259,-1362,-143,125,117,1,7,11
1.72313E+12,-7386,2275,-1374,-154,-124,-128,1,7,11
1.72313E+12,-7389,2297,-1374,-174,-120,-118,1,7,11
1.72313E+12,-7393,2566,-1381,-210,-121,-109,1,7,11
1.72313E+12,-7370,2572,-1382,-516,-126,-86,1,7,11
1.72313E+12,-7348,2568,-1388,-582,-119,-69,1,7,11
1.72313E+12,-7335,2570,-1394,-400,-93,-62,1,7,11
1.72313E+12,-7345,2571,-1389,-487,-56,-63,1,7,11
1.72313E+12,-7354,2565,-1369,-827,-29,-67,1,7,11
1.72313E+12,-7749,2266,-1140,-386,23,307,1,7,11
1.72313E+12,-7762,2567,-1136,-530,-153,355,1,7,11
1.72313E+12,-7749,2612,-902,-197,-598,145,1,7,11
1.72313E+12,-7701,2654,-932,-160,-509,175,1,7,11
1.72313E+12,-7404,2439,-966,-175,-882,185,1,7,11
1.72313E+12,-7360,2473,-981,-238,-704,175,1,7,11
1.72313E+12,-7319,2519,-1284,-604,-739,145,1,7,11
1.72313E+12,-7535,2827,-1336,-782,-728,358,1,7,11
1.72313E+12,-7501,2869,-1384,-763,-667,306,1,7,11
1.72313E+12,-7486,2909,-1167,-1321,-817,-13,1,7,11
1.72313E+12,-7486,2931,-1173,-1423,-424,-78,1,7,11
1.72313E+12,-7501,2690,-1162,-2054,-538,124,1,7,11
1.72313E+12,-7508,2703,-1160,-2181,-136,75,1,7,11
1.72313E+12,-7513,2699,-1387,-2841,13,28,1,7,11
1.72313E+12,-7519,2926,-1328,-2985,-96,-266,1,7,11
1.72313E+12,-7535,2894,-1007,-3324,304,-307,1,7,11
1.72313E+12,-7301,2883,-950,-3868,171,-340,1,7,11
1.72313E+12,-7318,2874,-1145,-4145,528,-368,1,7,11
1.72313E+12,-7331,2882,-1077,-4388,601,-143,1,7,11
1.72313E+12,-7336,2921,-1050,-4618,395,-171,1,7,11
1.72313E+12,-7309,2942,-752,-4886,431,-202,1,7,11
1.72313E+12,-7539,2929,-660,-5174,472,-517,1,7,11
1.72313E+12,-7498,2866,-793,-5461,525,-446,1,7,11
1.72313E+12,-7529,2846,-412,-5510,793,-887,1,7,11
1.72313E+12,-7330,2824,-536,-5896,506,-1073,1,7,11
1.72313E+12,-7382,2838,-166,-5922,435,-956,1,7,11
1.72313E+12,-7417,2895,-370,-5889,612,-1002,1,7,11
1.72313E+12,-7695,2923,-321,-5600,585,-939,1,7,11
1.72313E+12,-7725,2923,17,-5525,638,-702,1,7,11
1.72313E+12,-7743,2882,102,-5715,449,-497,1,7,11
1.72313E+12,-7770,2862,-80,-5322,772,-548,1,7,11
1.72313E+12,-7777,2861,-31,-5407,826,-352,1,7,11
1.72313E+12,-7775,2871,274,-5228,879,80,1,7,11
1.72313E+12,-7774,2889,325,-4794,676,-34,1,7,11
1.72313E+12,-7785,2932,379,-4890,715,343,1,7,11
1.72313E+12,-7799,2688,183,-4505,703,179,1,7,11
1.72313E+12,-7776,2693,243,-4633,885,249,1,7,11
1.72313E+12,-7746,2700,553,-4246,785,536,1,7,11
1.72313E+12,-7728,2711,612,-4378,420,529,1,7,11
1.72313E+12,-7697,2692,487,-3993,560,243,1,7,11
1.72313E+12,-7692,2711,834,-3808,200,164,1,7,11
1.72313E+12,-7696,2733,654,-3847,355,383,1,7,11
1.72313E+12,-7702,2766,715,-3610,-1,362,1,7,11
1.72313E+12,-7709,2800,1050,-3380,123,356,1,7,11
1.72313E+12,-7708,2815,1129,-3148,32,364,1,7,11
1.72313E+12,-7688,3094,940,-2786,-309,380,1,7,11
