timestamp,ax,ay,az,gx,gy,gz,Label1,Label2,Label3
1.72313E+12,-7685,2154,-1584,466,408,-606,1,7,11
1.72313E+12,-7727,2174,-1598,626,387,-549,1,7,11
1.72313E+12,-7759,1952,-1624,529,601,-224,1,7,11
1.72313E+12,-7781,1954,-1637,157,551,-137,1,7,11
1.72313E+12,-7785,2165,-1608,291,243,-309,1,7,11
1.72313E+12,-7788,2111,-1554,-66,171,0,1,7,11
1.72313E+12,-7794,2048,-1250,113,326,9,1,7,11
1.72313E+12,-7556,1727,-1212,49,-53,-271,1,7,11
1.72313E+12,-7565,1917,-1169,-261,68,-326,1,7,11
1.72313E+12,-7565,1866,-1407,-310,-328,-146,1,7,11
1.72313E+12,-7565,1835,-1404,-374,-180,-230,1,7,11
1.72313E+12,-7557,1807,-1153,-199,-239,-555,1,7,11
1.72313E+12,-7554,1518,-1408,-535,-526,-603,1,7,11
1.72313E+12,-7799,1507,-1181,-554,-522,-619,1,7,11
1.72313E+12,-7557,1511,-1215,-540,-207,-591,1,7,11
1.72313E+12,-7582,1535,-1246,-526,-369,-254,1,7,11
1.72313E+12,-7605,1817,-1267,-538,14,-129,1,7,11
1.72313E+12,-7620,1849,-1550,-556,-106,13,1,7,11
1.72313E+12,-7639,1905,-1542,-585,281,-113,1,7,11
1.72313E+12,-7629,1685,-1558,-578,381,289,1,7,11
1.72313E+12,-7581,1728,-1564,-584,211,204,1,7,11
1.72313E+12,-7777,1736,-1554,-592,548,610,1,7,11
1.72313E+12,-7742,1772,-1279,-572,593,449,1,7,11
1.72313E+12,-7755,2110,-1549,-526,582,489,1,7,11
1.72313E+12,-7746,1940,-1552,-513,253,772,1,7,11
1.72313E+12,-7716,2010,-1565,-555,155,772,1,7,11
1.72313E+12,-7392,2309,-1570,-405,293,474,1,7,11
1.72313E+12,-7325,2031,-1255,-654,-123,563,1,7,11
1.72313E+12,-7323,2363,-1257,-758,43,380,1,7,11
1.72313E+12,-7304,2404,-1544,-912,16,276,1,7,11
1.72313E+12,-7510,2425,-1553,-1298,81,-11,1,7,11
1.72313E+12,-7508,2395,-1246,-1370,-52,-12,1,7,11
1.72313E+12,-7500,2361,-1196,-1350,313,-1,1,7,11
1.72313E+12,-7509,2314,-1156,-971,133,-11,1,7,11
1.72313E+12,-7523,2307,-1399,-1044,203,-29,1,7,11
1.72313E+12,-7542,2337,-1160,-817,519,-38,1,7,11
1.72313E+12,-7533,2337,-1194,-589,582,-15,1,7,11
1.72313E+12,-7486,2315,-1217,-334,393,281,1,7,11
1.72313E+12,-7448,2028,-1229,-54,467,301,1,7,11
1.72313E+12,-7447,2010,-1221,204,782,293,1,7,11
1.72313E+12,-7481,2020,-1225,423,801,-20,1,7,11
1.72313E+12,-7507,2032,-1238,809,775,-102,1,7,11
1.72313E+12,-7518,2026,-1265,873,450,47,1,7,11
1.72313E+12,-7515,2004,-1590,883,630,-337,1,7,11
1.72313E+12,-7482,1950,-1616,834,563,-206,1,7,11
1.72313E+12,-7466,2163,-1655,804,231,-621,1,7,11
1.72313E+12,-7477,2148,-1460,802,152,-790,1,7,11
1.72313E+12,-7505,2139,-1518,790,359,-674,1,7,11
1.72313E+12,-7298,2079,-1532,510,335,-799,1,7,11
1.72313E+12,-7365,2076,-1874,777,298,-1090,1,7,11
1.72313E+12,-7682,1738,-1852,491,351,-1034,1,7,11
1.72313E+12,-7751,1682,-1821,828,132,-671,1,7,11
1.72313E+12,-7553,1866,-1528,654,138,-512,1,7,11
1.72313E+12,-7599,1793,-1502,742,359,-600,1,7,11
1.72313E+12,-7627,1494,-1499,1086,279,-194,1,7,11
1.72313E+12,-7642,1490,-1522,1147,-89,-329,1,7,11
1.72313E+12,-7639,1520,-1825,1149,49,18,1,7,11
1.72313E+12,-7603,1807,-1878,1060,-303,96,1,7,11
1.72313E+12,-7801,1844,-1695,888,-345,-114,1,7,11
1.72313E+12,-7736,1865,-1732,625,-325,-90,1,7,11
1.72313E+12,-7402,1849,-1754,363,-283,-98,1,7,11
1.72313E+12,-7342,1856,-1791,-116,44,109,1,7,11
1.72313E+12,-7328,1886,-2072,-302,-114,62,1,7,11
1.72313E+12,-7367,1684,-2062,-556,321,58,1,7,11
1.72313E+12,-7395,1701,-1776,-453,177,109,1,7,11
1.72313E+12,-7406,1689,-1720,-834,519,-65,1,7,11
1.72313E+12,-7685,1672,-1912,-894,559,271,1,7,11
1.72313E+12,-7707,1664,-1854,-895,526,343,1,7,11
1.72313E+12,-7706,1911,-1535,-851,170,143,1,7,11
1.72313E+12,-7729,1912,-1486,-804,281,154,1,7,11
1.72313E+12,-7750,1886,-1445,-832,94,140,1,7,11
1.72313E+12,-7716,1871,-1445,-835,-139,332,1,7,11
1.72313E+12,-7420,1915,-1473,-794,-605,-19,1,7,11
1.72313E+12,-7381,1701,-1510,-495,-504,-81,1,7,11
1.72313E+12,-7352,1734,-1533,-456,-857,-110,1,7,11
1.72313E+12,-7334,1736,-1536,-421,-655,-124,1,7,11
1.72313E+12,-7307,1732,-1795,-398,-668,123,1,7,11
1.72313E+12,-7303,1713,-1519,-632,-895,101,1,7,11
1.72313E+12,-7305,1717,-1510,-609,-842,63,1,7,11
1.72313E+12,-7306,1727,-1498,-619,-504,22,1,7,11
1.72313E+12,-7311,1747,-1492,-396,-391,-279,1,7,11
1.72313E+12,-7324,2068,-1497,-446,-253,-310,1,7,11
1.72313E+12,-7339,2077,-1462,-792,-360,-301,1,7,11
1.72313E+12,-7367,2091,-1436,-850,7,-304,1,7,11
1.72313E+12,-7393,2120,-1427,-652,104,-299,1,7,11
1.72313E+12,-7421,2158,-1442,-682,-28,2,1,7,11
1.72313E+12,-7750,1967,-1416,-680,382,105,1,7,11
1.72313E+12,-7605,2037,-1616,-871,253,273,1,7,11
1.72313E+12,-7971,2364,-1574,-486,636,534,1,7,11
1.72313E+12,-8022,2308,-1212,-397,406,860,1,7,11
1.72313E+12,-8015,1974,-1351,-229,585,1131,1,7,11
1.72313E+12,-7961,2162,-1021,-264,146,1305,1,7,11
1.72313E+12,-7563,2072,-968,-46,-106,1358,1,7,11
1.72313E+12,-7359,1740,-979,142,-371,1008,1,7,11
1.72313E+12,-7125,1831,-1283,518,-602,1027,1,7,11
1.72313E+12,-6892,1797,-1337,628,-509,384,1,7,11
1.72313E+12,-6955,1523,-1214,447,-796,-93,1,7,11
1.72313E+12,-6600,1863,-1647,483,-412,-573,1,7,11
1.72313E+12,-6599,1781,-1896,471,-131,-693,1,7,11
1.72313E+12,-6955,2144,-1761,638,-21,-915,1,7,11
1.72313E+12,-6846,2045,-2128,597,594,-1286,1,7,11
1.72313E+12,-7088,2364,-2140,255,716,-933,1,7,11
1.72313E+12,-7515,2344,-2104,209,1194,-1083,1,7,11
1.72313E+12,-7701,2339,-2050,238,1633,-723,1,7,11
1.72313E+12,-7611,2339,-1745,539,1414,-868,1,7,11
1.72313E+12,-8006,2327,-1671,537,1587,-491,1,7,11
1.72313E+12,-7863,2028,-1843,221,1380,-639,1,7,11
1.72313E+12,-8199,1980,-1506,383,1038,-550,1,7,11
1.72313E+12,-8200,2172,-1455,283,591,-217,1,7,11
1.72313E+12,-7895,2124,-1448,-53,-124,-165,1,7,11
1.72313E+12,-7829,2074,-1416,117,-531,-368,1,7,11
1.72313E+12,-7988,1780,-1643,58,-889,-310,1,7,11
1.72313E+12,-7647,1775,-1639,25,-927,22,1,7,11
1.72313E+12,-7565,1783,-1640,8,-1384,-105,1,7,11
1.72313E+12,-7769,1791,-1632,12,-1220,338,1,7,11
1.72313E+12,-7757,1780,-1588,19,-1219,554,1,7,11
1.72313E+12,-7781,1783,-1269,19,-1175,504,1,7,11
1.72313E+12,-7554,2060,-1197,-285,-1385,684,1,7,11
1.72313E+12,-7791,1759,-1341,-373,-1379,1071,1,7,11
1.72313E+12,-7791,1791,-1012,-165,-1184,1083,1,7,11
1.72313E+12,-7792,2124,-973,-235,-1265,1059,1,7,11
1.72313E+12,-7772,1946,-948,-590,-1573,1047,1,7,11
1.72313E+12,-7755,1978,-1112,-469,-1585,1037,1,7,11
1.72313E+12,-7737,1989,-1038,-857,-1590,748,1,7,11
1.72313E+12,-7715,1995,-737,-677,-1600,681,1,7,11
1.72313E+12,-7688,1944,-696,-762,-1581,850,1,7,11
1.72313E+12,-7329,2164,-663,-1078,-1271,472,1,7,11
1.72313E+12,-7299,1944,-661,-1088,-1157,550,1,7,11
1.72313E+12,-7303,2034,-736,-1047,-984,304,1,7,11
1.72313E+12,-7533,2313,-1069,-760,-838,-27,1,7,11
1.72313E+12,-7505,2022,-1107,-716,-409,-57,1,7,11
1.72313E+12,-7529,1975,-1089,-649,-286,56,1,7,11
1.72313E+12,-7314,2135,-765,-834,322,-337,1,7,11
1.72313E+12,-7376,1930,-1057,-431,458,-210,1,7,11
1.72313E+12,-7343,2119,-1044,-627,641,-526,1,7,11
1.72313E+12,-7545,2074,-1091,-527,1093,-575,1,7,11
1.72313E+12,-7500,1778,-900,-300,1280,-597,1,7,11
1.72313E+12,-7443,1726,-986,-116,1225,-620,1,7,11
1.72313E+12,-7160,1725,-1339,370,1451,-394,1,7,11
1.72313E+12,-7162,1746,-1403,579,1668,-432,1,7,11
1.72313E+12,-7478,1782,-1194,473,2071,-480,1,7,11
1.72313E+12,-7538,2096,-1246,824,2133,-773,1,7,11
1.72313E+12,-7369,2153,-1274,868,2135,-787,1,7,11
1.72313E+12,-7750,1966,-1538,651,2058,-492,1,7,11
1.72313E+12,-7653,2321,-1259,689,1877,-396,1,7,11
1.72313E+12,-7854,2412,-1261,674,1568,-242,1,7,11
1.72313E+12,-7932,2419,-1273,895,1113,26,1,7,11
1.72313E+12,-7931,2405,-1590,885,399,314,1,7,11
1.72313E+12,-7840,2312,-1624,858,-17,613,1,7,11
1.72313E+12,-7957,1931,-1652,875,-336,830,1,7,11
1.72313E+12,-7564,2131,-1433,678,-573,643,1,7,11
1.72313E+12,-7698,2152,-1516,731,-463,879,1,7,11
1.72313E+12,-7334,1960,-1851,729,-489,836,1,7,11
1.72313E+12,-7487,1995,-1879,655,-440,784,1,7,11
1.72313E+12,-7168,2309,-1676,796,-584,446,1,7,11
1.72313E+12,-7090,2319,-1695,593,-146,626,1,7,11
1.72313E+12,-7276,2321,-1683,140,82,242,1,7,11
1.72313E+12,-7254,2317,-1920,-46,314,337,1,7,11
1.72313E+12,-7258,2038,-1873,42,525,-87,1,7,11
1.72313E+12,-7289,1994,-1817,-309,412,-257,1,7,11
1.72313E+12,-7134,2329,-1833,-376,798,-162,1,7,11
1.72313E+12,-7165,2029,-1524,-218,889,-235,1,7,11
1.72313E+12,-7489,2026,-1496,-247,669,-572,1,7,11
1.72313E+12,-7528,2036,-1497,-236,640,-602,1,7,11
1.72313E+12,-7543,2034,-1508,-198,840,-585,1,7,11
1.72313E+12,-7529,2015,-1794,-140,787,-513,1,7,11
1.72313E+12,-7518,1959,-1810,-346,771,-156,1,7,11
1.72313E+12,-7536,2168,-1847,-300,776,-342,1,7,11
1.72313E+12,-7550,2090,-1512,-343,484,-361,1,7,11
1.72313E+12,-7542,1706,-1479,-266,426,-192,1,7,11
1.72313E+12,-7398,1731,-1505,-66,547,-592,1,7,11
1.72313E+12,-7741,1750,-1522,304,284,-434,1,7,11
1.72313E+12,-7785,2074,-1859,135,-278,-507,1,7,11
1.72313E+12,-7557,2115,-1905,354,-589,-827,1,7,11
1.72313E+12,-7790,2110,-1676,-14,-875,-870,1,7,11
1.72313E+12,-7727,2079,-1695,89,-1090,-667,1,7,11
1.72313E+12,-7406,2052,-1706,-346,-977,-739,1,7,11
1.72313E+12,-7320,1751,-1695,-517,-1311,-1073,1,7,11
1.72313E+12,-7297,1708,-1687,-420,-1307,-1086,1,7,11
1.72313E+12,-7489,1685,-1696,-458,-1004,-1064,1,7,11
1.72313E+12,-7448,1876,-1724,-444,-1143,-667,1,7,11
1.72313E+12,-7097,1815,-1747,-582,-687,-773,1,7,11
1.72313E+12,-7048,1487,-1722,-166,-592,-437,1,7,11
1.72313E+12,-7065,1441,-1890,-293,65,-485,1,7,11
1.72313E+12,-7468,1620,-1456,-318,440,-873,1,7,11
1.72313E+12,-7337,1557,-1619,-216,834,-760,1,7,11
1.72313E+12,-7744,1576,-1605,-539,835,-938,1,7,11
1.72313E+12,-7609,1558,-1595,-410,476,-1303,1,7,11
1.72313E+12,-7675,1263,-1563,-795,591,-1364,1,7,11
1.72313E+12,-7988,1213,-1277,-855,149,-1166,1,7,11
1.72313E+12,-8049,1209,-1276,-826,-56,-1197,1,7,11
1.72313E+12,-7841,1406,-1218,-475,-293,-1163,1,7,11
1.72313E+12,-7916,1226,-1251,-542,-535,-1314,1,7,11
1.72313E+12,-7901,1253,-1277,-382,-772,-1092,1,7,11
1.72313E+12,-7918,1589,-1632,40,-655,-834,1,7,11
1.72313E+12,-7910,1606,-1658,77,-723,-236,1,7,11
1.72313E+12,-7866,1558,-1621,115,-742,108,1,7,11
1.72313E+12,-7866,1574,-1601,-62,-754,157,1,7,11
1.72313E+12,-7825,1577,-1559,-31,-1060,437,1,7,11
1.72313E+12,-8055,1625,-1260,278,-1117,658,1,7,11
1.72313E+12,-8032,1443,-1276,332,-944,1131,1,7,11
1.72313E+12,-7966,1523,-1564,311,-990,1348,1,7,11
1.72313E+12,-7643,1813,-1556,-76,-949,1249,1,7,11
1.72313E+12,-7622,1852,-1228,-275,-1133,1570,1,7,11
1.72313E+12,-7561,1899,-1173,-224,-1119,1587,1,7,11
1.72313E+12,-7744,1717,-1385,-422,-1096,1267,1,7,11
1.72313E+12,-7698,1768,-1331,-672,-1054,1172,1,7,11
1.72313E+12,-7349,2060,-1022,-954,-751,1308,1,7,11
1.72313E+12,-7313,2094,-947,-1249,-666,1124,1,7,11
1.72313E+12,-7311,2116,-1120,-1495,-832,674,1,7,11
1.72313E+12,-7337,2152,-1087,-1918,-472,495,1,7,11
1.72313E+12,-7350,2160,-768,-2059,-602,593,1,7,11
1.72313E+12,-7385,2139,-737,-2096,-201,176,1,7,11
1.72313E+12,-7421,1994,-754,-2126,-287,295,1,7,11
1.72313E+12,-7703,1971,-699,-2176,-83,-40,1,7,11
1.72313E+12,-7765,1963,-644,-2157,364,-85,1,7,11
1.72313E+12,-7770,2171,-826,-2118,230,-91,1,7,11
1.72313E+12,-7567,2151,-794,-1740,603,125,1,7,11
1.72313E+12,-7579,2141,-792,-1881,407,121,1,7,11
1.72313E+12,-7603,2142,-794,-1505,486,104,1,7,11
1.72313E+12,-7637,2138,-783,-1619,777,122,1,7,11
1.72313E+12,-7616,2122,-772,-1223,502,-96,1,7,11
1.72313E+12,-7576,2119,-775,-1325,469,-58,1,7,11
1.72313E+12,-7554,2105,-786,-942,430,-28,1,7,11
1.72313E+12,-7799,2112,-772,-1080,628,-17,1,7,11
1.72313E+12,-7799,2086,-783,-701,548,-16,1,7,11
1.72313E+12,-7560,2094,-781,-857,190,-18,1,7,11
1.72313E+12,-7784,2073,-507,-491,321,-14,1,7,11
1.72313E+12,-7569,2073,-487,-619,-68,-49,1,7,11
1.72313E+12,-7577,2103,-508,-238,13,-46,1,7,11
1.72313E+12,-7579,2144,-808,-153,-137,-51,1,7,11
1.72313E+12,-7557,1943,-840,-346,-256,-35,1,7,11
1.72313E+12,-7790,2005,-641,-289,-580,-15,1,7,11
1.72313E+12,-7740,2045,-716,13,-590,295,1,7,11
1.72313E+12,-7691,2349,-1035,53,-244,373,1,7,11
1.72313E+12,-7681,2375,-1054,79,-332,214,1,7,11
1.72313E+12,-7699,2415,-1078,-118,108,574,1,7,11
1.72313E+12,-7746,2204,-1121,-90,297,429,1,7,11
1.72313E+12,-7557,2221,-1142,-87,227,780,1,7,11
1.72313E+12,-7654,2265,-914,-82,413,847,1,7,11
1.72313E+12,-8006,2601,-952,-95,816,642,1,7,11
1.72313E+12,-8027,2528,-1018,122,666,706,1,7,11
1.72313E+12,-7980,2834,-1291,15,1024,1078,1,7,11
1.72313E+12,-7589,2865,-1292,-154,1134,996,1,7,11
1.72313E+12,-7681,2859,-1022,-555,983,1172,1,7,11
1.72313E+12,-7525,2832,-1005,-414,1337,1583,1,7,11
1.72313E+12,-7123,2544,-991,-473,1177,1445,1,7,11
1.72313E+12,-7263,2517,-949,-496,1275,1523,1,7,11
1.72313E+12,-7172,2451,-1123,-507,1596,1812,1,7,11
1.72313E+12,-6869,2656,-1089,-475,1574,1486,1,7,11
1.72313E+12,-6872,2450,-1108,-392,1220,1583,1,7,11
1.72313E+12,-7185,2508,-1131,-569,1356,1407,1,7,11
1.72313E+12,-7237,2819,-910,-250,963,968,1,7,11
1.72313E+12,-7051,2927,-982,-182,1065,647,1,7,11
1.72313E+12,-7100,2741,-1297,-383,674,469,1,7,11
1.72313E+12,-7168,3077,-1357,-355,779,568,1,7,11
1.72313E+12,-7457,3148,-1162,-334,445,199,1,7,11
1.72313E+12,-7474,3196,-1212,-328,393,134,1,7,11
1.72313E+12,-7464,2977,-1253,-334,629,376,1,7,11
1.72313E+12,-7433,2962,-1273,-347,628,149,1,7,11
1.72313E+12,-7148,2960,-1278,-352,392,196,1,7,11
1.72313E+12,-7106,3193,-1275,-363,433,523,1,7,11
1.72313E+12,-7061,3155,-1274,-367,483,584,1,7,11
1.72313E+12,-7047,3155,-1268,-364,786,616,1,7,11
1.72313E+12,-7060,3195,-1544,-359,808,627,1,7,11
1.72313E+12,-7077,3002,-1565,-150,819,629,1,7,11
1.72313E+12,-7138,3337,-1272,-248,796,621,1,7,11
1.72313E+12,-7432,3391,-1229,-405,438,638,1,7,11
1.72313E+12,-7155,3442,-1239,-776,522,398,1,7,11
1.72313E+12,-7097,3242,-1275,-852,349,417,1,7,11
1.72313E+12,-7281,3290,-1555,-663,-23,467,1,7,11
1.72313E+12,-7202,3299,-1552,-709,-102,797,1,7,11
1.72313E+12,-6885,3300,-1271,-716,79,832,1,7,11
1.72313E+12,-6828,3273,-1231,-717,-261,816,1,7,11
1.72313E+12,-7032,3244,-1192,-711,-351,468,1,7,11
1.72313E+12,-6986,3211,-1402,-713,-184,554,1,7,11
1.72313E+12,-6936,3443,-1376,-718,-541,319,1,7,11
1.72313E+12,-6636,3438,-1383,-731,-628,33,1,7,11
1.72313E+12,-6623,3235,-1158,-741,-421,-528,1,7,11
1.72313E+12,-6941,3308,-1216,-747,-394,-666,1,7,11
1.72313E+12,-7010,3629,-1249,-1030,-554,-1071,1,7,11
1.72313E+12,-6821,3676,-1250,-1074,-148,-1101,1,7,11
1.72313E+12,-6867,3675,-1219,-1129,2,-1039,1,7,11
1.72313E+12,-6912,3646,-1168,-915,-119,-680,1,7,11
1.72313E+12,-7201,3327,-1362,-935,-24,-814,1,7,11
1.72313E+12,-7227,3269,-1319,-910,287,-452,1,7,11
1.72313E+12,-7235,3454,-1015,-1108,312,-619,1,7,11
1.72313E+12,-7247,3379,-969,-756,313,-569,1,7,11
1.72313E+12,-7260,3333,-931,-888,283,-549,1,7,11
1.72313E+12,-7286,3058,-925,-486,-21,-546,1,7,11
1.72313E+12,-7057,3068,-930,-596,-80,-536,1,7,11
1.72313E+12,-7069,3331,-952,-197,113,-256,1,7,11
1.72313E+12,-7076,3344,-974,-328,60,-219,1,7,11
1.72313E+12,-7062,3359,-1007,37,22,-167,1,7,11
1.72313E+12,-7291,3354,-1282,118,10,-361,1,7,11
1.72313E+12,-7246,3341,-1319,-68,21,-293,1,7,11
1.72313E+12,-7212,3353,-1345,266,62,28,1,7,11
1.72313E+12,-7202,3393,-1367,319,115,107,1,7,11
1.72313E+12,-7203,3424,-1402,335,-86,-48,1,7,11
1.72313E+12,-7211,3442,-1173,315,-30,321,1,7,11
1.72313E+12,-7200,3200,-1191,282,277,171,1,7,11
1.72313E+12,-7205,3451,-1171,-17,315,246,1,7,11
1.72313E+12,-7244,3451,-1406,-76,310,529,1,7,11
1.72313E+12,-7101,3211,-1362,110,-2,229,1,7,11
1.72313E+12,-7538,3278,-1329,14,123,371,1,7,11
1.72313E+12,-7566,3673,-1282,-365,-271,-74,1,7,11
1.72313E+12,-8240,3896,-940,-577,-516,-314,1,7,11
1.72313E+12,-8566,3815,-1050,-731,-764,-540,1,7,11
1.72313E+12,-8341,4130,-853,-1273,-1495,-396,1,7,11
1.72313E+12,-8105,3786,-440,-2145,-2300,-455,1,7,11
1.72313E+12,-7975,3850,-606,-2684,-3004,-780,1,7,11
1.72313E+12,-7496,3593,-604,-2798,-3483,-783,1,7,11
1.72313E+12,-6807,3334,-615,-2952,-3567,-456,1,7,11
1.72313E+12,-6783,3106,-507,-3160,-3273,-608,1,7,11
1.72313E+12,-6393,2860,-267,-2940,-2457,-250,1,7,11
1.72313E+12,-6717,2880,41,-2023,-2117,-210,1,7,11
1.72313E+12,-6617,2915,-90,-1873,-1636,-375,1,7,11
1.72313E+12,-7039,2730,-2,-1278,-1298,-299,1,7,11
1.72313E+12,-7218,3106,291,-1286,-1098,36,1,7,11
1.72313E+12,-7138,3006,294,-903,-1032,111,1,7,11
1.72313E+12,-7538,3408,289,-910,-1086,-95,1,7,11
1.72313E+12,-7399,3284,296,-1333,-969,-69,1,7,11
1.72313E+12,-7417,3589,348,-1629,-1183,-52,1,7,11
1.72313E+12,-7409,3598,174,-1688,-1428,-88,1,7,11
1.72313E+12,-7378,3298,546,-1985,-1666,125,1,7,11
1.72313E+12,-7312,3236,434,-2181,-2115,61,1,7,11
1.72313E+12,-7485,3436,824,-2229,-1947,14,1,7,11
1.72313E+12,-7160,3443,683,-2371,-2159,-265,1,7,11
1.72313E+12,-7098,3213,1032,-2158,-1733,24,1,7,11
1.72313E+12,-7043,3245,1091,-1868,-1451,102,1,7,11
1.72313E+12,-7261,3293,1118,-1271,-1344,-54,1,7,11
1.72313E+12,-7261,3615,1111,-925,-674,303,1,7,11
1.72313E+12,-7292,3645,1111,-896,-233,157,1,7,11
1.72313E+12,-7076,3637,1133,-639,-84,234,1,7,11
1.72313E+12,-7128,3634,905,-158,241,520,1,7,11
1.72313E+12,-7432,3629,921,23,458,236,1,7,11
1.72313E+12,-7445,3626,913,-93,852,151,1,7,11
1.72313E+12,-7461,3630,1135,281,694,273,1,7,11
1.72313E+12,-7462,3637,1065,131,761,-108,1,7,11
1.72313E+12,-7502,3643,754,234,1069,86,1,7,11
1.72313E+12,-7297,3634,737,550,1100,105,1,7,11
1.72313E+12,-7308,3597,739,599,1104,-106,1,7,11
1.72313E+12,-7311,3303,737,390,1079,-83,1,7,11
1.72313E+12,-7529,3255,719,434,764,-94,1,7,11
1.72313E+12,-7469,3215,662,481,699,117,1,7,11
1.72313E+12,-7152,3431,873,505,665,12,1,7,11
1.72313E+12,-7127,3392,841,768,647,-377,1,7,11
1.72313E+12,-7118,3364,798,774,874,-515,1,7,11
1.72313E+12,-7112,3331,771,774,831,-630,1,7,11
1.72313E+12,-7087,3059,491,797,775,-496,1,7,11
1.72313E+12,-7092,3026,487,811,487,-868,1,7,11
1.72313E+12,-7127,2972,810,852,448,-696,1,7,11
1.72313E+12,-7455,3145,853,693,572,-1061,1,7,11
1.72313E+12,-7509,3118,879,938,176,-1105,1,7,11
1.72313E+12,-7551,3134,853,1377,273,-1134,1,7,11
1.72313E+12,-7325,3114,834,1266,116,-1128,1,7,11
1.72313E+12,-7367,3109,811,1410,-302,-1113,1,7,11
1.72313E+12,-7402,3121,790,1520,-227,-1079,1,7,11
1.72313E+12,-7711,3148,511,1852,-416,-1074,1,7,11
1.72313E+12,-7715,3143,493,1858,-848,-1107,1,7,11
1.72313E+12,-7701,3127,451,1846,-714,-962,1,7,11
1.72313E+12,-7693,3140,616,1819,-762,-1324,1,7,11
1.72313E+12,-7683,3128,526,1498,-724,-1369,1,7,11
1.72313E+12,-7408,3101,191,1422,-850,-1364,1,7,11
1.72313E+12,-7411,2803,150,1596,-391,-1344,1,7,11
1.72313E+12,-7703,2779,375,1273,-171,-1297,1,7,11
1.72313E+12,-7778,2779,343,1206,51,-986,1,7,11
1.72313E+12,-7615,2801,303,1385,-18,-1138,1,7,11
1.72313E+12,-7680,2807,281,1020,142,-737,1,7,11
1.72313E+12,-7987,3078,-11,914,531,-860,1,7,11
1.72313E+12,-8014,3084,-67,1032,397,-461,1,7,11
1.72313E+12,-7986,3078,-117,885,777,-591,1,7,11
1.72313E+12,-7958,2815,77,499,644,-214,1,7,11
1.72313E+12,-7654,2791,14,622,757,-306,1,7,11
1.72313E+12,-7576,2757,-290,240,1119,121,1,7,11
1.72313E+12,-7749,2711,-328,377,963,268,1,7,11
1.72313E+12,-7408,2915,-348,271,1305,355,1,7,11
1.72313E+12,-7329,2876,-382,-75,1387,363,1,7,11
1.72313E+12,-7525,2827,-143,92,1217,313,1,7,11
1.72313E+12,-7500,2553,-167,12,1553,-44,1,7,11
1.72313E+12,-7494,2827,-192,-341,1612,80,1,7,11
1.72313E+12,-7501,2835,-199,-209,1636,-314,1,7,11
1.72313E+12,-7524,2835,-211,-608,1616,-210,1,7,11
1.72313E+12,-7322,2859,-224,-508,1547,-630,1,7,11
1.72313E+12,-7411,2912,-513,-686,1185,-781,1,7,11
1.72313E+12,-7776,2717,-561,-910,1314,-875,1,7,11
1.72313E+12,-7623,2757,-610,-1184,921,-889,1,7,11
1.72313E+12,-7663,2710,-610,-1486,767,-809,1,7,11
1.72313E+12,-7976,2910,-577,-1726,864,-500,1,7,11
1.72313E+12,-7995,2850,-527,-2175,419,-423,1,7,11
1.72313E+12,-8014,2515,-204,-2332,226,-618,1,7,11
1.72313E+12,-8032,2451,-379,-2431,269,-558,1,7,11
1.72313E+12,-8024,2640,-279,-2232,45,-231,1,7,11
1.72313E+12,-8014,2565,76,-2233,-178,-162,1,7,11
1.72313E+12,-7979,2213,-65,-2426,-394,-341,1,7,11
1.72313E+12,-7947,2394,292,-2007,-836,-277,1,7,11
1.72313E+12,-7668,2349,357,-1756,-731,42,1,7,11
1.72313E+12,-7631,2330,137,-1442,-1090,109,1,7,11
1.72313E+12,-7563,2339,162,-938,-1147,-54,1,7,11
1.72313E+12,-7779,2379,138,-867,-1130,-15,1,7,11
1.72313E+12,-7735,2180,368,-565,-1065,263,1,7,11
1.72313E+12,-7696,2245,333,-311,-706,263,1,7,11
1.72313E+12,-7406,2567,284,-112,-830,-13,1,7,11
1.72313E+12,-7379,2631,-18,289,-424,-59,1,7,11
1.72313E+12,-7394,2462,-66,129,-515,-126,1,7,11
1.72313E+12,-7410,2542,-112,160,-358,72,1,7,11
1.72313E+12,-7691,2875,120,373,45,16,1,7,11
1.72313E+12,-7718,2926,-128,263,-97,-293,1,7,11
1.72313E+12,-7752,2720,-124,118,-17,-345,1,7,11
1.72313E+12,-7796,2753,121,-307,292,-133,1,7,11
1.72313E+12,-7553,2761,106,-213,329,-130,1,7,11
1.72313E+12,-7807,2754,99,-621,382,-353,1,7,11
1.72313E+12,-7791,2737,97,-499,176,-290,1,7,11
1.72313E+12,-7771,2708,115,-652,237,41,1,7,11
1.72313E+12,-7756,2938,-124,-704,561,116,1,7,11
1.72313E+12,-7727,2901,-111,-727,626,-60,1,7,11
1.72313E+12,-7696,2852,-86,-710,448,256,1,7,11
1.72313E+12,-7698,2559,-55,-655,777,279,1,7,11
1.72313E+12,-7698,2513,-6,-835,823,286,1,7,11
1.72313E+12,-7703,2465,292,-468,839,267,1,7,11
1.72313E+12,-7722,2686,327,-579,823,-24,1,7,11
1.72313E+12,-7722,2669,341,-154,777,-64,1,7,11
1.72313E+12,-7737,2682,336,20,470,-116,1,7,11
1.72313E+12,-7749,2447,316,-80,406,102,1,7,11
1.72313E+12,-7756,2484,281,314,600,83,1,7,11
1.72313E+12,-7750,2504,-6,165,540,86,1,7,11
1.72313E+12,-7734,2543,-56,513,240,96,1,7,11
1.72313E+12,-7725,2816,-97,558,207,103,1,7,11
1.72313E+12,-7733,2830,-123,575,186,85,1,7,11
1.72313E+12,-7750,2851,106,561,156,54,1,7,11
1.72313E+12,-7772,2878,72,513,366,32,1,7,11
1.72313E+12,-7769,2888,38,164,316,26,1,7,11
1.72313E+12,-7757,2881,20,307,284,22,1,7,11
1.72313E+12,-7756,2870,12,-68,270,20,1,7,11
1.72313E+12,-7749,2859,4,87,265,16,1,7,11
1.72313E+12,-7752,2845,-258,8,273,15,1,7,11
1.72313E+12,-7752,2822,-259,-310,283,27,1,7,11
1.72313E+12,-7736,2530,-262,-344,298,39,1,7,11
1.72313E+12,-7726,2496,-275,-360,335,40,1,7,11
1.72313E+12,-7717,2471,-289,-365,130,29,1,7,11
1.72313E+12,-7715,2448,-319,-369,203,18,1,7,11
1.72313E+12,-7709,2438,-322,-365,534,5,1,7,11
1.72313E+12,-7706,2443,-342,-323,610,12,1,7,11
1.72313E+12,-7719,2479,-375,-258,429,41,1,7,11
1.72313E+12,-7771,2519,-136,45,488,73,1,7,11
1.72313E+12,-7570,2538,-137,56,498,123,1,7,11
1.72313E+12,-7599,2831,-138,74,457,-65,1,7,11
1.72313E+12,-7612,2846,-151,67,385,-6,1,7,11
1.72313E+12,-7580,2859,-190,67,561,325,1,7,11
1.72313E+12,-7782,2862,-206,52,516,142,1,7,11
1.72313E+12,-7747,2875,-231,54,518,210,1,7,11
1.72313E+12,-7692,2836,-221,17,528,246,1,7,11
1.72313E+12,-7692,2851,-230,15,556,231,1,7,11
1.72313E+12,-7401,2858,-246,-261,577,215,1,7,11
1.72313E+12,-7401,2885,-248,-289,629,176,1,7,11
1.72313E+12,-7385,2904,-522,-319,414,139,1,7,11
1.72313E+12,-7381,2887,-249,-359,432,352,1,7,11
1.72313E+12,-7348,2862,-253,-353,415,319,1,7,11
1.72313E+12,-7305,2836,-518,-324,400,259,1,7,11
1.72313E+12,-7314,2859,-525,-268,408,-86,1,7,11
1.72313E+12,-7323,2887,-548,35,404,102,1,7,11
1.72313E+12,-7344,2914,-565,66,386,58,1,7,11
1.72313E+12,-7353,2920,-578,78,605,50,1,7,11
1.72313E+12,-7360,2915,-589,94,576,45,1,7,11
1.72313E+12,-7363,2921,-609,-123,521,30,1,7,11
1.72313E+12,-7379,2925,-619,-110,227,10,1,7,11
1.72313E+12,-7386,2941,-393,-104,173,-260,1,7,11
1.72313E+12,-7381,2696,-429,-119,375,-275,1,7,11
1.72313E+12,-7353,2935,-469,97,333,-295,1,7,11
1.72313E+12,-7324,2914,-484,67,322,-331,1,7,11
1.72313E+12,-7321,2908,-503,44,339,-135,1,7,11
1.72313E+12,-7332,2889,-510,17,360,-187,1,7,11
1.72313E+12,-7342,2860,-493,-274,377,-232,1,7,11
1.72313E+12,-7357,2829,-464,-300,382,-528,1,7,11
1.72313E+12,-7370,2817,-472,-293,378,-551,1,7,11
1.72313E+12,-7396,2817,-485,-294,130,-566,1,7,11
1.72313E+12,-7421,2822,-486,-291,136,-544,1,7,11
1.72313E+12,-7689,2830,-491,-293,139,-231,1,7,11
1.72313E+12,-7698,2843,-494,-297,145,-155,1,7,11
1.72313E+12,-7714,2860,-498,-304,149,-320,1,7,11
1.72313E+12,-7705,2877,-508,-317,147,32,1,7,11
1.72313E+12,-7704,2880,-506,-340,146,106,1,7,11
1.72313E+12,-7703,2877,-502,-368,128,-95,1,7,11
1.72313E+12,-7697,2866,-479,-150,353,-68,1,7,11
1.72313E+12,-7420,2842,-469,-185,301,-65,1,7,11
1.72313E+12,-7400,2557,-464,-213,-16,-110,1,7,11
1.72313E+12,-7371,2538,-445,-230,-89,76,1,7,11
1.72313E+12,-7341,2514,-441,-242,95,-273,1,7,11
1.72313E+12,-7315,2504,-454,-244,37,-137,1,7,11
1.72313E+12,-7550,2489,-468,-246,-264,-526,1,7,11
1.72313E+12,-7538,2495,-481,-239,-283,-417,1,7,11
1.72313E+12,-7547,2525,-492,-242,-283,-813,1,7,11
1.72313E+12,-7549,2817,-505,-518,-274,-673,1,7,11
1.72313E+12,-7538,2835,-511,-556,1,-765,1,7,11
1.72313E+12,-7513,2836,-780,-601,38,-1091,1,7,11
1.72313E+12,-7513,2864,-795,-619,122,-908,1,7,11
1.72313E+12,-7547,2889,-809,-636,-31,-947,1,7,11
1.72313E+12,-7338,2884,-809,-628,342,-934,1,7,11
1.72313E+12,-7397,2863,-797,-599,187,-1128,1,7,11
1.72313E+12,-7710,2820,-793,-545,531,-1032,1,7,11
1.72313E+12,-7777,2475,-509,-227,589,-665,1,7,11
1.72313E+12,-7801,2657,-470,-149,616,-784,1,7,11
1.72313E+12,-7585,2602,-444,-349,588,-473,1,7,11
1.72313E+12,-7596,2283,-408,-309,523,-427,1,7,11
1.72313E+12,-7602,2225,-414,-272,188,-393,1,7,11
1.72313E+12,-7586,2425,-425,16,373,-629,1,7,11
1.72313E+12,-7578,2389,-433,54,326,-629,1,7,11
1.72313E+12,-7573,2367,-462,80,295,-636,1,7,11
1.72313E+12,-7563,2342,-475,81,274,-398,1,7,11
1.72313E+12,-7570,2335,-506,93,261,-432,1,7,11
1.72313E+12,-7564,2373,-830,110,286,-441,1,7,11
1.72313E+12,-7785,2358,-878,93,365,-407,1,7,11
1.72313E+12,-7800,2340,-646,80,218,-621,1,7,11
1.72313E+12,-7776,2312,-681,43,579,-543,1,7,11
1.72313E+12,-7752,2012,-713,20,456,-207,1,7,11
1.72313E+12,-7755,1999,-763,33,875,-379,1,7,11
1.72313E+12,-7796,2173,-726,20,1028,-235,1,7,11
1.72313E+12,-7590,2121,-690,31,1101,115,1,7,11
1.72313E+12,-7624,2142,-717,121,998,-77,1,7,11
1.72313E+12,-7620,2149,-741,-68,883,-22,1,7,11
1.72313E+12,-7625,2152,-749,-64,778,270,1,7,11
1.72313E+12,-7606,2167,-1042,-59,398,317,1,7,11
1.72313E+12,-7584,2175,-1065,-64,545,347,1,7,11
1.72313E+12,-7563,1950,-1097,-44,199,368,1,7,11
1.72313E+12,-7797,1993,-1126,-44,136,132,1,7,11
1.72313E+12,-7783,2016,-1146,-61,354,153,1,7,11
1.72313E+12,-7770,2311,-904,-80,347,165,1,7,11
1.72313E+12,-7799,2315,-1140,123,347,170,1,7,11
1.72313E+12,-7554,2337,-1117,119,322,190,1,7,11
1.72313E+12,-7584,2377,-1118,123,277,207,1,7,11
1.72313E+12,-7559,2405,-1136,99,-37,244,1,7,11
1.72313E+12,-7774,2426,-1148,47,-63,530,1,7,11
1.72313E+12,-7719,2183,-1146,-270,-47,548,1,7,11
1.72313E+12,-7413,2211,-902,-299,-8,560,1,7,11
1.72313E+12,-7414,2273,-943,-303,314,580,1,7,11
1.72313E+12,-7396,2560,-956,-313,367,404,1,7,11
1.72313E+12,-7350,2272,-937,-300,157,484,1,7,11
1.72313E+12,-7366,2661,-1038,71,197,840,1,7,11
1.72313E+12,-7529,2672,-1292,46,539,696,1,7,11
1.72313E+12,-7540,2441,-1299,75,415,1033,1,7,11
1.72313E+12,-7474,2454,-1328,107,495,1140,1,7,11
1.72313E+12,-7433,2679,-1283,107,833,897,1,7,11
1.72313E+12,-7146,2432,-1013,-116,878,1109,1,7,11
1.72313E+12,-7125,2434,-1007,-127,891,750,1,7,11
1.72313E+12,-7135,2665,-963,-128,867,832,1,7,11
1.72313E+12,-7473,2506,-997,-80,781,387,1,7,11
1.72313E+12,-7517,2821,-1011,-110,394,246,1,7,11
1.72313E+12,-7307,2843,-995,105,248,370,1,7,11
1.72313E+12,-7300,2835,-980,78,319,-10,1,7,11
1.72313E+12,-7524,2548,-960,102,113,127,1,7,11
1.72313E+12,-7512,2842,-977,-55,-315,-271,1,7,11
1.72313E+12,-7309,2913,-1356,256,-174,-373,1,7,11
1.72313E+12,-7552,2697,-1176,-31,-231,-374,1,7,11
1.72313E+12,-7495,2881,-1162,83,-176,-360,1,7,11
1.72313E+12,-7503,2842,-1406,-257,-309,-373,1,7,11
1.72313E+12,-7550,2559,-1360,-274,44,-355,1,7,11
1.72313E+12,-7302,2439,-1317,-258,91,-276,1,7,11
1.72313E+12,-7325,2461,-1327,109,113,60,1,7,11
1.72313E+12,-7303,2641,-1006,118,99,-116,1,7,11
1.72313E+12,-7325,2624,-983,-61,95,-114,1,7,11
1.72313E+12,-7323,2611,-956,-6,41,121,1,7,11
1.72313E+12,-7310,2612,-947,326,-314,69,1,7,11
1.72313E+12,-7321,2629,-956,163,-205,18,1,7,11
1.72313E+12,-7333,2645,-960,227,-568,-285,1,7,11
1.72313E+12,-7314,2676,-984,546,-410,-317,1,7,11
1.72313E+12,-7327,2470,-1021,559,-468,-351,1,7,11
1.72313E+12,-7330,2508,-1299,543,-499,-347,1,7,11
1.72313E+12,-7338,2532,-1315,254,-495,-322,1,7,11
1.72313E+12,-7358,2554,-1325,209,-462,-293,1,7,11
1.72313E+12,-7349,2825,-1315,137,-411,17,1,7,11
1.72313E+12,-7369,2825,-1287,326,-594,64,1,7,11
1.72313E+12,-7362,2840,-1012,289,-535,-108,1,7,11
1.72313E+12,-7331,2827,-985,-34,-198,-5,1,7,11
1.72313E+12,-7301,2531,-948,-91,-350,344,1,7,11
1.72313E+12,-7524,2497,-916,-116,11,153,1,7,11
1.72313E+12,-7522,2484,-1139,123,-126,171,1,7,11
1.72313E+12,-7526,2455,-1089,127,-35,176,1,7,11
1.72313E+12,-7538,2448,-1063,-77,283,161,1,7,11
1.72313E+12,-7534,2445,-1067,-3,304,140,1,7,11
1.72313E+12,-7519,2458,-1095,324,323,349,1,7,11
1.72313E+12,-7505,2458,-1113,356,361,292,1,7,11
1.72313E+12,-7507,2461,-1142,161,138,-25,1,7,11
1.72313E+12,-7521,2509,-941,244,161,-63,1,7,11
1.72313E+12,-7535,2486,-954,529,174,-71,1,7,11
1.72313E+12,-7539,2492,-1011,594,172,-61,1,7,11
1.72313E+12,-7300,2507,-1316,593,195,-54,1,7,11
1.72313E+12,-7552,2460,-1023,526,209,-48,1,7,11
1.72313E+12,-7361,2493,-1317,557,206,-72,1,7,11
1.72313E+12,-7356,2479,-1324,535,135,-54,1,7,11
1.72313E+12,-7351,2467,-1337,547,335,-32,1,7,11
1.72313E+12,-7336,2454,-1342,553,263,-4,1,7,11
1.72313E+12,-7302,2674,-1328,517,-66,266,1,7,11
1.72313E+12,-7506,2622,-1333,226,-128,267,1,7,11
1.72313E+12,-7468,2287,-1294,174,105,-38,1,7,11
1.72313E+12,-7467,2274,-1309,211,91,121,1,7,11
1.72313E+12,-7518,2631,-1361,239,106,17,1,7,11
1.72313E+12,-7516,2680,-1379,210,-113,-273,1,7,11
1.72313E+12,-7545,2489,-1162,184,-50,-272,1,7,11
1.72313E+12,-7545,2522,-1183,136,260,29,1,7,11
1.72313E+12,-7542,2552,-1213,342,313,79,1,7,11
1.72313E+12,-7532,2558,-1237,283,379,-109,1,7,11
1.72313E+12,-7520,2550,-1246,-26,199,-43,1,7,11
1.72313E+12,-7518,2525,-1254,-72,523,272,1,7,11
1.72313E+12,-7529,2518,-1242,-105,570,306,1,7,11
1.72313E+12,-7533,2523,-1248,116,577,322,1,7,11
1.72313E+12,-7534,2514,-1226,64,557,319,1,7,11
1.72313E+12,-7532,2515,-1236,18,254,300,1,7,11
1.72313E+12,-7498,2522,-1270,-296,198,270,1,7,11
1.72313E+12,-7475,2518,-1549,-376,170,-28,1,7,11
1.72313E+12,-7437,2524,-1559,-192,140,-79,1,7,11
1.72313E+12,-7155,2498,-1273,-245,128,108,1,7,11
1.72313E+12,-7152,2517,-1539,-206,353,44,1,7,11
1.72313E+12,-7429,2546,-1547,-182,320,-299,1,7,11
1.72313E+12,-7466,2821,-1556,-146,266,-330,1,7,11
1.72313E+12,-7472,2839,-1557,-146,-60,-351,1,7,11
1.72313E+12,-7484,2843,-1562,-156,123,-375,1,7,11
1.72313E+12,-7485,2857,-1573,-166,56,-377,1,7,11
1.72313E+12,-7491,2849,-1571,-185,11,-371,1,7,11
1.72313E+12,-7484,2825,-1539,-189,-297,-352,1,7,11
1.72313E+12,-7491,2821,-1548,-178,-329,-360,1,7,11
1.72313E+12,-7506,2550,-1548,-224,-342,-360,1,7,11
1.72313E+12,-7524,2555,-1559,-253,-322,-355,1,7,11
1.72313E+12,-7533,2508,-1256,-561,-247,-334,1,7,11
1.72313E+12,-7539,2504,-1232,-603,34,-302,1,7,11
1.72313E+12,-7539,2518,-1213,-632,55,-274,1,7,11
1.72313E+12,-7520,2493,-1168,-432,56,26,1,7,11
1.72313E+12,-7488,2470,-1408,-444,48,78,1,7,11
1.72313E+12,-7446,2452,-1405,-466,61,90,1,7,11
1.72313E+12,-7437,2458,-1404,-476,112,81,1,7,11
1.72313E+12,-7470,2460,-1387,-485,-88,61,1,7,11
1.72313E+12,-7499,2469,-1389,-449,-59,66,1,7,11
1.72313E+12,-7533,2483,-1379,-630,-55,93,1,7,11
1.72313E+12,-7298,2501,-1367,-552,-73,-111,1,7,11
1.72313E+12,-7304,2502,-1364,-200,-108,-43,1,7,11
1.72313E+12,-7546,2503,-1379,-339,116,296,1,7,11
1.72313E+12,-7535,2488,-1373,49,90,132,1,7,11
1.72313E+12,-7543,2510,-1398,-43,67,233,1,7,11
1.72313E+12,-7300,2557,-1192,330,49,606,1,7,11
1.72313E+12,-7547,2848,-1231,357,50,475,1,7,11
1.72313E+12,-7524,2848,-1259,332,84,849,1,7,11
1.72313E+12,-7494,2559,-1255,290,113,676,1,7,11
1.72313E+12,-7495,2875,-1542,271,99,687,1,7,11
1.72313E+12,-7497,2699,-1582,-54,66,679,1,7,11
1.72313E+12,-7486,2748,-1593,52,55,691,1,7,11
1.72313E+12,-7490,2769,-1537,-169,61,672,1,7,11
1.72313E+12,-7530,2802,-1206,-397,40,864,1,7,11
1.72313E+12,-7298,2813,-1385,-886,-341,802,1,7,11
1.72313E+12,-7545,3076,-1363,-1099,-157,489,1,7,11
1.72313E+12,-7517,3100,-1336,-1300,-133,443,1,7,11
1.72313E+12,-7162,3072,-1309,-1596,-271,439,1,7,11
1.72313E+12,-7161,3101,-1287,-1478,-47,416,1,7,11
1.72313E+12,-7130,3113,-1003,-1868,197,450,1,7,11
1.72313E+12,-7123,3132,-967,-1723,487,457,1,7,11
1.72313E+12,-7152,3158,-922,-2051,744,488,1,7,11
1.72313E+12,-7145,3183,-909,-1761,919,841,1,7,11
1.72313E+12,-7458,3195,-897,-1739,1021,673,1,7,11
1.72313E+12,-7154,3165,-925,-1916,1017,1037,1,7,11
1.72313E+12,-7163,2952,-998,-1517,993,1087,1,7,11
1.72313E+12,-7144,2989,-1310,-1410,938,1143,1,7,11
1.72313E+12,-7144,3032,-1374,-1550,1116,951,1,7,11
1.72313E+12,-7055,3351,-1189,-1213,737,1355,1,7,11
1.72313E+12,-7205,3363,-1209,-1404,654,1203,1,7,11
1.72313E+12,-6858,3243,-1552,-1022,846,1543,1,7,11
1.72313E+12,-6787,3652,-1622,-986,860,1647,1,7,11
1.72313E+12,-6997,3562,-1647,-1018,667,1794,1,7,11
1.72313E+12,-6956,3953,-1632,-1401,735,1700,1,7,11
1.72313E+12,-6930,3766,-1207,-1613,765,2067,1,7,11
1.72313E+12,-6651,3807,-1286,-1529,705,2090,1,7,11
1.72313E+12,-6622,4106,-1084,-1916,792,1738,1,7,11
1.72313E+12,-6655,3991,-705,-1709,255,1511,1,7,11
1.72313E+12,-6976,4227,-699,-1669,-115,1379,1,7,11
1.72313E+12,-6656,4279,-699,-1726,-543,1215,1,7,11
1.72313E+12,-6571,4272,-684,-1766,-668,1058,1,7,11
1.72313E+12,-6542,4713,-1069,-1871,-1097,892,1,7,11
1.72313E+12,-6681,4720,-1088,-1484,-1220,817,1,7,11
1.72313E+12,-6366,4505,-1090,-1422,-1190,502,1,7,11
1.72313E+12,-6303,4503,-1018,-1426,-1378,487,1,7,11
1.72313E+12,-6273,4527,-722,-1478,-1309,487,1,7,11
1.72313E+12,-6524,4550,-673,-1847,-1019,776,1,7,11
1.72313E+12,-6490,4489,-833,-2088,-987,819,1,7,11
1.72313E+12,-6448,4615,-439,-2360,-931,792,1,7,11
1.72313E+12,-6415,4246,-521,-2585,-1111,394,1,7,11
1.72313E+12,-6422,4422,-342,-2465,-1061,135,1,7,11
1.72313E+12,-6466,4382,65,-2495,-1055,96,1,7,11
1.72313E+12,-6516,4375,-57,-2436,-1103,-192,1,7,11
1.72313E+12,-6333,4235,-26,-2256,-907,-444,1,7,11
1.72313E+12,-6690,4317,266,-2402,-949,-842,1,7,11
1.72313E+12,-6771,4351,312,-2029,-981,-892,1,7,11
1.72313E+12,-6595,4644,324,-2131,-1011,-885,1,7,11
1.72313E+12,-6632,4670,335,-1686,-1302,-809,1,7,11
1.72313E+12,-6922,4721,281,-1426,-1020,-456,1,7,11
1.72313E+12,-6647,4711,265,-1215,-905,-543,1,7,11
1.72313E+12,-6664,4707,278,-955,-716,-152,1,7,11
1.72313E+12,-6928,4714,302,-688,-778,-280,1,7,11
1.72313E+12,-6915,4683,348,-484,-616,98,1,7,11
1.72313E+12,-6651,4666,376,-547,-518,-102,1,7,11
1.72313E+12,-6639,4697,364,-146,-238,-107,1,7,11
1.72313E+12,-6625,4713,345,-318,-528,118,1,7,11
1.72313E+12,-6582,4706,359,-317,-616,81,1,7,11
1.72313E+12,-6548,4715,353,-312,-486,33,1,7,11
1.72313E+12,-6535,4728,340,-325,-655,-261,1,7,11
1.72313E+12,-6747,4733,282,-369,-1089,36,1,7,11
1.72313E+12,-6389,4651,295,-228,-986,125,1,7,11
1.72313E+12,-6308,4285,151,-632,-1309,-107,1,7,11
1.72313E+12,-6494,4412,576,-803,-1319,91,1,7,11
1.72313E+12,-6494,4050,501,-828,-1283,-336,1,7,11
1.72313E+12,-6357,4041,680,-794,-963,-566,1,7,11
1.72313E+12,-6560,4052,906,-773,-918,-510,1,7,11
1.72313E+12,-6800,4379,1305,-424,-966,-888,1,7,11
1.72313E+12,-7239,4465,1404,-640,-1340,-687,1,7,11
1.72313E+12,-7459,4333,1267,-632,-1211,-675,1,7,11
1.72313E+12,-7522,4644,1561,-632,-1663,-822,1,7,11
1.72313E+12,-7482,4676,1541,-388,-1481,-634,1,7,11
1.72313E+12,-7118,4647,1553,-462,-1428,-201,1,7,11
1.72313E+12,-7252,4314,1594,-775,-1548,-291,1,7,11
1.72313E+12,-6825,4267,1589,-794,-1340,123,1,7,11
1.72313E+12,-6935,4475,1576,-820,-1026,-29,1,7,11
1.72313E+12,-6552,4477,1542,-846,-631,330,1,7,11
1.72313E+12,-6541,4403,1661,-894,42,200,1,7,11
1.72313E+12,-6561,4082,1515,-804,286,600,1,7,11
1.72313E+12,-6553,4063,1829,-389,355,433,1,7,11
1.72313E+12,-6560,4074,1864,-249,334,453,1,7,11
1.72313E+12,-6568,4077,1668,-384,-38,445,1,7,11
1.72313E+12,-6581,4369,1667,2,28,636,1,7,11
1.72313E+12,-6557,4418,1899,29,-193,546,1,7,11
1.72313E+12,-6771,4233,1871,-262,-606,159,1,7,11
1.72313E+12,-6730,4238,1883,-318,-425,268,1,7,11
1.72313E+12,-6755,4473,1710,-340,-440,112,1,7,11
1.72313E+12,-6553,4442,1776,-298,-501,-295,1,7,11
1.72313E+12,-6590,4463,2051,34,-829,-199,1,7,11
1.72313E+12,-6637,4471,2061,102,-879,-614,1,7,11
1.72313E+12,-6926,4277,1733,-31,-657,-481,1,7,11
1.72313E+12,-6628,4336,1908,369,-892,-772,1,7,11
1.72313E+12,-6599,4333,1886,599,-412,-480,1,7,11
1.72313E+12,-6626,4317,1859,836,-206,-406,1,7,11
1.72313E+12,-6552,4461,1802,1288,-97,-252,1,7,11
1.72313E+12,-6777,4451,1422,1269,342,-246,1,7,11
1.72313E+12,-6749,4409,1607,1465,543,-516,1,7,11
1.72313E+12,-6777,4382,1539,1676,447,-522,1,7,11
1.72313E+12,-6542,4365,1197,2122,815,-532,1,7,11
1.72313E+12,-6768,4037,1406,2018,863,-551,1,7,11
1.72313E+12,-6575,4065,985,2232,669,-600,1,7,11
1.72313E+12,-6756,4207,910,2279,696,-614,1,7,11
1.72313E+12,-6565,4192,1086,2668,1055,-464,1,7,11
1.72313E+12,-6962,4141,1061,2500,1061,-803,1,7,11
1.72313E+12,-7032,4123,705,2891,675,-826,1,7,11
1.72313E+12,-6839,3970,473,2785,775,-861,1,7,11
1.72313E+12,-7180,4375,248,3080,385,-824,1,7,11
1.72313E+12,-7254,4294,-11,2797,535,-391,1,7,11
1.72313E+12,-7055,4619,99,2883,179,-141,1,7,11
1.72313E+12,-7060,4483,-338,2443,306,-122,1,7,11
1.72313E+12,-7053,4549,-204,2404,-60,381,1,7,11
1.72313E+12,-7293,4605,-520,2075,75,615,1,7,11
1.72313E+12,-7288,4909,-553,1443,-325,816,1,7,11
1.72313E+12,-7262,4936,-535,986,-520,720,1,7,11
1.72313E+12,-7180,4924,-221,462,-786,1103,1,7,11
1.72313E+12,-6832,4899,-131,-110,-1066,1126,1,7,11
1.72313E+12,-6790,4561,17,-456,-1370,1078,1,7,11
1.72313E+12,-6916,4260,309,-962,-1448,664,1,7,11
1.72313E+12,-6607,4434,133,-1220,-1737,815,1,7,11
1.72313E+12,-6758,4079,526,-1259,-1939,585,1,7,11
1.72313E+12,-6667,4056,386,-1157,-1977,323,1,7,11
1.72313E+12,-6662,4088,469,-961,-2165,68,1,7,11
1.72313E+12,-6572,4241,787,-742,-1762,-160,1,7,11
1.72313E+12,-6599,4293,802,-821,-1866,-218,1,7,11
1.72313E+12,-6617,4292,666,-493,-1420,-153,1,7,11
1.72313E+12,-6722,4456,724,-385,-1276,10,1,7,11
1.72313E+12,-6706,4296,685,-145,-1002,65,1,7,11
1.72313E+12,-6279,4465,767,-230,-1030,-42,1,7,11
1.72313E+12,-6373,4248,1058,-219,-438,-79,1,7,11
1.72313E+12,-6701,4335,1088,-535,-551,-50,1,7,11
1.72313E+12,-6562,4376,903,-417,-201,-95,1,7,11
1.72313E+12,-6933,4728,924,-788,-232,118,1,7,11
1.72313E+12,-7030,4532,988,-730,-581,59,1,7,11
1.72313E+12,-6814,4602,1310,-958,-451,-340,1,7,11
1.72313E+12,-6851,4901,1403,-1633,-668,-221,1,7,11
1.72313E+12,-7024,4605,1235,-1669,-1070,-594,1,7,11
1.72313E+12,-6626,4564,1263,-2132,-1061,-493,1,7,11
1.72313E+12,-6724,4511,1537,-2027,-823,-698,1,7,11
1.72313E+12,-6365,4637,1602,-2406,-339,-995,1,7,11
1.72313E+12,-6505,4427,1439,-2199,581,-1594,1,7,11
1.72313E+12,-6447,4185,1858,-2410,1386,-1760,1,7,11
1.72313E+12,-6318,3837,1686,-1938,1955,-2219,1,7,11
1.72313E+12,-6615,4098,1716,-1744,2900,-2847,1,7,11
1.72313E+12,-7200,3782,1750,-1883,3332,-2745,1,7,11
1.72313E+12,-7439,3911,1763,-1496,3243,-2944,1,7,11
1.72313E+12,-7320,3483,1765,-1589,3219,-2521,1,7,11
1.72313E+12,-7353,3255,1752,-1379,3068,-2566,1,7,11
1.72313E+12,-7358,3037,1708,-1072,3120,-2370,1,7,11
1.72313E+12,-7368,3087,1907,-468,2884,-1947,1,7,11
1.72313E+12,-7386,2883,1864,-364,2624,-2067,1,7,11
1.72313E+12,-7736,2439,1843,290,2337,-1710,1,7,11
1.72313E+12,-7617,2302,1820,489,1722,-1835,1,7,11
1.72313E+12,-8046,2268,1531,985,1547,-1637,1,7,11
1.72313E+12,-8218,2619,1451,1434,1053,-1333,1,7,11
1.72313E+12,-8130,2452,1619,1719,243,-664,1,7,11
1.72313E+12,-8498,2824,1247,2161,-367,-161,1,7,11
1.72313E+12,-8498,2691,1351,2007,-733,137,1,7,11
1.72313E+12,-8118,3113,1142,2329,-1546,702,1,7,11
1.72313E+12,-7847,3015,650,2031,-1698,1234,1,7,11
1.72313E+12,-7792,3367,773,2112,-2110,1874,1,7,11
1.72313E+12,-7311,3285,451,1915,-2060,2081,1,7,11
1.72313E+12,-7434,3864,464,1640,-1906,1924,1,7,11
1.72313E+12,-7103,3829,808,1285,-1466,1966,1,7,11
1.72313E+12,-7289,3999,658,885,-1572,1978,1,7,11
1.72313E+12,-7131,4051,1034,159,-1208,1946,1,7,11
1.72313E+12,-7025,4049,1146,-266,-1364,2097,1,7,11
1.72313E+12,-6939,4042,988,-561,-965,1907,1,7,11
1.72313E+12,-6631,4015,1389,-770,-1034,1489,1,7,11
1.72313E+12,-6914,3983,1560,-884,-812,1134,1,7,11
1.72313E+12,-7017,4199,1493,-686,-555,778,1,7,11
1.72313E+12,-6880,4190,1893,-656,-247,203,1,7,11
1.72313E+12,-7201,4184,1703,-799,-544,-22,1,7,11
1.72313E+12,-7190,4157,1679,-550,-591,92,1,7,11
1.72313E+12,-6905,4154,1843,-337,-558,-257,1,7,11
1.72313E+12,-6883,4132,1487,96,-180,-297,1,7,11
1.72313E+12,-6889,4098,1656,259,8,-298,1,7,11
1.72313E+12,-6892,3782,1558,134,-49,-264,1,7,11
1.72313E+12,-6898,3729,1185,249,150,40,1,7,11
1.72313E+12,-6908,3967,1012,596,592,117,1,7,11
1.72313E+12,-6912,3745,1084,622,795,-22,1,7,11
1.72313E+12,-7185,3792,860,533,754,373,1,7,11
1.72313E+12,-7204,3826,508,377,948,534,1,7,11
1.72313E+12,-7208,4106,473,-72,1355,435,1,7,11
1.72313E+12,-7198,4153,489,-269,1206,812,1,7,11
1.72313E+12,-7231,4216,777,-179,1258,676,1,7,11
1.72313E+12,-7233,3991,842,-423,1198,757,1,7,11
1.72313E+12,-7218,4018,646,-770,1327,1086,1,7,11
1.72313E+12,-7198,4056,697,-793,921,1133,1,7,11
1.72313E+12,-7183,4358,748,-769,738,904,1,7,11
1.72313E+12,-6883,4399,1046,-476,792,935,1,7,11
1.72313E+12,-6817,4418,1105,-633,590,943,1,7,11
1.72313E+12,-6981,4453,1137,-144,140,924,1,7,11
1.72313E+12,-6652,4238,1142,-222,-24,1115,1,7,11
1.72313E+12,-6590,4277,1148,-49,79,1030,1,7,11
1.72313E+12,-6777,4328,1122,363,-315,679,1,7,11
1.72313E+12,-6728,4629,1083,223,-170,827,1,7,11
1.72313E+12,-6686,4643,1047,533,-252,444,1,7,11
1.72313E+12,-6697,4639,1037,557,-560,533,1,7,11
1.72313E+12,-6746,4646,1050,574,-611,355,1,7,11
1.72313E+12,-6567,4620,1073,557,-434,-66,1,7,11
1.72313E+12,-6630,4327,1104,548,-805,59,1,7,11
1.72313E+12,-6928,4282,1127,545,-675,-308,1,7,11
1.72313E+12,-6977,4477,897,563,-1050,-156,1,7,11
1.72313E+12,-7010,4419,924,615,-914,-242,1,7,11
1.72313E+12,-7023,4379,936,425,-1020,-556,1,7,11
1.72313E+12,-6811,4362,950,492,-1361,-595,1,7,11
1.72313E+12,-6828,4352,959,784,-1190,-585,1,7,11
1.72313E+12,-6848,4095,976,804,-1253,-554,1,7,11
1.72313E+12,-6874,4362,976,808,-1563,-252,1,7,11
1.72313E+12,-6888,4398,970,795,-1620,-169,1,7,11
1.72313E+12,-6880,4453,949,484,-1653,-307,1,7,11
1.72313E+12,-6856,4230,927,384,-1644,87,1,7,11
1.72313E+12,-6822,4269,899,531,-1589,-26,1,7,11
1.72313E+12,-6799,4326,1141,148,-1230,359,1,7,11
1.72313E+12,-6798,4682,1136,-7,-1346,223,1,7,11
1.72313E+12,-6815,4543,1144,27,-943,619,1,7,11
1.72313E+12,-6821,4926,902,-534,-1064,800,1,7,11
1.72313E+12,-6785,4967,931,-677,-692,1028,1,7,11
1.72313E+12,-6917,4925,987,-1319,-818,1022,1,7,11
1.72313E+12,-6760,4577,1335,-1620,-611,1228,1,7,11
1.72313E+12,-6293,4583,1155,-1848,126,1425,1,7,11
1.72313E+12,-6493,4606,1237,-1907,531,1500,1,7,11
1.72313E+12,-6482,4895,1576,-1875,666,1823,1,7,11
1.72313E+12,-6484,4933,1629,-1513,988,1879,1,7,11
1.72313E+12,-6487,4982,1650,-1623,1252,1913,1,7,11
1.72313E+12,-6491,4793,1639,-1193,1455,1677,1,7,11
1.72313E+12,-6492,4856,1596,-1289,1855,1679,1,7,11
1.72313E+12,-6490,5168,1274,-902,1682,1683,1,7,11
1.72313E+12,-6487,5213,1172,-1049,1714,1685,1,7,11
1.72313E+12,-6477,5010,1315,-730,1703,1690,1,7,11
1.72313E+12,-6466,5076,928,-709,1672,1697,1,7,11
1.72313E+12,-6454,5429,1062,-759,1876,1724,1,7,11
1.72313E+12,-6403,5251,729,-898,1808,2049,1,7,11
1.72313E+12,-6085,5288,712,-1359,1464,2135,1,7,11
1.72313E+12,-6236,5288,747,-1590,1612,1945,1,7,11
1.72313E+12,-5877,5248,1099,-1526,1232,1934,1,7,11
1.72313E+12,-5776,5458,987,-1885,1343,2081,1,7,11
1.72313E+12,-5921,5435,1400,-1863,943,1888,1,7,11
1.72313E+12,-5603,5451,1540,-1455,1075,1620,1,7,11
1.72313E+12,-5586,5493,1655,-1222,695,1320,1,7,11
1.72313E+12,-5583,5284,1477,-936,817,1040,1,7,11
1.72313E+12,-5601,5350,1518,-878,424,789,1,7,11
1.72313E+12,-5622,5649,1796,-573,530,572,1,7,11
1.72313E+12,-5902,5688,1532,-263,377,138,1,7,11
1.72313E+12,-5937,5724,1425,274,-34,260,1,7,11
1.72313E+12,-5930,5737,1597,570,24,-120,1,7,11
1.72313E+12,-5938,5747,1247,431,-313,72,1,7,11
1.72313E+12,-5914,5700,1168,474,-375,31,1,7,11
1.72313E+12,-5899,5678,1343,788,-365,-279,1,7,11
1.72313E+12,-5891,5678,1019,827,-314,-339,1,7,11
1.72313E+12,-5632,5686,964,837,32,-149,1,7,11
1.72313E+12,-5907,5691,932,822,-122,-217,1,7,11
1.72313E+12,-5918,5695,1151,797,-40,-527,1,7,11
1.72313E+12,-5929,5695,1121,508,294,-593,1,7,11
1.72313E+12,-5947,5681,1090,465,368,-405,1,7,11
1.72313E+12,-5954,5659,1096,430,171,-479,1,7,11
1.72313E+12,-5969,5685,1052,427,218,-801,1,7,11
1.72313E+12,-6009,5338,1055,623,245,-875,1,7,11
1.72313E+12,-6001,5258,1034,410,513,-686,1,7,11
1.72313E+12,-5764,5474,733,489,557,-1052,1,7,11
1.72313E+12,-5825,5456,683,795,606,-921,1,7,11
1.72313E+12,-6178,5423,655,781,624,-1289,1,7,11
1.72313E+12,-6267,5116,655,498,588,-1355,1,7,11
1.72313E+12,-6092,5041,656,471,255,-1394,1,7,11
1.72313E+12,-6440,5206,667,460,162,-1174,1,7,11
1.72313E+12,-6293,4856,687,477,296,-1197,1,7,11
1.72313E+12,-6375,4760,696,804,-123,-1195,1,7,11
1.72313E+12,-6687,4967,686,694,-298,-1162,1,7,11
1.72313E+12,-6699,4914,661,1082,-201,-1352,1,7,11
1.72313E+12,-6708,4884,891,963,-562,-1023,1,7,11
1.72313E+12,-6704,4896,839,1332,-386,-919,1,7,11
1.72313E+12,-6706,4947,744,1165,-420,-1035,1,7,11
1.72313E+12,-6706,4749,422,1198,-426,-852,1,7,11
1.72313E+12,-6695,4840,620,1175,-395,-640,1,7,11
1.72313E+12,-6679,5217,577,1320,-600,-148,1,7,11
1.72313E+12,-6385,5027,558,897,-553,108,1,7,11
1.72313E+12,-6298,5119,545,712,-246,359,1,7,11
1.72313E+12,-6486,5475,533,502,-191,599,1,7,11
1.72313E+12,-6143,5275,550,246,-137,833,1,7,11
1.72313E+12,-6059,5329,575,256,-316,1101,1,7,11
1.72313E+12,-6232,5353,621,30,24,953,1,7,11
1.72313E+12,-5888,5346,450,-173,117,990,1,7,11
1.72313E+12,-5817,5326,778,-571,-9,937,1,7,11
1.72313E+12,-6013,5314,834,-627,324,1066,1,7,11
1.72313E+12,-6007,5320,658,-623,142,876,1,7,11
1.72313E+12,-5785,5348,714,-591,187,408,1,7,11
1.72313E+12,-5795,5346,1024,-553,169,219,1,7,11
1.72313E+12,-5780,5285,1052,-527,356,259,1,7,11
1.72313E+12,-5787,5479,1065,-201,280,98,1,7,11
1.72313E+12,-5820,5431,1052,-330,-34,-326,1,7,11
1.72313E+12,-5880,5381,1048,68,-82,-232,1,7,11
1.72313E+12,-6222,5101,1028,-13,-120,-631,1,7,11
1.72313E+12,-6049,5096,722,245,82,-473,1,7,11
1.72313E+12,-6109,5060,685,633,22,-784,1,7,11
1.72313E+12,-6136,5035,874,792,-291,-796,1,7,11
1.72313E+12,-6410,5038,785,679,-301,-797,1,7,11
1.72313E+12,-6433,5060,422,1039,-270,-769,1,7,11
1.72313E+12,-6457,5102,582,1088,38,-444,1,7,11
1.72313E+12,-6463,5422,233,1086,98,-591,1,7,11
1.72313E+12,-6487,5256,151,1030,-81,-201,1,7,11
1.72313E+12,-6464,5338,355,651,-15,-287,1,7,11
1.72313E+12,-6132,5372,323,474,305,-105,1,7,11
1.72313E+12,-6018,5634,300,574,129,296,1,7,11
1.72313E+12,-6149,5348,-5,176,242,129,1,7,11
1.72313E+12,-5996,5253,-46,323,401,148,1,7,11
1.72313E+12,-5614,5410,-91,301,873,313,1,7,11
1.72313E+12,-5562,5089,110,346,1125,-124,1,7,11
1.72313E+12,-5563,5044,55,146,1371,-332,1,7,11
1.72313E+12,-5595,5213,2,209,1584,-535,1,7,11
1.72313E+12,-5918,5134,-306,533,1509,-473,1,7,11
1.72313E+12,-5768,4794,-354,617,1906,-665,1,7,11
1.72313E+12,-5942,4965,-153,484,1734,-1106,1,7,11
1.72313E+12,-6068,4872,-192,856,1772,-1351,1,7,11
1.72313E+12,-6493,4556,-209,716,1742,-1253,1,7,11
1.72313E+12,-6383,4495,-191,1057,1856,-1620,1,7,11
1.72313E+12,-6773,4699,-142,1102,1616,-1439,1,7,11
1.72313E+12,-6606,4645,-375,1107,1008,-1456,1,7,11
1.72313E+12,-6630,4614,-135,1115,870,-1428,1,7,11
1.72313E+12,-6604,4339,-179,1100,234,-1596,1,7,11
1.72313E+12,-6534,4333,-240,1076,-76,-1187,1,7,11
1.72313E+12,-6739,4610,-564,1038,-279,-1000,1,7,11
1.72313E+12,-6731,4663,-613,728,-144,-1038,1,7,11
1.72313E+12,-6759,4732,-389,895,-220,-798,1,7,11
1.72313E+12,-6533,4535,-627,507,-546,-549,1,7,11
1.72313E+12,-6565,4598,-602,605,-632,-325,1,7,11
1.72313E+12,-6583,4900,-566,161,-490,114,1,7,11
1.72313E+12,-6577,4938,-245,-50,-884,-3,1,7,11
1.72313E+12,-6550,4965,-167,-287,-1042,341,1,7,11
1.72313E+12,-6762,4959,-344,-526,-947,366,1,7,11
1.72313E+12,-6727,4949,-268,-463,-1349,330,1,7,11
1.72313E+12,-6679,4942,61,-857,-1203,-2,1,7,11
1.72313E+12,-6379,4940,-116,-715,-1264,-111,1,7,11
1.72313E+12,-6347,4946,-24,-1065,-1543,24,1,7,11
1.72313E+12,-6329,4941,374,-1142,-1549,-345,1,7,11
1.72313E+12,-6313,4911,202,-936,-1550,-184,1,7,11
1.72313E+12,-6295,4593,515,-933,-1269,-520,1,7,11
1.72313E+12,-6295,4557,547,-1130,-1197,-592,1,7,11
1.72313E+12,-6315,4521,584,-1025,-1331,-412,1,7,11
1.72313E+12,-6355,4497,611,-888,-927,-499,1,7,11
1.72313E+12,-6394,4732,620,-466,-765,-793,1,7,11
1.72313E+12,-6691,4713,606,-449,-775,-811,1,7,11
1.72313E+12,-6717,4711,562,-257,-605,-812,1,7,11
1.72313E+12,-6749,4727,243,-75,-163,-801,1,7,11
1.72313E+12,-6529,4491,168,329,29,-774,1,7,11
1.72313E+12,-6562,4506,340,177,-49,-468,1,7,11
1.72313E+12,-6575,4506,278,242,367,-408,1,7,11
1.72313E+12,-6558,4490,-51,531,247,-605,1,7,11
1.72313E+12,-6537,4720,-121,535,625,-562,1,7,11
1.72313E+12,-6529,4693,82,518,475,-534,1,7,11
1.72313E+12,-6543,4678,41,227,809,-519,1,7,11
1.72313E+12,-6554,4672,6,170,857,-243,1,7,11
1.72313E+12,-6571,4672,-267,355,872,-225,1,7,11
1.72313E+12,-6610,4672,-285,271,853,-212,1,7,11
1.72313E+12,-6636,4663,-271,-88,797,-195,1,7,11
1.72313E+12,-6914,4629,23,50,445,-182,1,7,11
1.72313E+12,-6934,4325,66,-314,572,-189,1,7,11
1.72313E+12,-6945,4301,100,-382,161,-216,1,7,11
1.72313E+12,-6952,4283,125,-183,260,-248,1,7,11
1.72313E+12,-6946,4259,-113,-232,113,-532,1,7,11
1.72313E+12,-6917,4231,-91,-523,-259,-549,1,7,11
1.72313E+12,-6641,4229,-80,-520,-327,-557,1,7,11
1.72313E+12,-6620,4239,-75,-251,-347,-547,1,7,11
1.72313E+12,-6609,4250,-63,-244,-323,-255,1,7,11
1.72313E+12,-6619,4267,-45,-241,-265,-205,1,7,11
1.72313E+12,-6631,4273,-26,-244,51,-147,1,7,11
1.72313E+12,-6652,4269,265,-250,101,-353,1,7,11
1.72313E+12,-6923,4253,302,-254,-126,-325,1,7,11
1.72313E+12,-6929,4239,326,-250,-120,-326,1,7,11
1.72313E+12,-6954,4263,336,-226,-126,-344,1,7,11
1.72313E+12,-6987,4317,314,-225,111,-355,1,7,11
1.72313E+12,-7015,4324,324,-548,96,-349,1,7,11
1.72313E+12,-7029,4266,350,-640,84,-345,1,7,11
1.72313E+12,-7004,4430,377,-433,54,-372,1,7,11
1.72313E+12,-6941,4082,369,-397,44,-193,1,7,11
1.72313E+12,-6646,4069,303,-553,92,-561,1,7,11
1.72313E+12,-6630,4357,-30,-219,-57,-389,1,7,11
1.72313E+12,-6625,4392,-76,-180,343,-408,1,7,11
1.72313E+12,-6642,4423,-98,-173,237,-625,1,7,11
1.72313E+12,-6644,4416,-92,-199,610,-536,1,7,11
1.72313E+12,-6648,4375,-69,-232,440,-193,1,7,11
1.72313E+12,-6934,4079,-40,-248,484,-140,1,7,11
1.72313E+12,-7004,4059,-15,-247,474,-376,1,7,11
1.72313E+12,-6821,4049,279,-251,408,-365,1,7,11
1.72313E+12,-6877,4050,307,-515,541,-356,1,7,11
1.72313E+12,-6909,4052,336,-527,382,-338,1,7,11
1.72313E+12,-7180,4061,356,-544,-41,-319,1,7,11
1.72313E+12,-7177,4068,381,-564,47,-288,1,7,11
1.72313E+12,-7175,4091,142,-570,-352,4,1,7,11
1.72313E+12,-6899,4362,149,-581,-207,52,1,7,11
1.72313E+12,-6843,4354,152,-579,-528,100,1,7,11
1.72313E+12,-6786,4345,146,-536,-526,-128,1,7,11
1.72313E+12,-6934,4081,-44,-97,364,68,1,7,11
1.72313E+12,-6929,4392,-123,-9,539,83,1,7,11
1.72313E+12,-6920,4453,56,306,464,-70,1,7,11
1.72313E+12,-6635,4231,-266,312,889,293,1,7,11
1.72313E+12,-6609,4244,-308,292,1118,140,1,7,11
1.72313E+12,-6592,4243,-333,-5,987,215,1,7,11
1.72313E+12,-6596,4230,-326,-44,1289,240,1,7,11
1.72313E+12,-6609,4469,-308,-79,1340,523,1,7,11
1.72313E+12,-6640,4462,-291,-100,1332,497,1,7,11
1.72313E+12,-6918,4467,-291,-101,1000,198,1,7,11
1.72313E+12,-6946,4473,-291,-99,1062,145,1,7,11
1.72313E+12,-6967,4232,-302,-94,643,346,1,7,11
1.72313E+12,-6971,4274,-332,-92,465,294,1,7,11
1.72313E+12,-6981,4301,-346,123,560,263,1,7,11
1.72313E+12,-6985,4319,-355,55,153,-6,1,7,11
1.72313E+12,-6985,4332,-355,-284,265,260,1,7,11
1.72313E+12,-6957,4328,-354,-362,-115,282,1,7,11
1.72313E+12,-6918,4315,-328,-169,49,305,1,7,11
1.72313E+12,-6643,4312,-308,-211,-265,325,1,7,11
1.72313E+12,-6611,4294,-288,-240,-301,351,1,7,11
1.72313E+12,-6574,4305,25,-234,-324,366,1,7,11
1.72313E+12,-6562,4309,27,-150,-369,348,1,7,11
1.72313E+12,-6750,4293,24,-327,-140,363,1,7,11
1.72313E+12,-6703,4246,26,-323,-349,326,1,7,11
1.72313E+12,-6723,4418,67,24,-207,265,1,7,11
1.72313E+12,-6544,4013,-67,-73,-123,-33,1,7,11
1.72313E+12,-6943,3834,366,155,-101,-52,1,7,11
1.72313E+12,-6895,3907,562,758,41,267,1,7,11
1.72313E+12,-7112,3534,480,2167,-251,237,1,7,11
1.72313E+12,-7302,3516,780,3039,-718,663,1,7,11
1.72313E+12,-7382,3843,397,4475,-1571,1251,1,7,11
1.72313E+12,-7383,3757,141,5249,-1932,2157,1,7,11
1.72313E+12,-7548,4209,68,6240,-2530,2531,1,7,11
1.72313E+12,-7118,4425,-538,6656,-3049,3066,1,7,11
1.72313E+12,-6861,4648,-880,6736,-3704,3706,1,7,11
1.72313E+12,-6669,4971,-1324,6489,-3933,3903,1,7,11
1.72313E+12,-6109,5188,-1552,5290,-3945,3544,1,7,11
1.72313E+12,-5821,5106,-1435,4612,-3519,3288,1,7,11
1.72313E+12,-5545,5490,-1511,3280,-3222,3132,1,7,11
1.72313E+12,-5347,5345,-1491,2393,-3081,2571,1,7,11
1.72313E+12,-5485,5694,-1425,966,-2618,1670,1,7,11
1.72313E+12,-5479,5743,-1276,43,-2111,979,1,7,11
1.72313E+12,-5291,5718,-1312,-1316,-1634,533,1,7,11
1.72313E+12,-5645,5649,-1069,-2001,-965,-142,1,7,11
1.72313E+12,-5720,5292,-820,-2769,-878,-763,1,7,11
1.72313E+12,-5531,5468,-628,-3594,-564,-1565,1,7,11
1.72313E+12,-5592,5397,-209,-3753,-261,-1751,1,7,11
1.72313E+12,-5911,5094,-327,-4046,317,-2337,1,7,11
1.72313E+12,-5987,5017,62,-4262,399,-2292,1,7,11
1.72313E+12,-5876,5191,-50,-4695,719,-2449,1,7,11
1.72313E+12,-6262,4827,365,-4594,944,-2555,1,7,11
1.72313E+12,-6124,4960,318,-4970,1354,-2909,1,7,11
1.72313E+12,-6481,4568,436,-4794,1188,-2737,1,7,11
1.72313E+12,-6300,4643,822,-5131,1259,-3104,1,7,11
1.72313E+12,-6451,4374,693,-5172,1569,-3014,1,7,11
1.72313E+12,-6916,4054,1054,-4822,1603,-3330,1,7,11
1.72313E+12,-6837,4007,1107,-4517,1179,-3698,1,7,11
1.72313E+12,-6908,4169,908,-4280,993,-3457,1,7,11
1.72313E+12,-7060,4132,935,-4202,1079,-3467,1,7,11
1.72313E+12,-7443,3837,940,-3875,834,-3615,1,7,11
1.72313E+12,-7484,4102,1132,-3307,596,-3400,1,7,11
1.72313E+12,-7489,3809,1057,-3031,224,-3110,1,7,11
1.72313E+12,-7487,3738,763,-2810,205,-2511,1,7,11
1.72313E+12,-7454,3893,748,-2531,538,-2352,1,7,11
1.72313E+12,-7144,3497,735,-2250,445,-1678,1,7,11
1.72313E+12,-7112,3584,1028,-1945,653,-1605,1,7,11
1.72313E+12,-7142,3218,1043,-1826,1115,-1392,1,7,11
1.72313E+12,-7155,3420,1039,-1220,1019,-997,1,7,11
1.72313E+12,-7448,3377,1053,-936,1395,-950,1,7,11
1.72313E+12,-7498,3348,1028,-894,1177,-935,1,7,11
1.72313E+12,-7508,3328,705,-633,1401,-926,1,7,11
1.72313E+12,-7491,3038,841,-184,1367,-943,1,7,11
1.72313E+12,-7482,3015,804,-293,1372,-1003,1,7,11
1.72313E+12,-7506,2996,794,75,1369,-1338,1,7,11
1.72313E+12,-7308,2983,740,-45,1321,-1163,1,7,11
1.72313E+12,-7349,2990,506,316,972,-1188,1,7,11
1.72313E+12,-7685,3195,505,146,1125,-1189,1,7,11
1.72313E+12,-7733,3154,502,244,722,-1400,1,7,11
1.72313E+12,-7756,3101,803,569,829,-1328,1,7,11
1.72313E+12,-7771,2776,830,631,409,-1011,1,7,11
1.72313E+12,-7601,2793,773,490,237,-976,1,7,11
1.72313E+12,-7568,2712,768,451,299,-910,1,7,11
1.72313E+12,-7586,2704,478,474,-85,-908,1,7,11
1.72313E+12,-7625,2939,447,436,-263,-1099,1,7,11
1.72313E+12,-7641,2906,472,636,-353,-1052,1,7,11
1.72313E+12,-7671,2871,510,580,-208,-762,1,7,11
1.72313E+12,-7680,2840,791,243,-596,-737,1,7,11
1.72313E+12,-7957,2818,827,140,-450,-723,1,7,11
1.72313E+12,-8005,2819,864,283,-805,-673,1,7,11
1.72313E+12,-8015,2819,888,-102,-888,-822,1,7,11
1.72313E+12,-8026,2491,729,-259,-675,-435,1,7,11
1.72313E+12,-7969,2685,1033,-140,-704,-172,1,7,11
1.72313E+12,-7672,2618,1089,-161,-659,-311,1,7,11
1.72313E+12,-7666,2632,1126,-372,-855,15,1,7,11
1.72313E+12,-7666,2676,1144,-343,-794,82,1,7,11
1.72313E+12,-7665,2494,1143,-342,-474,-90,1,7,11
1.72313E+12,-7946,2544,910,-368,-400,296,1,7,11
1.72313E+12,-7678,2545,961,-381,-629,230,1,7,11
1.72313E+12,-7627,2536,1005,-331,-391,407,1,7,11
1.72313E+12,-7560,2839,995,-272,-416,784,1,7,11
1.72313E+12,-7750,2880,985,1,-409,849,1,7,11
1.72313E+12,-7713,2926,982,10,-395,874,1,7,11
1.72313E+12,-7688,2739,967,-257,-403,873,1,7,11
1.72313E+12,-7423,2778,961,-302,-428,831,1,7,11
1.72313E+12,-7409,3080,935,-345,-461,510,1,7,11
1.72313E+12,-7387,3114,906,-138,-480,424,1,7,11
1.72313E+12,-7355,3140,1117,-174,-452,585,1,7,11
1.72313E+12,-7358,3191,719,-182,-612,226,1,7,11
1.72313E+12,-7359,3049,659,-216,-323,378,1,7,11
1.72313E+12,-7352,3389,851,-224,-61,371,1,7,11
1.72313E+12,-7345,3424,825,-230,219,179,1,7,11
1.72313E+12,-7317,3423,824,-238,487,519,1,7,11
1.72313E+12,-7303,3389,861,-233,700,575,1,7,11
1.72313E+12,-7538,3356,888,-164,1086,599,1,7,11
1.72313E+12,-7520,3352,883,-307,1143,596,1,7,11
1.72313E+12,-7509,3382,843,70,924,557,1,7,11
1.72313E+12,-7539,3413,800,-89,934,251,1,7,11
1.72313E+12,-7303,3448,788,-17,918,186,1,7,11
1.72313E+12,-7335,3212,794,293,1126,355,1,7,11
1.72313E+12,-7366,3243,794,340,1027,257,1,7,11
1.72313E+12,-7358,3250,786,371,876,-78,1,7,11
1.72313E+12,-7322,3237,777,134,458,102,1,7,11
1.72313E+12,-7547,3211,504,148,573,31,1,7,11
1.72313E+12,-7510,3405,505,149,196,-276,1,7,11
1.72313E+12,-7473,3372,478,161,366,-318,1,7,11
1.72313E+12,-7162,3069,458,157,351,-356,1,7,11
1.72313E+12,-7462,3006,491,381,381,-183,1,7,11
1.72313E+12,-7518,2985,784,374,368,-249,1,7,11
1.72313E+12,-7331,2973,822,355,315,-574,1,7,11
1.72313E+12,-7417,2944,848,305,-25,-631,1,7,11
1.72313E+12,-7720,3155,869,-46,-121,-427,1,7,11
1.72313E+12,-7766,3122,879,107,58,-500,1,7,11
1.72313E+12,-7557,3087,873,25,1,-812,1,7,11
1.72313E+12,-7585,2808,872,-288,-284,-809,1,7,11
1.72313E+12,-7597,2755,859,-365,-259,-485,1,7,11
1.72313E+12,-7587,2932,888,-371,50,-389,1,7,11
1.72313E+12,-7610,2867,673,-298,120,-536,1,7,11
1.72313E+12,-7664,2545,730,89,-92,-146,1,7,11
1.72313E+12,-7971,2491,1045,270,-98,13,1,7,11
1.72313E+12,-8021,2465,1111,252,89,-71,1,7,11
1.72313E+12,-7809,2481,1125,783,-310,379,1,7,11
1.72313E+12,-8055,2530,1101,1048,-241,601,1,7,11
1.72313E+12,-8035,2881,1049,1008,-418,805,1,7,11
1.72313E+12,-8015,2714,737,1396,-840,743,1,7,11
1.72313E+12,-7980,3091,643,1221,-729,936,1,7,11
1.72313E+12,-7669,3196,859,1213,-1108,1378,1,7,11
1.72313E+12,-7680,3040,813,1178,-953,1542,1,7,11
1.72313E+12,-7640,3376,770,1328,-1354,1482,1,7,11
1.72313E+12,-7766,3422,483,916,-1213,1885,1,7,11
1.72313E+12,-7385,3235,409,892,-1585,1723,1,7,11
1.72313E+12,-7519,3287,625,426,-1569,1729,1,7,11
1.72313E+12,-7137,3299,632,250,-1244,1748,1,7,11
1.72313E+12,-7241,3264,388,139,-1393,1728,1,7,11
1.72313E+12,-7030,3239,636,373,-965,1901,1,7,11
1.72313E+12,-6563,3256,387,156,-887,1452,1,7,11
1.72313E+12,-6765,3606,420,192,-146,1384,1,7,11
1.72313E+12,-6543,3486,483,168,324,1037,1,7,11
1.72313E+12,-6631,3875,805,333,446,442,1,7,11
1.72313E+12,-6995,3736,832,-66,708,135,1,7,11
1.72313E+12,-6837,3802,842,-270,1116,-112,1,7,11
1.72313E+12,-6898,3806,841,-242,936,-315,1,7,11
1.72313E+12,-6907,3729,842,-439,952,-247,1,7,11
1.72313E+12,-6889,3876,847,-805,948,-465,1,7,11
1.72313E+12,-6869,3553,833,-874,946,-1087,1,7,11
1.72313E+12,-6865,3490,838,-885,969,-1363,1,7,11
1.72313E+12,-6877,3674,825,-870,982,-1653,1,7,11
1.72313E+12,-6898,3672,792,-789,993,-1673,1,7,11
1.72313E+12,-7228,3470,464,-447,1286,-2153,1,7,11
1.72313E+12,-7078,3502,416,-400,1335,-2014,1,7,11
1.72313E+12,-7463,3547,608,-594,1375,-1993,1,7,11
1.72313E+12,-7367,3558,568,-562,1161,-2085,1,7,11
1.72313E+12,-7763,3520,567,-532,1170,-1515,1,7,11
1.72313E+12,-7606,3653,585,-256,1154,-1360,1,7,11
1.72313E+12,-7598,3251,542,-243,1394,-677,1,7,11
1.72313E+12,-7942,3067,401,-386,1165,-396,1,7,11
1.72313E+12,-7983,2985,481,-254,967,-304,1,7,11
1.72313E+12,-7987,2969,470,-337,878,-60,1,7,11
1.72313E+12,-7972,3158,802,-263,180,288,1,7,11
1.72313E+12,-7978,2967,438,104,-331,-29,1,7,11
1.72313E+12,-7678,3212,238,120,-790,-70,1,7,11
1.72313E+12,-7790,3437,199,-345,-1039,-46,1,7,11
1.72313E+12,-7387,3382,237,-586,-1093,-53,1,7,11
1.72313E+12,-7402,3346,576,-472,-1107,-116,1,7,11
1.72313E+12,-7417,3366,600,-502,-897,-88,1,7,11
1.72313E+12,-7403,3344,633,-492,-938,265,1,7,11
1.72313E+12,-7377,3034,422,-488,-922,370,1,7,11
1.72313E+12,-7312,2963,482,-486,-1139,175,1,7,11
1.72313E+12,-7486,3142,798,-448,-1078,169,1,7,11
1.72313E+12,-7124,2786,850,-628,-705,351,1,7,11
1.72313E+12,-7088,2746,647,-206,-785,-55,1,7,11
1.72313E+12,-7093,2725,709,-290,-618,34,1,7,11
1.72313E+12,-7110,2711,740,-77,-223,-367,1,7,11
1.72313E+12,-7100,2696,745,174,-348,-235,1,7,11
1.72313E+12,-7087,2869,759,404,47,-385,1,7,11
1.72313E+12,-7256,2436,1043,657,-98,-795,1,7,11
1.72313E+12,-6826,2258,1078,1286,290,-1051,1,7,11
1.72313E+12,-6828,2584,1066,1802,237,-1265,1,7,11
1.72313E+12,-7272,2845,713,1961,627,-1741,1,7,11
1.72313E+12,-7492,3142,819,2203,390,-2043,1,7,11
1.72313E+12,-7736,3454,596,2247,577,-2388,1,7,11
1.72313E+12,-7632,3326,183,2011,184,-1979,1,7,11
1.72313E+12,-7672,3233,136,1709,330,-1693,1,7,11
1.72313E+12,-7664,3341,374,1477,282,-1426,1,7,11
1.72313E+12,-7987,3170,193,1244,262,-1265,1,7,11
1.72313E+12,-8023,2797,244,1370,-78,-1388,1,7,11
1.72313E+12,-7855,2749,240,1318,65,-997,1,7,11
1.72313E+12,-8224,2942,517,982,-323,-1066,1,7,11
1.72313E+12,-8101,2904,555,958,-207,-802,1,7,11
1.72313E+12,-8183,2532,417,956,-410,-198,1,7,11
1.72313E+12,-8174,2465,477,1312,-697,-96,1,7,11
1.72313E+12,-8108,2487,456,1154,-989,193,1,7,11
1.72313E+12,-8273,2547,421,1164,-1208,428,1,7,11
1.72313E+12,-7904,2867,625,1336,-1613,874,1,7,11
1.72313E+12,-8020,2928,558,913,-1425,732,1,7,11
1.72313E+12,-7623,2757,234,715,-1660,1041,1,7,11
1.72313E+12,-7710,3077,198,439,-1541,1084,1,7,11
1.72313E+12,-7327,3078,243,362,-1311,1063,1,7,11
1.72313E+12,-7509,3160,533,50,-704,689,1,7,11
1.72313E+12,-7485,2951,561,-455,-500,866,1,7,11
1.72313E+12,-7465,3032,533,-1043,-559,798,1,7,11
1.72313E+12,-7452,3334,552,-1212,-343,458,1,7,11
1.72313E+12,-7434,3369,538,-1885,118,386,1,7,11
1.72313E+12,-7137,3350,542,-2346,333,556,1,7,11
1.72313E+12,-7109,3061,571,-2519,591,171,1,7,11
1.72313E+12,-7158,3033,397,-3162,857,260,1,7,11
1.72313E+12,-7489,2968,492,-3240,1058,117,1,7,11
1.72313E+12,-7543,3089,886,-3711,950,1,1,7,11
1.72313E+12,-7359,2719,1024,-3498,1329,-359,1,7,11
1.72313E+12,-7697,2909,1098,-3611,1175,-152,1,7,11
1.72313E+12,-7770,2867,902,-3388,1275,-136,1,7,11
1.72313E+12,-7564,2548,970,-3095,1591,-320,1,7,11
1.72313E+12,-7655,2551,968,-2494,1622,70,1,7,11
1.72313E+12,-7648,2501,985,-2251,1608,-87,1,7,11
1.72313E+12,-7668,2477,986,-2055,1578,-21,1,7,11
1.72313E+12,-7647,2460,974,-1753,1234,295,1,7,11
1.72313E+12,-7657,2453,953,-1196,1376,297,1,7,11
1.72313E+12,-7650,2485,903,-908,957,294,1,7,11
1.72313E+12,-7615,2500,1119,-679,1054,282,1,7,11
1.72313E+12,-7575,2521,1059,-467,647,268,1,7,11
1.72313E+12,-7777,2541,762,-541,509,-13,1,7,11
1.72313E+12,-7740,2537,723,-146,624,-79,1,7,11
1.72313E+12,-7709,2549,684,-292,237,75,1,7,11
1.72313E+12,-7419,2544,657,42,375,-307,1,7,11
1.72313E+12,-7419,2532,882,109,262,-201,1,7,11
1.72313E+12,-7407,2510,843,-103,125,-611,1,7,11
1.72313E+12,-7417,2499,813,-73,-262,-798,1,7,11
1.72313E+12,-7693,2541,497,-57,-379,-742,1,7,11
1.72313E+12,-7712,2841,430,-100,-204,-899,1,7,11
1.72313E+12,-7729,2855,423,70,-243,-998,1,7,11
1.72313E+12,-7761,2869,416,14,-516,-1289,1,7,11
1.72313E+12,-7770,2873,430,-311,-521,-1006,1,7,11
1.72313E+12,-7800,2871,452,-366,-240,-966,1,7,11
1.72313E+12,-7572,2881,463,-181,-208,-910,1,7,11
1.72313E+12,-7597,2883,480,-524,-166,-1102,1,7,11
1.72313E+12,-7636,2890,768,-581,-372,-747,1,7,11
1.72313E+12,-7665,2886,796,-586,-333,-829,1,7,11
1.72313E+12,-7673,2870,830,-586,-290,-630,1,7,11
1.72313E+12,-7945,2552,642,-603,-260,-217,1,7,11
1.72313E+12,-7671,2507,697,-589,-262,-363,1,7,11
1.72313E+12,-7664,2503,723,-559,1,-315,1,7,11
1.72313E+12,-7672,2498,757,-559,6,-297,1,7,11
1.72313E+12,-7659,2467,1058,-561,-266,-287,1,7,11
1.72313E+12,-7651,2487,1080,-535,-297,-305,1,7,11
1.72313E+12,-7623,2479,1092,-532,-327,-318,1,7,11
1.72313E+12,-7583,2459,1094,-255,-334,-334,1,7,11
1.72313E+12,-7561,2467,1074,-211,-316,-353,1,7,11
1.72313E+12,-7560,2474,1061,-169,-281,-362,1,7,11
1.72313E+12,-7563,2499,1046,-380,23,-346,1,7,11
1.72313E+12,-7580,2504,1043,-358,93,-324,1,7,11
1.72313E+12,-7583,2492,1047,-344,-100,-281,1,7,11
1.72313E+12,-7595,2480,1068,-323,-37,26,1,7,11
1.72313E+12,-7611,2477,1085,-289,260,43,1,7,11
1.72313E+12,-7633,2482,1094,10,283,105,1,7,11
1.72313E+12,-7640,2501,1091,59,277,-102,1,7,11
1.72313E+12,-7674,2527,1119,83,270,-60,1,7,11
1.72313E+12,-7976,2867,1117,114,260,-13,1,7,11
1.72313E+12,-8051,2934,1144,108,-22,324,1,7,11
1.72313E+12,-7859,2757,924,59,-56,185,1,7,11
1.72313E+12,-8196,3108,987,-271,-106,572,1,7,11
1.72313E+12,-8249,2972,1322,-372,62,475,1,7,11
1.72313E+12,-8257,3034,1375,-546,-335,663,1,7,11
1.72313E+12,-7824,3171,1195,-490,-520,1135,1,7,11
1.72313E+12,-7589,2771,1214,-790,-612,986,1,7,11
1.72313E+12,-7328,2905,1184,-406,-579,981,1,7,11
1.72313E+12,-7074,2552,1374,-151,-373,1148,1,7,11
1.72313E+12,-7177,2480,1330,-107,258,715,1,7,11
1.72313E+12,-6911,2454,1302,206,428,477,1,7,11
1.72313E+12,-7269,2466,1013,480,1035,233,1,7,11
1.72313E+12,-7133,2486,945,705,1000,278,1,7,11
1.72313E+12,-7512,2516,1095,1133,1366,104,1,7,11
1.72313E+12,-7369,2521,735,957,1388,-301,1,7,11
1.72313E+12,-7711,2521,878,975,1342,-159,1,7,11
1.72313E+12,-7797,2530,505,935,993,-241,1,7,11
1.72313E+12,-7605,2513,424,1089,1118,-536,1,7,11
1.72313E+12,-7672,2509,597,736,705,-532,1,7,11
1.72313E+12,-7974,2507,527,863,797,-234,1,7,11
1.72313E+12,-8014,2492,239,469,637,-159,1,7,11
1.72313E+12,-8024,2481,213,606,218,-311,1,7,11
1.72313E+12,-8022,2483,200,251,344,67,1,7,11
1.72313E+12,-8024,2486,202,187,-22,-53,1,7,11
1.72313E+12,-8000,2518,199,144,-106,346,1,7,11
1.72313E+12,-7969,2541,222,346,106,210,1,7,11
1.72313E+12,-7949,2829,253,314,77,558,1,7,11
1.72313E+12,-7948,2909,530,289,61,611,1,7,11
1.72313E+12,-7676,2707,579,-18,24,407,1,7,11
1.72313E+12,-7794,2734,584,-61,-284,487,1,7,11
1.72313E+12,-7682,2731,555,-89,-270,487,1,7,11
1.72313E+12,-7328,2728,540,-95,68,445,1,7,11
1.72313E+12,-7512,2723,526,-97,-66,622,1,7,11
1.72313E+12,-7474,2734,239,-59,325,521,1,7,11
1.72313E+12,-7462,2746,212,-44,132,164,1,7,11
1.72313E+12,-7467,2752,182,-22,300,320,1,7,11
1.72313E+12,-7491,2768,152,261,635,-21,1,7,11
1.72313E+12,-7515,2779,381,276,429,-90,1,7,11
1.72313E+12,-7530,2773,356,278,451,107,1,7,11
1.72313E+12,-7310,2790,322,296,458,49,1,7,11
1.72313E+12,-7334,2789,283,288,437,9,1,7,11
1.72313E+12,-7353,2782,269,284,415,-290,1,7,11
1.72313E+12,-7394,2799,262,284,389,-331,1,7,11
1.72313E+12,-7700,3074,263,267,607,-359,1,7,11
1.72313E+12,-7741,3091,258,-9,547,-366,1,7,11
1.72313E+12,-7770,3110,-5,-44,224,-363,1,7,11
1.72313E+12,-7794,3115,261,-96,143,-335,1,7,11
1.72313E+12,-7791,3103,270,112,318,-300,1,7,11
1.72313E+12,-7775,3084,270,75,258,-269,1,7,11
1.72313E+12,-7757,3072,269,66,-37,20,1,7,11
1.72313E+12,-7741,2813,273,61,-53,59,1,7,11
1.72313E+12,-7750,2809,284,67,-61,100,1,7,11
1.72313E+12,-7754,2808,287,75,-81,-113,1,7,11
1.72313E+12,-7759,2809,289,80,-106,-72,1,7,11
1.72313E+12,-7747,3072,289,76,119,-25,1,7,11
1.72313E+12,-7737,3095,281,67,92,273,1,7,11
1.72313E+12,-7726,3138,274,11,39,339,1,7,11
1.72313E+12,-7717,3166,-2,-299,0,129,1,7,11
1.72313E+12,-7420,3188,-18,-359,-288,180,1,7,11
1.72313E+12,-7383,2959,-31,-179,-278,214,1,7,11
1.72313E+12,-7353,2985,-17,-530,12,223,1,7,11
1.72313E+12,-7329,3013,266,-617,57,208,1,7,11
1.72313E+12,-7549,3019,288,-520,-114,149,1,7,11
1.72313E+12,-7305,3026,325,-894,-39,324,1,7,11
1.72313E+12,-7311,3018,130,-745,270,-8,1,7,11
1.72313E+12,-7312,3002,187,-1054,302,-82,1,7,11
1.72313E+12,-7318,2972,234,-1071,314,103,1,7,11
1.72313E+12,-7330,2962,531,-1038,310,34,1,7,11
1.72313E+12,-7353,2964,555,-736,294,-286,1,7,11
1.72313E+12,-7361,3190,585,-682,-1,-317,1,7,11
1.72313E+12,-7359,3164,599,-859,-37,-333,1,7,11
1.72313E+12,-7352,3140,615,-510,-58,-342,1,7,11
1.72313E+12,-7364,3118,623,-412,-65,-350,1,7,11
1.72313E+12,-7382,3112,632,-560,-71,-346,1,7,11
1.72313E+12,-7400,3120,622,-194,-86,-333,1,7,11
1.72313E+12,-7411,3120,617,-367,-103,-307,1,7,11
1.72313E+12,-7420,3117,606,-290,-118,-283,1,7,11
1.72313E+12,-7421,3119,573,35,122,-264,1,7,11
1.72313E+12,-7420,3118,564,81,115,-257,1,7,11
1.72313E+12,-7419,3120,548,117,114,-258,1,7,11
1.72313E+12,-7420,3143,517,-111,111,0,1,7,11
1.72313E+12,-7414,3135,235,-107,110,11,1,7,11
1.72313E+12,-7412,3128,228,-123,125,15,1,7,11
1.72313E+12,-7690,3141,224,-125,-101,13,1,7,11
1.72313E+12,-7707,3148,218,127,-87,34,1,7,11
1.72313E+12,-7707,3156,210,112,-86,63,1,7,11
1.72313E+12,-7701,3155,212,78,-104,92,1,7,11
1.72313E+12,-7684,3154,206,49,-112,116,1,7,11
1.72313E+12,-7414,3158,196,17,-100,127,1,7,11
1.72313E+12,-7415,3174,196,-260,-71,125,1,7,11
1.72313E+12,-7413,3187,191,-277,-49,-124,1,7,11
1.72313E+12,-7415,3192,192,-291,-32,-119,1,7,11
1.72313E+12,-7415,3198,191,-292,-26,-106,1,7,11
1.72313E+12,-7406,2948,186,-288,-20,-88,1,7,11
1.72313E+12,-7399,2955,177,-280,-10,-76,1,7,11
1.72313E+12,-7388,2963,171,-274,-4,-66,1,7,11
1.72313E+12,-7381,2973,167,-266,-10,-61,1,7,11
1.72313E+12,-7377,2989,172,-259,-30,-51,1,7,11
1.72313E+12,-7371,2985,177,1,-57,-49,1,7,11
1.72313E+12,-7359,2987,185,15,-89,-55,1,7,11
1.72313E+12,-7347,2989,192,28,-117,-72,1,7,11
1.72313E+12,-7334,2985,189,38,119,-99,1,7,11
1.72313E+12,-7323,2972,183,42,110,123,1,7,11
1.72313E+12,-7306,2957,184,43,114,81,1,7,11
1.72313E+12,-7303,2949,184,48,-126,32,1,7,11
1.72313E+12,-7317,3184,188,42,-108,-281,1,7,11
1.72313E+12,-7323,3170,196,51,-88,-324,1,7,11
1.72313E+12,-7347,3158,189,62,-73,-365,1,7,11
1.72313E+12,-7368,3135,189,59,-66,-145,1,7,11
1.72313E+12,-7395,3131,192,65,-59,-184,1,7,11
1.72313E+12,-7697,3130,205,66,-77,-215,1,7,11
1.72313E+12,-7716,3119,219,73,-125,-212,1,7,11
1.72313E+12,-7706,3093,217,75,77,-192,1,7,11
1.72313E+12,-7698,3076,217,91,42,-176,1,7,11
1.72313E+12,-7703,2804,217,108,25,-160,1,7,11
1.72313E+12,-7713,2806,217,-123,17,-138,1,7,11
1.72313E+12,-7717,2808,213,-108,11,-357,1,7,11
1.72313E+12,-7740,2813,218,-93,13,-326,1,7,11
1.72313E+12,-7756,3108,209,-75,-257,16,1,7,11
1.72313E+12,-7756,3120,211,-100,-274,79,1,7,11
1.72313E+12,-7729,3139,199,-128,-277,-122,1,7,11
1.72313E+12,-7711,3142,217,77,-258,-94,1,7,11
1.72313E+12,-7699,3174,211,44,29,-74,1,7,11
1.72313E+12,-7684,3188,209,1,62,-44,1,7,11
1.72313E+12,-7401,3183,209,-303,108,-18,1,7,11
1.72313E+12,-7391,3191,214,-334,-93,-11,1,7,11
1.72313E+12,-7387,2945,218,-349,-50,-11,1,7,11
1.72313E+12,-7382,2955,222,-354,-20,-14,1,7,11
1.72313E+12,-7364,2945,229,-360,258,-18,1,7,11
1.72313E+12,-7351,2944,232,-351,269,-30,1,7,11
1.72313E+12,-7341,3193,237,-326,275,-54,1,7,11
1.72313E+12,-7334,3182,241,-293,277,-91,1,7,11
1.72313E+12,-7336,3167,247,3,271,124,1,7,11
1.72313E+12,-7335,3158,241,46,259,82,1,7,11
1.72313E+12,-7344,3144,235,86,-10,42,1,7,11
1.72313E+12,-7359,3142,225,126,-34,4,1,7,11
1.72313E+12,-7368,3131,213,-101,-63,-280,1,7,11
1.72313E+12,-7382,3127,205,-73,-86,-309,1,7,11
1.72313E+12,-7390,3125,188,-58,-111,-333,1,7,11
1.72313E+12,-7403,3119,167,-66,119,-361,1,7,11
1.72313E+12,-7417,3118,164,-86,113,-373,1,7,11
1.72313E+12,-7698,3118,162,-96,106,-373,1,7,11
1.72313E+12,-7701,3105,159,119,97,-358,1,7,11
1.72313E+12,-7704,3087,177,80,88,-348,1,7,11
1.72313E+12,-7716,3092,175,68,79,-333,1,7,11
1.72313E+12,-7718,3081,174,57,76,-301,1,7,11
1.72313E+12,-7715,3087,169,49,89,-266,1,7,11
1.72313E+12,-7720,3090,178,34,112,30,1,7,11
1.72313E+12,-7717,3096,176,13,-124,76,1,7,11
1.72313E+12,-7712,3102,180,-262,-100,124,1,7,11
1.72313E+12,-7701,3105,169,-284,-69,-90,1,7,11
1.72313E+12,-7687,3102,180,-322,-31,-52,1,7,11
1.72313E+12,-7697,3119,198,-337,264,-45,1,7,11
1.72313E+12,-7712,3152,203,-351,278,-40,1,7,11
1.72313E+12,-7699,3166,205,-382,263,-26,1,7,11
1.72313E+12,-7416,3170,202,-164,-3,-18,1,7,11
1.72313E+12,-7383,3167,199,-197,256,-19,1,7,11
1.72313E+12,-7365,3178,192,-224,276,-39,1,7,11
1.72313E+12,-7370,3191,196,-247,300,-67,1,7,11
1.72313E+12,-7377,3198,202,-517,324,-89,1,7,11
1.72313E+12,-7378,3194,228,-533,338,-99,1,7,11
1.72313E+12,-7372,3183,230,-540,346,-114,1,7,11
1.72313E+12,-7370,3187,231,-528,346,113,1,7,11
1.72313E+12,-7374,3180,247,-244,342,83,1,7,11
1.72313E+12,-7383,3179,250,-206,334,61,1,7,11
1.72313E+12,-7399,3181,247,-164,318,37,1,7,11
1.72313E+12,-7394,2948,233,-366,291,28,1,7,11
1.72313E+12,-7384,3192,221,-339,269,43,1,7,11
1.72313E+12,-7370,3194,203,-309,267,50,1,7,11
1.72313E+12,-7377,3194,195,-281,274,55,1,7,11
1.72313E+12,-7379,3197,184,-263,272,62,1,7,11
1.72313E+12,-7379,3197,187,10,267,65,1,7,11
1.72313E+12,-7378,3190,189,12,-7,69,1,7,11
1.72313E+12,-7374,3190,173,19,-43,67,1,7,11
1.72313E+12,-7366,3198,152,28,-44,69,1,7,11
1.72313E+12,-7351,3162,153,-277,-29,78,1,7,11
1.72313E+12,-7336,3146,149,-295,-13,59,1,7,11
1.72313E+12,-7331,3136,136,-322,272,15,1,7,11
1.72313E+12,-7340,3133,367,-370,311,-289,1,7,11
1.72313E+12,-7352,3129,369,-186,332,-335,1,7,11
1.72313E+12,-7370,3114,134,-240,360,-361,1,7,11
1.72313E+12,-7391,3096,145,-243,380,-366,1,7,11
1.72313E+12,-7396,3075,164,-207,377,-365,1,7,11
1.72313E+12,-7403,2797,161,-130,371,-368,1,7,11
1.72313E+12,-7424,2797,158,-303,355,-375,1,7,11
1.72313E+12,-7697,2801,143,26,331,-380,1,7,11
1.72313E+12,-7714,2806,378,81,303,-379,1,7,11
1.72313E+12,-7731,3072,364,114,271,-363,1,7,11
1.72313E+12,-7737,3094,353,-118,-15,-332,1,7,11
1.72313E+12,-7737,3104,350,-112,-41,-291,1,7,11
1.72313E+12,-7731,3111,323,-105,-61,18,1,7,11
1.72313E+12,-7722,3121,310,-116,-75,69,1,7,11
1.72313E+12,-7717,3142,303,119,-73,118,1,7,11
1.72313E+12,-7703,3154,303,87,-73,-86,1,7,11
1.72313E+12,-7684,3165,299,56,-65,-43,1,7,11
1.72313E+12,-7408,3171,302,9,-49,-12,1,7,11
1.72313E+12,-7401,3177,321,-286,-27,257,1,7,11
1.72313E+12,-7406,3191,331,-310,-17,264,1,7,11
1.72313E+12,-7397,3195,327,-323,-25,278,1,7,11
1.72313E+12,-7371,3186,337,-337,-28,286,1,7,11
1.72313E+12,-7339,3173,348,-331,-21,273,1,7,11
1.72313E+12,-7344,3172,348,-313,-10,-23,1,7,11
1.72313E+12,-7354,3184,340,-283,-8,-65,1,7,11
1.72313E+12,-7352,3192,334,3,-16,-92,1,7,11
1.72313E+12,-7338,3189,330,29,-28,-109,1,7,11
1.72313E+12,-7328,3184,319,55,-32,125,1,7,11
1.72313E+12,-7329,3186,319,82,-26,90,1,7,11
1.72313E+12,-7320,3171,324,81,-17,58,1,7,11
1.72313E+12,-7321,3151,317,96,-12,6,1,7,11
1.72313E+12,-7336,3163,303,102,-16,-321,1,7,11
1.72313E+12,-7354,3158,303,97,-29,-360,1,7,11
1.72313E+12,-7353,3135,290,106,-56,-365,1,7,11
1.72313E+12,-7353,3126,276,110,-71,-378,1,7,11
1.72313E+12,-7375,3130,276,107,-73,-150,1,7,11
1.72313E+12,-7685,3131,285,87,-85,-173,1,7,11
1.72313E+12,-7694,3123,292,67,-128,-162,1,7,11
1.72313E+12,-7702,3110,295,46,85,-157,1,7,11
1.72313E+12,-7704,3097,299,24,49,-143,1,7,11
1.72313E+12,-7695,3081,306,2,32,-134,1,7,11
1.72313E+12,-7683,3074,308,-271,35,-131,1,7,11
1.72313E+12,-7700,2808,321,-280,54,-380,1,7,11
1.72313E+12,-7706,2815,308,-274,71,-352,1,7,11
1.72313E+12,-7730,2811,329,-293,97,-325,1,7,11
1.72313E+12,-7723,2804,330,-291,105,-269,1,7,11
1.72313E+12,-7717,2811,323,-281,125,30,1,7,11
1.72313E+12,-7707,2810,333,-278,-107,68,1,7,11
1.72313E+12,-7687,2805,331,-264,-87,105,1,7,11
1.72313E+12,-7424,3081,309,-259,-65,-127,1,7,11
1.72313E+12,-7424,3086,300,-270,-43,-110,1,7,11
1.72313E+12,-7686,3098,295,-289,-44,-95,1,7,11
1.72313E+12,-7684,3104,306,-309,-52,-86,1,7,11
1.72313E+12,-7419,3112,305,-323,-74,-79,1,7,11
1.72313E+12,-7403,3118,298,-339,-87,-79,1,7,11
1.72313E+12,-7395,3114,306,-347,-98,-83,1,7,11
1.72313E+12,-7375,3113,307,-353,-105,-91,1,7,11
1.72313E+12,-7383,3116,311,-357,-100,-112,1,7,11
1.72313E+12,-7393,3118,333,-359,-116,-122,1,7,11
1.72313E+12,-7394,3122,333,-341,118,-125,1,7,11
1.72313E+12,-7395,3122,333,-338,109,117,1,7,11
1.72313E+12,-7411,3132,337,-334,113,94,1,7,11
1.72313E+12,-7689,3152,347,-329,105,75,1,7,11
1.72313E+12,-7683,3156,348,-332,77,83,1,7,11
1.72313E+12,-7392,3153,344,-327,55,103,1,7,11
1.72313E+12,-7351,3166,291,-324,75,122,1,7,11
1.72313E+12,-7309,3174,-31,-132,-84,125,1,7,11
1.72313E+12,-7538,3194,-79,-254,339,-118,1,7,11
1.72313E+12,-7498,2993,-118,-567,549,-40,1,7,11
1.72313E+12,-7534,3051,109,-596,812,321,1,7,11
1.72313E+12,-7549,3040,127,-409,1050,225,1,7,11
1.72313E+12,-7328,3009,-93,-475,1009,587,1,7,11
1.72313E+12,-7352,2967,-65,-802,1179,398,1,7,11
1.72313E+12,-7333,2987,-103,-829,1242,386,1,7,11
1.72313E+12,-7332,3046,98,-876,1591,591,1,7,11
1.72313E+12,-7362,3388,50,-665,1434,593,1,7,11
1.72313E+12,-7338,3401,49,-748,1482,482,1,7,11
1.72313E+12,-7532,3030,124,-1068,1482,860,1,7,11
1.72313E+12,-7501,2992,-121,-745,1417,853,1,7,11
1.72313E+12,-7491,2978,126,-679,1585,511,1,7,11
1.72313E+12,-7530,2976,121,-832,1207,396,1,7,11
1.72313E+12,-7361,3004,114,-448,1300,526,1,7,11
1.72313E+12,-7388,3339,40,-547,1048,245,1,7,11
1.72313E+12,-7388,3050,51,-223,839,222,1,7,11
1.72313E+12,-7388,3014,67,-347,616,216,1,7,11
1.72313E+12,-7345,3041,19,91,141,212,1,7,11
1.72313E+12,-7551,3338,-287,-14,-18,210,1,7,11
1.72313E+12,-7500,3397,-340,350,-111,223,1,7,11
1.72313E+12,-7465,3450,-380,150,96,243,1,7,11
1.72313E+12,-7440,3237,-169,173,74,533,1,7,11
1.72313E+12,-7167,3249,-153,169,62,574,1,7,11
1.72313E+12,-7151,3263,-146,195,15,573,1,7,11
1.72313E+12,-7137,3245,-359,219,-308,525,1,7,11
1.72313E+12,-7113,3266,-134,615,-145,214,1,7,11
1.72313E+12,-7084,3610,-230,497,-194,165,1,7,11
1.72313E+12,-7080,3679,-546,790,-140,154,1,7,11
1.72313E+12,-7077,3698,-582,476,-278,164,1,7,11
1.72313E+12,-7270,3628,-548,601,99,161,1,7,11
1.72313E+12,-7265,3636,-543,536,-60,332,1,7,11
1.72313E+12,-7291,3633,-534,203,-2,-22,1,7,11
1.72313E+12,-7042,3660,-554,382,279,-108,1,7,11
1.72313E+12,-7062,3659,-554,274,302,72,1,7,11
1.72313E+12,-7080,3652,-553,-83,307,6,1,7,11
1.72313E+12,-7083,3652,-547,89,294,-288,1,7,11
1.72313E+12,-7058,3621,-522,15,281,-300,1,7,11
1.72313E+12,-7050,3628,-515,13,279,-327,1,7,11
1.72313E+12,-7064,3629,-529,21,298,-317,1,7,11
1.72313E+12,-7076,3602,-220,26,364,11,1,7,11
1.72313E+12,-7111,3246,-153,92,367,20,1,7,11
1.72313E+12,-7125,3278,-213,-48,313,15,1,7,11
1.72313E+12,-7119,3256,-206,-34,284,-263,1,7,11
1.72313E+12,-7133,3262,-236,-2,-10,-315,1,7,11
1.72313E+12,-7121,3262,-246,256,-61,-353,1,7,11
1.72313E+12,-7108,3281,-532,260,-107,-139,1,7,11
1.72313E+12,-7106,3286,-571,-27,122,-164,1,7,11
1.72313E+12,-7096,3269,-572,-54,112,-169,1,7,11
1.72313E+12,-7112,3261,-581,-40,117,-174,1,7,11
1.72313E+12,-7133,3249,-571,-50,-127,-165,1,7,11
1.72313E+12,-7425,3233,-559,-31,-111,-148,1,7,11
1.72313E+12,-7457,3213,-521,-5,-126,-352,1,7,11
1.72313E+12,-7455,3444,-540,342,102,-291,1,7,11
1.72313E+12,-7451,3212,-602,353,111,14,1,7,11
1.72313E+12,-7160,3222,-619,271,-74,87,1,7,11
1.72313E+12,-7154,3202,-582,258,-10,125,1,7,11
1.72313E+12,-7161,3206,-587,339,-47,-100,1,7,11
1.72313E+12,-7143,3411,-552,351,107,-119,1,7,11
1.72313E+12,-7122,3437,-577,197,-287,41,1,7,11
1.72313E+12,-7132,3256,-614,526,-384,-324,1,7,11
1.72313E+12,-7130,3438,-590,541,-219,-383,1,7,11
1.72313E+12,-7431,3226,-610,485,-559,-165,1,7,11
1.72313E+12,-7475,3256,-397,872,-403,-380,1,7,11
1.72313E+12,-7465,3314,-814,678,-432,-293,1,7,11
1.72313E+12,-7117,3282,-816,424,-519,68,1,7,11
1.72313E+12,-7115,3426,-443,239,-289,114,1,7,11
1.72313E+12,-7134,3401,-638,171,97,106,1,7,11
1.72313E+12,-7129,3422,-625,370,-46,100,1,7,11
1.72313E+12,-7131,3406,-540,271,261,97,1,7,11
1.72313E+12,-7459,3221,-628,314,272,65,1,7,11
1.72313E+12,-7121,3420,-601,-57,265,109,1,7,11
1.72313E+12,-7145,3428,-611,-61,315,66,1,7,11
1.72313E+12,-7131,3404,-623,-109,315,50,1,7,11
1.72313E+12,-7101,3393,-638,78,344,5,1,7,11
1.72313E+12,-7106,3367,-609,86,374,-298,1,7,11
1.72313E+12,-7141,3335,-629,90,367,-351,1,7,11
1.72313E+12,-7130,3329,-386,127,337,-379,1,7,11
1.72313E+12,-7126,3372,-423,-44,325,-162,1,7,11
1.72313E+12,-7434,3375,-407,-7,323,-182,1,7,11
1.72313E+12,-7442,3376,-416,325,258,-155,1,7,11
1.72313E+12,-7454,3391,-437,154,-63,-129,1,7,11
1.72313E+12,-7452,3405,-472,212,-115,-339,1,7,11
1.72313E+12,-7441,3380,-475,217,125,-294,1,7,11
1.72313E+12,-7451,3375,-488,241,121,-271,1,7,11
1.72313E+12,-7462,3379,-511,242,121,-260,1,7,11
1.72313E+12,-7448,3362,-771,183,-120,7,1,7,11
1.72313E+12,-7431,3337,-503,365,-91,15,1,7,11
1.72313E+12,-7477,3358,-507,310,-51,6,1,7,11
1.72313E+12,-7473,3062,-480,-26,-57,33,1,7,11
1.72313E+12,-7469,3038,-479,-37,-114,31,1,7,11
1.72313E+12,-7460,3024,-481,-33,70,18,1,7,11
1.72313E+12,-7428,3039,-780,272,21,-265,1,7,11
1.72313E+12,-7160,3045,-802,266,26,-284,1,7,11
1.72313E+12,-7148,3027,-793,264,59,-284,1,7,11
1.72313E+12,-7425,3011,-779,293,85,-282,1,7,11
1.72313E+12,-7451,3036,-823,318,108,-290,1,7,11
1.72313E+12,-7446,3045,-849,-6,-94,-282,1,7,11
1.72313E+12,-7157,3014,-840,-90,-10,-264,1,7,11
1.72313E+12,-7146,3012,-839,113,349,-282,1,7,11
1.72313E+12,-7156,2996,-830,51,174,-307,1,7,11
1.72313E+12,-7425,3002,-837,9,215,-349,1,7,11
1.72313E+12,-7447,3040,-865,6,230,-380,1,7,11
1.72313E+12,-7469,3347,-642,11,251,-362,1,7,11
1.72313E+12,-7474,3036,-853,-284,528,-290,1,7,11
1.72313E+12,-7501,2990,-807,40,217,45,1,7,11
1.72313E+12,-7478,2962,-781,124,353,84,1,7,11
1.72313E+12,-7470,3181,-505,-63,-30,60,1,7,11
1.72313E+12,-7448,3156,-772,-18,93,13,1,7,11
1.72313E+12,-7484,2966,-822,320,-296,-282,1,7,11
1.72313E+12,-7451,2967,-832,323,-152,-317,1,7,11
1.72313E+12,-7484,2969,-818,357,-231,-361,1,7,11
1.72313E+12,-7488,3004,-848,163,-563,-354,1,7,11
1.72313E+12,-7483,3034,-655,149,-562,-334,1,7,11
1.72313E+12,-7445,3026,-700,286,-219,-305,1,7,11
1.72313E+12,-7163,2997,-671,-110,-312,-310,1,7,11
1.72313E+12,-7160,2950,-881,59,86,-336,1,7,11
1.72313E+12,-7455,2991,-643,24,-57,-372,1,7,11
1.72313E+12,-7472,2996,-649,-313,286,-357,1,7,11
1.72313E+12,-7515,3015,-896,-360,362,-332,1,7,11
1.72313E+12,-7534,3009,-877,-172,136,-261,1,7,11
1.72313E+12,-7301,3197,-804,-229,370,48,1,7,11
1.72313E+12,-7302,3174,-786,-205,275,65,1,7,11
1.72313E+12,-7299,3145,-512,-215,-87,44,1,7,11
1.72313E+12,-7321,3157,-780,-188,75,9,1,7,11
1.72313E+12,-7309,3162,-793,-184,-266,4,1,7,11
1.72313E+12,-7324,3169,-845,-208,-301,-259,1,7,11
1.72313E+12,-7551,3159,-825,-566,-319,16,1,7,11
1.72313E+12,-7527,3111,-787,-391,-298,8,1,7,11
1.72313E+12,-7536,3133,-776,-398,-291,-270,1,7,11
1.72313E+12,-7526,3147,-783,-396,-288,5,1,7,11
1.72313E+12,-7543,3166,-485,-388,-258,44,1,7,11
1.72313E+12,-7545,3172,-485,-617,15,-122,1,7,11
1.72313E+12,-7517,2969,-500,-577,52,-14,1,7,11
1.72313E+12,-7501,2953,-461,-586,-123,360,1,7,11
1.72313E+12,-7453,3151,-399,-613,-25,196,1,7,11
1.72313E+12,-7429,3142,-632,-537,285,232,1,7,11
1.72313E+12,-7146,3178,-563,-139,296,223,1,7,11
1.72313E+12,-7469,3197,-638,-288,269,145,1,7,11
1.72313E+12,-7432,3009,-407,-113,-51,348,1,7,11
1.72313E+12,-7140,3021,-405,64,-92,290,1,7,11
1.72313E+12,-7160,3040,-435,73,-111,-56,1,7,11
1.72313E+12,-7081,3032,-431,43,104,-101,1,7,11
1.72313E+12,-7127,3045,-440,84,-124,46,1,7,11
1.72313E+12,-7132,3330,-500,95,113,15,1,7,11
1.72313E+12,-7124,3374,-823,27,-90,-265,1,7,11
1.72313E+12,-7134,3068,-772,-343,-16,-276,1,7,11
1.72313E+12,-7147,3021,-478,-344,278,-308,1,7,11
1.72313E+12,-7425,3034,-485,-267,268,-366,1,7,11
1.72313E+12,-7464,3366,-803,74,268,-136,1,7,11
1.72313E+12,-7493,3384,-846,72,296,-342,1,7,11
1.72313E+12,-7497,3355,-835,31,327,-269,1,7,11
1.72313E+12,-7490,3067,-822,8,331,39,1,7,11
1.72313E+12,-7475,3038,-813,-269,311,60,1,7,11
1.72313E+12,-7451,3031,-832,-266,297,58,1,7,11
1.72313E+12,-7437,3040,-857,-281,304,38,1,7,11
1.72313E+12,-7438,3039,-858,-336,319,17,1,7,11
1.72313E+12,-7460,3038,-854,-162,332,-271,1,7,11
1.72313E+12,-7472,3016,-823,-539,333,-307,1,7,11
1.72313E+12,-7478,2993,-811,-389,331,-368,1,7,11
1.72313E+12,-7466,2976,-790,-503,330,-179,1,7,11
1.72313E+12,-7452,3175,-486,-865,331,-253,1,7,11
1.72313E+12,-7461,3156,-445,-888,305,-591,1,7,11
1.72313E+12,-7488,2949,-460,-825,-1,-386,1,7,11
1.72313E+12,-7503,3024,-784,-779,-30,-622,1,7,11
1.72313E+12,-7502,3064,-821,-794,-19,-515,1,7,11
1.72313E+12,-7474,3008,-774,-801,272,-383,1,7,11
1.72313E+12,-7457,3182,-463,-474,268,-305,1,7,11
1.72313E+12,-7425,3170,-476,-586,-32,-291,1,7,11
1.72313E+12,-7162,3186,-503,-207,-40,-323,1,7,11
1.72313E+12,-7156,3194,-776,-133,-11,-331,1,7,11
1.72313E+12,-7168,3174,-494,-350,290,-336,1,7,11
1.72313E+12,-7474,3155,-447,-308,295,-366,1,7,11
1.72313E+12,-7519,3160,-432,-264,-11,-149,1,7,11
1.72313E+12,-7305,3143,-407,-268,-79,-197,1,7,11
1.72313E+12,-7322,3136,-413,-257,99,-230,1,7,11
1.72313E+12,-7320,3133,-419,-265,33,-513,1,7,11
1.72313E+12,-7331,3129,-424,-277,3,-535,1,7,11
1.72313E+12,-7345,3133,-437,-283,-261,-537,1,7,11
1.72313E+12,-7357,3112,-434,-319,9,-529,1,7,11
1.72313E+12,-7351,3091,-419,-340,28,-252,1,7,11
1.72313E+12,-7359,3075,-402,-366,43,-244,1,7,11
1.72313E+12,-7359,2801,-417,-379,51,-233,1,7,11
1.72313E+12,-7364,2805,-415,-373,64,-217,1,7,11
1.72313E+12,-7352,2801,-432,-364,75,-177,1,7,11
1.72313E+12,-7351,3072,-481,-335,93,-382,1,7,11
1.72313E+12,-7335,3072,-504,-365,125,-325,1,7,11
1.72313E+12,-7307,2808,-769,-184,-66,-289,1,7,11
1.72313E+12,-7550,2808,-507,-518,273,-281,1,7,11
1.72313E+12,-7310,2803,-481,-567,342,-266,1,7,11
1.72313E+12,-7324,2799,-455,-582,362,21,1,7,11
1.72313E+12,-7323,2812,-466,-552,340,56,1,7,11
1.72313E+12,-7300,2795,-452,-530,290,85,1,7,11
1.72313E+12,-7297,2812,-460,-546,258,54,1,7,11
1.72313E+12,-7550,3103,-492,-556,-26,14,1,7,11
1.72313E+12,-7540,3111,-480,-601,-19,13,1,7,11
1.72313E+12,-7302,3088,-442,-624,-25,28,1,7,11
1.72313E+12,-7340,3072,-387,-565,-92,45,1,7,11
1.72313E+12,-7348,2811,-614,-221,49,59,1,7,11
1.72313E+12,-7355,2811,-598,-139,-319,64,1,7,11
1.72313E+12,-7343,2814,-593,-322,-158,67,1,7,11
1.72313E+12,-7314,2797,-566,-264,-241,78,1,7,11
1.72313E+12,-7328,3072,-557,105,-553,70,1,7,11
1.72313E+12,-7332,3102,-592,-80,-600,92,1,7,11
1.72313E+12,-7307,3117,-616,-59,-578,125,1,7,11
1.72313E+12,-7543,3133,-385,-74,-227,-107,1,7,11
1.72313E+12,-7514,3085,-606,127,-365,-92,1,7,11
1.72313E+12,-7516,2804,-558,-114,-272,-111,1,7,11
1.72313E+12,-7547,3104,-586,-41,43,117,1,7,11
1.72313E+12,-7543,3104,-599,-66,93,106,1,7,11
1.72313E+12,-7534,3113,-603,-95,-103,81,1,7,11
1.72313E+12,-7543,3101,-612,109,-55,44,1,7,11
1.72313E+12,-7530,3108,-635,52,-22,18,1,7,11
1.72313E+12,-7536,3093,-617,0,277,-272,1,7,11
1.72313E+12,-7306,2812,-592,-268,297,-297,1,7,11
1.72313E+12,-7328,2796,-574,-264,280,-309,1,7,11
1.72313E+12,-7352,2767,-556,15,-15,-321,1,7,11
1.72313E+12,-7360,2760,-566,63,-79,-324,1,7,11
1.72313E+12,-7358,2740,-564,93,116,-317,1,7,11
1.72313E+12,-7377,2755,-580,113,77,-326,1,7,11
1.72313E+12,-7369,2753,-595,100,36,-318,1,7,11
1.72313E+12,-7363,2761,-602,93,10,-313,1,7,11
1.72313E+12,-7365,2803,-425,85,-263,-289,1,7,11
1.72313E+12,-7344,2802,-405,16,12,-257,1,7,11
1.72313E+12,-7340,2764,-630,-323,70,20,1,7,11
1.72313E+12,-7370,2766,-611,-348,101,20,1,7,11
1.72313E+12,-7396,2787,-597,-371,88,33,1,7,11
1.72313E+12,-7384,2793,-600,-150,65,58,1,7,11
1.72313E+12,-7363,2802,-604,-189,57,80,1,7,11
1.72313E+12,-7344,2799,-591,-232,75,96,1,7,11
1.72313E+12,-7333,2779,-553,-518,105,111,1,7,11
1.72313E+12,-7369,2794,-564,-249,-122,112,1,7,11
1.72313E+12,-7341,3072,-575,-207,-121,-115,1,7,11
1.72313E+12,-7326,2801,-553,-224,-83,-107,1,7,11
1.72313E+12,-7331,3072,-539,-212,-50,-108,1,7,11
1.72313E+12,-7330,3075,-522,-185,-40,-100,1,7,11
1.72313E+12,-7330,3079,-518,-153,-45,-104,1,7,11
1.72313E+12,-7320,3097,-518,-376,-64,-105,1,7,11
1.72313E+12,-7300,3112,-536,-358,-79,-109,1,7,11
1.72313E+12,-7539,3117,-544,-356,-81,-119,1,7,11
1.72313E+12,-7532,3110,-541,-358,-84,117,1,7,11
1.72313E+12,-7536,3112,-543,-340,-87,89,1,7,11
1.72313E+12,-7541,3108,-545,-322,-98,62,1,7,11
1.72313E+12,-7542,3099,-536,-314,-103,30,1,7,11
1.72313E+12,-7298,3089,-528,-303,-112,1,1,7,11
1.72313E+12,-7307,3079,-521,-279,124,-276,1,7,11
1.72313E+12,-7320,3072,-515,16,95,-280,1,7,11
1.72313E+12,-7322,3073,-534,75,75,-258,1,7,11
1.72313E+12,-7305,3113,-392,-113,96,67,1,7,11
1.72313E+12,-7510,3160,-483,125,-23,-58,1,7,11
1.72313E+12,-7491,3183,-508,-104,235,147,1,7,11
1.72313E+12,-7532,3032,-879,-11,831,394,1,7,11
1.72313E+12,-7361,3017,-829,-57,1151,697,1,7,11
1.72313E+12,-7396,2962,-447,-102,1380,963,1,7,11
1.72313E+12,-7703,3122,-605,64,1187,1309,1,7,11
1.72313E+12,-7677,3119,-585,-270,1306,985,1,7,11
1.72313E+12,-7398,3144,-620,-382,1094,1062,1,7,11
1.72313E+12,-7330,3158,-607,-576,646,874,1,7,11
1.72313E+12,-7531,3115,-559,-792,495,413,1,7,11
1.72313E+12,-7502,3097,-530,-668,594,178,1,7,11
1.72313E+12,-7487,3154,-562,-685,174,-41,1,7,11
1.72313E+12,-7458,2992,-617,-652,293,67,1,7,11
1.72313E+12,-7440,3037,-394,-672,258,-337,1,7,11
1.72313E+12,-7165,3070,-427,-686,263,-382,1,7,11
1.72313E+12,-7127,3341,-445,-678,271,-142,1,7,11
1.72313E+12,-7093,3353,-454,-880,282,-159,1,7,11
1.72313E+12,-7074,3392,-477,-776,298,-169,1,7,11
1.72313E+12,-7072,3392,-448,-394,320,-164,1,7,11
1.72313E+12,-7058,3387,-447,-561,314,-152,1,7,11
1.72313E+12,-7073,3377,-429,-241,297,-187,1,7,11
1.72313E+12,-7094,3367,-419,-193,269,-243,1,7,11
1.72313E+12,-7104,3372,-432,-174,256,-558,1,7,11
1.72313E+12,-7135,3353,-432,-201,267,-630,1,7,11
1.72313E+12,-7153,3339,-431,-208,-12,-429,1,7,11
1.72313E+12,-7458,3330,-436,-208,-54,-466,1,7,11
1.72313E+12,-7484,3056,-439,-210,-118,-466,1,7,11
1.72313E+12,-7498,3032,-450,-197,74,-440,1,7,11
1.72313E+12,-7492,3011,-475,-153,28,-389,1,7,11
1.72313E+12,-7487,2972,-474,-363,12,-571,1,7,11
1.72313E+12,-7471,3193,-474,-297,15,-248,1,7,11
1.72313E+12,-7484,3170,-487,14,31,-206,1,7,11
1.72313E+12,-7484,3155,-480,80,32,-176,1,7,11
1.72313E+12,-7501,3158,-490,-122,23,-167,1,7,11
1.72313E+12,-7513,3147,-487,-94,-264,-170,1,7,11
1.72313E+12,-7551,3162,-491,-80,-298,-198,1,7,11
1.72313E+12,-7320,3166,-489,-105,-371,-208,1,7,11
1.72313E+12,-7332,3174,-497,118,-198,-216,1,7,11
1.72313E+12,-7362,3182,-494,78,-522,-218,1,7,11
1.72313E+12,-7368,3187,-496,43,-580,-191,1,7,11
1.72313E+12,-7358,3179,-485,10,-610,-149,1,7,11
1.72313E+12,-7338,3164,-466,-263,-618,-354,1,7,11
1.72313E+12,-7310,3137,-420,-272,-601,-303,1,7,11
1.72313E+12,-7539,3111,-389,0,-561,21,1,7,11
1.72313E+12,-7530,3079,-611,43,-541,43,1,7,11
1.72313E+12,-7511,3085,-617,105,-533,59,1,7,11
1.72313E+12,-7489,2804,-597,123,-230,48,1,7,11
1.72313E+12,-7537,2796,-558,126,-174,15,1,7,11
1.72313E+12,-7541,2773,-528,122,-156,-266,1,7,11
1.72313E+12,-7299,2761,-513,113,-134,-317,1,7,11
1.72313E+12,-7305,2761,-239,94,-367,-360,1,7,11
1.72313E+12,-7315,2744,-224,57,-338,-149,1,7,11
1.72313E+12,-7342,2723,-200,32,-313,-197,1,7,11
1.72313E+12,-7354,2711,-190,43,-312,-229,1,7,11
1.72313E+12,-7375,2708,-187,69,-311,-518,1,7,11
1.72313E+12,-7369,2934,-180,65,-322,-541,1,7,11
1.72313E+12,-7381,2911,-175,89,-328,-594,1,7,11
1.72313E+12,-7392,2911,-170,110,-360,-396,1,7,11
1.72313E+12,-7408,2941,-170,-113,-135,-454,1,7,11
1.72313E+12,-7693,2746,-182,-81,-162,-471,1,7,11
1.72313E+12,-7705,2769,-205,-98,-177,-424,1,7,11
1.72313E+12,-7698,2765,-210,116,-176,-603,1,7,11
1.72313E+12,-7686,2700,-165,60,-161,-515,1,7,11
1.72313E+12,-7410,2913,-134,48,-164,-224,1,7,11
1.72313E+12,-7387,2847,-356,31,-176,-230,1,7,11
1.72313E+12,-7389,2559,-331,45,-187,-529,1,7,11
1.72313E+12,-7402,2543,-306,39,-200,-582,1,7,11
1.72313E+12,-7691,2520,-282,30,-201,-630,1,7,11
1.72313E+12,-7727,2524,-266,34,-207,-386,1,7,11
1.72313E+12,-7749,2518,1,35,-204,-615,1,7,11
1.72313E+12,-7751,2512,-265,46,-184,-546,1,7,11
1.72313E+12,-7738,2489,-265,47,-136,-204,1,7,11
1.72313E+12,-7746,2483,-265,81,-310,-374,1,7,11
1.72313E+12,-7756,2492,-282,127,37,-286,1,7,11
1.72313E+12,-7761,2523,-309,-74,-113,67,1,7,11
1.72313E+12,-7781,2833,-354,-15,269,-86,1,7,11
1.72313E+12,-7793,2887,-146,284,140,291,1,7,11
1.72313E+12,-7782,2938,-197,318,521,160,1,7,11
1.72313E+12,-7760,2718,-237,344,385,522,1,7,11
1.72313E+12,-7733,2744,-524,362,496,591,1,7,11
1.72313E+12,-7704,2765,-540,368,838,625,1,7,11
1.72313E+12,-7369,2764,-573,337,893,620,1,7,11
1.72313E+12,-7312,2738,-574,286,677,546,1,7,11
1.72313E+12,-7540,2716,-570,-21,712,207,1,7,11
1.72313E+12,-7528,2689,-555,-96,698,374,1,7,11
1.72313E+12,-7549,2923,-544,-128,895,277,1,7,11
1.72313E+12,-7549,2906,-547,95,794,-61,1,7,11
1.72313E+12,-7301,2887,-554,69,429,110,1,7,11
1.72313E+12,-7314,2857,-565,46,566,33,1,7,11
1.72313E+12,-7311,2832,-571,43,190,-298,1,7,11
1.72313E+12,-7319,2552,-581,48,352,-382,1,7,11
1.72313E+12,-7330,2526,-588,62,276,-200,1,7,11
1.72313E+12,-7341,2503,-604,88,-32,-518,1,7,11
1.72313E+12,-7373,2502,-618,-126,-60,-561,1,7,11
1.72313E+12,-7408,2483,-620,-93,-78,-570,1,7,11
1.72313E+12,-7699,2474,-629,-51,-100,-554,1,7,11
1.72313E+12,-7739,2466,-626,-14,127,-522,1,7,11
1.72313E+12,-7771,2471,-627,271,88,-223,1,7,11
1.72313E+12,-7566,2510,-637,292,55,-178,1,7,11
1.72313E+12,-7630,2818,-391,290,6,-363,1,7,11
1.72313E+12,-7678,2886,-408,-5,-305,3,1,7,11
1.72313E+12,-7950,2693,-432,-82,-357,-106,1,7,11
1.72313E+12,-7676,2734,-440,65,-133,303,1,7,11
1.72313E+12,-7651,2772,-436,-314,-137,185,1,7,11
1.72313E+12,-7639,2806,-417,-179,-377,559,1,7,11
1.72313E+12,-7795,3111,-397,-530,-362,429,1,7,11
1.72313E+12,-7699,3142,-386,-612,-324,856,1,7,11
1.72313E+12,-7374,3156,-626,-421,7,678,1,7,11
1.72313E+12,-7299,3159,-601,-476,122,735,1,7,11
1.72313E+12,-7486,3147,-576,-496,-56,750,1,7,11
1.72313E+12,-7149,3112,-544,-494,278,711,1,7,11
1.72313E+12,-7086,3079,-517,-446,358,859,1,7,11
1.72313E+12,-7051,2792,-220,-388,155,442,1,7,11
1.72313E+12,-7290,2755,-189,-571,179,241,1,7,11
1.72313E+12,-7280,2701,-171,-234,173,271,1,7,11
1.72313E+12,-7050,2907,-148,-131,148,22,1,7,11
1.72313E+12,-7084,2870,-146,-259,353,-213,1,7,11
1.72313E+12,-7109,2838,-168,-128,292,-418,1,7,11
1.72313E+12,-7148,2817,-208,-9,-17,-848,1,7,11
1.72313E+12,-7451,2539,-253,341,-55,-724,1,7,11
1.72313E+12,-7512,2515,-550,165,-80,-1067,1,7,11
1.72313E+12,-7327,2512,-593,233,-92,-1106,1,7,11
1.72313E+12,-7415,2519,-638,536,-92,-1096,1,7,11
1.72313E+12,-7772,2541,-401,557,-90,-1042,1,7,11
1.72313E+12,-7609,2839,-431,556,-105,-673,1,7,11
1.72313E+12,-7942,2862,-456,254,-122,-775,1,7,11
1.72313E+12,-7986,2895,-482,194,114,-594,1,7,11
1.72313E+12,-8021,2935,-490,380,100,-153,1,7,11
1.72313E+12,-8010,2719,-504,293,83,47,1,7,11
1.72313E+12,-7956,2757,-510,-61,78,-20,1,7,11
1.72313E+12,-7625,2778,-499,79,87,139,1,7,11
1.72313E+12,-7794,2785,-483,-283,109,524,1,7,11
1.72313E+12,-7689,2791,-468,-372,-111,620,1,7,11
1.72313E+12,-7333,2792,-443,-191,-59,426,1,7,11
1.72313E+12,-7505,2792,-435,-235,259,449,1,7,11
1.72313E+12,-7441,2792,-420,-513,326,442,1,7,11
1.72313E+12,-7142,2797,-414,-514,137,406,1,7,11
1.72313E+12,-7119,2805,-412,-233,195,599,1,7,11
1.72313E+12,-7107,2807,-410,-197,249,518,1,7,11
1.72313E+12,-7108,2812,-411,-154,548,160,1,7,11
1.72313E+12,-7130,3072,-416,-364,578,305,1,7,11
1.72313E+12,-7432,3084,-425,-321,587,-61,1,7,11
1.72313E+12,-7488,3076,-419,-295,563,95,1,7,11
1.72313E+12,-7548,2803,-424,-271,250,4,1,7,11
1.72313E+12,-7343,2790,-421,5,161,-328,1,7,11
1.72313E+12,-7379,2780,-429,16,304,-137,1,7,11
1.72313E+12,-7403,2760,-437,14,-71,-178,1,7,11
1.72313E+12,-7408,2736,-452,-260,74,-205,1,7,11
1.72313E+12,-7393,2709,-458,-298,-268,-221,1,7,11
1.72313E+12,-7399,2688,-456,-344,-318,-234,1,7,11
1.72313E+12,-7388,2915,-447,-129,-361,-225,1,7,11
1.72313E+12,-7385,2889,-440,-157,-372,-215,1,7,11
1.72313E+12,-7383,2865,-439,-176,-361,-191,1,7,11
1.72313E+12,-7396,2848,-409,-181,-332,-166,1,7,11
1.72313E+12,-7421,2844,-395,-165,-294,-133,1,7,11
1.72313E+12,-7687,2844,-635,-146,-274,-337,1,7,11
1.72313E+12,-7419,2840,-385,-365,1,-269,1,7,11
1.72313E+12,-7396,2836,-398,-331,29,57,1,7,11
1.72313E+12,-7372,2861,-454,-312,86,108,1,7,11
1.72313E+12,-7371,2887,-471,-362,-63,-111,1,7,11
1.72313E+12,-7375,2901,-463,-188,331,-35,1,7,11
1.72313E+12,-7399,2942,-471,-173,187,30,1,7,11
1.72313E+12,-7415,2733,-481,-150,271,378,1,7,11
1.72313E+12,-7417,2769,-475,-159,542,166,1,7,11
1.72313E+12,-7682,2807,-476,-212,524,206,1,7,11
1.72313E+12,-7400,3078,-462,-542,225,246,1,7,11
1.72313E+12,-7376,3097,-455,-400,172,244,1,7,11
1.72313E+12,-7354,3138,-456,-801,369,199,1,7,11
1.72313E+12,-7338,3155,-479,-889,303,142,1,7,11
1.72313E+12,-7300,3162,-491,-1049,257,356,1,7,11
1.72313E+12,-7533,3173,-492,-915,260,302,1,7,11
1.72313E+12,-7528,3187,-474,-1022,279,-1,1,7,11
1.72313E+12,-7521,3183,-441,-1294,306,-33,1,7,11
1.72313E+12,-7506,3183,-418,-1005,349,-51,1,7,11
1.72313E+12,-7512,3174,-629,-927,153,-41,1,7,11
1.72313E+12,-7502,3156,-586,-1044,196,280,1,7,11
1.72313E+12,-7489,3122,-522,-875,214,355,1,7,11
1.72313E+12,-7476,3083,-226,-431,188,148,1,7,11
1.72313E+12,-7459,3087,-234,-241,129,132,1,7,11
1.72313E+12,-7452,3118,-519,-353,323,326,1,7,11
1.72313E+12,-7477,3155,-543,9,271,-4,1,7,11
1.72313E+12,-7493,3166,-556,90,-52,-51,1,7,11
1.72313E+12,-7464,3134,-565,-105,111,-103,1,7,11
1.72313E+12,-7474,3137,-600,-13,36,55,1,7,11
1.72313E+12,-7487,3178,-637,329,-278,-283,1,7,11
1.72313E+12,-7534,2959,-407,142,-296,-320,1,7,11
1.72313E+12,-7314,2991,-425,201,-316,-278,1,7,11
1.72313E+12,-7316,2996,-425,230,-329,79,1,7,11
1.72313E+12,-7535,2988,-453,536,-314,-33,1,7,11
1.72313E+12,-7509,2983,-494,579,10,383,1,7,11
1.72313E+12,-7519,2975,-777,605,124,551,1,7,11
1.72313E+12,-7510,3173,-467,561,-6,414,1,7,11
1.72313E+12,-7548,3162,-407,520,325,440,1,7,11
1.72313E+12,-7548,3187,-620,233,293,433,1,7,11
1.72313E+12,-7535,3197,-601,225,-60,634,1,7,11
1.72313E+12,-7529,2996,-635,222,117,535,1,7,11
1.72313E+12,-7530,3352,-456,373,-125,219,1,7,11
1.72313E+12,-7493,3044,-389,-82,-48,218,1,7,11
1.72313E+12,-7464,3059,-389,-128,274,190,1,7,11
1.72313E+12,-7166,3055,-629,33,349,134,1,7,11
1.72313E+12,-7135,3048,-598,-270,171,322,1,7,11
1.72313E+12,-7122,3063,-548,-263,203,259,1,7,11
1.72313E+12,-7125,3048,-551,0,185,-84,1,7,11
1.72313E+12,-7116,3331,-613,29,135,65,1,7,11
1.72313E+12,-7120,3390,-636,46,352,-321,1,7,11
1.72313E+12,-7137,3379,-635,16,317,-168,1,7,11
1.72313E+12,-7147,3365,-394,19,-3,-296,1,7,11
1.72313E+12,-7105,3337,-422,35,-88,-605,1,7,11
1.72313E+12,-7090,3340,-479,107,101,-396,1,7,11
1.72313E+12,-7112,3340,-793,-65,81,-387,1,7,11
1.72313E+12,-7100,3042,-790,294,81,-587,1,7,11
1.72313E+12,-7137,2946,-495,371,71,-569,1,7,11
1.72313E+12,-7149,3181,-502,620,8,-564,1,7,11
1.72313E+12,-7449,3158,-798,804,-286,-567,1,7,11
1.72313E+12,-7476,3139,-835,655,-296,-537,1,7,11
1.72313E+12,-7469,3096,-847,698,-273,-515,1,7,11
1.72313E+12,-7503,3080,-857,708,18,-548,1,7,11
1.72313E+12,-7537,3087,-883,701,40,-565,1,7,11
1.72313E+12,-7550,3083,-894,683,57,-552,1,7,11
1.72313E+12,-7312,3073,-651,870,66,-525,1,7,11
1.72313E+12,-7321,2781,-888,736,61,-249,1,7,11
1.72313E+12,-7313,2743,-880,402,29,-235,1,7,11
1.72313E+12,-7324,2730,-896,601,-261,-250,1,7,11
1.72313E+12,-7332,2730,-661,546,-297,-241,1,7,11
1.72313E+12,-7328,2724,-895,243,-323,-215,1,7,11
1.72313E+12,-7395,2759,-741,527,-320,-193,1,7,11
1.72313E+12,-7316,2713,-756,134,-305,-353,1,7,11
1.72313E+12,-7313,2742,-1084,356,93,-301,1,7,11
1.72313E+12,-7547,2939,-1063,-16,-14,37,1,7,11
1.72313E+12,-7537,2901,-1049,-57,147,81,1,7,11
1.72313E+12,-7302,2901,-1040,-85,522,109,1,7,11
1.72313E+12,-7312,2886,-724,119,592,-122,1,7,11
1.72313E+12,-7366,2899,-660,117,578,116,1,7,11
1.72313E+12,-7408,2698,-672,-121,208,121,1,7,11
1.72313E+12,-7420,2752,-706,-122,327,-100,1,7,11
1.72313E+12,-7394,2802,-742,93,-51,-39,1,7,11
1.72313E+12,-7347,3099,-756,21,-127,268,1,7,11
1.72313E+12,-7324,3116,-726,-331,68,290,1,7,11
1.72313E+12,-7307,3160,-713,-382,-269,308,1,7,11
1.72313E+12,-7543,2959,-704,-191,-347,344,1,7,11
1.72313E+12,-7535,3013,-714,-548,-174,362,1,7,11
1.72313E+12,-7489,2999,-679,-423,-188,363,1,7,11
1.72313E+12,-7491,3007,-893,-496,-173,316,1,7,11
1.72313E+12,-7486,3016,-857,-790,-192,282,1,7,11
1.72313E+12,-7445,3000,-835,-825,-195,-5,1,7,11
1.72313E+12,-7147,2949,-807,-839,-172,-43,1,7,11
1.72313E+12,-7114,3165,-799,-820,-384,-99,1,7,11
1.72313E+12,-7077,3088,-485,-783,-331,90,1,7,11
1.72313E+12,-7093,2803,-469,-408,-284,-258,1,7,11
1.72313E+12,-7121,2766,-450,-557,-267,-352,1,7,11
1.72313E+12,-7427,2740,-430,-191,-270,-200,1,7,11
1.72313E+12,-7477,2727,-416,-345,-311,-553,1,7,11
1.72313E+12,-7535,2691,-639,-265,-132,-391,1,7,11
1.72313E+12,-7330,2929,-632,70,-248,-480,1,7,11
1.72313E+12,-7380,2921,-617,-127,-386,-817,1,7,11
1.72313E+12,-7424,2927,-611,-90,-793,-873,1,7,11
1.72313E+12,-7722,2919,-393,-92,-1051,-872,1,7,11
1.72313E+12,-7737,2904,-639,114,-1123,-842,1,7,11
1.72313E+12,-7747,2898,-618,44,-1131,-799,1,7,11
1.72313E+12,-7758,2888,-588,-331,-1111,-489,1,7,11
1.72313E+12,-7774,2866,-555,-165,-1072,-427,1,7,11
1.72313E+12,-7792,2856,-515,-245,-759,-615,1,7,11
1.72313E+12,-7790,2846,-216,-574,-695,-536,1,7,11
1.72313E+12,-7799,2847,-182,-633,-879,-197,1,7,11
1.72313E+12,-7781,2837,-130,-430,-803,-366,1,7,11
1.72313E+12,-7766,2830,-347,-462,-460,-284,1,7,11
1.72313E+12,-7751,2822,-313,-481,-619,49,1,7,11
1.72313E+12,-7726,2825,-282,-470,-521,120,1,7,11
1.72313E+12,-7712,2837,3,-446,-163,-82,1,7,11
1.72313E+12,-7695,2863,30,-416,-327,-39,1,7,11
1.72313E+12,-7695,2888,44,-394,8,-18,1,7,11
1.72313E+12,-7687,2906,60,-633,70,-5,1,7,11
1.72313E+12,-7684,2930,76,-619,113,-3,1,7,11
1.72313E+12,-7417,2697,77,-617,-114,-11,1,7,11
1.72313E+12,-7398,2708,88,-627,-89,-31,1,7,11
1.72313E+12,-7391,2709,105,-640,-71,-64,1,7,11
1.72313E+12,-7392,2704,-122,-392,-54,-102,1,7,11
1.72313E+12,-7394,2941,-90,-402,-40,115,1,7,11
1.72313E+12,-7398,2925,-87,-637,-36,54,1,7,11
1.72313E+12,-7411,2907,-69,-604,-36,13,1,7,11
1.72313E+12,-7413,2883,-58,-561,-43,-274,1,7,11
1.72313E+12,-7686,2871,-48,-200,-36,-301,1,7,11
1.72313E+12,-7694,2879,-57,-381,-28,-314,1,7,11
1.72313E+12,-7713,2874,-64,-325,-16,-314,1,7,11
1.72313E+12,-7723,2876,-72,-297,-15,-301,1,7,11
1.72313E+12,-7731,2874,-82,20,-19,-285,1,7,11
1.72313E+12,-7726,2866,-98,67,-16,-268,1,7,11
1.72313E+12,-7736,2878,-110,116,-4,-265,1,7,11
1.72313E+12,-7752,2904,-123,-125,260,-267,1,7,11
1.72313E+12,-7759,2919,111,126,259,3,1,7,11
1.72313E+12,-7744,2925,95,109,257,26,1,7,11
1.72313E+12,-7728,2928,79,80,268,42,1,7,11
1.72313E+12,-7716,2919,67,52,290,54,1,7,11
1.72313E+12,-7700,2915,48,42,323,63,1,7,11
1.72313E+12,-7707,2909,39,34,362,70,1,7,11
1.72313E+12,-7709,2905,30,31,139,84,1,7,11
1.72313E+12,-7714,2904,18,33,167,101,1,7,11
1.72313E+12,-7709,2905,-259,45,185,117,1,7,11
1.72313E+12,-7699,2906,-272,61,203,-127,1,7,11
1.72313E+12,-7688,2902,-297,67,215,-124,1,7,11
1.72313E+12,-7424,2900,-306,80,217,122,1,7,11
1.72313E+12,-7685,2902,-324,104,208,104,1,7,11
1.72313E+12,-7422,2903,-347,116,188,89,1,7,11
1.72313E+12,-7402,2903,-372,121,170,69,1,7,11
1.72313E+12,-7397,2898,-145,118,169,33,1,7,11
1.72313E+12,-7415,2891,-168,100,134,-284,1,7,11
1.72313E+12,-7687,2885,-179,94,356,-309,1,7,11
1.72313E+12,-7690,2869,-189,80,312,-324,1,7,11
1.72313E+12,-7693,2864,-192,73,269,-340,1,7,11
1.72313E+12,-7695,2851,-192,58,-28,-350,1,7,11
1.72313E+12,-7686,2836,-194,44,-53,-357,1,7,11
1.72313E+12,-7682,2559,-200,27,-65,-368,1,7,11
1.72313E+12,-7686,2544,-194,22,-66,-376,1,7,11
1.72313E+12,-7702,2538,-195,25,-62,-379,1,7,11
1.72313E+12,-7721,2535,-191,32,-53,-372,1,7,11
1.72313E+12,-7742,2540,-173,41,-42,-353,1,7,11
1.72313E+12,-7756,2537,-164,38,-37,-315,1,7,11
1.72313E+12,-7760,2540,-167,41,-32,-276,1,7,11
1.72313E+12,-7757,2544,-165,42,-26,22,1,7,11
1.72313E+12,-7755,2553,-170,43,-15,64,1,7,11
1.72313E+12,-7751,2819,-178,44,-4,102,1,7,11
1.72313E+12,-7738,2827,-177,37,263,-114,1,7,11
1.72313E+12,-7726,2841,-172,23,278,-81,1,7,11
1.72313E+12,-7724,2841,-169,9,291,-56,1,7,11
1.72313E+12,-7728,2849,-166,1,294,-39,1,7,11
1.72313E+12,-7728,2863,-167,-262,279,-25,1,7,11
1.72313E+12,-7722,2879,-151,-267,258,-13,1,7,11
1.72313E+12,-7702,2884,-161,-270,-27,-10,1,7,11
1.72313E+12,-7424,2882,-161,-271,-54,-15,1,7,11
1.72313E+12,-7400,2887,-165,-262,-68,-34,1,7,11
1.72313E+12,-7386,2897,-168,5,-75,-59,1,7,11
1.72313E+12,-7390,2912,-169,10,-73,-110,1,7,11
1.72313E+12,-7384,2914,-167,13,-82,126,1,7,11
1.72313E+12,-7386,2902,-166,15,-91,100,1,7,11
1.72313E+12,-7402,2899,-159,12,-92,51,1,7,11
1.72313E+12,-7686,2908,-146,21,-107,3,1,7,11
1.72313E+12,-7709,2909,-138,14,109,-275,1,7,11
1.72313E+12,-7701,2903,-146,3,59,-279,1,7,11
1.72313E+12,-7684,2893,-161,-273,30,-289,1,7,11
1.72313E+12,-7699,2864,-149,-316,30,-319,1,7,11
1.72313E+12,-7700,2852,-154,-342,27,-343,1,7,11
1.72313E+12,-7710,2841,-159,-382,42,-367,1,7,11
1.72313E+12,-7734,2837,-157,-163,65,-364,1,7,11
1.72313E+12,-7739,2830,-164,-206,91,-333,1,7,11
1.72313E+12,-7739,2816,-163,-246,-128,-282,1,7,11
1.72313E+12,-7731,2545,-155,-526,-83,28,1,7,11
1.72313E+12,-7717,2532,-145,-531,-35,75,1,7,11
1.72313E+12,-7710,2521,-383,-528,268,104,1,7,11
1.72313E+12,-7701,2513,-367,-250,299,122,1,7,11
1.72313E+12,-7692,2518,-373,-206,311,-116,1,7,11
1.72313E+12,-7416,2506,-376,-167,323,-107,1,7,11
1.72313E+12,-7424,2513,-384,-367,339,-116,1,7,11
1.72313E+12,-7711,2537,-384,-319,339,-126,1,7,11
1.72313E+12,-7731,2557,-382,-273,304,-123,1,7,11
1.72313E+12,-7742,2837,-144,25,-8,-115,1,7,11
1.72313E+12,-7742,2861,-164,49,-68,-110,1,7,11
1.72313E+12,-7712,2888,-183,54,-124,-112,1,7,11
1.72313E+12,-7699,2901,-186,34,76,-118,1,7,11
1.72313E+12,-7422,2913,-196,5,54,122,1,7,11
1.72313E+12,-7681,2928,-198,-281,47,98,1,7,11
1.72313E+12,-7693,2939,-192,-317,42,79,1,7,11
1.72313E+12,-7698,2691,-177,-349,41,71,1,7,11
1.72313E+12,-7699,2692,-164,-379,37,69,1,7,11
1.72313E+12,-7686,2940,-144,-143,28,75,1,7,11
1.72313E+12,-7685,2938,-374,-150,24,77,1,7,11
1.72313E+12,-7422,2938,-363,-152,23,81,1,7,11
1.72313E+12,-7417,2936,-363,-151,34,80,1,7,11
1.72313E+12,-7416,2943,-362,-141,56,81,1,7,11
1.72313E+12,-7422,2692,-351,-135,82,91,1,7,11
1.72313E+12,-7684,2692,-339,-376,106,111,1,7,11
1.72313E+12,-7681,2696,-331,-354,127,-118,1,7,11
1.72313E+12,-7682,2695,-319,-332,-105,-100,1,7,11
1.72313E+12,-7683,2694,-305,-311,-90,-90,1,7,11
1.72313E+12,-7418,2691,-295,-293,-90,-87,1,7,11
1.72313E+12,-7401,2690,-296,-274,-99,-97,1,7,11
1.72313E+12,-7376,2943,-300,-262,-108,-116,1,7,11
1.72313E+12,-7373,2941,-304,-262,-103,99,1,7,11
1.72313E+12,-7384,2935,-305,-278,-109,53,1,7,11
1.72313E+12,-7395,2930,-305,-279,-125,15,1,7,11
1.72313E+12,-7412,2924,-317,-275,112,-276,1,7,11
1.72313E+12,-7419,2908,-306,-292,96,-310,1,7,11
1.72313E+12,-7703,2904,-305,-292,80,-350,1,7,11
1.72313E+12,-7722,2885,-293,-296,41,-381,1,7,11
1.72313E+12,-7717,2863,-293,-294,-258,-382,1,7,11
1.72313E+12,-7692,2842,-293,-294,-284,-129,1,7,11
1.72313E+12,-7688,2819,-294,-299,-276,-145,1,7,11
1.72313E+12,-7698,2545,-288,-300,4,-158,1,7,11
1.72313E+12,-7715,2537,-287,-296,30,-166,1,7,11
1.72313E+12,-7735,2530,-285,-295,55,-156,1,7,11
1.72313E+12,-7755,2525,-283,-290,75,-141,1,7,11
1.72313E+12,-7770,2519,-281,-285,94,-372,1,7,11
1.72313E+12,-7777,2512,-281,-281,102,-338,1,7,11
1.72313E+12,-7783,2523,-292,-270,105,-303,1,7,11
1.72313E+12,-7799,2530,-293,-266,109,-272,1,7,11
1.72313E+12,-7795,2548,-298,1,101,33,1,7,11
1.72313E+12,-7780,2554,-313,-263,103,77,1,7,11
1.72313E+12,-7747,2553,-318,-273,114,115,1,7,11
1.72313E+12,-7742,2841,-321,-281,-114,-126,1,7,11
1.72313E+12,-7745,2858,-323,-299,-95,-107,1,7,11
1.72313E+12,-7739,2871,-315,-318,-85,-85,1,7,11
1.72313E+12,-7733,2884,-316,-339,-75,-74,1,7,11
1.72313E+12,-7722,2893,-308,-357,-74,-70,1,7,11
1.72313E+12,-7707,2898,-293,-370,-73,-76,1,7,11
1.72313E+12,-7689,2906,-293,-375,-72,-91,1,7,11
1.72313E+12,-7424,2903,-282,-371,-67,-113,1,7,11
1.72313E+12,-7686,2905,-276,-365,-60,120,1,7,11
1.72313E+12,-7695,2908,-261,-361,-67,101,1,7,11
1.72313E+12,-7690,2907,-258,-356,-89,81,1,7,11
1.72313E+12,-7423,2907,2,-348,-107,55,1,7,11
1.72313E+12,-7422,2907,-259,-340,-120,22,1,7,11
1.72313E+12,-7684,2908,-263,-336,127,-262,1,7,11
1.72313E+12,-7681,2902,-272,-333,122,-286,1,7,11
1.72313E+12,-7424,2898,-281,-347,-121,-303,1,7,11
1.72313E+12,-7684,2888,-283,-359,-93,-311,1,7,11
1.72313E+12,-7701,2872,-265,-374,-52,-308,1,7,11
1.72313E+12,-7715,2839,19,-129,-15,-293,1,7,11
1.72313E+12,-7725,2540,28,-379,259,-272,1,7,11
1.72313E+12,-7733,2521,29,-364,265,1,1,7,11
1.72313E+12,-7743,2507,31,-358,274,9,1,7,11
1.72313E+12,-7744,2488,40,-347,277,16,1,7,11
1.72313E+12,-7747,2482,43,-329,274,13,1,7,11
1.72313E+12,-7748,2489,34,-300,252,-264,1,7,11
1.72313E+12,-7765,2488,24,-278,-21,-278,1,7,11
1.72313E+12,-7772,2492,14,-265,-45,-275,1,7,11
1.72313E+12,-7776,2500,-260,3,-62,-275,1,7,11
1.72313E+12,-7762,2504,-263,-261,-68,-264,1,7,11
1.72313E+12,-7780,2531,-274,7,-66,-266,1,7,11
1.72313E+12,-7788,2820,-292,-262,-76,7,1,7,11
1.72313E+12,-7790,2840,-296,-299,-85,43,1,7,11
1.72313E+12,-7772,2850,-300,-347,-97,85,1,7,11
1.72313E+12,-7747,2856,-307,-143,-103,115,1,7,11
1.72313E+12,-7729,2857,-299,-179,-94,-126,1,7,11
1.72313E+12,-7722,2876,-301,-206,-79,-116,1,7,11
1.72313E+12,-7725,2880,-295,-237,-62,-111,1,7,11
1.72313E+12,-7729,2887,-290,-516,-51,-113,1,7,11
1.72313E+12,-7730,2889,-282,-529,-52,-117,1,7,11
1.72313E+12,-7727,2885,-269,-529,-62,-115,1,7,11
1.72313E+12,-7719,2893,-262,-517,-71,-118,1,7,11
1.72313E+12,-7714,2888,4,-513,-82,-127,1,7,11
1.72313E+12,-7715,2886,20,-255,-103,113,1,7,11
1.72313E+12,-7713,2876,31,-249,126,93,1,7,11
1.72313E+12,-7714,2878,19,-244,100,61,1,7,11
1.72313E+12,-7701,2868,20,-250,70,33,1,7,11
1.72313E+12,-7714,2871,14,-247,62,-257,1,7,11
1.72313E+12,-7731,2879,-257,-253,50,-274,1,7,11
1.72313E+12,-7733,2880,1,-528,46,-279,1,7,11
1.72313E+12,-7739,2877,6,-559,46,-275,1,7,11
1.72313E+12,-7750,2871,14,-613,45,-268,1,7,11
1.72313E+12,-7748,2868,14,-395,45,-260,1,7,11
1.72313E+12,-7744,2867,18,-441,50,3,1,7,11
1.72313E+12,-7739,2852,20,-494,50,7,1,7,11
1.72313E+12,-7748,2847,36,-792,50,6,1,7,11
1.72313E+12,-7761,2842,55,-832,41,7,1,7,11
1.72313E+12,-7776,2825,72,-874,27,10,1,7,11
1.72313E+12,-7778,2816,100,-894,9,18,1,7,11
1.72313E+12,-7775,2548,124,-652,-267,33,1,7,11
1.72313E+12,-7771,2546,-106,-649,-287,56,1,7,11
1.72313E+12,-7772,2548,-85,-891,-301,85,1,7,11
1.72313E+12,-7771,2553,-70,-868,-308,114,1,7,11
1.72313E+12,-7772,2819,-55,-843,-314,-111,1,7,11
1.72313E+12,-7764,2835,-46,-816,-320,-82,1,7,11
1.72313E+12,-7762,2847,-30,-798,-323,-54,1,7,11
1.72313E+12,-7756,2852,-13,-779,-321,-29,1,7,11
1.72313E+12,-7744,2861,267,-506,-317,-11,1,7,11
1.72313E+12,-7746,2872,304,-485,-317,-4,1,7,11
1.72313E+12,-7742,2890,335,-464,-316,256,1,7,11
1.72313E+12,-7732,2901,351,-435,-312,-1,1,7,11
1.72313E+12,-7720,2907,364,-401,-306,-10,1,7,11
1.72313E+12,-7704,2920,373,-620,-291,-23,1,7,11
1.72313E+12,-7690,2930,138,-589,-271,-35,1,7,11
1.72313E+12,-7684,2938,153,-557,26,-51,1,7,11
1.72313E+12,-7417,2694,153,-520,61,-67,1,7,11
1.72313E+12,-7398,2935,162,-228,82,-75,1,7,11
1.72313E+12,-7397,2920,173,-191,-126,-104,1,7,11
1.72313E+12,-7422,2936,189,-135,-76,83,1,7,11
1.72313E+12,-7694,2941,197,-342,-44,48,1,7,11
1.72313E+12,-7700,2941,198,-300,-44,24,1,7,11
1.72313E+12,-7703,2688,193,-258,-48,2,1,7,11
1.72313E+12,-7699,2932,184,42,-50,-273,1,7,11
1.72313E+12,-7705,2935,174,74,-45,-292,1,7,11
1.72313E+12,-7720,2938,154,100,-37,-299,1,7,11
1.72313E+12,-7734,2942,137,110,-33,-292,1,7,11
1.72313E+12,-7744,2932,371,106,-34,-277,1,7,11
1.72313E+12,-7751,2926,355,98,-30,-259,1,7,11
1.72313E+12,-7768,2935,338,81,-22,15,1,7,11
1.72313E+12,-7778,2940,320,42,-21,43,1,7,11
1.72313E+12,-7782,2920,318,-265,-18,70,1,7,11
1.72313E+12,-7799,2922,307,-301,-17,95,1,7,11
1.72313E+12,-7565,2930,298,-329,-23,-118,1,7,11
1.72313E+12,-7561,2922,291,-354,-28,-46,1,7,11
1.72313E+12,-7797,2920,282,-368,-26,290,1,7,11
1.72313E+12,-7783,2926,281,-373,-19,380,1,7,11
1.72313E+12,-7765,2935,257,-364,-4,218,1,7,11
1.72313E+12,-7753,2689,-3,-366,283,552,1,7,11
1.72313E+12,-7763,2717,-4,-370,317,604,1,7,11
1.72313E+12,-7759,2752,-4,-384,327,394,1,7,11
1.72313E+12,-7733,2790,-10,-142,318,429,1,7,11
1.72313E+12,-7703,2815,-13,-158,311,454,1,7,11
1.72313E+12,-7408,3097,-21,-175,315,466,1,7,11
1.72313E+12,-7368,3113,-16,-195,335,466,1,7,11
1.72313E+12,-7340,3125,-8,-208,364,451,1,7,11
1.72313E+12,-7346,3143,-1,-210,136,417,1,7,11
1.72313E+12,-7341,3171,259,-206,145,393,1,7,11
1.72313E+12,-7337,3187,271,-214,147,623,1,7,11
1.72313E+12,-7327,2950,275,-207,134,593,1,7,11
1.72313E+12,-7323,2974,273,-208,376,543,1,7,11
1.72313E+12,-7320,2987,283,-220,353,244,1,7,11
1.72313E+12,-7317,2994,290,-220,327,198,1,7,11
1.72313E+12,-7307,2993,291,-220,300,153,1,7,11
1.72313E+12,-7546,2992,287,-217,283,367,1,7,11
1.72313E+12,-7545,2984,299,-207,279,325,1,7,11
1.72313E+12,-7546,2982,309,-175,276,284,1,7,11
1.72313E+12,-7310,2985,328,-147,264,-19,1,7,11
1.72313E+12,-7316,2975,342,-365,-18,-57,1,7,11
1.72313E+12,-7322,2976,341,-316,-50,-102,1,7,11
1.72313E+12,-7334,2980,338,-276,-91,116,1,7,11
1.72313E+12,-7334,2985,329,19,123,86,1,7,11
1.72313E+12,-7330,3014,313,55,87,66,1,7,11
1.72313E+12,-7552,3018,298,63,66,52,1,7,11
1.72313E+12,-7314,3035,285,54,71,30,1,7,11
1.72313E+12,-7325,3043,286,34,72,30,1,7,11
1.72313E+12,-7347,3054,293,12,78,39,1,7,11
1.72313E+12,-7359,3055,310,-281,89,40,1,7,11
1.72313E+12,-7385,3080,320,-309,92,39,1,7,11
1.72313E+12,-7384,3345,329,-338,73,62,1,7,11
1.72313E+12,-7373,3355,325,-368,54,101,1,7,11
1.72313E+12,-7341,3360,321,-145,52,-108,1,7,11
1.72313E+12,-7327,3354,324,-186,76,-60,1,7,11
1.72313E+12,-7322,3361,325,-214,113,-49,1,7,11
1.72313E+12,-7325,3377,334,-234,-103,-34,1,7,11
1.72313E+12,-7327,3385,344,-248,-73,-19,1,7,11
1.72313E+12,-7325,3395,343,-520,-51,3,1,7,11
1.72313E+12,-7312,3405,335,-525,-35,272,1,7,11
1.72313E+12,-7549,3413,349,-516,-9,284,1,7,11
1.72313E+12,-7531,3419,338,-244,257,291,1,7,11
1.72313E+12,-7519,3415,340,-237,279,288,1,7,11
1.72313E+12,-7513,3423,349,-218,293,282,1,7,11
1.72313E+12,-7495,3430,335,-187,292,289,1,7,11
1.72313E+12,-7465,3420,304,-161,299,291,1,7,11
1.72313E+12,-7458,3417,296,-131,331,269,1,7,11
1.72313E+12,-7472,3443,291,-357,354,-13,1,7,11
1.72313E+12,-7456,3450,274,-337,367,-25,1,7,11
1.72313E+12,-7460,3452,260,-335,135,-52,1,7,11
1.72313E+12,-7455,3450,-4,-342,157,-80,1,7,11
1.72313E+12,-7451,3438,-7,-349,171,-111,1,7,11
1.72313E+12,-7440,3426,-28,-352,187,104,1,7,11
1.72313E+12,-7442,3421,-49,-353,211,65,1,7,11
1.72313E+12,-7445,3411,-69,-362,247,38,1,7,11
1.72313E+12,-7467,3410,-87,-376,559,13,1,7,11
1.72313E+12,-7528,3403,-99,-163,406,6,1,7,11
1.72313E+12,-7297,3392,-101,-182,443,30,1,7,11
1.72313E+12,-7323,3378,-100,-201,467,54,1,7,11
1.72313E+12,-7339,3366,-90,-212,465,85,1,7,11
1.72313E+12,-7335,3356,-97,-223,442,121,1,7,11
1.72313E+12,-7313,3359,-114,-252,428,-106,1,7,11
1.72313E+12,-7316,3365,-102,-542,430,-72,1,7,11
1.72313E+12,-7328,3354,-73,-563,408,-43,1,7,11
1.72313E+12,-7341,3344,-66,-558,595,-31,1,7,11
1.72313E+12,-7343,3378,-81,-535,253,-19,1,7,11
1.72313E+12,-7340,3397,-97,-527,194,269,1,7,11
1.72313E+12,-7324,3405,-86,-252,150,318,1,7,11
1.72313E+12,-7552,3406,-70,-212,352,362,1,7,11
1.72313E+12,-7522,3422,-76,-157,301,377,1,7,11
1.72313E+12,-7492,3436,-84,-131,-1,356,1,7,11
1.72313E+12,-7450,3219,-116,-139,-38,310,1,7,11
1.72313E+12,-7155,3282,76,-382,-46,308,1,7,11
1.72313E+12,-7051,3586,10,-351,274,361,1,7,11
1.72313E+12,-7287,3294,80,-368,137,352,1,7,11
1.72313E+12,-7290,3310,119,-283,206,319,1,7,11
1.72313E+12,-7063,3603,-118,45,520,281,1,7,11
1.72313E+12,-7064,3614,-115,108,565,284,1,7,11
1.72313E+12,-7069,3607,-101,-112,622,266,1,7,11
1.72313E+12,-7081,3323,-77,-75,399,-42,1,7,11
1.72313E+12,-7097,3311,-61,-15,406,-121,1,7,11
1.72313E+12,-7106,3278,-57,303,386,56,1,7,11
1.72313E+12,-7122,3251,-41,145,601,-290,1,7,11
1.72313E+12,-7140,3227,-41,534,255,-140,1,7,11
1.72313E+12,-7156,3238,-68,457,381,-241,1,7,11
1.72313E+12,-7433,3277,94,852,280,-604,1,7,11
1.72313E+12,-7148,3284,35,863,-21,-400,1,7,11
1.72313E+12,-7128,3245,28,874,273,-450,1,7,11
1.72313E+12,-7159,3447,65,646,300,-769,1,7,11
1.72313E+12,-7440,3395,84,723,274,-824,1,7,11
1.72313E+12,-7476,3358,73,1073,-44,-893,1,7,11
1.72313E+12,-7489,3328,56,905,-127,-701,1,7,11
1.72313E+12,-7507,3068,2,1015,56,-758,1,7,11
1.72313E+12,-7535,3068,-300,1370,1,-1038,1,7,11
1.72313E+12,-7311,3053,-333,1212,-298,-759,1,7,11
1.72313E+12,-7308,3009,-373,1558,-316,-708,1,7,11
1.72313E+12,-7546,2957,-384,1633,-334,-645,1,7,11
1.72313E+12,-7539,3188,-157,1489,-333,-856,1,7,11
1.72313E+12,-7505,3127,-181,1831,-325,-812,1,7,11
1.72313E+12,-7472,2813,-209,1668,-291,-796,1,7,11
1.72313E+12,-7462,2725,-557,2112,70,-818,1,7,11
1.72313E+12,-7500,2708,-611,1929,-113,-856,1,7,11
1.72313E+12,-7302,2695,-403,1973,-55,-877,1,7,11
1.72313E+12,-7367,2928,-451,1980,-27,-876,1,7,11
1.72313E+12,-7412,2894,-488,1961,-37,-858,1,7,11
1.72313E+12,-7693,2842,-821,1921,-66,-838,1,7,11
1.72313E+12,-7722,2829,-875,2122,-89,-823,1,7,11
1.72313E+12,-7750,2540,-661,1779,-117,-801,1,7,11
1.72313E+12,-7758,2476,-706,1687,111,-512,1,7,11
1.72313E+12,-7753,2446,-748,1844,86,-468,1,7,11
1.72313E+12,-7741,2667,-1034,1477,79,-427,1,7,11
1.72313E+12,-7726,2624,-1064,1559,98,-631,1,7,11
1.72313E+12,-7730,2592,-1078,1189,126,-602,1,7,11
1.72313E+12,-7730,2564,-1100,1348,-104,-569,1,7,11
1.72313E+12,-7712,2281,-1113,999,-75,-536,1,7,11
1.72313E+12,-7699,2255,-1124,915,-32,-250,1,7,11
1.72313E+12,-7696,2231,-1137,1100,273,-226,1,7,11
1.72313E+12,-7696,2214,-1136,1032,316,-201,1,7,11
1.72313E+12,-7689,2193,-1149,713,350,-174,1,7,11
1.72313E+12,-7688,2184,-922,649,380,-152,1,7,11
1.72313E+12,-7682,2180,-955,835,152,-132,1,7,11
1.72313E+12,-7683,2422,-981,492,181,-375,1,7,11
1.72313E+12,-7696,2412,-1012,399,212,-370,1,7,11
1.72313E+12,-7721,2424,-1291,564,235,-367,1,7,11
1.72313E+12,-7739,2431,-1311,198,240,-346,1,7,11
1.72313E+12,-7743,2428,-1321,336,237,-317,1,7,11
1.72313E+12,-7732,2408,-1332,-40,231,-286,1,7,11
1.72313E+12,-7716,2386,-1332,97,229,1,1,7,11
1.72313E+12,-7714,2373,-1326,3,232,28,1,7,11
1.72313E+12,-7722,2368,-1318,-330,239,64,1,7,11
1.72313E+12,-7743,2379,-1307,-135,233,95,1,7,11
1.72313E+12,-7753,2388,-1308,-188,210,-118,1,7,11
1.72313E+12,-7752,2401,-1316,-230,150,-70,1,7,11
1.72313E+12,-7741,2413,-1322,-530,365,-25,1,7,11
1.72313E+12,-7732,2427,-1313,-586,330,276,1,7,11
1.72313E+12,-7729,2192,-1293,-617,299,318,1,7,11
1.72313E+12,-7703,2215,-1024,-636,263,358,1,7,11
1.72313E+12,-7397,2216,-1011,-395,-22,138,1,7,11
1.72313E+12,-7356,2225,-992,-396,-20,145,1,7,11
1.72313E+12,-7339,2257,-982,-633,257,135,1,7,11
1.72313E+12,-7352,2282,-960,-619,284,376,1,7,11
1.72313E+12,-7356,2563,-929,-596,296,360,1,7,11
1.72313E+12,-7363,2579,-915,-572,301,347,1,7,11
1.72313E+12,-7356,2589,-906,-546,300,332,1,7,11
1.72313E+12,-7350,2605,-918,-528,317,318,1,7,11
1.72313E+12,-7354,2599,-913,-513,320,310,1,7,11
1.72313E+12,-7382,2610,-924,-206,309,302,1,7,11
1.72313E+12,-7419,2625,-947,-167,265,312,1,7,11
1.72313E+12,-7706,2648,-969,-146,-54,341,1,7,11
1.72313E+12,-7719,2667,-995,-158,-128,134,1,7,11
1.72313E+12,-7705,2684,-1003,-207,19,219,1,7,11
1.72313E+12,-7420,2445,-1019,-233,-297,525,1,7,11
1.72313E+12,-7391,2470,-1282,-518,-338,572,1,7,11
1.72313E+12,-7365,2499,-1021,-553,-350,615,1,7,11
1.72313E+12,-7332,2521,-1016,-583,-343,403,1,7,11
1.72313E+12,-7304,2532,-1007,-602,-328,444,1,7,11
1.72313E+12,-7535,2547,-947,-619,-313,471,1,7,11
1.72313E+12,-7482,2872,-972,-585,-309,466,1,7,11
1.72313E+12,-7480,2920,-959,-629,-264,460,1,7,11
1.72313E+12,-7475,2941,-921,-448,30,458,1,7,11
1.72313E+12,-7484,2695,-1122,-798,42,423,1,7,11
1.72313E+12,-7486,2725,-1093,-874,17,612,1,7,11
1.72313E+12,-7474,2728,-1061,-705,-258,538,1,7,11
1.72313E+12,-7456,2733,-1028,-764,-257,203,1,7,11
1.72313E+12,-7450,2713,-730,-1066,26,128,1,7,11
1.72313E+12,-7451,2701,-701,-1082,62,311,1,7,11
1.72313E+12,-7445,2937,-657,-1109,115,-15,1,7,11
1.72313E+12,-7459,2897,-850,-1125,-95,-119,1,7,11
1.72313E+12,-7462,2938,-876,-1077,-64,14,1,7,11
1.72313E+12,-7494,2724,-866,-1055,293,-308,1,7,11
1.72313E+12,-7537,2746,-842,-757,137,-305,1,7,11
1.72313E+12,-7544,2730,-803,-712,203,-264,1,7,11
1.72313E+12,-7533,2708,-779,-878,227,15,1,7,11
1.72313E+12,-7511,2711,-788,-812,512,2,1,7,11
1.72313E+12,-7503,2738,-814,-796,573,-290,1,7,11
1.72313E+12,-7497,2739,-791,-801,394,-316,1,7,11
1.72313E+12,-7490,2727,-484,-448,425,-329,1,7,11
1.72313E+12,-7522,2705,-460,-544,621,-380,1,7,11
1.72313E+12,-7531,2732,-495,-321,232,-180,1,7,11
1.72313E+12,-7552,2783,-823,-115,369,-205,1,7,11
1.72313E+12,-7301,2811,-655,-1,296,-187,1,7,11
1.72313E+12,-7523,2808,-701,329,-7,-140,1,7,11
1.72313E+12,-7494,2773,-717,363,-29,-310,1,7,11
1.72313E+12,-7506,2751,-735,156,-10,-281,1,7,11
1.72313E+12,-7482,2720,-753,196,263,-257,1,7,11
1.72313E+12,-7480,2943,-751,220,291,-260,1,7,11
1.72313E+12,-7490,2939,-762,517,306,-278,1,7,11
1.72313E+12,-7505,2925,-1031,537,320,-294,1,7,11
1.72313E+12,-7513,2930,-1052,560,329,-302,1,7,11
1.72313E+12,-7528,2937,-1082,571,354,-301,1,7,11
1.72313E+12,-7548,2927,-1081,568,375,-291,1,7,11
1.72313E+12,-7540,2910,-1075,588,379,-279,1,7,11
1.72313E+12,-7533,2887,-1056,631,374,-279,1,7,11
1.72313E+12,-7510,2859,-1059,471,349,-295,1,7,11
1.72313E+12,-7480,2842,-1073,840,344,-323,1,7,11
1.72313E+12,-7460,2820,-1082,722,359,-355,1,7,11
1.72313E+12,-7453,2853,-1105,1147,137,-145,1,7,11
1.72313E+12,-7469,2869,-1098,1288,181,-169,1,7,11
1.72313E+12,-7454,2858,-1100,1199,197,-178,1,7,11
1.72313E+12,-7133,2819,-1147,1635,222,-185,1,7,11
1.72313E+12,-7047,2817,-947,1814,579,-193,1,7,11
