timestamp,ax,ay,az,gx,gy,gz,Label1,Label2,Label3
1.72313E+12,-8275,509,-320,-656,555,-282,1,7,11
1.72313E+12,-8300,783,-355,-604,301,18,1,7,11
1.72313E+12,-8222,808,-143,-359,20,77,1,7,11
1.72313E+12,-7899,810,-160,94,-163,74,1,7,11
1.72313E+12,-7860,855,-205,295,-561,56,1,7,11
1.72313E+12,-7825,892,-517,150,-636,-265,1,7,11
1.72313E+12,-7829,656,-542,174,-421,-346,1,7,11
1.72313E+12,-7812,669,-554,146,-440,-157,1,7,11
1.72313E+12,-8063,885,-524,359,-424,-222,1,7,11
1.72313E+12,-7820,871,-524,374,-401,-516,1,7,11
1.72313E+12,-7825,849,-539,383,-618,-531,1,7,11
1.72313E+12,-7840,835,-550,365,-533,-536,1,7,11
1.72313E+12,-7868,808,-525,329,-166,-520,1,7,11
1.72313E+12,-7913,768,-234,311,-319,-242,1,7,11
1.72313E+12,-8197,483,-209,320,-257,-207,1,7,11
1.72313E+12,-8212,459,-191,333,46,-176,1,7,11
1.72313E+12,-8229,440,-190,359,76,-148,1,7,11
1.72313E+12,-8238,416,-195,377,98,-380,1,7,11
1.72313E+12,-8231,415,-207,144,113,-352,1,7,11
1.72313E+12,-8231,419,-223,144,-115,-324,1,7,11
1.72313E+12,-8210,396,-242,131,-100,-282,1,7,11
1.72313E+12,-7924,633,-254,134,-73,-260,1,7,11
1.72313E+12,-7915,385,-533,139,-44,-269,1,7,11
1.72313E+12,-7914,391,-546,130,-26,-278,1,7,11
1.72313E+12,-7914,393,-552,365,-18,-292,1,7,11
1.72313E+12,-7915,398,-571,341,-25,-302,1,7,11
1.72313E+12,-7913,397,-573,295,-40,-310,1,7,11
1.72313E+12,-7907,385,-579,259,-59,-310,1,7,11
1.72313E+12,-7896,624,-584,-26,-72,-311,1,7,11
1.72313E+12,-7895,606,-587,-40,-81,-310,1,7,11
1.72313E+12,-7892,600,-590,-46,-84,-310,1,7,11
1.72313E+12,-7903,602,-585,-65,-82,-319,1,7,11
1.72313E+12,-7925,588,-575,-87,-84,-324,1,7,11
1.72313E+12,-7925,585,-570,-98,-96,-325,1,7,11
1.72313E+12,-7928,569,-555,-107,-104,-326,1,7,11
1.72313E+12,-7929,557,-538,-105,-112,-322,1,7,11
1.72313E+12,-7927,549,-524,-89,-113,-320,1,7,11
1.72313E+12,-7926,542,-515,-45,-111,-316,1,7,11
1.72313E+12,-7925,552,-248,3,-114,-307,1,7,11
1.72313E+12,-7871,590,-531,318,-121,-278,1,7,11
1.72313E+12,-8022,634,-590,332,-75,-263,1,7,11
1.72313E+12,-7665,427,-396,262,322,-315,1,7,11
1.72313E+12,-7612,444,-418,96,542,-188,1,7,11
1.72313E+12,-7607,400,-410,-337,783,-594,1,7,11
1.72313E+12,-7620,605,-400,-198,767,-491,1,7,11
1.72313E+12,-7944,547,-631,-525,988,-888,1,7,11
1.72313E+12,-8036,233,-607,-543,1400,-731,1,7,11
1.72313E+12,-7890,178,-589,-251,1208,-1025,1,7,11
1.72313E+12,-8245,130,-592,-172,1178,-755,1,7,11
1.72313E+12,-8067,321,-607,-330,1324,-706,1,7,11
1.72313E+12,-8121,274,-625,77,904,-892,1,7,11
1.72313E+12,-8165,262,-404,-5,711,-811,1,7,11
1.72313E+12,-8188,256,-452,144,494,-448,1,7,11
1.72313E+12,-8179,256,-777,529,534,-578,1,7,11
1.72313E+12,-8138,270,-853,610,341,-193,1,7,11
1.72313E+12,-8077,261,-896,386,-54,-334,1,7,11
1.72313E+12,-8274,259,-704,388,118,9,1,7,11
1.72313E+12,-8227,261,-721,624,75,70,1,7,11
1.72313E+12,-7924,275,-735,590,57,120,1,7,11
1.72313E+12,-7877,280,-741,538,61,-105,1,7,11
1.72313E+12,-7848,282,-739,224,96,-81,1,7,11
1.72313E+12,-7830,277,-720,381,-122,-90,1,7,11
1.72313E+12,-7816,277,-704,334,-81,-100,1,7,11
1.72313E+12,-7823,297,-708,296,-37,-108,1,7,11
1.72313E+12,-7814,299,-709,-1,-9,-94,1,7,11
1.72313E+12,-8037,295,-712,-39,288,-80,1,7,11
1.72313E+12,-8024,290,-718,-78,349,-82,1,7,11
1.72313E+12,-8005,280,-709,-112,162,-103,1,7,11
1.72313E+12,-8004,271,-703,118,243,104,1,7,11
1.72313E+12,-8018,260,-689,96,582,32,1,7,11
1.72313E+12,-8062,257,-686,98,392,-295,1,7,11
1.72313E+12,-7935,-8,-686,97,621,-146,1,7,11
1.72313E+12,-8219,-9,-704,107,537,-142,1,7,11
1.72313E+12,-8230,-26,-722,114,176,-377,1,7,11
1.72313E+12,-8212,-46,-738,-119,323,-341,1,7,11
1.72313E+12,-8203,-60,-760,-83,-27,-302,1,7,11
1.72313E+12,-7925,-65,-1033,-47,-107,-263,1,7,11
1.72313E+12,-7902,-63,-1046,-19,92,27,1,7,11
1.72313E+12,-7883,-62,-1056,-1,42,63,1,7,11
1.72313E+12,-7855,-48,-1062,271,14,91,1,7,11
1.72313E+12,-7838,-36,-1084,264,3,104,1,7,11
1.72313E+12,-7820,-31,-1087,-24,6,111,1,7,11
1.72313E+12,-7818,-27,-1088,-64,26,101,1,7,11
1.72313E+12,-7813,-22,-1097,-107,46,88,1,7,11
1.72313E+12,-7817,-22,-1095,98,78,65,1,7,11
1.72313E+12,-7824,-23,-1074,42,108,44,1,7,11
1.72313E+12,-7840,-33,-1056,-266,-128,30,1,7,11
1.72313E+12,-7859,-38,-1033,-305,-120,21,1,7,11
1.72313E+12,-7866,-36,-1025,-331,-120,22,1,7,11
1.72313E+12,-7879,-52,-728,-352,118,27,1,7,11
1.72313E+12,-7880,-60,-708,-355,86,43,1,7,11
1.72313E+12,-7874,-66,-700,-339,53,64,1,7,11
1.72313E+12,-7877,-67,-692,-328,31,71,1,7,11
1.72313E+12,-7895,-64,-682,-305,13,74,1,7,11
1.72313E+12,-7899,-48,-682,-272,-266,71,1,7,11
1.72313E+12,-7900,-35,-677,5,-295,79,1,7,11
1.72313E+12,-7889,-24,-670,17,-319,82,1,7,11
1.72313E+12,-7878,-24,-674,18,-345,94,1,7,11
1.72313E+12,-7867,-21,-672,25,-345,92,1,7,11
1.72313E+12,-7878,-19,-670,21,-343,83,1,7,11
1.72313E+12,-7894,-8,-672,10,-349,73,1,7,11
1.72313E+12,-7916,260,-672,-281,-353,60,1,7,11
1.72313E+12,-7926,-9,-662,-312,-353,64,1,7,11
1.72313E+12,-7913,-26,-668,-323,-350,72,1,7,11
1.72313E+12,-7892,-48,-659,-323,-332,85,1,7,11
1.72313E+12,-7875,-50,-652,-327,-291,99,1,7,11
1.72313E+12,-7866,-47,-893,-343,15,122,1,7,11
1.72313E+12,-7845,-65,-877,-377,62,-108,1,7,11
1.72313E+12,-7838,-72,-870,-130,116,-87,1,7,11
1.72313E+12,-7835,-63,-860,-140,-84,-81,1,7,11
1.72313E+12,-7839,-51,-849,-159,-40,-81,1,7,11
1.72313E+12,-7848,-45,-847,-182,-5,-97,1,7,11
1.72313E+12,-7852,-37,-829,-200,263,-124,1,7,11
1.72313E+12,-7853,-35,-823,-194,-3,105,1,7,11
1.72313E+12,-7847,-28,-818,-181,-30,80,1,7,11
1.72313E+12,-7830,-30,-820,-157,-56,63,1,7,11
1.72313E+12,-7824,-21,-824,-378,-70,46,1,7,11
1.72313E+12,-7822,-14,-824,-350,-74,27,1,7,11
1.72313E+12,-7830,-3,-828,-323,-74,4,1,7,11
1.72313E+12,-7844,260,-832,-297,-77,-271,1,7,11
1.72313E+12,-7854,262,-834,-291,-78,-294,1,7,11
1.72313E+12,-7859,258,-844,-288,-75,-311,1,7,11
1.72313E+12,-7877,-5,-843,-298,-65,-324,1,7,11
1.72313E+12,-7886,-22,-845,-296,-61,-323,1,7,11
1.72313E+12,-7894,-25,-842,-285,-53,-314,1,7,11
1.72313E+12,-7907,-38,-840,-270,-42,-298,1,7,11
1.72313E+12,-7899,-40,-845,9,-40,-270,1,7,11
1.72313E+12,-7888,-31,-866,33,-40,32,1,7,11
1.72313E+12,-7858,-17,-644,60,-23,69,1,7,11
1.72313E+12,-7833,262,-673,46,278,96,1,7,11
1.72313E+12,-8038,283,-722,-265,341,108,1,7,11
1.72313E+12,-8006,296,-1028,-362,189,83,1,7,11
1.72313E+12,-8001,287,-1056,-242,579,35,1,7,11
1.72313E+12,-8026,258,-1054,-624,463,-283,1,7,11
1.72313E+12,-8059,-30,-1026,-443,806,-331,1,7,11
1.72313E+12,-7852,-85,-698,-482,837,-368,1,7,11
1.72313E+12,-7904,113,-878,-443,508,-137,1,7,11
1.72313E+12,-8220,89,-842,-593,634,-183,1,7,11
1.72313E+12,-8311,76,-801,-241,172,-250,1,7,11
1.72313E+12,-8146,68,-505,-139,-121,-542,1,7,11
1.72313E+12,-8161,56,-479,-288,-529,-536,1,7,11
1.72313E+12,-8320,55,-483,106,-687,-522,1,7,11
1.72313E+12,-8283,57,-470,279,-988,-560,1,7,11
1.72313E+12,-8247,-92,-822,608,-1212,-204,1,7,11
1.72313E+12,-7885,-13,-669,777,-1261,-271,1,7,11
1.72313E+12,-7821,-102,-654,800,-1363,-80,1,7,11
1.72313E+12,-8013,-109,-719,843,-916,301,1,7,11
1.72313E+12,-7964,-70,-752,478,-672,293,1,7,11
1.72313E+12,-7948,-43,-713,545,-618,-46,1,7,11
1.72313E+12,-8025,264,-702,377,-307,-123,1,7,11
1.72313E+12,-8064,-21,-666,-109,-66,102,1,7,11
1.72313E+12,-7841,-44,-866,-298,144,89,1,7,11
1.72313E+12,-7896,-114,-833,-189,565,72,1,7,11
1.72313E+12,-7892,51,-502,-575,415,64,1,7,11
1.72313E+12,-8238,48,-473,-614,517,42,1,7,11
1.72313E+12,-8283,58,-448,-600,483,55,1,7,11
1.72313E+12,-8319,48,-411,-574,629,91,1,7,11
1.72313E+12,-8312,33,-405,-195,201,-106,1,7,11
1.72313E+12,-8278,96,-476,-328,267,-54,1,7,11
1.72313E+12,-7923,116,-504,-295,-118,-21,1,7,11
1.72313E+12,-7893,-108,-797,-260,103,-43,1,7,11
1.72313E+12,-7840,-91,-814,18,65,-40,1,7,11
1.72313E+12,-7819,-63,-832,59,57,-42,1,7,11
1.72313E+12,-7824,-72,-782,68,42,-47,1,7,11
1.72313E+12,-7847,-93,-475,-115,-268,-67,1,7,11
1.72313E+12,-7874,-85,-478,261,-378,-97,1,7,11
1.72313E+12,-7868,-37,-784,324,-219,-119,1,7,11
1.72313E+12,-7888,-80,-455,264,-252,91,1,7,11
1.72313E+12,-7904,-99,-418,312,-572,40,1,7,11
1.72313E+12,-7910,-87,-416,171,-640,7,1,7,11
1.72313E+12,-7872,-54,-505,527,-388,29,1,7,11
1.72313E+12,-7850,-48,-803,204,-255,25,1,7,11
1.72313E+12,-7877,-12,-829,353,-330,30,1,7,11
1.72313E+12,-7923,-52,-771,-104,93,12,1,7,11
1.72313E+12,-8211,-90,-485,46,-69,26,1,7,11
1.72313E+12,-8231,-89,-486,-280,-12,25,1,7,11
1.72313E+12,-8236,-97,-474,-361,303,30,1,7,11
1.72313E+12,-8269,118,-466,-166,358,45,1,7,11
1.72313E+12,-8229,-104,-460,-212,372,91,1,7,11
1.72313E+12,-8251,109,-398,-244,141,119,1,7,11
1.72313E+12,-8241,-114,-405,-193,353,-98,1,7,11
1.72313E+12,-8195,-110,-388,-159,297,-61,1,7,11
1.72313E+12,-7910,-112,-398,-333,-3,-41,1,7,11
1.72313E+12,-7863,-85,-436,-269,-51,-29,1,7,11
1.72313E+12,-7840,-78,-470,10,-56,-56,1,7,11
1.72313E+12,-7842,-54,-481,14,-40,-107,1,7,11
1.72313E+12,-7853,-56,-482,-323,-17,53,1,7,11
1.72313E+12,-7848,-61,-480,-330,-14,34,1,7,11
1.72313E+12,-7855,-75,-465,-334,-11,9,1,7,11
1.72313E+12,-7875,-78,-463,-316,-8,-266,1,7,11
1.72313E+12,-7900,-81,-473,-304,-15,-276,1,7,11
1.72313E+12,-7915,-82,-475,-295,-33,-274,1,7,11
1.72313E+12,-7914,-92,-488,-293,-49,-262,1,7,11
1.72313E+12,-7921,-108,-492,-298,-54,-264,1,7,11
1.72313E+12,-7924,-115,-486,-285,-59,-267,1,7,11
1.72313E+12,-7928,-102,-490,-270,-61,-268,1,7,11
1.72313E+12,-7935,-94,-505,-273,-63,-265,1,7,11
1.72313E+12,-7905,-110,-506,-299,-79,2,1,7,11
1.72313E+12,-7890,-105,-783,-292,-84,-4,1,7,11
1.72313E+12,-7886,-102,-782,-308,-67,-273,1,7,11
1.72313E+12,-7887,-96,-778,-316,-55,-286,1,7,11
1.72313E+12,-7889,-100,-781,-329,-48,-291,1,7,11
1.72313E+12,-7899,-104,-781,-335,-52,-290,1,7,11
1.72313E+12,-7890,-117,-508,-340,-57,-280,1,7,11
1.72313E+12,-7886,-128,-506,-327,-60,-262,1,7,11
1.72313E+12,-7872,125,-510,-310,-54,13,1,7,11
1.72313E+12,-7862,107,-504,-292,-40,34,1,7,11
1.72313E+12,-7864,102,-504,0,-20,48,1,7,11
1.72313E+12,-7864,92,-499,36,-1,71,1,7,11
1.72313E+12,-7879,52,-456,56,269,71,1,7,11
1.72313E+12,-7906,48,-438,-113,-16,73,1,7,11
1.72313E+12,-7918,70,-435,-28,-79,72,1,7,11
1.72313E+12,-7922,95,-450,285,108,68,1,7,11
1.72313E+12,-7924,121,-483,300,40,56,1,7,11
1.72313E+12,-7914,-115,-507,267,-267,36,1,7,11
1.72313E+12,-7913,-88,-793,-98,-291,-270,1,7,11
1.72313E+12,-7903,-86,-804,61,-293,-296,1,7,11
1.72313E+12,-7911,-86,-814,-288,-260,-323,1,7,11
1.72313E+12,-8201,-93,-793,-131,44,-340,1,7,11
1.72313E+12,-8228,-118,-499,-209,83,-330,1,7,11
1.72313E+12,-8251,117,-458,-235,106,-304,1,7,11
1.72313E+12,-8271,102,-430,-220,109,-263,1,7,11
1.72313E+12,-8265,96,-411,-180,93,42,1,7,11
1.72313E+12,-8246,97,-639,-382,80,89,1,7,11
1.72313E+12,-8220,104,-630,-323,59,-120,1,7,11
1.72313E+12,-8194,108,-390,-269,52,-91,1,7,11
1.72313E+12,-7917,116,-403,36,70,-90,1,7,11
1.72313E+12,-7913,-115,-427,74,95,-112,1,7,11
1.72313E+12,-7912,-91,-439,86,113,117,1,7,11
1.72313E+12,-7904,-85,-451,69,125,99,1,7,11
1.72313E+12,-7881,-97,-456,38,-111,81,1,7,11
1.72313E+12,-7886,-105,-450,9,-80,58,1,7,11
1.72313E+12,-7897,-121,-442,-269,-49,30,1,7,11
1.72313E+12,-7906,-119,-440,-267,-49,19,1,7,11
1.72313E+12,-7912,-125,-433,-269,-67,20,1,7,11
1.72313E+12,-7910,113,-436,-263,-98,28,1,7,11
1.72313E+12,-7906,101,-432,0,-124,26,1,7,11
1.72313E+12,-7907,97,-436,17,109,15,1,7,11
1.72313E+12,-7903,97,-428,31,81,6,1,7,11
1.72313E+12,-7911,112,-437,41,65,-259,1,7,11
1.72313E+12,-7900,111,-449,26,39,5,1,7,11
1.72313E+12,-7875,105,-444,9,34,4,1,7,11
1.72313E+12,-7883,112,-447,-258,48,-269,1,7,11
1.72313E+12,-7901,105,-446,-291,54,-282,1,7,11
1.72313E+12,-7918,101,-440,-312,56,-296,1,7,11
1.72313E+12,-7932,95,-431,-338,53,-306,1,7,11
1.72313E+12,-8195,85,-423,-358,45,-307,1,7,11
1.72313E+12,-8195,83,-419,-373,40,-299,1,7,11
1.72313E+12,-8199,70,-412,-135,47,-294,1,7,11
1.72313E+12,-8203,55,-392,-143,54,-284,1,7,11
1.72313E+12,-8212,46,-627,-139,55,-277,1,7,11
1.72313E+12,-8218,41,-607,-380,54,-273,1,7,11
1.72313E+12,-8220,46,-600,-358,52,-265,1,7,11
1.72313E+12,-8225,47,-599,-335,53,2,1,7,11
1.72313E+12,-8216,50,-597,-320,55,16,1,7,11
1.72313E+12,-8211,49,-598,-309,63,25,1,7,11
1.72313E+12,-8207,49,-594,-295,80,31,1,7,11
1.72313E+12,-8196,62,-594,0,119,13,1,7,11
1.72313E+12,-8194,63,-596,17,127,14,1,7,11
1.72313E+12,-8201,67,-597,23,-122,14,1,7,11
1.72313E+12,-8201,72,-603,29,-119,19,1,7,11
1.72313E+12,-8196,66,-602,28,-118,32,1,7,11
1.72313E+12,-8194,67,-603,45,-113,42,1,7,11
1.72313E+12,-7924,69,-607,50,-112,52,1,7,11
1.72313E+12,-7911,65,-608,45,-104,54,1,7,11
1.72313E+12,-7898,68,-626,47,-99,57,1,7,11
1.72313E+12,-7898,77,-638,39,-85,50,1,7,11
1.72313E+12,-7900,78,-399,19,-67,34,1,7,11
1.72313E+12,-7924,74,-388,-271,-34,3,1,7,11
1.72313E+12,-8209,69,-630,-301,-24,-273,1,7,11
1.72313E+12,-8214,51,-613,-324,-38,-270,1,7,11
1.72313E+12,-8209,32,-608,-333,-50,0,1,7,11
1.72313E+12,-8214,22,-608,-336,-54,14,1,7,11
1.72313E+12,-8217,15,-612,-328,-57,33,1,7,11
1.72313E+12,-8230,19,-605,-314,-65,50,1,7,11
1.72313E+12,-8227,26,-602,-305,-81,70,1,7,11
1.72313E+12,-8214,29,-611,-300,-99,93,1,7,11
1.72313E+12,-8193,30,-602,-298,-107,109,1,7,11
1.72313E+12,-7925,32,-605,-293,-102,110,1,7,11
1.72313E+12,-7911,38,-609,-283,-90,104,1,7,11
1.72313E+12,-7907,59,-601,-289,-70,92,1,7,11
1.72313E+12,-7906,55,-594,-310,-69,91,1,7,11
1.72313E+12,-7885,36,-590,-324,-69,93,1,7,11
1.72313E+12,-7891,33,-591,-305,-51,74,1,7,11
1.72313E+12,-7913,35,-589,-286,-47,52,1,7,11
1.72313E+12,-7922,42,-592,-269,-66,46,1,7,11
1.72313E+12,-7922,41,-595,-258,-88,44,1,7,11
1.72313E+12,-7922,37,-603,6,-100,41,1,7,11
1.72313E+12,-7919,37,-600,18,-106,42,1,7,11
1.72313E+12,-7924,34,-608,30,-100,43,1,7,11
1.72313E+12,-7930,30,-608,42,-87,45,1,7,11
1.72313E+12,-8194,41,-614,57,-78,45,1,7,11
1.72313E+12,-8197,49,-622,54,-72,45,1,7,11
1.72313E+12,-8195,44,-634,45,-64,45,1,7,11
1.72313E+12,-8194,46,-385,37,-60,43,1,7,11
1.72313E+12,-7936,41,-385,12,-55,43,1,7,11
1.72313E+12,-8194,36,-391,-260,-53,47,1,7,11
1.72313E+12,-7935,31,-635,-274,-57,51,1,7,11
1.72313E+12,-8195,27,-634,-281,-61,50,1,7,11
1.72313E+12,-8202,30,-632,-281,-69,56,1,7,11
1.72313E+12,-8199,23,-629,-290,-70,59,1,7,11
1.72313E+12,-8206,13,-616,-294,-74,63,1,7,11
1.72313E+12,-8204,15,-600,-286,-83,71,1,7,11
1.72313E+12,-8193,13,-607,-278,-94,77,1,7,11
1.72313E+12,-7931,29,-611,1,-93,78,1,7,11
1.72313E+12,-7925,43,-611,-258,-86,80,1,7,11
1.72313E+12,-7913,43,-602,-267,-85,86,1,7,11
1.72313E+12,-7903,52,-611,-270,-79,88,1,7,11
1.72313E+12,-7912,48,-620,-284,-68,88,1,7,11
1.72313E+12,-7918,44,-621,-287,-49,65,1,7,11
1.72313E+12,-8205,46,-614,-286,-37,37,1,7,11
1.72313E+12,-8216,44,-608,-282,-53,31,1,7,11
1.72313E+12,-8208,34,-607,-286,-70,39,1,7,11
1.72313E+12,-8195,24,-602,-289,-67,44,1,7,11
1.72313E+12,-7932,18,-601,-284,-62,50,1,7,11
1.72313E+12,-7934,21,-600,-269,-56,53,1,7,11
1.72313E+12,-8193,28,-604,2,-59,56,1,7,11
1.72313E+12,-7935,28,-603,13,-68,65,1,7,11
1.72313E+12,-7911,31,-610,24,-81,67,1,7,11
1.72313E+12,-7905,34,-622,53,-73,64,1,7,11
1.72313E+12,-7906,33,-630,58,-64,54,1,7,11
1.72313E+12,-7911,32,-620,66,-55,36,1,7,11
1.72313E+12,-7924,50,-623,68,-54,24,1,7,11
1.72313E+12,-7921,43,-628,56,-70,27,1,7,11
1.72313E+12,-7902,22,-634,56,-74,28,1,7,11
1.72313E+12,-7918,28,-631,68,-61,10,1,7,11
1.72313E+12,-8198,28,-631,68,-62,-259,1,7,11
1.72313E+12,-8207,24,-640,67,-76,-263,1,7,11
1.72313E+12,-8210,26,-388,69,-93,-260,1,7,11
1.72313E+12,-8208,20,-640,66,-105,4,1,7,11
1.72313E+12,-8201,16,-635,64,-110,8,1,7,11
1.72313E+12,-8193,5,-624,59,-108,6,1,7,11
1.72313E+12,-7935,-261,-614,65,-110,1,1,7,11
1.72313E+12,-7932,-263,-606,82,-115,-263,1,7,11
1.72313E+12,-7932,-267,-603,98,-125,-271,1,7,11
1.72313E+12,-7928,-272,-590,117,120,-280,1,7,11
1.72313E+12,-7924,-289,-582,-120,107,-292,1,7,11
1.72313E+12,-7933,-301,-568,-77,92,-306,1,7,11
1.72313E+12,-7929,-297,-565,-18,64,-307,1,7,11
1.72313E+12,-7929,-293,-569,279,41,-305,1,7,11
1.72313E+12,-7929,-284,-577,305,28,-304,1,7,11
1.72313E+12,-7921,-283,-598,315,19,-296,1,7,11
1.72313E+12,-7923,-280,-604,302,33,-293,1,7,11
1.72313E+12,-7926,-272,-607,274,58,-296,1,7,11
1.72313E+12,-7935,-279,-612,-24,87,-295,1,7,11
1.72313E+12,-8198,-282,-611,-70,115,-291,1,7,11
1.72313E+12,-8200,-296,-608,-113,-111,-286,1,7,11
1.72313E+12,-8208,-308,-600,109,-83,-287,1,7,11
1.72313E+12,-8210,-318,-595,75,-64,-281,1,7,11
1.72313E+12,-8212,-337,-582,51,-53,-266,1,7,11
1.72313E+12,-8207,-350,-575,50,-51,9,1,7,11
1.72313E+12,-8198,-361,-585,60,-52,27,1,7,11
1.72313E+12,-8200,-364,-584,82,-40,23,1,7,11
1.72313E+12,-8226,-346,-586,97,-41,15,1,7,11
1.72313E+12,-8228,-344,-600,96,-64,28,1,7,11
1.72313E+12,-8208,-346,-608,85,-79,41,1,7,11
1.72313E+12,-7936,-349,-611,70,-78,55,1,7,11
1.72313E+12,-7926,-348,-612,56,-61,62,1,7,11
1.72313E+12,-7934,-347,-610,47,-50,66,1,7,11
1.72313E+12,-7933,-342,-616,34,-50,72,1,7,11
1.72313E+12,-7933,-344,-610,23,-61,78,1,7,11
1.72313E+12,-7918,-352,-610,19,-72,75,1,7,11
1.72313E+12,-7912,-353,-617,28,-76,64,1,7,11
1.72313E+12,-7925,-354,-620,29,-72,51,1,7,11
1.72313E+12,-7931,-359,-615,28,-75,40,1,7,11
1.72313E+12,-8197,-335,-613,36,-78,31,1,7,11
1.72313E+12,-8202,-324,-616,17,-98,40,1,7,11
1.72313E+12,-7915,-346,-602,-263,-118,55,1,7,11
1.72313E+12,-7912,-343,-597,4,-105,48,1,7,11
1.72313E+12,-7920,-334,-592,10,-99,34,1,7,11
1.72313E+12,-7928,-336,-586,16,-96,23,1,7,11
1.72313E+12,-8196,-338,-577,18,-97,17,1,7,11
1.72313E+12,-8207,-343,-571,18,-99,16,1,7,11
1.72313E+12,-8201,-360,-563,18,-99,18,1,7,11
1.72313E+12,-8197,-367,-567,25,-86,17,1,7,11
1.72313E+12,-8199,-366,-568,33,-69,17,1,7,11
1.72313E+12,-8212,-367,-569,35,-52,21,1,7,11
1.72313E+12,-8216,-368,-565,36,-45,30,1,7,11
1.72313E+12,-8213,-378,-564,41,-47,51,1,7,11
1.72313E+12,-8205,-381,-577,42,-50,61,1,7,11
1.72313E+12,-8201,-376,-588,54,-48,70,1,7,11
1.72313E+12,-8194,-367,-595,55,-45,76,1,7,11
1.72313E+12,-7936,-360,-602,44,-41,76,1,7,11
1.72313E+12,-7930,-355,-604,29,-43,77,1,7,11
1.72313E+12,-7927,-357,-605,14,-52,68,1,7,11
1.72313E+12,-7918,-362,-603,8,-59,63,1,7,11
1.72313E+12,-7914,-365,-603,6,-61,53,1,7,11
1.72313E+12,-7923,-365,-602,11,-65,43,1,7,11
1.72313E+12,-7928,-372,-588,15,-74,44,1,7,11
1.72313E+12,-7927,-380,-587,26,-85,46,1,7,11
1.72313E+12,-7931,-129,-586,44,-90,43,1,7,11
1.72313E+12,-7927,-381,-579,70,-99,40,1,7,11
1.72313E+12,-7914,-381,-567,85,-113,37,1,7,11
1.72313E+12,-7911,-378,-571,105,-114,37,1,7,11
1.72313E+12,-7911,-132,-577,119,-112,33,1,7,11
1.72313E+12,-7900,-138,-588,-107,-103,27,1,7,11
1.72313E+12,-7925,-378,-596,-81,-77,6,1,7,11
1.72313E+12,-8199,-373,-607,-85,-78,1,1,7,11
1.72313E+12,-8204,-384,-617,-98,-79,10,1,7,11
1.72313E+12,-8198,-130,-624,-118,-70,24,1,7,11
1.72313E+12,-8194,-146,-632,112,-49,33,1,7,11
1.72313E+12,-8197,-150,-619,104,-28,46,1,7,11
1.72313E+12,-8209,-144,-618,101,-20,60,1,7,11
1.72313E+12,-8211,-148,-617,95,-29,81,1,7,11
1.72313E+12,-8201,-157,-614,94,-50,97,1,7,11
1.72313E+12,-7928,-158,-616,100,-69,103,1,7,11
1.72313E+12,-7910,-155,-618,114,-82,93,1,7,11
1.72313E+12,-7910,-154,-606,118,-87,52,1,7,11
1.72313E+12,-7932,-133,-602,-124,-89,28,1,7,11
1.72313E+12,-7930,-136,-604,-124,-118,38,1,7,11
1.72313E+12,-7911,-157,-595,124,121,45,1,7,11
1.72313E+12,-7914,-147,-603,-116,125,35,1,7,11
1.72313E+12,-7925,-141,-594,-111,124,27,1,7,11
1.72313E+12,-7932,-139,-587,-114,115,16,1,7,11
1.72313E+12,-8194,-139,-585,-108,108,10,1,7,11
1.72313E+12,-8196,-135,-587,-110,100,7,1,7,11
1.72313E+12,-8194,-133,-581,-118,97,8,1,7,11
1.72313E+12,-7935,-141,-590,125,105,10,1,7,11
1.72313E+12,-7934,-149,-579,117,121,10,1,7,11
1.72313E+12,-8195,-154,-559,119,-119,12,1,7,11
1.72313E+12,-8201,-159,-556,124,-109,11,1,7,11
1.72313E+12,-8202,-157,-548,-118,-99,8,1,7,11
1.72313E+12,-8198,-158,-553,-105,-100,7,1,7,11
1.72313E+12,-8193,-162,-554,-100,-101,8,1,7,11
1.72313E+12,-7935,-166,-545,-93,-103,6,1,7,11
1.72313E+12,-7923,-172,-557,-83,-99,4,1,7,11
1.72313E+12,-7920,-181,-560,-77,-89,-265,1,7,11
1.72313E+12,-7918,-184,-565,-68,-85,-279,1,7,11
1.72313E+12,-7911,-189,-574,-64,-84,-293,1,7,11
1.72313E+12,-7896,-176,-596,-56,-82,-299,1,7,11
1.72313E+12,-7884,-167,-622,-74,-65,-304,1,7,11
1.72313E+12,-7885,-179,-627,-117,-36,-309,1,7,11
1.72313E+12,-7893,-204,-622,102,-10,-317,1,7,11
1.72313E+12,-7912,-227,-616,87,259,-326,1,7,11
1.72313E+12,-7933,-235,-618,81,262,-337,1,7,11
1.72313E+12,-8195,-253,-607,66,-3,-330,1,7,11
1.72313E+12,-7930,-525,-599,68,-19,-313,1,7,11
1.72313E+12,-7928,-537,-604,73,-26,-298,1,7,11
1.72313E+12,-7928,-568,-605,82,-32,-285,1,7,11
1.72313E+12,-7936,-576,-607,113,-21,-293,1,7,11
1.72313E+12,-8218,-568,-614,-115,-23,-306,1,7,11
1.72313E+12,-8225,-562,-622,-101,-45,-305,1,7,11
1.72313E+12,-8222,-561,-626,-104,-59,-302,1,7,11
1.72313E+12,-8227,-560,-620,-115,-64,-296,1,7,11
1.72313E+12,-8228,-555,-619,-109,-75,-287,1,7,11
1.72313E+12,-8214,-544,-610,-102,-88,-274,1,7,11
1.72313E+12,-8204,-540,-617,-98,-100,-260,1,7,11
1.72313E+12,-7926,-539,-611,-100,-116,5,1,7,11
1.72313E+12,-7899,-543,-613,-93,120,14,1,7,11
1.72313E+12,-7893,-536,-609,-89,112,-265,1,7,11
1.72313E+12,-7891,-530,-606,-90,107,-295,1,7,11
1.72313E+12,-7897,-253,-609,-96,101,-329,1,7,11
1.72313E+12,-7909,-234,-620,124,88,-358,1,7,11
1.72313E+12,-7906,-241,-623,59,63,-383,1,7,11
1.72313E+12,-7896,-515,-613,-262,43,-159,1,7,11
1.72313E+12,-7904,-528,-606,-309,45,-199,1,7,11
1.72313E+12,-7922,-545,-584,-357,50,-236,1,7,11
1.72313E+12,-7933,-588,-555,-137,50,-251,1,7,11
1.72313E+12,-8206,-628,-531,-147,64,-515,1,7,11
1.72313E+12,-8221,-404,-248,-134,80,-255,1,7,11
1.72313E+12,-8234,-427,-230,-356,99,-241,1,7,11
1.72313E+12,-8243,-449,-219,-316,113,-214,1,7,11
1.72313E+12,-8239,-469,-211,-273,123,-180,1,7,11
1.72313E+12,-8237,-476,-205,31,-120,-148,1,7,11
1.72313E+12,-8229,-477,-223,75,-113,-375,1,7,11
1.72313E+12,-8221,-474,-229,121,-109,-355,1,7,11
1.72313E+12,-8206,-461,-253,-98,-108,-339,1,7,11
1.72313E+12,-8198,-458,-517,-70,-104,-337,1,7,11
1.72313E+12,-7928,-448,-531,-37,-118,-329,1,7,11
1.72313E+12,-7914,-435,-544,-22,127,-338,1,7,11
1.72313E+12,-7905,-434,-543,-13,115,-346,1,7,11
1.72313E+12,-7903,-429,-542,-7,101,-362,1,7,11
1.72313E+12,-7896,-432,-537,-1,85,-376,1,7,11
1.72313E+12,-7893,-443,-537,260,73,-141,1,7,11
1.72313E+12,-7901,-450,-532,271,65,-165,1,7,11
1.72313E+12,-7913,-444,-528,284,56,-182,1,7,11
1.72313E+12,-7918,-458,-513,275,43,-185,1,7,11
1.72313E+12,-7916,-483,-246,284,40,-180,1,7,11
1.72313E+12,-7919,-496,-243,304,43,-182,1,7,11
1.72313E+12,-7926,-785,-215,312,52,-184,1,7,11
1.72313E+12,-7920,-791,-211,339,56,-180,1,7,11
1.72313E+12,-7925,-794,-219,355,61,-181,1,7,11
1.72313E+12,-8198,-826,-212,347,73,-188,1,7,11
1.72313E+12,-8206,-850,-200,336,90,-196,1,7,11
1.72313E+12,-8220,-870,-193,347,92,-198,1,7,11
1.72313E+12,-8217,-892,-188,350,94,-183,1,7,11
1.72313E+12,-8208,-651,-194,362,101,-155,1,7,11
1.72313E+12,-8200,-678,-197,356,119,-381,1,7,11
1.72313E+12,-8193,-700,-197,362,-116,-354,1,7,11
1.72313E+12,-7934,-715,-200,379,-100,-341,1,7,11
1.72313E+12,-8199,-735,-209,133,-99,-341,1,7,11
1.72313E+12,-8211,-739,-201,159,-111,-350,1,7,11
1.72313E+12,-8234,-732,-191,186,119,-354,1,7,11
1.72313E+12,-8250,-711,-198,217,79,-342,1,7,11
1.72313E+12,-8257,-696,-197,234,24,-317,1,7,11
1.72313E+12,-8256,-673,-205,243,-277,-279,1,7,11
1.72313E+12,-8258,-661,-203,227,-316,14,1,7,11
1.72313E+12,-8227,-670,-195,192,-352,49,1,7,11
1.72313E+12,-8212,-674,-197,166,-359,67,1,7,11
1.72313E+12,-8197,-668,-194,128,-354,72,1,7,11
1.72313E+12,-7930,-668,-203,328,-341,71,1,7,11
1.72313E+12,-7920,-667,-206,266,-316,70,1,7,11
1.72313E+12,-7929,-664,-195,-67,-285,62,1,7,11
1.72313E+12,-7929,-665,-176,119,-265,67,1,7,11
1.72313E+12,-8195,-679,-151,51,11,66,1,7,11
1.72313E+12,-8196,-700,-380,0,21,69,1,7,11
1.72313E+12,-8205,-717,-361,-282,39,60,1,7,11
1.72313E+12,-8205,-731,-343,-289,48,53,1,7,11
1.72313E+12,-8209,-741,-330,-278,64,42,1,7,11
1.72313E+12,-8215,-751,-319,1,71,36,1,7,11
1.72313E+12,-8210,-749,-316,30,77,38,1,7,11
1.72313E+12,-8220,-734,-317,53,86,40,1,7,11
1.72313E+12,-8214,-722,-326,60,91,45,1,7,11
1.72313E+12,-8212,-715,-328,61,109,43,1,7,11
1.72313E+12,-8221,-703,-327,52,112,36,1,7,11
1.72313E+12,-8216,-690,-322,35,106,32,1,7,11
1.72313E+12,-8208,-686,-323,7,106,27,1,7,11
1.72313E+12,-8206,-688,-316,-280,119,25,1,7,11
1.72313E+12,-8203,-711,-297,-303,-118,27,1,7,11
1.72313E+12,-8196,-737,-288,-298,-103,36,1,7,11
1.72313E+12,-7932,-752,-279,-271,-89,39,1,7,11
1.72313E+12,-7927,-759,-287,22,-77,39,1,7,11
1.72313E+12,-7921,-1028,-304,46,-66,35,1,7,11
1.72313E+12,-7918,-1025,-320,77,-59,32,1,7,11
1.72313E+12,-7926,-756,-350,85,-48,23,1,7,11
1.72313E+12,-8198,-751,-366,67,-30,2,1,7,11
1.72313E+12,-8236,-726,-384,46,-20,-274,1,7,11
1.72313E+12,-8260,-709,-131,-259,-30,-274,1,7,11
1.72313E+12,-8260,-713,-134,-315,-58,3,1,7,11
1.72313E+12,-8249,-720,-383,-374,-75,30,1,7,11
1.72313E+12,-8235,-744,-355,-159,-80,57,1,7,11
1.72313E+12,-8233,-748,-347,-177,-82,74,1,7,11
1.72313E+12,-8229,-750,-320,-181,-84,89,1,7,11
1.72313E+12,-8228,-746,-312,-174,-94,103,1,7,11
1.72313E+12,-8206,-746,-299,-165,-109,119,1,7,11
1.72313E+12,-7933,-744,-298,-149,-115,125,1,7,11
1.72313E+12,-7922,-735,-300,-133,-112,122,1,7,11
1.72313E+12,-7912,-747,-292,-379,-104,109,1,7,11
1.72313E+12,-7924,-724,-297,-346,-93,92,1,7,11
1.72313E+12,-7921,-719,-304,-342,-99,87,1,7,11
1.72313E+12,-7904,-734,-299,-344,-104,85,1,7,11
1.72313E+12,-7907,-726,-305,-324,-84,60,1,7,11
1.72313E+12,-7936,-711,-305,-311,-76,34,1,7,11
1.72313E+12,-8206,-706,-308,-309,-91,20,1,7,11
1.72313E+12,-8219,-701,-311,-310,-111,15,1,7,11
1.72313E+12,-8225,-710,-322,-324,-126,13,1,7,11
1.72313E+12,-8215,-713,-313,-341,120,15,1,7,11
1.72313E+12,-8218,-717,-315,-351,123,16,1,7,11
1.72313E+12,-8220,-731,-314,-357,126,18,1,7,11
1.72313E+12,-8225,-730,-307,-353,-121,21,1,7,11
1.72313E+12,-8231,-724,-303,-351,-114,32,1,7,11
1.72313E+12,-8240,-724,-291,-352,-101,44,1,7,11
1.72313E+12,-8241,-724,-287,-353,-94,58,1,7,11
1.72313E+12,-8233,-730,-284,-345,-93,88,1,7,11
1.72313E+12,-8225,-724,-281,-323,-92,100,1,7,11
1.72313E+12,-8219,-712,-274,-313,-88,102,1,7,11
1.72313E+12,-8223,-690,-276,-301,-86,96,1,7,11
1.72313E+12,-8223,-677,-278,-300,-89,92,1,7,11
1.72313E+12,-8212,-668,-278,-315,-85,95,1,7,11
1.72313E+12,-8199,-671,-265,-321,-74,91,1,7,11
1.72313E+12,-7928,-692,-267,-325,-62,93,1,7,11
1.72313E+12,-7915,-717,-260,-304,-47,91,1,7,11
1.72313E+12,-7905,-723,-262,-268,-36,79,1,7,11
1.72313E+12,-7896,-726,-270,25,-31,67,1,7,11
1.72313E+12,-7895,-730,-294,56,-28,45,1,7,11
1.72313E+12,-7908,-721,-315,94,-18,27,1,7,11
1.72313E+12,-7921,-726,-340,87,-9,11,1,7,11
1.72313E+12,-8209,-716,-364,81,259,-272,1,7,11
1.72313E+12,-8235,-710,-363,53,-13,-278,1,7,11
1.72313E+12,-8230,-722,-364,27,-45,-269,1,7,11
1.72313E+12,-8217,-725,-366,-257,-62,0,1,7,11
1.72313E+12,-8208,-742,-359,-281,-64,16,1,7,11
1.72313E+12,-8207,-755,-345,-285,-65,30,1,7,11
1.72313E+12,-8210,-755,-340,-279,-66,43,1,7,11
1.72313E+12,-8209,-753,-348,-277,-71,57,1,7,11
1.72313E+12,-8200,-750,-343,-279,-78,68,1,7,11
1.72313E+12,-8195,-753,-336,-280,-83,78,1,7,11
1.72313E+12,-7929,-756,-332,-282,-78,75,1,7,11
1.72313E+12,-7928,-761,-336,-285,-71,66,1,7,11
1.72313E+12,-7927,-754,-332,-276,-66,52,1,7,11
1.72313E+12,-8196,-733,-337,-275,-62,46,1,7,11
1.72313E+12,-7930,-752,-335,-295,-73,50,1,7,11
1.72313E+12,-7918,-760,-326,-284,-71,49,1,7,11
1.72313E+12,-7935,-748,-331,-265,-63,35,1,7,11
1.72313E+12,-8207,-736,-337,10,-72,26,1,7,11
1.72313E+12,-8206,-731,-348,17,-93,23,1,7,11
1.72313E+12,-8201,-734,-354,20,-112,21,1,7,11
1.72313E+12,-8198,-732,-360,19,-118,18,1,7,11
1.72313E+12,-8201,-726,-369,11,-115,21,1,7,11
1.72313E+12,-8205,-735,-359,-261,-105,25,1,7,11
1.72313E+12,-8212,-734,-361,-274,-93,29,1,7,11
1.72313E+12,-8217,-731,-354,-292,-88,34,1,7,11
1.72313E+12,-8219,-731,-342,-311,-82,39,1,7,11
1.72313E+12,-8214,-741,-317,-323,-79,48,1,7,11
1.72313E+12,-8209,-749,-305,-330,-71,56,1,7,11
1.72313E+12,-8203,-760,-294,-312,-67,61,1,7,11
1.72313E+12,-8209,-761,-290,-296,-61,66,1,7,11
1.72313E+12,-8211,-761,-297,-277,-59,70,1,7,11
1.72313E+12,-8211,-750,-297,-270,-58,72,1,7,11
1.72313E+12,-8214,-743,-303,-276,-49,72,1,7,11
1.72313E+12,-8218,-736,-304,-285,-42,73,1,7,11
1.72313E+12,-8215,-734,-296,-286,-41,78,1,7,11
1.72313E+12,-8196,-737,-292,-285,-43,84,1,7,11
1.72313E+12,-8194,-734,-295,-275,-33,77,1,7,11
1.72313E+12,-8196,-723,-301,-266,-25,70,1,7,11
1.72313E+12,-7930,-739,-295,-265,-22,66,1,7,11
1.72313E+12,-7908,-747,-299,19,-22,63,1,7,11
1.72313E+12,-7900,-754,-323,44,-11,53,1,7,11
1.72313E+12,-7901,-767,-332,60,265,23,1,7,11
1.72313E+12,-7934,-756,-341,90,284,-272,1,7,11
1.72313E+12,-8216,-749,-355,93,270,-286,1,7,11
1.72313E+12,-8220,-752,-367,86,-12,-280,1,7,11
1.72313E+12,-8209,-759,-132,66,-24,-269,1,7,11
1.72313E+12,-8208,-1026,-135,30,-17,3,1,7,11
1.72313E+12,-8210,-1027,-135,17,-16,14,1,7,11
1.72313E+12,-8219,-768,-133,11,-17,27,1,7,11
1.72313E+12,-8215,-1029,-137,-259,-28,42,1,7,11
1.72313E+12,-8196,-1035,-138,-269,-47,62,1,7,11
1.72313E+12,-7930,-1032,-141,-266,-53,60,1,7,11
1.72313E+12,-7931,-1046,-138,-275,-40,53,1,7,11
1.72313E+12,-7929,-1037,-379,-282,-12,41,1,7,11
1.72313E+12,-8201,-765,-384,-271,-3,37,1,7,11
1.72313E+12,-8194,-1039,-384,-290,-16,54,1,7,11
1.72313E+12,-7920,-1050,-379,-286,-17,58,1,7,11
1.72313E+12,-7934,-1043,-379,-271,-11,48,1,7,11
1.72313E+12,-8200,-1038,-377,-257,-23,42,1,7,11
1.72313E+12,-8196,-1034,-136,4,-40,36,1,7,11
1.72313E+12,-7936,-1032,-138,5,-54,39,1,7,11
1.72313E+12,-7933,-1034,-136,2,-67,43,1,7,11
1.72313E+12,-7926,-1032,-136,-257,-69,46,1,7,11
1.72313E+12,-7925,-1041,-137,-260,-63,48,1,7,11
1.72313E+12,-7927,-1046,-129,-257,-55,46,1,7,11
1.72313E+12,-7927,-1041,-137,4,-51,42,1,7,11
1.72313E+12,-7929,-1038,-140,6,-51,42,1,7,11
1.72313E+12,-7934,-1040,-135,7,-54,40,1,7,11
1.72313E+12,-7934,-1032,-143,24,-66,48,1,7,11
1.72313E+12,-7930,-1030,-149,18,-69,48,1,7,11
1.72313E+12,-7932,-1041,-141,12,-65,55,1,7,11
1.72313E+12,-8194,-1043,-139,7,-60,57,1,7,11
1.72313E+12,-8202,-1047,-139,0,-64,64,1,7,11
1.72313E+12,-8208,-1041,-142,-261,-65,71,1,7,11
1.72313E+12,-8206,-1040,-141,-269,-68,74,1,7,11
1.72313E+12,-8207,-1034,-382,-271,-69,74,1,7,11
1.72313E+12,-8199,-1036,-136,-275,-75,80,1,7,11
1.72313E+12,-8193,-1039,-140,-264,-72,82,1,7,11
1.72313E+12,-8193,-768,-137,3,-64,78,1,7,11
1.72313E+12,-7927,-1030,-136,-263,-59,79,1,7,11
1.72313E+12,-7911,-1039,-134,-260,-57,80,1,7,11
1.72313E+12,-7907,-1036,-139,9,-50,79,1,7,11
1.72313E+12,-7895,-1049,-140,12,-41,73,1,7,11
1.72313E+12,-7908,-1048,-139,33,-16,49,1,7,11
1.72313E+12,-8198,-1036,-150,49,-11,25,1,7,11
1.72313E+12,-8207,-1041,-152,47,-36,25,1,7,11
1.72313E+12,-8196,-1048,-155,44,-50,28,1,7,11
1.72313E+12,-7926,-1052,-160,36,-50,33,1,7,11
1.72313E+12,-7924,-1060,-156,31,-43,36,1,7,11
1.72313E+12,-7926,-1052,-163,31,-35,43,1,7,11
1.72313E+12,-7931,-1051,-165,21,-36,53,1,7,11
1.72313E+12,-7928,-1050,-168,7,-46,66,1,7,11
1.72313E+12,-7917,-1052,-167,0,-55,74,1,7,11
1.72313E+12,-7912,-1052,-162,0,-58,74,1,7,11
1.72313E+12,-7909,-1054,-165,2,-55,65,1,7,11
1.72313E+12,-7912,-1056,-165,5,-49,52,1,7,11
1.72313E+12,-7928,-1032,-169,16,-42,43,1,7,11
1.72313E+12,-7928,-1035,-176,-257,-56,52,1,7,11
1.72313E+12,-7910,-1061,-176,-268,-59,58,1,7,11
1.72313E+12,-7917,-1055,-184,3,-49,50,1,7,11
1.72313E+12,-7935,-1050,-183,7,-49,37,1,7,11
1.72313E+12,-8198,-1046,-189,11,-65,32,1,7,11
1.72313E+12,-8202,-1042,-195,-258,-72,27,1,7,11
1.72313E+12,-8206,-1037,-199,-284,-77,30,1,7,11
1.72313E+12,-8195,-1050,-188,-313,-82,37,1,7,11
1.72313E+12,-7932,-1060,-179,-329,-75,42,1,7,11
1.72313E+12,-7929,-1072,-173,-336,-62,43,1,7,11
1.72313E+12,-7931,-1075,-161,-329,-54,43,1,7,11
1.72313E+12,-8193,-1073,-164,-309,-49,47,1,7,11
1.72313E+12,-8194,-1071,-172,-294,-52,56,1,7,11
1.72313E+12,-7929,-1062,-178,-289,-56,66,1,7,11
1.72313E+12,-7902,-1063,-177,-303,-61,79,1,7,11
1.72313E+12,-7905,-1061,-182,-302,-46,75,1,7,11
1.72313E+12,-7912,-1047,-191,-315,-40,65,1,7,11
1.72313E+12,-7915,-1046,-193,-342,-42,56,1,7,11
1.72313E+12,-7910,-1050,-205,-358,-51,49,1,7,11
1.72313E+12,-7899,-1054,-201,-369,-49,42,1,7,11
1.72313E+12,-7907,-1076,-179,-379,-43,28,1,7,11
1.72313E+12,-7909,-1047,-189,-333,-48,38,1,7,11
1.72313E+12,-7914,-1066,-178,-356,-52,38,1,7,11
1.72313E+12,-7912,-1073,-183,-339,-65,47,1,7,11
1.72313E+12,-7911,-1059,-185,-315,-74,48,1,7,11
1.72313E+12,-7907,-1068,-173,-317,-78,48,1,7,11
1.72313E+12,-7903,-1063,-181,-297,-81,56,1,7,11
1.72313E+12,-7902,-1067,-193,-284,-80,56,1,7,11
1.72313E+12,-7913,-1070,-203,-277,-65,47,1,7,11
1.72313E+12,-8216,-1049,-208,-260,-39,31,1,7,11
1.72313E+12,-8235,-1043,-210,-272,-33,14,1,7,11
1.72313E+12,-8215,-1054,-210,-290,-49,33,1,7,11
1.72313E+12,-8194,-1058,-220,-306,-52,49,1,7,11
1.72313E+12,-7923,-1070,-216,-329,-34,57,1,7,11
1.72313E+12,-7922,-1071,-215,-341,-5,63,1,7,11
1.72313E+12,-7922,-1062,-209,-342,267,71,1,7,11
1.72313E+12,-7919,-1061,-203,-340,268,89,1,7,11
1.72313E+12,-7907,-1058,-208,-326,261,100,1,7,11
1.72313E+12,-7891,-1057,-207,-307,-5,104,1,7,11
1.72313E+12,-7890,-1055,-221,-288,-1,95,1,7,11
1.72313E+12,-7896,-1059,-220,-279,257,83,1,7,11
1.72313E+12,-7897,-1045,-225,1,258,72,1,7,11
1.72313E+12,-7910,-1032,-233,1,-3,64,1,7,11
1.72313E+12,-7891,-1043,-226,-270,-17,69,1,7,11
1.72313E+12,-7889,-1055,-220,-260,-17,62,1,7,11
1.72313E+12,-7894,-1050,-230,3,-22,44,1,7,11
1.72313E+12,-7906,-1049,-238,2,-30,29,1,7,11
1.72313E+12,-7914,-1048,-239,-258,-40,15,1,7,11
1.72313E+12,-7918,-1050,-246,-261,-46,9,1,7,11
1.72313E+12,-7923,-1056,-248,-266,-50,11,1,7,11
1.72313E+12,-7925,-1065,-246,-274,-49,17,1,7,11
1.72313E+12,-7925,-1078,-240,-278,-50,24,1,7,11
1.72313E+12,-7921,-1085,-247,-266,-51,35,1,7,11
1.72313E+12,-7923,-1086,-244,1,-51,41,1,7,11
1.72313E+12,-7922,-1082,-241,13,-50,45,1,7,11
1.72313E+12,-7926,-1073,-243,15,-50,47,1,7,11
1.72313E+12,-7924,-1072,-249,11,-51,51,1,7,11
1.72313E+12,-7921,-1060,-242,11,-52,54,1,7,11
1.72313E+12,-7928,-1046,-244,5,-51,53,1,7,11
1.72313E+12,-7925,-1043,-247,-266,-55,54,1,7,11
1.72313E+12,-7919,-1045,-239,-278,-60,52,1,7,11
1.72313E+12,-7919,-1056,-231,-273,-74,54,1,7,11
1.72313E+12,-7900,-1068,-226,-261,-84,58,1,7,11
1.72313E+12,-7896,-1080,-224,11,-75,51,1,7,11
1.72313E+12,-7903,-1078,-228,34,-65,43,1,7,11
1.72313E+12,-7904,-1090,-236,50,-59,42,1,7,11
1.72313E+12,-7914,-1078,-250,74,-53,39,1,7,11
1.72313E+12,-7924,-1070,-513,81,-50,40,1,7,11
1.72313E+12,-7912,-1068,-516,71,-56,50,1,7,11
1.72313E+12,-7896,-1072,-531,63,-55,60,1,7,11
1.72313E+12,-7888,-1090,-532,48,-43,66,1,7,11
1.72313E+12,-7897,-1094,-534,32,-28,47,1,7,11
1.72313E+12,-7920,-1085,-532,40,-18,27,1,7,11
1.72313E+12,-7936,-1084,-534,42,-34,20,1,7,11
1.72313E+12,-7931,-1091,-533,34,-53,25,1,7,11
1.72313E+12,-7922,-1100,-531,21,-65,34,1,7,11
1.72313E+12,-7912,-1110,-534,12,-63,42,1,7,11
1.72313E+12,-7907,-1109,-540,14,-54,51,1,7,11
1.72313E+12,-7909,-1109,-531,8,-49,59,1,7,11
1.72313E+12,-7909,-1111,-534,3,-57,70,1,7,11
1.72313E+12,-7904,-1108,-537,2,-68,77,1,7,11
1.72313E+12,-7901,-1106,-535,9,-79,75,1,7,11
1.72313E+12,-7896,-1109,-529,9,-85,66,1,7,11
1.72313E+12,-7887,-1099,-535,17,-86,58,1,7,11
1.72313E+12,-7896,-1082,-548,11,-79,52,1,7,11
1.72313E+12,-7887,-1091,-546,-263,-79,54,1,7,11
1.72313E+12,-7878,-1105,-539,-270,-73,52,1,7,11
1.72313E+12,-7889,-1103,-535,-267,-68,41,1,7,11
1.72313E+12,-7906,-1092,-539,-266,-76,27,1,7,11
1.72313E+12,-7914,-1092,-539,-277,-83,24,1,7,11
1.72313E+12,-7924,-1093,-531,-287,-92,27,1,7,11
1.72313E+12,-7923,-1098,-521,-297,-103,33,1,7,11
1.72313E+12,-7920,-1105,-518,-299,-110,40,1,7,11
1.72313E+12,-7913,-1117,-516,-295,-114,45,1,7,11
1.72313E+12,-7903,-1121,-254,-283,-113,49,1,7,11
1.72313E+12,-7901,-1110,-518,-267,-108,48,1,7,11
1.72313E+12,-7915,-1099,-515,-264,-102,50,1,7,11
1.72313E+12,-7915,-1097,-246,-272,-96,53,1,7,11
1.72313E+12,-7908,-1099,-250,-279,-99,56,1,7,11
1.72313E+12,-7906,-1103,-246,-280,-101,57,1,7,11
1.72313E+12,-7907,-1103,-244,-276,-102,55,1,7,11
1.72313E+12,-7913,-1100,-233,-271,-107,54,1,7,11
1.72313E+12,-7912,-1103,-237,-269,-116,50,1,7,11
1.72313E+12,-7913,-1105,-244,-264,-123,50,1,7,11
1.72313E+12,-7916,-1103,-245,-258,-127,49,1,7,11
1.72313E+12,-7918,-1102,-248,2,-123,46,1,7,11
1.72313E+12,-7921,-1095,-253,6,-120,48,1,7,11
1.72313E+12,-7923,-1091,-255,8,-123,55,1,7,11
1.72313E+12,-7921,-1081,-522,4,-128,64,1,7,11
1.72313E+12,-7927,-1072,-520,-258,127,73,1,7,11
1.72313E+12,-7922,-1073,-253,-274,121,84,1,7,11
1.72313E+12,-7901,-1079,-234,-285,120,99,1,7,11
1.72313E+12,-7891,-1092,-233,-283,-124,97,1,7,11
1.72313E+12,-7894,-1093,-220,-273,-109,75,1,7,11
1.72313E+12,-7926,-1081,-221,-257,-96,46,1,7,11
1.72313E+12,-8199,-1074,-228,-259,-103,30,1,7,11
1.72313E+12,-8194,-1088,-224,-271,-112,36,1,7,11
1.72313E+12,-7919,-1106,-211,-279,-113,43,1,7,11
1.72313E+12,-7909,-1125,-197,-277,-100,43,1,7,11
1.72313E+12,-7908,-1133,-204,-258,-87,42,1,7,11
1.72313E+12,-7910,-1127,-220,29,-75,46,1,7,11
1.72313E+12,-7924,-1122,-232,42,-72,55,1,7,11
1.72313E+12,-7916,-1120,-237,45,-81,70,1,7,11
1.72313E+12,-7907,-1119,-253,52,-90,79,1,7,11
1.72313E+12,-7900,-1124,-518,50,-94,76,1,7,11
1.72313E+12,-7899,-1121,-531,48,-94,70,1,7,11
1.72313E+12,-7907,-1097,-549,42,-91,66,1,7,11
1.72313E+12,-7908,-1093,-554,9,-100,75,1,7,11
1.72313E+12,-7891,-1121,-534,-282,-110,85,1,7,11
1.72313E+12,-7896,-1116,-528,-285,-98,76,1,7,11
1.72313E+12,-7912,-1112,-533,-298,-99,62,1,7,11
1.72313E+12,-7920,-1113,-523,-310,-111,57,1,7,11
1.72313E+12,-7928,-1113,-529,-323,-125,52,1,7,11
1.72313E+12,-7927,-1109,-521,-336,123,56,1,7,11
1.72313E+12,-7927,-1116,-251,-347,123,70,1,7,11
1.72313E+12,-7921,-1124,-239,-353,-126,82,1,7,11
1.72313E+12,-7918,-1125,-238,-343,-115,89,1,7,11
1.72313E+12,-7926,-1119,-236,-330,-107,97,1,7,11
1.72313E+12,-7925,-1107,-234,-325,-98,108,1,7,11
1.72313E+12,-7922,-1100,-225,-324,-89,115,1,7,11
1.72313E+12,-7917,-1106,-226,-323,-82,122,1,7,11
1.72313E+12,-7910,-1104,-224,-318,-79,127,1,7,11
1.72313E+12,-7905,-1094,-226,-317,-75,122,1,7,11
1.72313E+12,-7898,-1088,-226,-315,-72,119,1,7,11
1.72313E+12,-7889,-1085,-224,-317,-73,107,1,7,11
1.72313E+12,-7890,-1080,-230,-314,-73,100,1,7,11
1.72313E+12,-7896,-1069,-232,-318,-71,95,1,7,11
1.72313E+12,-7896,-1076,-229,-325,-72,90,1,7,11
1.72313E+12,-7896,-1089,-229,-326,-76,90,1,7,11
1.72313E+12,-7896,-1092,-236,-313,-80,87,1,7,11
1.72313E+12,-7886,-1086,-221,-299,-84,81,1,7,11
1.72313E+12,-7882,-1089,-224,-296,-87,71,1,7,11
1.72313E+12,-7875,-1091,-225,-292,-100,75,1,7,11
1.72313E+12,-7881,-1077,-239,-278,-100,69,1,7,11
1.72313E+12,-7893,-1079,-244,-287,-101,61,1,7,11
1.72313E+12,-7906,-1079,-240,-284,-95,46,1,7,11
1.72313E+12,-7936,-1056,-240,-286,-95,30,1,7,11
1.72313E+12,-8204,-1048,-234,-303,-108,36,1,7,11
1.72313E+12,-8198,-1046,-227,-323,-116,48,1,7,11
1.72313E+12,-7932,-1064,-204,-351,-110,63,1,7,11
1.72313E+12,-7924,-1070,-188,-361,-98,73,1,7,11
1.72313E+12,-7914,-1082,-177,-348,-92,80,1,7,11
1.72313E+12,-7905,-1086,-167,-320,-83,82,1,7,11
1.72313E+12,-7901,-1079,-163,-288,-80,83,1,7,11
1.72313E+12,-7897,-1081,-173,-265,-78,83,1,7,11
1.72313E+12,-7883,-1082,-191,11,-72,83,1,7,11
1.72313E+12,-7884,-1094,-199,35,-63,73,1,7,11
1.72313E+12,-7893,-1075,-206,59,-60,50,1,7,11
1.72313E+12,-7903,-1063,-226,76,-61,47,1,7,11
1.72313E+12,-7886,-1084,-234,61,-74,51,1,7,11
1.72313E+12,-7887,-1084,-236,69,-65,40,1,7,11
1.72313E+12,-7915,-1075,-513,65,-68,13,1,7,11
1.72313E+12,-7922,-1073,-515,50,-81,7,1,7,11
1.72313E+12,-7924,-1074,-250,31,-91,4,1,7,11
1.72313E+12,-7927,-1082,-248,11,-94,8,1,7,11
1.72313E+12,-7923,-1090,-239,0,-89,14,1,7,11
1.72313E+12,-7924,-1100,-236,0,-81,19,1,7,11
1.72313E+12,-7925,-1104,-235,7,-75,26,1,7,11
1.72313E+12,-7928,-1110,-240,13,-70,36,1,7,11
1.72313E+12,-7928,-1108,-236,17,-65,44,1,7,11
1.72313E+12,-7927,-1110,-229,18,-60,53,1,7,11
1.72313E+12,-7924,-1107,-228,22,-60,60,1,7,11
1.72313E+12,-7914,-1106,-231,24,-58,65,1,7,11
1.72313E+12,-7907,-1103,-233,22,-56,67,1,7,11
1.72313E+12,-7897,-1109,-237,21,-53,61,1,7,11
1.72313E+12,-7899,-1113,-237,20,-50,56,1,7,11
1.72313E+12,-7899,-1114,-244,24,-50,54,1,7,11
1.72313E+12,-7900,-1117,-246,22,-47,50,1,7,11
1.72313E+12,-7906,-1122,-250,21,-47,49,1,7,11
1.72313E+12,-7901,-1130,-254,23,-54,50,1,7,11
1.72313E+12,-7894,-1134,-521,27,-58,51,1,7,11
1.72313E+12,-7905,-1113,-523,33,-49,44,1,7,11
1.72313E+12,-7913,-1109,-524,21,-44,47,1,7,11
1.72313E+12,-7912,-1102,-523,-5,-56,59,1,7,11
1.72313E+12,-7911,-1094,-517,-280,-66,65,1,7,11
1.72313E+12,-7901,-1109,-251,-297,-76,62,1,7,11
1.72313E+12,-7907,-1117,-246,-287,-73,44,1,7,11
1.72313E+12,-7920,-1113,-237,-279,-80,25,1,7,11
1.72313E+12,-7916,-1113,-245,-280,-91,20,1,7,11
1.72313E+12,-7906,-1115,-244,-289,-87,20,1,7,11
1.72313E+12,-7902,-1120,-243,-298,-69,25,1,7,11
1.72313E+12,-7909,-1121,-234,-304,-44,34,1,7,11
1.72313E+12,-7928,-1120,-230,-306,-25,47,1,7,11
1.72313E+12,-7936,-1126,-222,-303,-22,63,1,7,11
1.72313E+12,-7932,-1136,-221,-292,-36,82,1,7,11
1.72313E+12,-7922,-1135,-233,-271,-50,99,1,7,11
1.72313E+12,-7912,-1127,-244,3,-52,103,1,7,11
1.72313E+12,-7897,-1124,-252,18,-49,98,1,7,11
1.72313E+12,-7897,-1107,-521,33,-42,88,1,7,11
1.72313E+12,-7904,-1086,-524,31,-41,81,1,7,11
1.72313E+12,-7888,-1098,-530,7,-52,82,1,7,11
1.72313E+12,-7876,-1108,-530,-258,-48,74,1,7,11
1.72313E+12,-7883,-1104,-537,0,-36,55,1,7,11
1.72313E+12,-7896,-1098,-535,-259,-31,38,1,7,11
1.72313E+12,-7908,-1102,-536,-265,-36,29,1,7,11
1.72313E+12,-7915,-1104,-524,-274,-50,25,1,7,11
1.72313E+12,-7925,-1109,-522,-275,-68,30,1,7,11
1.72313E+12,-7923,-1113,-519,-271,-84,36,1,7,11
1.72313E+12,-7916,-1120,-516,-264,-94,45,1,7,11
1.72313E+12,-7904,-1127,-254,4,-91,53,1,7,11
1.72313E+12,-7903,-1128,-513,12,-88,53,1,7,11
1.72313E+12,-7905,-1133,-256,18,-87,52,1,7,11
1.72313E+12,-7901,-1127,-515,30,-86,48,1,7,11
1.72313E+12,-7897,-1118,-526,32,-84,46,1,7,11
1.72313E+12,-7894,-1118,-521,26,-76,46,1,7,11
1.72313E+12,-7893,-1117,-528,17,-66,43,1,7,11
1.72313E+12,-7904,-1123,-529,4,-61,38,1,7,11
1.72313E+12,-7907,-1124,-529,-259,-62,35,1,7,11
1.72313E+12,-7906,-1131,-519,2,-67,34,1,7,11
1.72313E+12,-7907,-1132,-527,1,-70,33,1,7,11
1.72313E+12,-7906,-1134,-530,-258,-69,33,1,7,11
1.72313E+12,-7912,-1134,-521,-259,-69,37,1,7,11
1.72313E+12,-7909,-1134,-528,-259,-75,46,1,7,11
1.72313E+12,-7911,-1133,-538,4,-78,55,1,7,11
1.72313E+12,-7914,-1128,-535,8,-78,58,1,7,11
1.72313E+12,-7910,-1116,-538,1,-84,62,1,7,11
1.72313E+12,-7901,-1118,-520,-270,-96,70,1,7,11
1.72313E+12,-7883,-1126,-520,-278,-97,77,1,7,11
1.72313E+12,-7879,-1141,-523,-287,-83,72,1,7,11
1.72313E+12,-7879,-1149,-516,-281,-60,51,1,7,11
1.72313E+12,-7909,-1138,-518,-264,-47,31,1,7,11
1.72313E+12,-7927,-1131,-521,-263,-55,23,1,7,11
1.72313E+12,-7924,-1134,-522,-267,-62,27,1,7,11
1.72313E+12,-7919,-1142,-523,-273,-59,36,1,7,11
1.72313E+12,-7919,-1145,-525,-272,-52,46,1,7,11
1.72313E+12,-7921,-1138,-524,-259,-43,56,1,7,11
1.72313E+12,-7924,-1131,-528,0,-43,72,1,7,11
1.72313E+12,-7919,-1128,-532,-257,-49,88,1,7,11
1.72313E+12,-7901,-1134,-528,-259,-61,100,1,7,11
1.72313E+12,-7892,-1137,-530,-258,-68,101,1,7,11
1.72313E+12,-7887,-1136,-538,3,-70,91,1,7,11
1.72313E+12,-7883,-1135,-533,8,-71,76,1,7,11
1.72313E+12,-7888,-1112,-548,17,-68,66,1,7,11
1.72313E+12,-7881,-1109,-549,3,-69,66,1,7,11
1.72313E+12,-7874,-1132,-540,-269,-67,64,1,7,11
1.72313E+12,-7888,-1132,-535,-259,-58,55,1,7,11
1.72313E+12,-7896,-1130,-543,9,-59,44,1,7,11
1.72313E+12,-7904,-1126,-547,17,-64,38,1,7,11
1.72313E+12,-7914,-1125,-549,15,-77,38,1,7,11
1.72313E+12,-7927,-1126,-545,6,-88,43,1,7,11
1.72313E+12,-7923,-1129,-545,-5,-97,53,1,7,11
1.72313E+12,-7910,-1132,-537,-265,-98,62,1,7,11
1.72313E+12,-7901,-1138,-537,-269,-88,66,1,7,11
1.72313E+12,-7900,-1139,-538,-277,-74,67,1,7,11
1.72313E+12,-7904,-1142,-535,-276,-65,68,1,7,11
1.72313E+12,-7907,-1145,-540,-272,-64,68,1,7,11
1.72313E+12,-7912,-1143,-543,-270,-66,70,1,7,11
1.72313E+12,-7906,-1137,-545,-266,-68,71,1,7,11
1.72313E+12,-7898,-1136,-555,-269,-67,73,1,7,11
1.72313E+12,-7897,-1136,-548,-271,-63,72,1,7,11
1.72313E+12,-7900,-1133,-537,-271,-68,67,1,7,11
1.72313E+12,-7900,-1139,-541,-277,-76,63,1,7,11
1.72313E+12,-7894,-1140,-544,-277,-83,62,1,7,11
1.72313E+12,-7894,-1134,-551,-277,-84,56,1,7,11
1.72313E+12,-7899,-1135,-543,-275,-81,49,1,7,11
1.72313E+12,-7902,-1138,-541,-276,-84,53,1,7,11
1.72313E+12,-7903,-1138,-536,-273,-86,58,1,7,11
1.72313E+12,-7909,-1132,-536,-267,-87,62,1,7,11
1.72313E+12,-7902,-1125,-536,-273,-92,65,1,7,11
1.72313E+12,-7891,-1131,-532,-280,-102,74,1,7,11
1.72313E+12,-7878,-1141,-533,-284,-99,77,1,7,11
1.72313E+12,-7878,-1152,-525,-286,-84,68,1,7,11
1.72313E+12,-7895,-1152,-523,-269,-72,45,1,7,11
1.72313E+12,-7918,-1144,-527,3,-75,26,1,7,11
1.72313E+12,-7922,-1131,-529,12,-85,18,1,7,11
1.72313E+12,-7918,-1129,-529,3,-92,22,1,7,11
1.72313E+12,-7916,-1141,-528,-264,-94,31,1,7,11
1.72313E+12,-7904,-897,-525,-263,-91,40,1,7,11
1.72313E+12,-7896,-903,-515,7,-88,43,1,7,11
1.72313E+12,-7908,-1149,-255,25,-91,42,1,7,11
1.72313E+12,-7905,-1148,-519,30,-107,47,1,7,11
1.72313E+12,-7894,-1152,-520,34,-123,55,1,7,11
1.72313E+12,-7886,-1149,-535,38,124,55,1,7,11
1.72313E+12,-7883,-1149,-538,31,-126,43,1,7,11
1.72313E+12,-7887,-1147,-543,24,-123,33,1,7,11
1.72313E+12,-7897,-1127,-548,26,-119,27,1,7,11
1.72313E+12,-7896,-1128,-555,1,-121,30,1,7,11
1.72313E+12,-7887,-897,-542,-278,-109,38,1,7,11
1.72313E+12,-7897,-898,-550,-278,-89,38,1,7,11
1.72313E+12,-7913,-903,-541,-279,-81,37,1,7,11
1.72313E+12,-7931,-897,-538,-280,-82,40,1,7,11
1.72313E+12,-8199,-1146,-535,-283,-97,49,1,7,11
1.72313E+12,-8196,-1146,-531,-291,-111,62,1,7,11
1.72313E+12,-7930,-898,-526,-301,-119,81,1,7,11
1.72313E+12,-7919,-903,-525,-303,-115,93,1,7,11
1.72313E+12,-7902,-909,-523,-297,-109,97,1,7,11
1.72313E+12,-7897,-908,-526,-287,-102,94,1,7,11
1.72313E+12,-7898,-901,-528,-280,-98,91,1,7,11
1.72313E+12,-7894,-1152,-532,-278,-98,90,1,7,11
1.72313E+12,-7889,-1148,-535,-275,-96,88,1,7,11
1.72313E+12,-7886,-897,-540,-283,-98,87,1,7,11
1.72313E+12,-7890,-900,-547,-284,-102,81,1,7,11
1.72313E+12,-7890,-899,-544,-284,-112,73,1,7,11
1.72313E+12,-7894,-1150,-541,-295,-124,62,1,7,11
1.72313E+12,-7891,-1139,-541,-308,120,51,1,7,11
1.72313E+12,-7892,-1138,-536,-327,116,44,1,7,11
1.72313E+12,-7899,-1146,-529,-339,118,42,1,7,11
1.72313E+12,-7908,-1149,-521,-348,117,46,1,7,11
1.72313E+12,-7912,-901,-514,-352,118,52,1,7,11
1.72313E+12,-7911,-903,-255,-342,122,55,1,7,11
1.72313E+12,-7910,-897,-251,-332,124,59,1,7,11
1.72313E+12,-7904,-902,-241,-332,124,65,1,7,11
1.72313E+12,-7896,-900,-244,-322,-128,70,1,7,11
1.72313E+12,-7900,-1151,-251,-310,-118,69,1,7,11
1.72313E+12,-7907,-905,-243,-301,-100,63,1,7,11
1.72313E+12,-7929,-1142,-251,-285,-82,47,1,7,11
1.72313E+12,-8203,-1134,-252,-298,-87,51,1,7,11
1.72313E+12,-7934,-1135,-254,-315,-91,68,1,7,11
1.72313E+12,-7924,-1147,-249,-334,-81,85,1,7,11
1.72313E+12,-7916,-900,-235,-342,-64,97,1,7,11
1.72313E+12,-7914,-900,-226,-333,-52,104,1,7,11
1.72313E+12,-7918,-1142,-228,-315,-49,110,1,7,11
1.72313E+12,-7915,-1128,-236,-309,-59,115,1,7,11
1.72313E+12,-7900,-1125,-243,-308,-74,119,1,7,11
1.72313E+12,-7887,-1121,-243,-301,-88,119,1,7,11
1.72313E+12,-7876,-1120,-247,-294,-93,112,1,7,11
1.72313E+12,-7873,-1129,-243,-295,-92,96,1,7,11
1.72313E+12,-7887,-1103,-247,-282,-89,82,1,7,11
1.72313E+12,-7880,-1109,-248,-310,-95,85,1,7,11
1.72313E+12,-7866,-1125,-247,-319,-86,85,1,7,11
1.72313E+12,-7887,-1121,-248,-309,-65,65,1,7,11
1.72313E+12,-7910,-1118,-247,-309,-68,49,1,7,11
1.72313E+12,-7922,-1118,-246,-308,-85,38,1,7,11
1.72313E+12,-7926,-1120,-249,-307,-101,36,1,7,11
1.72313E+12,-7920,-1126,-249,-310,-114,39,1,7,11
1.72313E+12,-7911,-1132,-243,-302,-114,46,1,7,11
1.72313E+12,-7906,-1136,-240,-295,-102,50,1,7,11
1.72313E+12,-7903,-1138,-240,-283,-88,55,1,7,11
1.72313E+12,-7901,-1139,-246,-266,-78,59,1,7,11
1.72313E+12,-7903,-1135,-253,1,-68,64,1,7,11
1.72313E+12,-7902,-1130,-254,6,-64,67,1,7,11
1.72313E+12,-7898,-1131,-252,4,-62,69,1,7,11
1.72313E+12,-7895,-1135,-520,3,-60,68,1,7,11
1.72313E+12,-7897,-1138,-516,-260,-59,60,1,7,11
1.72313E+12,-7893,-1141,-516,-262,-59,54,1,7,11
1.72313E+12,-7896,-1138,-519,-263,-63,52,1,7,11
1.72313E+12,-7895,-1137,-523,-260,-67,49,1,7,11
1.72313E+12,-7904,-1140,-522,-263,-65,47,1,7,11
1.72313E+12,-7904,-897,-522,-262,-68,51,1,7,11
1.72313E+12,-7905,-900,-522,-258,-74,55,1,7,11
1.72313E+12,-7901,-1151,-527,2,-82,61,1,7,11
1.72313E+12,-7894,-1142,-532,3,-84,60,1,7,11
1.72313E+12,-7900,-1130,-535,-264,-85,61,1,7,11
1.72313E+12,-7898,-1123,-531,-282,-91,68,1,7,11
1.72313E+12,-7895,-1110,-526,-293,-91,72,1,7,11
1.72313E+12,-7895,-1117,-525,-311,-88,71,1,7,11
1.72313E+12,-7902,-1131,-255,-314,-80,55,1,7,11
1.72313E+12,-7920,-1130,-241,-305,-76,36,1,7,11
1.72313E+12,-7917,-1132,-232,-300,-89,33,1,7,11
1.72313E+12,-7904,-1141,-236,-300,-93,37,1,7,11
1.72313E+12,-7900,-1150,-236,-303,-80,40,1,7,11
1.72313E+12,-7908,-899,-232,-295,-63,45,1,7,11
1.72313E+12,-7911,-1151,-221,-280,-57,54,1,7,11
1.72313E+12,-7918,-1140,-227,-258,-53,61,1,7,11
1.72313E+12,-7917,-1133,-228,6,-56,71,1,7,11
1.72313E+12,-7907,-1134,-241,15,-61,83,1,7,11
1.72313E+12,-7894,-1128,-243,23,-62,85,1,7,11
1.72313E+12,-7885,-1124,-254,28,-60,79,1,7,11
1.72313E+12,-7879,-1129,-518,28,-59,66,1,7,11
1.72313E+12,-7882,-1115,-522,37,-53,55,1,7,11
1.72313E+12,-7895,-1105,-533,21,-53,48,1,7,11
1.72313E+12,-7885,-1122,-538,-261,-64,54,1,7,11
1.72313E+12,-7875,-1133,-530,-258,-54,49,1,7,11
1.72313E+12,-7893,-1132,-521,-259,-43,38,1,7,11
1.72313E+12,-7906,-1140,-518,-259,-43,32,1,7,11
1.72313E+12,-7913,-1139,-513,-259,-50,28,1,7,11
1.72313E+12,-7926,-1144,-513,-262,-59,30,1,7,11
1.72313E+12,-7927,-1150,-521,-264,-67,39,1,7,11
1.72313E+12,-7923,-900,-524,-261,-68,48,1,7,11
1.72313E+12,-7919,-902,-523,0,-64,57,1,7,11
1.72313E+12,-7919,-905,-526,6,-56,60,1,7,11
1.72313E+12,-7917,-901,-528,11,-50,61,1,7,11
1.72313E+12,-7919,-1152,-534,15,-47,63,1,7,11
1.72313E+12,-7910,-1151,-541,5,-49,64,1,7,11
1.72313E+12,-7906,-1150,-551,-259,-50,63,1,7,11
1.72313E+12,-7897,-1139,-556,-264,-49,64,1,7,11
1.72313E+12,-7889,-1142,-550,-276,-44,63,1,7,11
1.72313E+12,-7891,-1141,-544,-285,-39,58,1,7,11
1.72313E+12,-7891,-1144,-537,-295,-39,55,1,7,11
1.72313E+12,-7892,-1148,-538,-299,-45,50,1,7,11
1.72313E+12,-7889,-897,-536,-293,-56,44,1,7,11
1.72313E+12,-7894,-1152,-533,-286,-55,42,1,7,11
1.72313E+12,-7898,-898,-534,-276,-56,46,1,7,11
1.72313E+12,-7901,-1152,-541,-266,-61,53,1,7,11
1.72313E+12,-7903,-1150,-548,1,-64,57,1,7,11
1.72313E+12,-7906,-1140,-555,-260,-68,62,1,7,11
1.72313E+12,-7902,-1145,-546,-272,-76,70,1,7,11
1.72313E+12,-7889,-1140,-544,-277,-81,78,1,7,11
1.72313E+12,-7880,-1149,-549,-289,-77,80,1,7,11
1.72313E+12,-7878,-908,-548,-288,-63,68,1,7,11
1.72313E+12,-7901,-902,-548,-278,-48,47,1,7,11
1.72313E+12,-7921,-1151,-549,-275,-52,32,1,7,11
1.72313E+12,-7922,-1150,-555,-280,-65,34,1,7,11
1.72313E+12,-7916,-1152,-547,-292,-67,40,1,7,11
1.72313E+12,-7912,-901,-544,-298,-63,50,1,7,11
1.72313E+12,-7910,-900,-538,-293,-58,60,1,7,11
1.72313E+12,-7919,-1152,-531,-292,-59,70,1,7,11
1.72313E+12,-7911,-1146,-533,-276,-66,84,1,7,11
1.72313E+12,-7899,-1151,-525,-274,-78,94,1,7,11
1.72313E+12,-7887,-898,-529,-263,-87,99,1,7,11
1.72313E+12,-7872,-1152,-529,5,-92,87,1,7,11
1.72313E+12,-7870,-1150,-539,17,-92,70,1,7,11
1.72313E+12,-7871,-1140,-541,32,-92,52,1,7,11
1.72313E+12,-7875,-1127,-549,41,-92,42,1,7,11
1.72313E+12,-7874,-1134,-558,23,-92,41,1,7,11
1.72313E+12,-7868,-1149,-551,18,-82,37,1,7,11
1.72313E+12,-7879,-1143,-552,31,-73,24,1,7,11
1.72313E+12,-7893,-1147,-549,34,-73,14,1,7,11
1.72313E+12,-7901,-898,-557,35,-80,10,1,7,11
1.72313E+12,-7911,-901,-558,29,-88,11,1,7,11
1.72313E+12,-7916,-902,-548,21,-92,16,1,7,11
1.72313E+12,-7919,-903,-542,12,-97,25,1,7,11
1.72313E+12,-7913,-913,-550,8,-98,35,1,7,11
1.72313E+12,-7907,-922,-548,7,-96,46,1,7,11
1.72313E+12,-7901,-926,-544,6,-91,52,1,7,11
1.72313E+12,-7899,-929,-549,5,-88,53,1,7,11
1.72313E+12,-7899,-925,-556,8,-81,51,1,7,11
1.72313E+12,-7901,-920,-556,6,-76,50,1,7,11
1.72313E+12,-7899,-920,-555,1,-77,51,1,7,11
1.72313E+12,-7893,-917,-564,-261,-80,53,1,7,11
1.72313E+12,-7889,-923,-556,-273,-85,46,1,7,11
1.72313E+12,-7890,-917,-554,-276,-98,40,1,7,11
1.72313E+12,-7896,-913,-543,-281,-111,36,1,7,11
1.72313E+12,-7898,-908,-542,-277,-126,35,1,7,11
1.72313E+12,-7891,-910,-528,-283,116,36,1,7,11
1.72313E+12,-7885,-912,-525,-283,116,37,1,7,11
1.72313E+12,-7886,-917,-517,-277,120,29,1,7,11
1.72313E+12,-7883,-917,-522,-267,119,33,1,7,11
1.72313E+12,-7883,-924,-521,-262,127,33,1,7,11
1.72313E+12,-7891,-919,-522,7,-111,33,1,7,11
1.72313E+12,-7901,-917,-514,-261,-102,30,1,7,11
1.72313E+12,-7887,-925,-514,-267,-100,32,1,7,11
1.72313E+12,-7884,-933,-513,-269,-95,34,1,7,11
1.72313E+12,-7884,-951,-515,-265,-84,36,1,7,11
1.72313E+12,-7910,-939,-521,9,-62,13,1,7,11
1.72313E+12,-8194,-927,-522,32,-50,8,1,7,11
1.72313E+12,-8199,-930,-530,34,-74,23,1,7,11
1.72313E+12,-7931,-933,-534,24,-88,46,1,7,11
1.72313E+12,-7916,-947,-533,8,-90,66,1,7,11
1.72313E+12,-7908,-950,-533,15,-82,78,1,7,11
1.72313E+12,-7908,-940,-537,26,-77,85,1,7,11
1.72313E+12,-7911,-938,-537,26,-80,95,1,7,11
1.72313E+12,-7900,-927,-539,20,-94,104,1,7,11
1.72313E+12,-7884,-929,-540,14,-105,107,1,7,11
1.72313E+12,-7876,-927,-537,9,-100,102,1,7,11
1.72313E+12,-7874,-933,-526,5,-94,88,1,7,11
1.72313E+12,-7874,-933,-524,10,-91,74,1,7,11
1.72313E+12,-7887,-909,-540,13,-95,70,1,7,11
1.72313E+12,-7876,-919,-545,-264,-110,73,1,7,11
1.72313E+12,-7867,-939,-547,-272,-107,67,1,7,11
1.72313E+12,-7892,-933,-538,-267,-98,50,1,7,11
1.72313E+12,-7909,-931,-541,-263,-108,40,1,7,11
1.72313E+12,-7909,-931,-540,-263,-120,35,1,7,11
1.72313E+12,-7914,-930,-536,-270,-125,38,1,7,11
1.72313E+12,-7918,-925,-543,-285,-123,47,1,7,11
1.72313E+12,-7919,-935,-533,-300,-117,58,1,7,11
1.72313E+12,-7916,-945,-527,-307,-109,65,1,7,11
1.72313E+12,-7909,-948,-523,-308,-101,70,1,7,11
1.72313E+12,-7907,-954,-518,-302,-94,73,1,7,11
1.72313E+12,-7902,-952,-522,-297,-82,73,1,7,11
1.72313E+12,-7905,-950,-516,-298,-76,75,1,7,11
1.72313E+12,-7909,-944,-522,-294,-77,78,1,7,11
1.72313E+12,-7911,-942,-522,-292,-83,86,1,7,11
1.72313E+12,-7895,-935,-525,-287,-86,96,1,7,11
1.72313E+12,-7891,-931,-532,-286,-86,100,1,7,11
1.72313E+12,-7892,-921,-533,-287,-85,98,1,7,11
1.72313E+12,-7898,-919,-531,-297,-88,92,1,7,11
1.72313E+12,-7892,-919,-535,-308,-95,89,1,7,11
1.72313E+12,-7892,-921,-532,-318,-100,87,1,7,11
1.72313E+12,-7898,-917,-530,-327,-99,81,1,7,11
1.72313E+12,-7902,-919,-529,-335,-98,81,1,7,11
1.72313E+12,-7899,-928,-521,-338,-104,88,1,7,11
1.72313E+12,-7894,-921,-519,-328,-105,92,1,7,11
1.72313E+12,-7890,-915,-515,-323,-99,93,1,7,11
1.72313E+12,-7892,-913,-519,-325,-101,95,1,7,11
1.72313E+12,-7893,-907,-523,-318,-106,96,1,7,11
1.72313E+12,-7894,-903,-529,-320,-107,96,1,7,11
1.72313E+12,-7897,-913,-514,-323,-96,83,1,7,11
1.72313E+12,-7923,-899,-514,-312,-79,60,1,7,11
1.72313E+12,-7926,-1146,-251,-320,-90,58,1,7,11
1.72313E+12,-7907,-1151,-515,-324,-99,68,1,7,11
1.72313E+12,-7897,-906,-248,-337,-84,77,1,7,11
1.72313E+12,-7896,-910,-232,-341,-65,83,1,7,11
1.72313E+12,-7900,-907,-239,-322,-58,89,1,7,11
1.72313E+12,-7900,-899,-233,-301,-61,91,1,7,11
1.72313E+12,-7899,-1146,-232,-284,-72,93,1,7,11
1.72313E+12,-7884,-1135,-243,-275,-85,96,1,7,11
1.72313E+12,-7874,-1133,-238,-265,-85,94,1,7,11
1.72313E+12,-7866,-1137,-233,-257,-81,82,1,7,11
1.72313E+12,-7859,-899,-232,4,-76,65,1,7,11
1.72313E+12,-7861,-1148,-227,29,-65,46,1,7,11
1.72313E+12,-7873,-1140,-236,40,-66,37,1,7,11
1.72313E+12,-7858,-911,-241,34,-74,40,1,7,11
1.72313E+12,-7861,-923,-245,58,-60,27,1,7,11
1.72313E+12,-7887,-918,-253,82,-48,9,1,7,11
1.72313E+12,-7906,-909,-526,99,-53,-259,1,7,11
1.72313E+12,-7921,-913,-535,89,-63,-262,1,7,11
1.72313E+12,-7927,-915,-542,79,-75,0,1,7,11
1.72313E+12,-7928,-918,-543,62,-79,10,1,7,11
1.72313E+12,-7918,-922,-552,46,-71,24,1,7,11
1.72313E+12,-7921,-928,-553,33,-60,38,1,7,11
1.72313E+12,-7919,-934,-553,18,-50,50,1,7,11
1.72313E+12,-7919,-940,-546,9,-47,60,1,7,11
1.72313E+12,-7913,-944,-554,5,-45,66,1,7,11
1.72313E+12,-7903,-947,-549,4,-45,75,1,7,11
1.72313E+12,-7893,-936,-548,7,-43,75,1,7,11
1.72313E+12,-7882,-933,-546,5,-41,78,1,7,11
1.72313E+12,-7881,-933,-551,6,-36,75,1,7,11
1.72313E+12,-7879,-929,-552,1,-35,72,1,7,11
1.72313E+12,-7884,-925,-548,-263,-34,68,1,7,11
1.72313E+12,-7885,-932,-552,-271,-38,60,1,7,11
1.72313E+12,-7884,-935,-548,-282,-53,45,1,7,11
1.72313E+12,-7882,-941,-547,-286,-61,34,1,7,11
1.72313E+12,-7889,-938,-553,-288,-62,24,1,7,11
1.72313E+12,-7896,-935,-559,-303,-69,31,1,7,11
1.72313E+12,-7904,-936,-550,-311,-75,33,1,7,11
1.72313E+12,-7902,-926,-538,-310,-78,35,1,7,11
1.72313E+12,-7897,-934,-529,-319,-84,34,1,7,11
1.72313E+12,-7879,-934,-529,-314,-96,35,1,7,11
1.72313E+12,-7873,-930,-531,-315,-91,33,1,7,11
1.72313E+12,-7869,-942,-523,-321,-78,27,1,7,11
1.72313E+12,-7880,-946,-524,-305,-54,11,1,7,11
1.72313E+12,-7904,-946,-521,-286,-45,-258,1,7,11
1.72313E+12,-7913,-947,-256,-272,-51,1,1,7,11
1.72313E+12,-7911,-946,-526,-263,-55,8,1,7,11
1.72313E+12,-7912,-942,-536,-264,-50,17,1,7,11
1.72313E+12,-7920,-935,-544,-271,-43,31,1,7,11
1.72313E+12,-7921,-933,-548,-278,-42,49,1,7,11
1.72313E+12,-7918,-923,-549,-291,-46,64,1,7,11
1.72313E+12,-7907,-923,-547,-313,-57,80,1,7,11
1.72313E+12,-7895,-919,-544,-318,-65,86,1,7,11
1.72313E+12,-7880,-922,-531,-320,-74,82,1,7,11
1.72313E+12,-7871,-927,-534,-309,-78,70,1,7,11
1.72313E+12,-7861,-938,-534,-295,-77,53,1,7,11
1.72313E+12,-7867,-927,-533,-272,-66,36,1,7,11
1.72313E+12,-7876,-928,-527,-264,-61,32,1,7,11
1.72313E+12,-7868,-948,-517,-264,-65,38,1,7,11
1.72313E+12,-7878,-955,-526,26,-56,34,1,7,11
1.72313E+12,-7886,-954,-533,48,-56,23,1,7,11
1.72313E+12,-7896,-951,-532,65,-63,19,1,7,11
1.72313E+12,-7901,-946,-557,75,-66,18,1,7,11
1.72313E+12,-7906,-944,-559,72,-67,21,1,7,11
1.72313E+12,-7912,-947,-559,64,-66,26,1,7,11
1.72313E+12,-7910,-961,-566,51,-63,31,1,7,11
1.72313E+12,-7905,-974,-565,43,-60,40,1,7,11
1.72313E+12,-7897,-975,-569,43,-50,46,1,7,11
1.72313E+12,-7898,-974,-574,33,-42,49,1,7,11
1.72313E+12,-7893,-972,-565,27,-34,54,1,7,11
1.72313E+12,-7897,-967,-566,25,-31,63,1,7,11
1.72313E+12,-7892,-970,-570,17,-30,70,1,7,11
1.72313E+12,-7889,-971,-568,14,-31,72,1,7,11
1.72313E+12,-7888,-968,-579,7,-35,77,1,7,11
1.72313E+12,-7875,-968,-580,4,-33,79,1,7,11
1.72313E+12,-7873,-968,-574,3,-31,78,1,7,11
1.72313E+12,-7876,-968,-578,1,-34,74,1,7,11
1.72313E+12,-7878,-974,-573,-259,-44,66,1,7,11
1.72313E+12,-7876,-976,-582,-261,-56,61,1,7,11
1.72313E+12,-7876,-968,-590,-265,-63,53,1,7,11
1.72313E+12,-7877,-965,-589,-276,-61,49,1,7,11
1.72313E+12,-7883,-968,-590,-282,-60,50,1,7,11
1.72313E+12,-7884,-969,-588,-284,-68,56,1,7,11
1.72313E+12,-7886,-968,-593,-283,-69,60,1,7,11
1.72313E+12,-7889,-962,-591,-284,-71,63,1,7,11
1.72313E+12,-7882,-960,-589,-294,-82,68,1,7,11
1.72313E+12,-7866,-960,-585,-298,-91,75,1,7,11
1.72313E+12,-7862,-971,-586,-304,-90,74,1,7,11
1.72313E+12,-7865,-982,-584,-300,-78,59,1,7,11
1.72313E+12,-7886,-967,-592,-283,-61,36,1,7,11
1.72313E+12,-7906,-961,-589,-279,-66,25,1,7,11
1.72313E+12,-7907,-957,-591,-290,-73,29,1,7,11
1.72313E+12,-7905,-968,-593,-305,-74,40,1,7,11
1.72313E+12,-7904,-976,-584,-313,-69,51,1,7,11
1.72313E+12,-7902,-976,-576,-305,-62,60,1,7,11
1.72313E+12,-7903,-968,-574,-295,-57,71,1,7,11
1.72313E+12,-7904,-959,-577,-294,-65,86,1,7,11
1.72313E+12,-7892,-962,-569,-296,-79,104,1,7,11
1.72313E+12,-7873,-966,-573,-296,-91,112,1,7,11
1.72313E+12,-7864,-960,-575,-287,-94,108,1,7,11
1.72313E+12,-7865,-951,-574,-279,-90,85,1,7,11
1.72313E+12,-7869,-934,-583,-271,-88,75,1,7,11
1.72313E+12,-7871,-925,-582,-271,-92,73,1,7,11
1.72313E+12,-7858,-948,-575,-290,-95,71,1,7,11
1.72313E+12,-7867,-957,-566,-297,-87,58,1,7,11
1.72313E+12,-7879,-956,-557,-282,-92,39,1,7,11
1.72313E+12,-7890,-952,-556,-273,-101,25,1,7,11
1.72313E+12,-7898,-945,-561,-272,-113,16,1,7,11
1.72313E+12,-7909,-947,-560,-280,-122,17,1,7,11
1.72313E+12,-7907,-955,-559,-284,126,22,1,7,11
1.72313E+12,-7905,-966,-542,-278,-125,32,1,7,11
1.72313E+12,-7896,-976,-536,-267,-118,43,1,7,11
1.72313E+12,-7898,-982,-546,9,-103,51,1,7,11
1.72313E+12,-7905,-976,-558,27,-91,58,1,7,11
1.72313E+12,-7904,-974,-557,37,-86,63,1,7,11
1.72313E+12,-7896,-974,-561,52,-89,69,1,7,11
1.72313E+12,-7893,-970,-578,59,-89,69,1,7,11
1.72313E+12,-7885,-961,-591,61,-87,71,1,7,11
1.72313E+12,-7879,-959,-598,46,-86,72,1,7,11
1.72313E+12,-7874,-959,-599,31,-85,72,1,7,11
1.72313E+12,-7877,-962,-600,11,-92,69,1,7,11
1.72313E+12,-7867,-966,-589,-263,-98,61,1,7,11
1.72313E+12,-7869,-972,-590,-277,-101,52,1,7,11
1.72313E+12,-7878,-980,-580,-289,-110,46,1,7,11
1.72313E+12,-7885,-983,-580,-293,-120,43,1,7,11
1.72313E+12,-7895,-979,-578,-299,-126,44,1,7,11
1.72313E+12,-7890,-982,-577,-301,126,52,1,7,11
1.72313E+12,-7891,-986,-567,-307,127,63,1,7,11
1.72313E+12,-7887,-990,-572,-305,-126,81,1,7,11
1.72313E+12,-7886,-982,-564,-301,-125,86,1,7,11
1.72313E+12,-7881,-976,-565,-307,-123,87,1,7,11
1.72313E+12,-7874,-977,-557,-313,-121,91,1,7,11
1.72313E+12,-7870,-976,-564,-319,-113,93,1,7,11
1.72313E+12,-7885,-987,-565,-332,-96,79,1,7,11
1.72313E+12,-7911,-969,-561,-319,-81,59,1,7,11
1.72313E+12,-7928,-956,-560,-322,-85,51,1,7,11
1.72313E+12,-7917,-962,-559,-337,-103,63,1,7,11
1.72313E+12,-7903,-971,-554,-346,-105,78,1,7,11
1.72313E+12,-7898,-978,-547,-351,-98,89,1,7,11
1.72313E+12,-7900,-977,-538,-342,-90,97,1,7,11
1.72313E+12,-7895,-966,-542,-322,-83,106,1,7,11
1.72313E+12,-7891,-959,-545,-312,-84,112,1,7,11
1.72313E+12,-7886,-949,-543,-311,-89,117,1,7,11
1.72313E+12,-7875,-948,-546,-313,-94,118,1,7,11
1.72313E+12,-7870,-940,-551,-307,-94,112,1,7,11
1.72313E+12,-7869,-943,-556,-303,-92,98,1,7,11
1.72313E+12,-7874,-936,-554,-297,-93,85,1,7,11
1.72313E+12,-7880,-915,-559,-294,-96,81,1,7,11
1.72313E+12,-7871,-927,-556,-322,-107,93,1,7,11
1.72313E+12,-7857,-948,-548,-322,-101,90,1,7,11
1.72313E+12,-7876,-936,-550,-297,-88,71,1,7,11
1.72313E+12,-7895,-928,-549,-290,-92,58,1,7,11
1.72313E+12,-7902,-921,-549,-289,-102,56,1,7,11
1.72313E+12,-7906,-928,-544,-301,-112,58,1,7,11
1.72313E+12,-7902,-939,-546,-305,-115,63,1,7,11
1.72313E+12,-7895,-939,-552,-307,-107,68,1,7,11
1.72313E+12,-7894,-946,-548,-305,-90,72,1,7,11
1.72313E+12,-7893,-948,-543,-297,-78,71,1,7,11
1.72313E+12,-7895,-943,-542,-286,-73,75,1,7,11
1.72313E+12,-7895,-941,-539,-281,-72,80,1,7,11
1.72313E+12,-7895,-940,-545,-277,-75,85,1,7,11
1.72313E+12,-7887,-939,-545,-269,-81,88,1,7,11
1.72313E+12,-7876,-934,-550,-257,-80,88,1,7,11
1.72313E+12,-7869,-930,-552,5,-77,85,1,7,11
1.72313E+12,-7866,-922,-559,7,-71,78,1,7,11
1.72313E+12,-7869,-915,-554,3,-69,72,1,7,11
1.72313E+12,-7874,-913,-555,-270,-72,59,1,7,11
1.72313E+12,-7874,-919,-545,-273,-79,51,1,7,11
1.72313E+12,-7871,-926,-540,-274,-79,39,1,7,11
1.72313E+12,-7880,-930,-533,-269,-76,31,1,7,11
1.72313E+12,-7886,-933,-531,-261,-79,33,1,7,11
1.72313E+12,-7885,-944,-528,4,-82,36,1,7,11
1.72313E+12,-7885,-951,-529,22,-84,37,1,7,11
1.72313E+12,-7882,-950,-523,40,-82,34,1,7,11
1.72313E+12,-7878,-951,-519,49,-84,33,1,7,11
1.72313E+12,-7874,-944,-546,62,-83,34,1,7,11
1.72313E+12,-7879,-945,-564,58,-74,31,1,7,11
1.72313E+12,-7887,-947,-571,51,-55,22,1,7,11
1.72313E+12,-7914,-941,-572,53,-43,9,1,7,11
1.72313E+12,-7917,-949,-574,42,-53,10,1,7,11
1.72313E+12,-7909,-957,-576,22,-56,18,1,7,11
1.72313E+12,-7905,-970,-573,-257,-52,38,1,7,11
1.72313E+12,-7903,-974,-570,-271,-40,49,1,7,11
1.72313E+12,-7902,-977,-563,-270,-39,63,1,7,11
1.72313E+12,-7895,-969,-564,-262,-48,74,1,7,11
1.72313E+12,-7887,-963,-570,-263,-59,85,1,7,11
1.72313E+12,-7870,-965,-572,-269,-71,93,1,7,11
1.72313E+12,-7856,-966,-581,-267,-75,88,1,7,11
1.72313E+12,-7852,-967,-577,-267,-72,75,1,7,11
1.72313E+12,-7852,-967,-577,-268,-68,56,1,7,11
1.72313E+12,-7870,-947,-572,-261,-64,36,1,7,11
1.72313E+12,-7881,-938,-581,-277,-77,30,1,7,11
1.72313E+12,-7865,-960,-574,-300,-93,34,1,7,11
1.72313E+12,-7863,-969,-567,-297,-90,20,1,7,11
1.72313E+12,-7876,-971,-558,-285,-90,8,1,7,11
1.72313E+12,-7886,-974,-547,-280,-98,-258,1,7,11
1.72313E+12,-7899,-978,-543,-276,-112,-266,1,7,11
1.72313E+12,-7901,-979,-539,-268,126,-271,1,7,11
1.72313E+12,-7898,-985,-535,-263,117,-274,1,7,11
1.72313E+12,-7886,-997,-522,3,117,-273,1,7,11
1.72313E+12,-7876,-993,-525,32,-127,-273,1,7,11
1.72313E+12,-7878,-987,-541,47,-107,-268,1,7,11
1.72313E+12,-7885,-983,-541,45,-83,-257,1,7,11
1.72313E+12,-7892,-983,-544,48,-65,10,1,7,11
1.72313E+12,-7897,-986,-547,48,-60,23,1,7,11
1.72313E+12,-7900,-991,-544,45,-59,30,1,7,11
1.72313E+12,-7896,-985,-554,52,-59,37,1,7,11
1.72313E+12,-7890,-977,-559,45,-57,42,1,7,11
1.72313E+12,-7888,-978,-558,27,-53,45,1,7,11
1.72313E+12,-7887,-984,-558,10,-55,47,1,7,11
1.72313E+12,-7887,-991,-551,2,-61,46,1,7,11
1.72313E+12,-7884,-997,-543,-260,-64,44,1,7,11
1.72313E+12,-7890,-998,-554,-262,-61,41,1,7,11
1.72313E+12,-7894,-996,-563,-258,-57,43,1,7,11
1.72313E+12,-7892,-997,-555,-261,-59,51,1,7,11
1.72313E+12,-7893,-995,-566,-260,-58,60,1,7,11
1.72313E+12,-7900,-989,-567,-258,-56,60,1,7,11
1.72313E+12,-7894,-981,-568,-260,-64,64,1,7,11
1.72313E+12,-7883,-985,-566,-269,-74,72,1,7,11
1.72313E+12,-7872,-988,-564,-275,-75,80,1,7,11
1.72313E+12,-7862,-1005,-558,-285,-69,79,1,7,11
1.72313E+12,-7864,-1014,-554,-274,-54,65,1,7,11
1.72313E+12,-7890,-1005,-563,-258,-47,42,1,7,11
1.72313E+12,-7904,-998,-566,-261,-64,33,1,7,11
1.72313E+12,-7897,-998,-568,-273,-72,32,1,7,11
1.72313E+12,-7891,-1003,-574,-284,-74,35,1,7,11
1.72313E+12,-7884,-1012,-567,-285,-66,38,1,7,11
1.72313E+12,-7883,-1009,-565,-277,-58,42,1,7,11
1.72313E+12,-7894,-997,-563,-273,-55,50,1,7,11
1.72313E+12,-7896,-995,-563,-278,-60,65,1,7,11
1.72313E+12,-7887,-1003,-558,-284,-70,78,1,7,11
1.72313E+12,-7874,-1006,-561,-280,-77,85,1,7,11
1.72313E+12,-7864,-1001,-566,-270,-78,78,1,7,11
1.72313E+12,-7862,-1008,-567,-264,-75,64,1,7,11
1.72313E+12,-7872,-998,-576,0,-64,53,1,7,11
1.72313E+12,-7875,-993,-589,-262,-66,52,1,7,11
1.72313E+12,-7863,-1007,-582,-280,-70,58,1,7,11
1.72313E+12,-7861,-1005,-579,-279,-65,57,1,7,11
1.72313E+12,-7883,-1004,-583,-268,-68,49,1,7,11
1.72313E+12,-7893,-999,-588,-275,-80,47,1,7,11
1.72313E+12,-7899,-997,-587,-280,-91,49,1,7,11
1.72313E+12,-7902,-996,-589,-293,-98,52,1,7,11
1.72313E+12,-7892,-1005,-589,-302,-101,60,1,7,11
1.72313E+12,-7888,-1009,-578,-308,-99,64,1,7,11
1.72313E+12,-7885,-1015,-572,-310,-92,68,1,7,11
1.72313E+12,-7886,-1015,-568,-307,-86,69,1,7,11
1.72313E+12,-7885,-1005,-574,-297,-83,75,1,7,11
1.72313E+12,-7884,-1002,-575,-293,-78,69,1,7,11
1.72313E+12,-7886,-1004,-574,-298,-79,69,1,7,11
1.72313E+12,-7888,-998,-567,-294,-86,74,1,7,11
1.72313E+12,-7882,-996,-563,-288,-89,81,1,7,11
1.72313E+12,-7875,-987,-560,-290,-82,82,1,7,11
1.72313E+12,-7877,-990,-555,-292,-76,78,1,7,11
1.72313E+12,-7879,-993,-557,-295,-75,72,1,7,11
1.72313E+12,-7880,-1004,-552,-289,-83,67,1,7,11
1.72313E+12,-7870,-1009,-547,-280,-88,57,1,7,11
1.72313E+12,-7876,-1004,-548,-268,-85,47,1,7,11
1.72313E+12,-7889,-1001,-555,-259,-84,42,1,7,11
1.72313E+12,-7893,-998,-560,5,-85,46,1,7,11
1.72313E+12,-7897,-1002,-563,4,-83,51,1,7,11
1.72313E+12,-7895,-997,-574,4,-81,53,1,7,11
1.72313E+12,-7888,-1000,-575,-261,-86,58,1,7,11
1.72313E+12,-7876,-998,-573,-269,-95,65,1,7,11
1.72313E+12,-7866,-1005,-580,-279,-89,70,1,7,11
1.72313E+12,-7863,-1281,-578,-293,-76,63,1,7,11
1.72313E+12,-7889,-1019,-573,-274,-55,43,1,7,11
1.72313E+12,-7919,-1008,-569,-265,-62,36,1,7,11
1.72313E+12,-7918,-1005,-571,-267,-78,46,1,7,11
1.72313E+12,-7904,-1013,-578,-280,-86,57,1,7,11
1.72313E+12,-7900,-1017,-569,-284,-79,71,1,7,11
1.72313E+12,-7890,-1017,-566,-283,-72,87,1,7,11
1.72313E+12,-7891,-1009,-574,-275,-65,101,1,7,11
1.72313E+12,-7896,-1000,-577,-279,-65,114,1,7,11
1.72313E+12,-7888,-999,-569,-291,-81,127,1,7,11
1.72313E+12,-7869,-1001,-565,-297,-93,-125,1,7,11
1.72313E+12,-7860,-1000,-567,-298,-98,123,1,7,11
1.72313E+12,-7857,-1001,-569,-296,-93,106,1,7,11
1.72313E+12,-7856,-993,-564,-285,-89,88,1,7,11
1.72313E+12,-7867,-975,-570,-285,-92,80,1,7,11
1.72313E+12,-7853,-987,-573,-300,-105,85,1,7,11
1.72313E+12,-7838,-1009,-569,-303,-100,78,1,7,11
1.72313E+12,-7863,-996,-563,-282,-88,57,1,7,11
1.72313E+12,-7877,-989,-574,-279,-97,42,1,7,11
1.72313E+12,-7889,-988,-572,-278,-111,34,1,7,11
1.72313E+12,-7895,-987,-575,-280,-126,34,1,7,11
1.72313E+12,-7896,-989,-575,-287,123,39,1,7,11
1.72313E+12,-7893,-1002,-577,-295,-123,52,1,7,11
1.72313E+12,-7897,-1010,-566,-300,-112,55,1,7,11
1.72313E+12,-7898,-1008,-557,-299,-106,59,1,7,11
1.72313E+12,-7900,-1005,-563,-296,-100,64,1,7,11
1.72313E+12,-7901,-1001,-566,-297,-95,67,1,7,11
1.72313E+12,-7894,-1001,-555,-294,-99,72,1,7,11
1.72313E+12,-7896,-998,-555,-286,-103,78,1,7,11
1.72313E+12,-7888,-990,-561,-278,-106,85,1,7,11
1.72313E+12,-7878,-984,-558,-280,-106,87,1,7,11
1.72313E+12,-7871,-987,-556,-283,-102,89,1,7,11
1.72313E+12,-7877,-982,-560,-286,-99,84,1,7,11
1.72313E+12,-7876,-981,-567,-293,-102,78,1,7,11
1.72313E+12,-7879,-983,-574,-308,-101,72,1,7,11
1.72313E+12,-7888,-985,-565,-320,-99,67,1,7,11
1.72313E+12,-7890,-984,-559,-325,-93,70,1,7,11
1.72313E+12,-7890,-986,-549,-328,-94,77,1,7,11
1.72313E+12,-7888,-994,-551,-326,-94,86,1,7,11
1.72313E+12,-7877,-989,-542,-317,-96,89,1,7,11
1.72313E+12,-7871,-988,-546,-315,-97,89,1,7,11
1.72313E+12,-7864,-989,-545,-314,-103,93,1,7,11
1.72313E+12,-7865,-975,-554,-300,-100,90,1,7,11
1.72313E+12,-7869,-981,-556,-301,-91,75,1,7,11
1.72313E+12,-7890,-969,-554,-288,-79,53,1,7,11
1.72313E+12,-7906,-962,-558,-295,-83,41,1,7,11
1.72313E+12,-7893,-971,-552,-305,-93,45,1,7,11
1.72313E+12,-7885,-974,-555,-312,-87,51,1,7,11
1.72313E+12,-7879,-983,-546,-315,-72,61,1,7,11
1.72313E+12,-7884,-989,-549,-307,-59,65,1,7,11
1.72313E+12,-7887,-984,-546,-286,-56,75,1,7,11
1.72313E+12,-7890,-979,-545,-274,-60,83,1,7,11
1.72313E+12,-7882,-976,-544,-270,-73,94,1,7,11
1.72313E+12,-7865,-981,-548,-264,-79,100,1,7,11
1.72313E+12,-7859,-979,-555,-257,-74,82,1,7,11
1.72313E+12,-7862,-974,-553,8,-71,66,1,7,11
1.72313E+12,-7873,-958,-555,4,-72,59,1,7,11
1.72313E+12,-7862,-975,-563,-278,-82,62,1,7,11
1.72313E+12,-7850,-995,-558,-281,-77,57,1,7,11
1.72313E+12,-7868,-985,-563,-272,-66,39,1,7,11
1.72313E+12,-7882,-977,-560,-266,-69,29,1,7,11
1.72313E+12,-7892,-980,-570,-263,-79,23,1,7,11
1.72313E+12,-7898,-986,-569,-265,-90,24,1,7,11
1.72313E+12,-7901,-994,-563,-267,-100,32,1,7,11
1.72313E+12,-7889,-1000,-564,-262,-98,38,1,7,11
1.72313E+12,-7888,-998,-566,-258,-86,41,1,7,11
1.72313E+12,-7897,-995,-565,4,-73,53,1,7,11
1.72313E+12,-7898,-992,-565,3,-69,62,1,7,11
1.72313E+12,-7893,-986,-570,0,-66,68,1,7,11
1.72313E+12,-7894,-988,-568,-259,-66,74,1,7,11
1.72313E+12,-7890,-991,-572,-261,-67,78,1,7,11
1.72313E+12,-7883,-986,-568,-261,-66,82,1,7,11
1.72313E+12,-7878,-984,-577,-263,-65,84,1,7,11
1.72313E+12,-7876,-982,-578,-269,-60,82,1,7,11
1.72313E+12,-7882,-983,-574,-273,-60,74,1,7,11
1.72313E+12,-7883,-986,-573,-271,-67,70,1,7,11
1.72313E+12,-7880,-985,-573,-265,-84,60,1,7,11
1.72313E+12,-7881,-977,-570,-274,-76,50,1,7,11
1.72313E+12,-7880,-982,-551,-288,-77,46,1,7,11
1.72313E+12,-7871,-984,-556,-284,-82,52,1,7,11
1.72313E+12,-7871,-985,-558,-282,-77,54,1,7,11
1.72313E+12,-7876,-997,-558,-284,-71,54,1,7,11
1.72313E+12,-7890,-999,-557,-264,-56,41,1,7,11
1.72313E+12,-7910,-991,-560,1,-59,33,1,7,11
1.72313E+12,-7903,-991,-565,0,-72,39,1,7,11
1.72313E+12,-7896,-988,-578,-268,-69,47,1,7,11
1.72313E+12,-7890,-990,-574,-282,-59,56,1,7,11
1.72313E+12,-7886,-991,-576,-288,-47,62,1,7,11
1.72313E+12,-7892,-989,-578,-288,-42,74,1,7,11
1.72313E+12,-7894,-984,-575,-290,-41,84,1,7,11
1.72313E+12,-7883,-987,-568,-291,-50,93,1,7,11
1.72313E+12,-7875,-989,-566,-285,-56,100,1,7,11
1.72313E+12,-7857,-990,-569,-270,-56,97,1,7,11
1.72313E+12,-7853,-991,-571,-264,-54,83,1,7,11
1.72313E+12,-7846,-995,-570,6,-51,70,1,7,11
1.72313E+12,-7859,-967,-580,23,-42,54,1,7,11
1.72313E+12,-7866,-965,-585,7,-43,52,1,7,11
1.72313E+12,-7853,-984,-584,-264,-46,56,1,7,11
1.72313E+12,-7862,-988,-581,-260,-36,49,1,7,11
1.72313E+12,-7883,-986,-587,-257,-37,37,1,7,11
1.72313E+12,-7884,-989,-598,-258,-45,32,1,7,11
1.72313E+12,-7891,-988,-598,-264,-57,28,1,7,11
1.72313E+12,-7891,-989,-603,-265,-67,33,1,7,11
1.72313E+12,-7893,-994,-601,-273,-74,38,1,7,11
1.72313E+12,-7892,-998,-589,-281,-75,43,1,7,11
1.72313E+12,-7882,-1000,-583,-281,-67,49,1,7,11
1.72313E+12,-7881,-994,-592,-278,-62,57,1,7,11
1.72313E+12,-7886,-999,-593,-276,-57,63,1,7,11
1.72313E+12,-7887,-1000,-594,-276,-55,67,1,7,11
1.72313E+12,-7882,-998,-600,-270,-57,70,1,7,11
1.72313E+12,-7882,-1002,-598,-268,-59,71,1,7,11
1.72313E+12,-7876,-997,-599,-266,-60,74,1,7,11
1.72313E+12,-7871,-992,-604,-269,-60,77,1,7,11
1.72313E+12,-7879,-992,-597,-276,-59,75,1,7,11
1.72313E+12,-7884,-996,-596,-279,-64,71,1,7,11
1.72313E+12,-7878,-996,-595,-278,-74,68,1,7,11
1.72313E+12,-7878,-998,-590,-277,-84,65,1,7,11
1.72313E+12,-7879,-991,-591,-271,-84,59,1,7,11
1.72313E+12,-7883,-989,-591,-268,-80,57,1,7,11
1.72313E+12,-7885,-988,-592,-271,-79,62,1,7,11
1.72313E+12,-7884,-987,-589,-271,-77,65,1,7,11
1.72313E+12,-7890,-980,-594,-266,-75,65,1,7,11
1.72313E+12,-7883,-979,-586,-274,-80,71,1,7,11
1.72313E+12,-7871,-982,-592,-276,-85,79,1,7,11
1.72313E+12,-7860,-988,-595,-282,-78,80,1,7,11
1.72313E+12,-7850,-1006,-587,-282,-65,72,1,7,11
1.72313E+12,-7872,-1004,-590,-260,-41,50,1,7,11
1.72313E+12,-7893,-989,-584,12,-43,34,1,7,11
1.72313E+12,-7898,-988,-585,10,-62,35,1,7,11
1.72313E+12,-7889,-996,-592,1,-70,43,1,7,11
1.72313E+12,-7885,-1007,-593,-263,-64,51,1,7,11
1.72313E+12,-7880,-1011,-593,-261,-55,56,1,7,11
1.72313E+12,-7879,-998,-605,2,-49,61,1,7,11
1.72313E+12,-7884,-994,-607,1,-51,67,1,7,11
1.72313E+12,-7880,-995,-599,-265,-65,79,1,7,11
1.72313E+12,-7866,-993,-608,-266,-78,86,1,7,11
1.72313E+12,-7862,-998,-609,-265,-83,82,1,7,11
1.72313E+12,-7857,-996,-613,0,-85,73,1,7,11
1.72313E+12,-7857,-998,-609,4,-88,60,1,7,11
1.72313E+12,-7860,-977,-617,9,-85,49,1,7,11
1.72313E+12,-7859,-971,-623,-264,-90,48,1,7,11
1.72313E+12,-7844,-995,-617,-281,-92,45,1,7,11
1.72313E+12,-7853,-996,-608,-275,-82,35,1,7,11
1.72313E+12,-7871,-987,-608,-274,-84,25,1,7,11
1.72313E+12,-7885,-983,-608,-286,-89,20,1,7,11
1.72313E+12,-7898,-990,-597,-295,-96,23,1,7,11
1.72313E+12,-7904,-998,-586,-303,-104,32,1,7,11
1.72313E+12,-7896,-1011,-580,-303,-106,40,1,7,11
1.72313E+12,-7884,-1018,-574,-289,-104,48,1,7,11
1.72313E+12,-7881,-1019,-574,-266,-95,53,1,7,11
1.72313E+12,-7883,-1016,-574,9,-87,54,1,7,11
1.72313E+12,-7886,-1016,-578,30,-79,57,1,7,11
1.72313E+12,-7887,-1011,-579,37,-72,58,1,7,11
1.72313E+12,-7891,-1004,-598,52,-70,57,1,7,11
1.72313E+12,-7895,-998,-613,46,-68,62,1,7,11
1.72313E+12,-7888,-997,-620,25,-73,67,1,7,11
1.72313E+12,-7879,-997,-619,10,-77,69,1,7,11
1.72313E+12,-7881,-1003,-618,-259,-82,68,1,7,11
1.72313E+12,-7880,-1001,-608,-267,-88,62,1,7,11
1.72313E+12,-7879,-1010,-602,-273,-96,57,1,7,11
1.72313E+12,-7880,-1012,-604,-273,-103,56,1,7,11
1.72313E+12,-7877,-1015,-604,-269,-105,54,1,7,11
1.72313E+12,-7882,-1012,-597,-265,-101,49,1,7,11
1.72313E+12,-7888,-1008,-600,-265,-105,55,1,7,11
1.72313E+12,-7883,-1012,-593,-266,-109,67,1,7,11
1.72313E+12,-7881,-1001,-599,-262,-112,73,1,7,11
1.72313E+12,-7880,-1008,-601,-271,-110,74,1,7,11
1.72313E+12,-7873,-1012,-596,-281,-112,74,1,7,11
1.72313E+12,-7863,-1012,-599,-281,-116,75,1,7,11
1.72313E+12,-7854,-1019,-608,-282,-114,71,1,7,11
1.72313E+12,-7863,-1022,-612,-279,-99,53,1,7,11
1.72313E+12,-7892,-1009,-609,-265,-83,27,1,7,11
1.72313E+12,-7908,-998,-604,-269,-95,21,1,7,11
1.72313E+12,-7901,-1002,-596,-284,-112,32,1,7,11
1.72313E+12,-7889,-1011,-597,-308,-113,47,1,7,11
1.72313E+12,-7882,-1281,-591,-323,-106,61,1,7,11
1.72313E+12,-7881,-1285,-583,-319,-96,71,1,7,11
1.72313E+12,-7883,-1019,-578,-309,-91,77,1,7,11
1.72313E+12,-7883,-1015,-577,-305,-101,88,1,7,11
1.72313E+12,-7875,-1015,-582,-303,-112,98,1,7,11
1.72313E+12,-7866,-1011,-584,-300,-118,100,1,7,11
1.72313E+12,-7858,-1008,-587,-295,-117,97,1,7,11
1.72313E+12,-7861,-1010,-588,-288,-112,85,1,7,11
1.72313E+12,-7869,-996,-581,-279,-111,75,1,7,11
1.72313E+12,-7868,-986,-596,-290,-115,74,1,7,11
1.72313E+12,-7850,-1005,-584,-319,-117,77,1,7,11
1.72313E+12,-7864,-1001,-595,-311,-98,61,1,7,11
1.72313E+12,-7886,-996,-595,-311,-99,48,1,7,11
1.72313E+12,-7892,-989,-587,-304,-113,44,1,7,11
1.72313E+12,-7898,-993,-585,-307,-126,46,1,7,11
1.72313E+12,-7896,-998,-585,-312,126,52,1,7,11
1.72313E+12,-7894,-1000,-575,-312,-127,60,1,7,11
1.72313E+12,-7889,-1011,-573,-312,-122,69,1,7,11
1.72313E+12,-7887,-1013,-574,-301,-114,72,1,7,11
1.72313E+12,-7885,-1012,-577,-295,-109,77,1,7,11
1.72313E+12,-7882,-1009,-577,-288,-104,82,1,7,11
1.72313E+12,-7884,-1009,-583,-284,-99,84,1,7,11
1.72313E+12,-7883,-1001,-583,-285,-97,86,1,7,11
1.72313E+12,-7880,-1001,-579,-291,-98,85,1,7,11
1.72313E+12,-7874,-1006,-572,-292,-100,86,1,7,11
1.72313E+12,-7871,-1000,-573,-289,-98,84,1,7,11
1.72313E+12,-7864,-1003,-568,-295,-98,79,1,7,11
1.72313E+12,-7867,-1000,-571,-295,-100,74,1,7,11
1.72313E+12,-7870,-999,-560,-296,-104,68,1,7,11
1.72313E+12,-7871,-995,-567,-301,-105,65,1,7,11
1.72313E+12,-7876,-994,-565,-306,-100,65,1,7,11
1.72313E+12,-7878,-992,-573,-304,-98,69,1,7,11
1.72313E+12,-7874,-992,-577,-305,-95,75,1,7,11
1.72313E+12,-7873,-992,-577,-303,-91,73,1,7,11
1.72313E+12,-7865,-986,-577,-308,-85,71,1,7,11
1.72313E+12,-7864,-990,-565,-321,-83,68,1,7,11
1.72313E+12,-7859,-993,-562,-318,-85,69,1,7,11
1.72313E+12,-7864,-990,-574,-314,-81,67,1,7,11
1.72313E+12,-7872,-1008,-562,-310,-69,55,1,7,11
1.72313E+12,-7895,-992,-556,-291,-58,37,1,7,11
1.72313E+12,-7903,-985,-563,-287,-73,36,1,7,11
1.72313E+12,-7891,-986,-562,-289,-80,51,1,7,11
1.72313E+12,-7882,-996,-556,-299,-72,64,1,7,11
1.72313E+12,-7878,-1000,-548,-298,-59,73,1,7,11
1.72313E+12,-7883,-999,-554,-291,-54,79,1,7,11
1.72313E+12,-7877,-995,-550,-274,-54,82,1,7,11
1.72313E+12,-7878,-988,-560,-263,-57,87,1,7,11
1.72313E+12,-7870,-990,-565,-268,-65,90,1,7,11
1.72313E+12,-7856,-996,-565,-267,-69,88,1,7,11
1.72313E+12,-7855,-992,-575,2,-64,73,1,7,11
1.72313E+12,-7853,-989,-568,10,-63,57,1,7,11
1.72313E+12,-7867,-964,-583,19,-59,47,1,7,11
1.72313E+12,-7872,-965,-589,-260,-68,51,1,7,11
1.72313E+12,-7857,-992,-579,-278,-75,57,1,7,11
1.72313E+12,-7865,-992,-580,-266,-64,48,1,7,11
1.72313E+12,-7882,-989,-575,-262,-64,38,1,7,11
1.72313E+12,-7888,-987,-581,-263,-74,35,1,7,11
1.72313E+12,-7895,-988,-577,-271,-86,40,1,7,11
1.72313E+12,-7896,-993,-580,-278,-90,46,1,7,11
1.72313E+12,-7892,-999,-580,-283,-91,55,1,7,11
1.72313E+12,-7887,-1006,-580,-284,-84,59,1,7,11
1.72313E+12,-7885,-1002,-582,-282,-77,64,1,7,11
1.72313E+12,-7883,-1002,-585,-277,-75,69,1,7,11
1.72313E+12,-7885,-1000,-581,-275,-73,76,1,7,11
1.72313E+12,-7883,-993,-577,-270,-74,79,1,7,11
1.72313E+12,-7878,-994,-577,-269,-72,80,1,7,11
1.72313E+12,-7868,-992,-578,-273,-70,80,1,7,11
1.72313E+12,-7863,-987,-571,-280,-66,79,1,7,11
1.72313E+12,-7863,-987,-579,-284,-63,77,1,7,11
1.72313E+12,-7863,-987,-570,-283,-58,69,1,7,11
1.72313E+12,-7868,-990,-569,-279,-57,63,1,7,11
1.72313E+12,-7870,-990,-564,-274,-61,56,1,7,11
1.72313E+12,-7873,-992,-574,-268,-62,52,1,7,11
1.72313E+12,-7874,-995,-576,-268,-60,50,1,7,11
1.72313E+12,-7879,-993,-581,-267,-55,48,1,7,11
1.72313E+12,-7878,-997,-585,-268,-55,51,1,7,11
1.72313E+12,-7880,-1003,-590,-272,-49,57,1,7,11
1.72313E+12,-7886,-998,-595,-273,-39,57,1,7,11
1.72313E+12,-7885,-991,-596,-280,-33,61,1,7,11
1.72313E+12,-7882,-995,-586,-290,-31,69,1,7,11
1.72313E+12,-7878,-989,-589,-290,-35,77,1,7,11
1.72313E+12,-7869,-995,-597,-292,-34,82,1,7,11
1.72313E+12,-7865,-1006,-594,-285,-21,72,1,7,11
1.72313E+12,-7888,-994,-595,-265,-9,52,1,7,11
1.72313E+12,-7896,-984,-606,-260,-25,44,1,7,11
1.72313E+12,-7888,-986,-611,-270,-43,47,1,7,11
1.72313E+12,-7883,-990,-605,-288,-47,55,1,7,11
1.72313E+12,-7883,-994,-605,-304,-31,69,1,7,11
1.72313E+12,-7884,-994,-608,-299,-22,78,1,7,11
1.72313E+12,-7891,-990,-605,-297,-24,89,1,7,11
1.72313E+12,-7888,-986,-607,-299,-36,101,1,7,11
1.72313E+12,-7880,-989,-608,-297,-50,110,1,7,11
1.72313E+12,-7866,-987,-606,-290,-55,109,1,7,11
1.72313E+12,-7858,-994,-601,-287,-55,101,1,7,11
1.72313E+12,-7853,-992,-599,-278,-59,82,1,7,11
1.72313E+12,-7860,-971,-619,-264,-56,67,1,7,11
1.72313E+12,-7868,-964,-619,-275,-62,65,1,7,11
1.72313E+12,-7852,-983,-619,-290,-69,66,1,7,11
1.72313E+12,-7849,-985,-618,-283,-63,61,1,7,11
1.72313E+12,-7863,-987,-620,-276,-62,51,1,7,11
1.72313E+12,-7874,-985,-618,-269,-66,43,1,7,11
1.72313E+12,-7884,-983,-620,-268,-74,36,1,7,11
1.72313E+12,-7890,-982,-615,-268,-83,34,1,7,11
1.72313E+12,-7889,-982,-620,-272,-91,35,1,7,11
1.72313E+12,-7880,-992,-621,-275,-90,40,1,7,11
1.72313E+12,-7877,-1003,-622,-279,-84,53,1,7,11
1.72313E+12,-7879,-1006,-628,-277,-77,55,1,7,11
1.72313E+12,-7879,-1005,-624,-272,-73,57,1,7,11
1.72313E+12,-7883,-995,-631,-264,-69,57,1,7,11
1.72313E+12,-7883,-993,-632,-263,-68,59,1,7,11
1.72313E+12,-7883,-989,-625,-267,-70,61,1,7,11
1.72313E+12,-7874,-983,-625,-271,-74,63,1,7,11
1.72313E+12,-7872,-990,-621,-275,-72,65,1,7,11
1.72313E+12,-7866,-990,-628,-279,-72,65,1,7,11
1.72313E+12,-7872,-993,-617,-285,-67,64,1,7,11
1.72313E+12,-7875,-993,-624,-288,-67,64,1,7,11
1.72313E+12,-7881,-993,-618,-290,-73,65,1,7,11
1.72313E+12,-7879,-995,-622,-285,-84,65,1,7,11
1.72313E+12,-7874,-998,-617,-281,-86,63,1,7,11
1.72313E+12,-7877,-991,-617,-277,-82,59,1,7,11
1.72313E+12,-7876,-988,-617,-276,-83,64,1,7,11
1.72313E+12,-7882,-989,-620,-277,-81,67,1,7,11
1.72313E+12,-7886,-980,-622,-271,-82,70,1,7,11
1.72313E+12,-7884,-976,-621,-275,-87,72,1,7,11
1.72313E+12,-7870,-978,-616,-282,-94,79,1,7,11
1.72313E+12,-7858,-987,-618,-285,-94,82,1,7,11
1.72313E+12,-7849,-998,-613,-289,-87,72,1,7,11
1.72313E+12,-7861,-1005,-604,-275,-69,47,1,7,11
1.72313E+12,-7895,-994,-612,1,-69,21,1,7,11
1.72313E+12,-7912,-989,-617,0,-84,14,1,7,11
1.72313E+12,-7910,-987,-626,-276,-94,20,1,7,11
1.72313E+12,-7902,-1002,-621,-300,-95,35,1,7,11
1.72313E+12,-7901,-1011,-611,-303,-88,48,1,7,11
1.72313E+12,-7899,-1009,-619,-291,-81,62,1,7,11
1.72313E+12,-7912,-995,-612,-282,-88,79,1,7,11
1.72313E+12,-7906,-993,-612,-279,-104,100,1,7,11
1.72313E+12,-7889,-989,-607,-278,-121,117,1,7,11
1.72313E+12,-7872,-989,-614,-271,124,121,1,7,11
1.72313E+12,-7848,-986,-619,-263,126,110,1,7,11
1.72313E+12,-7840,-984,-624,-263,-124,88,1,7,11
1.72313E+12,-7850,-960,-635,5,-113,68,1,7,11
1.72313E+12,-7852,-965,-638,-269,-118,62,1,7,11
1.72313E+12,-7837,-986,-626,-301,-123,64,1,7,11
1.72313E+12,-7856,-987,-624,-299,-113,53,1,7,11
1.72313E+12,-7878,-987,-621,-296,-109,35,1,7,11
1.72313E+12,-7889,-991,-612,-297,-122,27,1,7,11
1.72313E+12,-7895,-990,-609,-294,110,30,1,7,11
1.72313E+12,-7894,-989,-617,-300,104,37,1,7,11
1.72313E+12,-7888,-998,-611,-306,97,47,1,7,11
1.72313E+12,-7884,-1006,-603,-305,104,56,1,7,11
1.72313E+12,-7884,-1008,-598,-301,120,60,1,7,11
1.72313E+12,-7887,-1004,-596,-293,-123,63,1,7,11
1.72313E+12,-7893,-1006,-593,-296,-112,64,1,7,11
1.72313E+12,-7891,-1004,-582,-293,-105,68,1,7,11
1.72313E+12,-7892,-1010,-579,-290,-100,71,1,7,11
1.72313E+12,-7894,-1002,-580,-282,-98,77,1,7,11
1.72313E+12,-7888,-999,-579,-275,-97,82,1,7,11
1.72313E+12,-7881,-997,-584,-269,-92,86,1,7,11
1.72313E+12,-7872,-985,-585,-270,-83,85,1,7,11
1.72313E+12,-7870,-985,-584,-282,-72,80,1,7,11
1.72313E+12,-7873,-994,-582,-285,-66,78,1,7,11
1.72313E+12,-7874,-989,-582,-283,-58,75,1,7,11
1.72313E+12,-7881,-985,-592,-284,-47,69,1,7,11
1.72313E+12,-7889,-978,-596,-290,-43,66,1,7,11
1.72313E+12,-7898,-975,-593,-298,-52,71,1,7,11
1.72313E+12,-7900,-968,-590,-300,-70,82,1,7,11
1.72313E+12,-7882,-968,-576,-301,-92,98,1,7,11
1.72313E+12,-7870,-968,-581,-293,-105,107,1,7,11
1.72313E+12,-7857,-970,-576,-290,-107,103,1,7,11
1.72313E+12,-7846,-976,-565,-282,-114,95,1,7,11
1.72313E+12,-7842,-978,-567,-258,-118,85,1,7,11
1.72313E+12,-7843,-983,-577,14,-115,67,1,7,11
1.72313E+12,-7850,-992,-592,31,-98,41,1,7,11
1.72313E+12,-7885,-971,-604,47,-80,9,1,7,11
1.72313E+12,-7900,-976,-618,30,-90,14,1,7,11
1.72313E+12,-7897,-983,-620,8,-98,20,1,7,11
1.72313E+12,-7893,-994,-619,-272,-87,30,1,7,11
1.72313E+12,-7898,-1001,-619,-287,-72,41,1,7,11
1.72313E+12,-7900,-997,-618,-293,-71,55,1,7,11
1.72313E+12,-7907,-990,-612,-293,-77,69,1,7,11
1.72313E+12,-7896,-993,-618,-307,-94,86,1,7,11
1.72313E+12,-7877,-987,-617,-316,-105,101,1,7,11
1.72313E+12,-7863,-993,-605,-327,-107,107,1,7,11
1.72313E+12,-7855,-998,-590,-331,-101,103,1,7,11
1.72313E+12,-7856,-1011,-579,-327,-95,94,1,7,11
1.72313E+12,-7861,-989,-577,-307,-87,84,1,7,11
1.72313E+12,-7864,-971,-586,-312,-87,82,1,7,11
1.72313E+12,-7838,-997,-578,-329,-91,89,1,7,11
1.72313E+12,-7838,-1000,-576,-309,-74,75,1,7,11
1.72313E+12,-7861,-987,-577,-291,-70,54,1,7,11
1.72313E+12,-7871,-976,-583,-273,-82,46,1,7,11
1.72313E+12,-7868,-971,-595,-269,-99,41,1,7,11
1.72313E+12,-7865,-972,-600,-271,-104,38,1,7,11
1.72313E+12,-7868,-976,-589,-277,-104,37,1,7,11
1.72313E+12,-7869,-976,-590,-280,-94,31,1,7,11
1.72313E+12,-7868,-983,-590,-277,-85,28,1,7,11
1.72313E+12,-7880,-988,-586,-273,-77,24,1,7,11
1.72313E+12,-7887,-987,-588,-277,-75,24,1,7,11
1.72313E+12,-7893,-987,-593,-279,-76,26,1,7,11
1.72313E+12,-7895,-984,-589,-283,-81,31,1,7,11
1.72313E+12,-7890,-991,-590,-286,-85,36,1,7,11
1.72313E+12,-7889,-991,-584,-287,-89,43,1,7,11
1.72313E+12,-7878,-991,-591,-289,-88,52,1,7,11
1.72313E+12,-7888,-993,-587,-292,-82,56,1,7,11
1.72313E+12,-7892,-988,-584,-290,-79,58,1,7,11
1.72313E+12,-7893,-987,-584,-288,-83,66,1,7,11
1.72313E+12,-7889,-982,-583,-286,-85,67,1,7,11
1.72313E+12,-7888,-983,-582,-285,-82,64,1,7,11
1.72313E+12,-7895,-979,-572,-285,-80,61,1,7,11
1.72313E+12,-7890,-985,-573,-283,-84,62,1,7,11
1.72313E+12,-7882,-988,-573,-277,-85,65,1,7,11
1.72313E+12,-7878,-984,-576,-266,-83,63,1,7,11
1.72313E+12,-7874,-986,-575,-263,-82,58,1,7,11
1.72313E+12,-7866,-992,-567,-259,-89,54,1,7,11
1.72313E+12,-7859,-988,-576,10,-89,48,1,7,11
1.72313E+12,-7862,-994,-591,12,-82,41,1,7,11
1.72313E+12,-7862,-1004,-594,15,-67,23,1,7,11
1.72313E+12,-7895,-993,-594,29,-56,-257,1,7,11
1.72313E+12,-7906,-993,-594,22,-71,-259,1,7,11
1.72313E+12,-7896,-1002,-599,9,-77,6,1,7,11
1.72313E+12,-7883,-1013,-593,-267,-70,20,1,7,11
1.72313E+12,-7884,-1020,-585,-276,-58,30,1,7,11
1.72313E+12,-7888,-1024,-583,-275,-51,44,1,7,11
1.72313E+12,-7888,-1017,-583,-265,-54,55,1,7,11
1.72313E+12,-7884,-1010,-588,-260,-61,71,1,7,11
1.72313E+12,-7873,-1007,-595,-258,-68,80,1,7,11
1.72313E+12,-7861,-1009,-600,2,-71,84,1,7,11
1.72313E+12,-7854,-1008,-603,1,-67,81,1,7,11
1.72313E+12,-7855,-1014,-617,-259,-63,75,1,7,11
1.72313E+12,-7857,-1005,-617,5,-56,65,1,7,11
1.72313E+12,-7870,-987,-627,-269,-69,66,1,7,11
1.72313E+12,-7855,-1011,-610,-287,-80,74,1,7,11
1.72313E+12,-7858,-1012,-614,-277,-68,65,1,7,11
1.72313E+12,-7871,-1004,-610,-271,-67,55,1,7,11
1.72313E+12,-7881,-1004,-610,-270,-75,49,1,7,11
1.72313E+12,-7879,-1001,-619,-273,-81,47,1,7,11
1.72313E+12,-7877,-996,-616,-283,-85,48,1,7,11
1.72313E+12,-7874,-996,-609,-293,-78,52,1,7,11
1.72313E+12,-7878,-1000,-610,-298,-67,55,1,7,11
1.72313E+12,-7878,-1006,-604,-304,-61,62,1,7,11
1.72313E+12,-7879,-1012,-599,-303,-61,70,1,7,11
1.72313E+12,-7876,-1021,-597,-296,-60,73,1,7,11
1.72313E+12,-7879,-1018,-601,-293,-60,71,1,7,11
1.72313E+12,-7875,-1017,-598,-292,-63,71,1,7,11
1.72313E+12,-7879,-1013,-596,-295,-67,74,1,7,11
1.72313E+12,-7874,-1012,-594,-296,-73,80,1,7,11
1.72313E+12,-7866,-1011,-599,-293,-73,83,1,7,11
1.72313E+12,-7861,-1010,-599,-286,-74,80,1,7,11
1.72313E+12,-7858,-1005,-603,-285,-73,72,1,7,11
1.72313E+12,-7859,-1002,-601,-285,-73,63,1,7,11
1.72313E+12,-7862,-997,-602,-286,-78,53,1,7,11
1.72313E+12,-7863,-995,-600,-285,-82,47,1,7,11
1.72313E+12,-7866,-998,-599,-289,-75,36,1,7,11
1.72313E+12,-7873,-1000,-595,-289,-69,29,1,7,11
1.72313E+12,-7880,-1000,-597,-288,-70,32,1,7,11
1.72313E+12,-7878,-997,-597,-281,-72,38,1,7,11
1.72313E+12,-7886,-996,-600,-275,-65,40,1,7,11
1.72313E+12,-7890,-992,-601,-276,-64,45,1,7,11
1.72313E+12,-7882,-996,-588,-280,-68,53,1,7,11
1.72313E+12,-7874,-998,-588,-279,-70,64,1,7,11
1.72313E+12,-7864,-1011,-596,-280,-69,70,1,7,11
1.72313E+12,-7856,-1020,-597,-269,-54,59,1,7,11
1.72313E+12,-7888,-1015,-610,8,-41,36,1,7,11
1.72313E+12,-7897,-1005,-614,13,-51,27,1,7,11
1.72313E+12,-7897,-1003,-619,7,-61,32,1,7,11
1.72313E+12,-7893,-1000,-622,-266,-60,36,1,7,11
1.72313E+12,-7887,-1013,-618,-275,-55,44,1,7,11
1.72313E+12,-7878,-1020,-619,-274,-47,53,1,7,11
1.72313E+12,-7880,-1013,-616,-264,-41,63,1,7,11
1.72313E+12,-7881,-1012,-613,-265,-43,76,1,7,11
1.72313E+12,-7878,-1021,-612,-266,-56,90,1,7,11
1.72313E+12,-7869,-1021,-611,-260,-67,95,1,7,11
1.72313E+12,-7864,-1023,-609,5,-76,90,1,7,11
1.72313E+12,-7857,-1024,-619,10,-80,77,1,7,11
1.72313E+12,-7855,-1008,-620,16,-75,62,1,7,11
1.72313E+12,-7861,-991,-632,9,-76,53,1,7,11
1.72313E+12,-7852,-1001,-631,-272,-79,53,1,7,11
1.72313E+12,-7845,-1021,-630,-279,-73,48,1,7,11
1.72313E+12,-7861,-1014,-623,-273,-68,37,1,7,11
1.72313E+12,-7869,-1014,-632,-270,-72,29,1,7,11
1.72313E+12,-7875,-1010,-626,-269,-79,25,1,7,11
1.72313E+12,-7882,-1007,-629,-270,-90,29,1,7,11
1.72313E+12,-7884,-1015,-626,-273,-98,33,1,7,11
1.72313E+12,-7886,-1021,-626,-278,-102,42,1,7,11
1.72313E+12,-7880,-1024,-631,-283,-103,51,1,7,11
1.72313E+12,-7879,-1285,-626,-283,-96,58,1,7,11
1.72313E+12,-7871,-1286,-626,-280,-89,58,1,7,11
1.72313E+12,-7873,-1285,-626,-278,-84,56,1,7,11
1.72313E+12,-7876,-1023,-637,-278,-82,56,1,7,11
1.72313E+12,-7872,-1013,-632,-284,-84,54,1,7,11
1.72313E+12,-7873,-1015,-628,-290,-83,54,1,7,11
1.72313E+12,-7872,-1019,-622,-295,-88,54,1,7,11
1.72313E+12,-7864,-1023,-633,-297,-91,62,1,7,11
1.72313E+12,-7861,-1018,-628,-300,-83,66,1,7,11
1.72313E+12,-7865,-1021,-619,-306,-76,70,1,7,11
1.72313E+12,-7871,-1284,-613,-310,-77,66,1,7,11
1.72313E+12,-7877,-1292,-604,-304,-86,69,1,7,11
1.72313E+12,-7872,-1298,-613,-295,-99,65,1,7,11
1.72313E+12,-7866,-1288,-621,-286,-95,55,1,7,11
1.72313E+12,-7875,-1023,-619,-283,-88,52,1,7,11
1.72313E+12,-7878,-1289,-614,-287,-87,59,1,7,11
1.72313E+12,-7877,-1283,-610,-284,-93,67,1,7,11
1.72313E+12,-7881,-1012,-618,-272,-95,67,1,7,11
1.72313E+12,-7877,-1007,-620,-276,-98,70,1,7,11
1.72313E+12,-7867,-1009,-625,-286,-102,79,1,7,11
1.72313E+12,-7852,-1011,-623,-294,-100,83,1,7,11
1.72313E+12,-7848,-1024,-618,-295,-93,73,1,7,11
1.72313E+12,-7855,-1281,-618,-280,-82,51,1,7,11
1.72313E+12,-7879,-1015,-615,-264,-80,25,1,7,11
1.72313E+12,-7892,-1009,-615,-259,-89,19,1,7,11
1.72313E+12,-7889,-1015,-617,-267,-101,23,1,7,11
1.72313E+12,-7885,-1022,-615,-277,-105,27,1,7,11
1.72313E+12,-7881,-1289,-607,-279,-102,37,1,7,11
1.72313E+12,-7881,-1290,-607,-263,-94,45,1,7,11
1.72313E+12,-7887,-1022,-608,6,-91,54,1,7,11
1.72313E+12,-7885,-1022,-607,11,-100,64,1,7,11
1.72313E+12,-7878,-1022,-604,10,-122,68,1,7,11
1.72313E+12,-7867,-1020,-608,15,117,57,1,7,11
1.72313E+12,-7856,-1284,-606,15,101,42,1,7,11
1.72313E+12,-7850,-1022,-608,30,100,23,1,7,11
1.72313E+12,-7864,-1012,-610,37,101,18,1,7,11
1.72313E+12,-7851,-1023,-617,27,100,26,1,7,11
1.72313E+12,-7840,-1302,-614,18,116,30,1,7,11
1.72313E+12,-7859,-1302,-603,27,-116,28,1,7,11
1.72313E+12,-7873,-1303,-602,26,-100,29,1,7,11
1.72313E+12,-7891,-1305,-600,23,-85,33,1,7,11
1.72313E+12,-7914,-1302,-600,14,-78,40,1,7,11
1.72313E+12,-7925,-1299,-600,4,-74,55,1,7,11
1.72313E+12,-7920,-1307,-605,-268,-71,71,1,7,11
1.72313E+12,-7910,-1304,-594,-280,-68,88,1,7,11
1.72313E+12,-7901,-1307,-582,-291,-67,99,1,7,11
1.72313E+12,-7894,-1306,-585,-292,-63,107,1,7,11
1.72313E+12,-7886,-1303,-590,-293,-65,112,1,7,11
1.72313E+12,-7878,-1296,-601,-289,-66,114,1,7,11
1.72313E+12,-7863,-1284,-599,-287,-76,113,1,7,11
1.72313E+12,-7852,-1023,-604,-290,-79,112,1,7,11
1.72313E+12,-7841,-1019,-601,-288,-81,107,1,7,11
1.72313E+12,-7842,-1018,-609,-287,-84,99,1,7,11
1.72313E+12,-7845,-1021,-611,-288,-83,87,1,7,11
1.72313E+12,-7852,-1020,-609,-288,-82,75,1,7,11
1.72313E+12,-7861,-1021,-596,-285,-87,67,1,7,11
1.72313E+12,-7871,-1282,-594,-278,-88,62,1,7,11
1.72313E+12,-7881,-1022,-590,-274,-85,56,1,7,11
1.72313E+12,-7895,-1013,-592,-274,-89,62,1,7,11
1.72313E+12,-7900,-1012,-592,-275,-94,78,1,7,11
1.72313E+12,-7900,-1010,-593,-274,-96,90,1,7,11
1.72313E+12,-7895,-997,-599,-276,-101,98,1,7,11
1.72313E+12,-7882,-986,-589,-285,-98,101,1,7,11
1.72313E+12,-7869,-990,-570,-294,-99,99,1,7,11
1.72313E+12,-7855,-988,-567,-298,-94,96,1,7,11
1.72313E+12,-7852,-998,-567,-295,-84,86,1,7,11
1.72313E+12,-7869,-1009,-569,-283,-65,66,1,7,11
1.72313E+12,-7895,-1003,-567,-259,-51,31,1,7,11
1.72313E+12,-7887,-1012,-562,5,-64,34,1,7,11
1.72313E+12,-7872,-1020,-571,16,-81,42,1,7,11
1.72313E+12,-7867,-1294,-579,20,-75,51,1,7,11
1.72313E+12,-7865,-1298,-582,43,-68,58,1,7,11
1.72313E+12,-7869,-1292,-599,63,-65,62,1,7,11
1.72313E+12,-7874,-1024,-618,74,-67,65,1,7,11
1.72313E+12,-7878,-1021,-631,64,-76,70,1,7,11
1.72313E+12,-7876,-1019,-640,41,-84,77,1,7,11
1.72313E+12,-7870,-1018,-397,21,-90,75,1,7,11
1.72313E+12,-7865,-1023,-403,-264,-92,71,1,7,11
1.72313E+12,-7865,-1023,-640,-285,-90,64,1,7,11
1.72313E+12,-7875,-1017,-639,-306,-92,64,1,7,11
1.72313E+12,-7863,-1293,-627,-346,-101,78,1,7,11
1.72313E+12,-7840,-1312,-608,-353,-96,82,1,7,11
1.72313E+12,-7862,-1308,-596,-334,-81,66,1,7,11
1.72313E+12,-7871,-1301,-604,-319,-89,58,1,7,11
1.72313E+12,-7876,-1289,-609,-319,-97,59,1,7,11
1.72313E+12,-7880,-1289,-596,-327,-105,65,1,7,11
1.72313E+12,-7875,-1287,-597,-331,-109,71,1,7,11
1.72313E+12,-7869,-1282,-598,-331,-102,76,1,7,11
1.72313E+12,-7861,-1289,-590,-327,-90,78,1,7,11
1.72313E+12,-7861,-1291,-588,-312,-82,76,1,7,11
1.72313E+12,-7865,-1283,-594,-298,-74,76,1,7,11
1.72313E+12,-7863,-1022,-597,-288,-73,77,1,7,11
1.72313E+12,-7862,-1015,-610,-284,-76,75,1,7,11
1.72313E+12,-7853,-1008,-609,-286,-80,74,1,7,11
1.72313E+12,-7858,-1005,-603,-289,-82,69,1,7,11
1.72313E+12,-7858,-997,-601,-296,-83,66,1,7,11
1.72313E+12,-7861,-995,-601,-307,-85,63,1,7,11
1.72313E+12,-7864,-998,-590,-318,-86,56,1,7,11
1.72313E+12,-7872,-1000,-582,-321,-92,48,1,7,11
1.72313E+12,-7879,-997,-579,-321,-99,40,1,7,11
1.72313E+12,-7887,-988,-569,-326,-93,34,1,7,11
1.72313E+12,-7896,-977,-560,-332,-95,38,1,7,11
1.72313E+12,-7899,-988,-543,-345,-98,50,1,7,11
1.72313E+12,-7895,-1001,-533,-334,-100,62,1,7,11
1.72313E+12,-7882,-1005,-522,-312,-101,66,1,7,11
1.72313E+12,-7868,-1013,-518,-294,-94,67,1,7,11
1.72313E+12,-7855,-1017,-516,-264,-87,68,1,7,11
1.72313E+12,-7856,-1015,-529,28,-71,67,1,7,11
1.72313E+12,-7855,-1021,-545,59,-54,59,1,7,11
1.72313E+12,-7869,-1022,-576,100,-29,41,1,7,11
1.72313E+12,-7894,-1003,-595,-125,-22,23,1,7,11
1.72313E+12,-7893,-988,-624,-126,-31,21,1,7,11
1.72313E+12,-7894,-985,-634,101,-28,26,1,7,11
1.72313E+12,-7892,-1001,-387,66,-19,38,1,7,11
1.72313E+12,-7893,-1019,-638,41,-9,50,1,7,11
1.72313E+12,-7893,-1283,-632,23,-10,64,1,7,11
1.72313E+12,-7891,-1282,-639,16,-25,80,1,7,11
1.72313E+12,-7875,-1291,-628,4,-43,92,1,7,11
1.72313E+12,-7858,-1304,-620,7,-51,98,1,7,11
1.72313E+12,-7847,-1308,-615,21,-54,96,1,7,11
1.72313E+12,-7841,-1307,-626,32,-51,83,1,7,11
1.72313E+12,-7850,-1298,-622,34,-44,64,1,7,11
1.72313E+12,-7864,-1284,-625,31,-39,58,1,7,11
1.72313E+12,-7865,-1292,-626,4,-50,62,1,7,11
1.72313E+12,-7850,-1313,-624,-265,-52,66,1,7,11
1.72313E+12,-7859,-1302,-627,2,-40,56,1,7,11
1.72313E+12,-7872,-1289,-635,1,-43,47,1,7,11
1.72313E+12,-7883,-1287,-628,-266,-53,40,1,7,11
1.72313E+12,-7883,-1022,-627,-279,-68,39,1,7,11
1.72313E+12,-7879,-1021,-631,-296,-81,40,1,7,11
1.72313E+12,-7880,-1282,-627,-303,-84,43,1,7,11
1.72313E+12,-7877,-1283,-622,-301,-82,47,1,7,11
1.72313E+12,-7876,-1022,-617,-300,-82,51,1,7,11
1.72313E+12,-7876,-1017,-620,-306,-81,57,1,7,11
1.72313E+12,-7873,-1017,-613,-307,-79,59,1,7,11
1.72313E+12,-7864,-1017,-610,-303,-75,61,1,7,11
1.72313E+12,-7863,-1019,-617,-301,-69,58,1,7,11
1.72313E+12,-7862,-1019,-610,-302,-62,56,1,7,11
1.72313E+12,-7866,-1024,-606,-304,-53,54,1,7,11
1.72313E+12,-7876,-1020,-607,-300,-53,57,1,7,11
1.72313E+12,-7880,-1023,-609,-290,-55,63,1,7,11
1.72313E+12,-7879,-1021,-617,-286,-61,69,1,7,11
1.72313E+12,-7874,-1023,-623,-278,-71,73,1,7,11
1.72313E+12,-7868,-1281,-628,-270,-79,75,1,7,11
1.72313E+12,-7864,-1023,-626,-263,-80,74,1,7,11
1.72313E+12,-7864,-1020,-626,-260,-77,75,1,7,11
1.72313E+12,-7864,-1024,-630,-264,-75,79,1,7,11
1.72313E+12,-7860,-1284,-636,-267,-71,81,1,7,11
1.72313E+12,-7866,-1024,-628,-266,-67,76,1,7,11
1.72313E+12,-7858,-1015,-631,-271,-70,69,1,7,11
1.72313E+12,-7848,-1010,-639,-278,-73,71,1,7,11
1.72313E+12,-7843,-1020,-634,-290,-68,69,1,7,11
1.72313E+12,-7839,-1295,-631,-293,-55,55,1,7,11
1.72313E+12,-7871,-1291,-626,-277,-39,33,1,7,11
1.72313E+12,-7895,-1020,-636,-266,-48,22,1,7,11
1.72313E+12,-7899,-1015,-389,-273,-69,29,1,7,11
1.72313E+12,-7897,-1020,-388,-293,-80,41,1,7,11
1.72313E+12,-7892,-1283,-385,-311,-77,51,1,7,11
1.72313E+12,-7887,-1294,-635,-320,-70,62,1,7,11
1.72313E+12,-7884,-1292,-632,-318,-59,73,1,7,11
1.72313E+12,-7884,-1286,-633,-324,-55,83,1,7,11
1.72313E+12,-7878,-1289,-388,-332,-61,99,1,7,11
1.72313E+12,-7870,-1288,-403,-346,-61,108,1,7,11
1.72313E+12,-7867,-1284,-414,-361,-55,109,1,7,11
1.72313E+12,-7865,-1017,-442,-131,-49,107,1,7,11
1.72313E+12,-7869,-1011,-454,-171,-40,99,1,7,11
1.72313E+12,-7910,-998,-450,-238,-27,86,1,7,11
1.72313E+12,-7929,-1005,-455,-569,-62,104,1,7,11
1.72313E+12,-7914,-1286,-465,-621,-98,-121,1,7,11
1.72313E+12,-7925,-1297,-467,-399,-102,-100,1,7,11
1.72313E+12,-8195,-1289,-467,-428,-108,-76,1,7,11
1.72313E+12,-8222,-1015,-461,-464,-112,-44,1,7,11
1.72313E+12,-8251,-986,-462,-773,-121,-1,1,7,11
1.72313E+12,-8292,-972,-434,-848,110,309,1,7,11
1.72313E+12,-8281,-949,-416,-890,64,148,1,7,11
1.72313E+12,-8281,-935,-398,-676,41,233,1,7,11
1.72313E+12,-8264,-917,-637,-702,25,573,1,7,11
1.72313E+12,-8256,-901,-622,-741,12,386,1,7,11
1.72313E+12,-8247,-906,-612,-763,-267,446,1,7,11
1.72313E+12,-8250,-1144,-604,-760,-292,491,1,7,11
1.72313E+12,-8250,-1120,-619,-763,-313,788,1,7,11
1.72313E+12,-8255,-1098,-637,-1029,-325,839,1,7,11
1.72313E+12,-8263,-1073,-410,-1049,-321,640,1,7,11
1.72313E+12,-8274,-1055,-430,-1085,-302,702,1,7,11
1.72313E+12,-8302,-1029,-445,-1143,-271,760,1,7,11
1.72313E+12,-8088,-739,-445,-961,18,1072,1,7,11
1.72313E+12,-8148,-698,-449,-1311,31,1140,1,7,11
1.72313E+12,-8185,-666,-459,-1156,17,991,1,7,11
1.72313E+12,-8481,-688,-455,-1269,12,1174,1,7,11
1.72313E+12,-8517,-691,-447,-1610,23,1238,1,7,11
1.72313E+12,-8562,-654,-446,-1642,41,1628,1,7,11
1.72313E+12,-8332,-849,-452,-1654,42,1799,1,7,11
1.72313E+12,-8350,-770,-464,-1417,24,1848,1,7,11
1.72313E+12,-8349,-448,-466,-1467,-267,2322,1,7,11
1.72313E+12,-8324,-638,-475,-1532,-339,2286,1,7,11
1.72313E+12,-8555,-574,-480,-1854,-357,2648,1,7,11
1.72313E+12,-8522,-528,-451,-1701,-136,2930,1,7,11
1.72313E+12,-8544,-188,-407,-1785,-143,2815,1,7,11
1.72313E+12,-8574,-363,-602,-2125,-165,2945,1,7,11
1.72313E+12,-8363,8,-529,-1926,-225,3340,1,7,11
1.72313E+12,-8382,124,-202,-1977,-546,3247,1,7,11
1.72313E+12,-8359,-56,-366,-2014,-610,3682,1,7,11
1.72313E+12,-8336,-10,21,-2019,-399,3843,1,7,11
1.72313E+12,-8576,328,-103,-1949,-437,3735,1,7,11
1.72313E+12,-8550,163,301,-2087,-476,4117,1,7,11
1.72313E+12,-8566,587,186,-1885,-484,4193,1,7,11
1.72313E+12,-8398,824,584,-1416,-491,3971,1,7,11
1.72313E+12,-8769,1111,449,-1216,-793,3998,1,7,11
1.72313E+12,-8827,1360,852,-1370,-667,4034,1,7,11
1.72313E+12,-8793,1267,764,-1332,-1092,4068,1,7,11
1.72313E+12,-8415,1604,941,-1291,-1011,4076,1,7,11
1.72313E+12,-8483,1432,1352,-1126,-1389,4068,1,7,11
1.72313E+12,-8229,1843,1187,-805,-1188,4368,1,7,11
1.72313E+12,-7615,2073,1391,-367,-1376,4291,1,7,11
1.72313E+12,-7466,2023,1005,293,-1139,4551,1,7,11
1.72313E+12,-6861,2239,1093,396,-489,4760,1,7,11
1.72313E+12,-6600,2509,647,734,-325,4860,1,7,11
1.72313E+12,-6397,3137,599,1310,331,4839,1,7,11
1.72313E+12,-6307,3213,333,1372,486,4607,1,7,11
1.72313E+12,-6314,3458,-94,961,1101,4436,1,7,11
1.72313E+12,-6351,3853,91,671,1319,3892,1,7,11
1.72313E+12,-6398,3913,61,607,1396,3026,1,7,11
1.72313E+12,-6708,3720,33,343,1365,2647,1,7,11
1.72313E+12,-6759,3791,-260,64,1011,1761,1,7,11
1.72313E+12,-6558,3826,-274,-234,1128,1176,1,7,11
1.72313E+12,-6641,4118,-266,-504,717,650,1,7,11
1.72313E+12,-7027,4167,50,-1066,781,168,1,7,11
1.72313E+12,-6848,3802,-100,-1211,224,22,1,7,11
1.72313E+12,-6975,3889,-9,-1866,97,-576,1,7,11
1.72313E+12,-6888,3517,315,-2149,-229,-699,1,7,11
1.72313E+12,-6564,3465,349,-2347,-494,-1368,1,7,11
1.72313E+12,-6753,3699,365,-2278,-729,-1428,1,7,11
1.72313E+12,-6764,3682,381,-2464,-1142,-2027,1,7,11
1.72313E+12,-6603,3670,140,-2883,-961,-2564,1,7,11
1.72313E+12,-7001,3600,207,-2782,-1001,-2499,1,7,11
1.72313E+12,-6873,3432,595,-3189,-1011,-2837,1,7,11
1.72313E+12,-7285,3003,477,-3176,-955,-2859,1,7,11
1.72313E+12,-7465,3120,839,-2731,-1124,-2824,1,7,11
1.72313E+12,-7339,2786,893,-2454,-1049,-2675,1,7,11
1.72313E+12,-7709,2776,652,-2425,-871,-2233,1,7,11
1.72313E+12,-7671,2779,718,-2000,-634,-2024,1,7,11
1.72313E+12,-7853,2731,1094,-2147,-231,-1711,1,7,11
1.72313E+12,-8225,2694,925,-1727,-180,-1579,1,7,11
1.72313E+12,-8238,2934,950,-1805,-187,-1146,1,7,11
1.72313E+12,-7885,2886,953,-1648,-202,-451,1,7,11
1.72313E+12,-8001,2841,950,-1212,-146,-317,1,7,11
1.72313E+12,-7632,2830,935,-1016,-303,260,1,7,11
1.72313E+12,-7779,2829,921,-1081,57,531,1,7,11
1.72313E+12,-7694,2866,1144,-896,-99,488,1,7,11
1.72313E+12,-7334,2736,896,-626,290,745,1,7,11
1.72313E+12,-7318,2792,1150,-555,-15,1042,1,7,11
1.72313E+12,-7297,3112,1132,-227,-74,1047,1,7,11
1.72313E+12,-7547,3184,1113,-162,-126,1026,1,7,11
1.72313E+12,-7512,2993,1100,-365,80,746,1,7,11
1.72313E+12,-7490,3061,1094,-310,57,705,1,7,11
1.72313E+12,-7445,3372,1104,11,25,675,1,7,11
1.72313E+12,-7157,3437,1098,99,14,642,1,7,11
1.72313E+12,-7113,3248,1082,-71,3,880,1,7,11
1.72313E+12,-7078,3300,1066,-9,23,854,1,7,11
1.72313E+12,-7289,3319,1068,296,37,827,1,7,11
1.72313E+12,-7223,3318,1062,359,55,786,1,7,11
1.72313E+12,-7177,3309,1060,197,100,462,1,7,11
1.72313E+12,-6884,3281,1046,550,121,394,1,7,11
1.72313E+12,-6821,3225,1043,421,-112,573,1,7,11
1.72313E+12,-6791,3402,1024,832,-82,222,1,7,11
1.72313E+12,-7016,3053,738,1041,-46,372,1,7,11
1.72313E+12,-6854,3034,683,1345,301,-40,1,7,11
1.72313E+12,-7272,3067,840,1655,327,93,1,7,11
1.72313E+12,-7248,3452,772,1691,297,19,1,7,11
1.72313E+12,-7391,3319,435,1933,-38,-280,1,7,11
1.72313E+12,-7701,3662,635,2047,58,-265,1,7,11
1.72313E+12,-7705,3461,590,2319,-142,32,1,7,11
1.72313E+12,-7682,3492,555,2005,-583,64,1,7,11
1.72313E+12,-7362,3463,574,2113,-501,88,1,7,11
1.72313E+12,-7475,3676,599,1696,-893,69,1,7,11
1.72313E+12,-7126,3624,629,1803,-725,18,1,7,11
1.72313E+12,-7047,3322,424,1590,-1042,-316,1,7,11
1.72313E+12,-7285,3281,468,1215,-762,-166,1,7,11
1.72313E+12,-7261,3226,509,1352,-742,-249,1,7,11
1.72313E+12,-7218,3403,807,1003,-688,-578,1,7,11
1.72313E+12,-7231,3346,852,933,-830,-421,1,7,11
1.72313E+12,-7287,2997,708,1073,-467,-783,1,7,11
1.72313E+12,-7071,3079,1092,732,-424,-858,1,7,11
1.72313E+12,-7061,2693,1136,1050,-395,-653,1,7,11
1.72313E+12,-7066,2860,1137,908,-555,-694,1,7,11
1.72313E+12,-7126,2839,1100,1346,-374,-701,1,7,11
1.72313E+12,-7455,2842,1029,1255,73,-895,1,7,11
1.72313E+12,-7445,2831,697,1642,-10,-504,1,7,11
1.72313E+12,-7138,2840,856,1797,243,-625,1,7,11
1.72313E+12,-7451,2909,776,1884,833,-576,1,7,11
1.72313E+12,-7496,2691,777,1855,1081,-522,1,7,11
1.72313E+12,-7524,2713,786,1809,997,-212,1,7,11
1.72313E+12,-7544,2742,772,1498,1337,-156,1,7,11
1.72313E+12,-7306,2764,504,1453,1344,-338,1,7,11
1.72313E+12,-7325,2777,451,1453,1294,11,1,7,11
1.72313E+12,-7395,2813,613,1509,973,87,1,7,11
1.72313E+12,-7571,3169,250,1875,914,110,1,7,11
1.72313E+12,-7897,3445,330,1703,1054,104,1,7,11
1.72313E+12,-7894,3585,-52,1705,819,-60,1,7,11
1.72313E+12,-7966,3467,32,1672,560,-12,1,7,11
1.72313E+12,-7693,3876,-216,1668,193,372,1,7,11
1.72313E+12,-7497,3754,-484,1878,584,354,1,7,11
1.72313E+12,-7450,3819,-679,1478,693,274,1,7,11
1.72313E+12,-7443,4104,-1110,1579,1277,-20,1,7,11
1.72313E+12,-7503,4096,-1286,1189,1855,-44,1,7,11
1.72313E+12,-7310,3777,-1182,969,1789,-29,1,7,11
1.72313E+12,-7326,3741,-1611,926,2151,293,1,7,11
1.72313E+12,-7320,3745,-1804,917,1948,143,1,7,11
1.72313E+12,-7502,3788,-1761,921,1988,564,1,7,11
1.72313E+12,-7434,3827,-1947,1112,2317,503,1,7,11
1.72313E+12,-7105,3794,-2318,700,2381,716,1,7,11
1.72313E+12,-7286,3721,-2360,789,2402,917,1,7,11
1.72313E+12,-7250,3901,-2388,619,2360,1325,1,7,11
1.72313E+12,-6907,3532,-2386,174,1957,1201,1,7,11
1.72313E+12,-6827,3706,-2390,275,1786,1276,1,7,11
1.72313E+12,-7014,3642,-2390,102,1838,1576,1,7,11
1.72313E+12,-6969,3598,-2370,-351,1648,1576,1,7,11
1.72313E+12,-6966,3273,-2033,-594,1173,1536,1,7,11
1.72313E+12,-6943,3438,-2138,-805,896,1240,1,7,11
1.72313E+12,-6633,3371,-1708,-673,839,1179,1,7,11
1.72313E+12,-6634,3365,-1509,-744,529,1323,1,7,11
1.72313E+12,-6951,3394,-1561,-1091,-96,920,1,7,11
1.72313E+12,-6959,3390,-1370,-942,-559,1027,1,7,11
1.72313E+12,-6982,3381,-953,-1024,-750,794,1,7,11
1.72313E+12,-6796,3428,-1054,-1309,-1178,216,1,7,11
1.72313E+12,-6887,3270,-646,-1351,-1846,113,1,7,11
1.72313E+12,-7193,3616,-459,-1198,-2010,-226,1,7,11
1.72313E+12,-7218,3472,-531,-1554,-2664,-776,1,7,11
1.72313E+12,-7227,3847,-337,-1416,-2788,-734,1,7,11
1.72313E+12,-7196,3930,93,-1505,-3384,-1082,1,7,11
1.72313E+12,-6876,3721,-39,-1521,-3611,-1067,1,7,11
1.72313E+12,-7173,3773,291,-1445,-3621,-1030,1,7,11
1.72313E+12,-7254,3775,379,-1591,-3244,-678,1,7,11
1.72313E+12,-7043,3964,247,-1359,-3013,-482,1,7,11
1.72313E+12,-7057,3929,568,-751,-2926,-531,1,7,11
1.72313E+12,-7082,3849,639,-428,-2233,-367,1,7,11
1.72313E+12,-7148,3545,417,-318,-1752,2,1,7,11
1.72313E+12,-7479,3551,425,263,-1553,38,1,7,11
1.72313E+12,-7297,3525,425,228,-920,24,1,7,11
1.72313E+12,-7540,3483,614,446,-882,13,1,7,11
1.72313E+12,-7498,3475,219,646,-578,-288,1,7,11
1.72313E+12,-7090,3500,-68,1058,11,-315,1,7,11
1.72313E+12,-7252,3551,-273,952,407,-348,1,7,11
1.72313E+12,-7173,3558,-177,943,1135,-337,1,7,11
1.72313E+12,-6856,3531,-547,1146,1581,-308,1,7,11
1.72313E+12,-6854,3523,-600,1070,1708,-296,1,7,11
1.72313E+12,-6892,3507,-619,711,1944,-280,1,7,11
1.72313E+12,-7229,3497,-386,869,2031,-267,1,7,11
1.72313E+12,-7093,3494,-640,483,1947,-265,1,7,11
1.72313E+12,-7445,3709,-631,565,1673,-261,1,7,11
1.72313E+12,-7495,3663,-633,155,1267,-273,1,7,11
1.72313E+12,-7499,3626,-398,258,1050,-339,1,7,11
1.72313E+12,-7474,3305,-406,122,580,-198,1,7,11
1.72313E+12,-7444,3245,-400,49,-103,-615,1,7,11
1.72313E+12,-7159,3437,-406,-268,-229,-801,1,7,11
1.72313E+12,-7121,3348,-624,-289,-793,-735,1,7,11
1.72313E+12,-7102,3031,-593,7,-1026,-929,1,7,11
1.72313E+12,-7091,2973,-533,75,-943,-1346,1,7,11
1.72313E+12,-7119,3187,-204,-83,-1021,-1232,1,7,11
1.72313E+12,-7440,3141,-351,273,-1312,-1586,1,7,11
1.72313E+12,-7482,3090,79,134,-1328,-1626,1,7,11
1.72313E+12,-7525,3082,-98,544,-1300,-1632,1,7,11
1.72313E+12,-7315,3111,-36,408,-989,-1601,1,7,11
1.72313E+12,-7348,3127,-6,492,-898,-1268,1,7,11
1.72313E+12,-7398,3126,276,779,-768,-1406,1,7,11
1.72313E+12,-7693,3129,282,505,-862,-935,1,7,11
1.72313E+12,-7713,3135,266,445,-421,-1117,1,7,11
1.72313E+12,-7760,3150,-22,588,-238,-719,1,7,11
1.72313E+12,-7785,3134,-70,171,-318,-835,1,7,11
1.72313E+12,-7791,3114,-100,-17,108,-450,1,7,11
1.72313E+12,-7800,3085,-127,39,277,-595,1,7,11
1.72313E+12,-7793,2810,82,-146,173,-238,1,7,11
1.72313E+12,-7769,2803,31,-571,562,-149,1,7,11
1.72313E+12,-7742,2775,-269,-496,430,-314,1,7,11
1.72313E+12,-7725,2740,-306,-666,818,-278,1,7,11
1.72313E+12,-7737,2713,-325,-1052,686,0,1,7,11
1.72313E+12,-7768,2692,-323,-1150,1060,28,1,7,11
1.72313E+12,-7787,2923,-304,-906,1059,84,1,7,11
1.72313E+12,-7786,2899,-297,-1139,760,-107,1,7,11
1.72313E+12,-7753,2888,-290,-1067,864,-57,1,7,11
1.72313E+12,-7727,2887,-289,-708,484,-37,1,7,11
1.72313E+12,-7693,2910,-300,-838,609,-35,1,7,11
1.72313E+12,-7402,2708,-323,-632,228,-56,1,7,11
1.72313E+12,-7368,2758,-344,-534,374,-90,1,7,11
1.72313E+12,-7340,2798,-367,-209,276,-119,1,7,11
1.72313E+12,-7321,3092,-381,-160,-58,108,1,7,11
1.72313E+12,-7314,3132,-150,-136,-107,76,1,7,11
1.72313E+12,-7304,3147,-150,-139,117,57,1,7,11
1.72313E+12,-7299,3148,-143,-140,124,37,1,7,11
1.72313E+12,-7307,3137,-143,-151,-100,19,1,7,11
1.72313E+12,-7311,3118,-375,-176,-50,11,1,7,11
1.72313E+12,-7320,3094,-345,-196,272,3,1,7,11
1.72313E+12,-7340,2810,-313,-211,348,-267,1,7,11
1.72313E+12,-7368,2785,-281,-222,151,-269,1,7,11
1.72313E+12,-7385,2757,4,-220,195,-263,1,7,11
1.72313E+12,-7407,2730,31,-207,215,4,1,7,11
1.72313E+12,-7417,2709,43,-180,215,12,1,7,11
1.72313E+12,-7414,2697,35,-144,202,11,1,7,11
1.72313E+12,-7412,2693,21,-366,181,5,1,7,11
1.72313E+12,-7408,2688,3,-328,156,-258,1,7,11
1.72313E+12,-7410,2696,-279,-294,134,-266,1,7,11
1.72313E+12,-7420,2710,-305,-269,366,-263,1,7,11
1.72313E+12,-7424,2734,-337,2,336,2,1,7,11
1.72313E+12,-7689,2745,-369,8,298,23,1,7,11
1.72313E+12,-7683,2752,-380,17,259,46,1,7,11
1.72313E+12,-7419,2759,-144,30,-23,60,1,7,11
1.72313E+12,-7413,2771,-163,42,-46,70,1,7,11
1.72313E+12,-7406,2781,-179,58,-63,82,1,7,11
1.72313E+12,-7393,2791,-196,73,-83,94,1,7,11
1.72313E+12,-7364,2786,-205,94,-93,112,1,7,11
1.72313E+12,-7337,2793,-223,-124,-76,116,1,7,11
1.72313E+12,-7321,2793,-230,-86,-50,110,1,7,11
1.72313E+12,-7323,2793,-250,-46,-19,97,1,7,11
1.72313E+12,-7325,2782,-253,-29,-2,75,1,7,11
1.72313E+12,-7323,2778,-520,-13,264,50,1,7,11
1.72313E+12,-7325,2772,-531,-8,268,15,1,7,11
1.72313E+12,-7337,2765,-540,-7,267,-275,1,7,11
1.72313E+12,-7348,2753,-547,-22,266,-307,1,7,11
1.72313E+12,-7376,2742,-551,-27,264,-332,1,7,11
1.72313E+12,-7410,2737,-547,-37,-20,-345,1,7,11
1.72313E+12,-7413,2736,-546,-58,-60,-346,1,7,11
1.72313E+12,-7407,2723,-535,-117,-102,-347,1,7,11
1.72313E+12,-7394,2708,-515,91,-128,-348,1,7,11
1.72313E+12,-7410,2937,-238,42,109,-355,1,7,11
1.72313E+12,-7405,2906,-221,20,92,-348,1,7,11
1.72313E+12,-7403,2909,-208,25,89,-344,1,7,11
1.72313E+12,-7402,2919,-199,34,94,-330,1,7,11
1.72313E+12,-7686,2940,-185,33,109,-315,1,7,11
1.72313E+12,-7704,2719,-194,41,113,-275,1,7,11
1.72313E+12,-7705,2734,-193,32,115,33,1,7,11
1.72313E+12,-7423,2726,-196,27,122,86,1,7,11
1.72313E+12,-7400,2724,-188,47,-110,119,1,7,11
1.72313E+12,-7381,2724,-193,82,-88,-117,1,7,11
1.72313E+12,-7358,2713,-197,96,-67,-115,1,7,11
1.72313E+12,-7335,2709,-195,117,-43,-128,1,7,11
1.72313E+12,-7331,2721,-202,-122,-20,98,1,7,11
1.72313E+12,-7327,2727,-210,125,-11,68,1,7,11
1.72313E+12,-7337,2725,-225,97,256,36,1,7,11
1.72313E+12,-7334,2716,-240,51,263,6,1,7,11
1.72313E+12,-7343,2712,-250,-260,277,-287,1,7,11
1.72313E+12,-7366,2712,-520,-323,291,-317,1,7,11
1.72313E+12,-7395,2709,-528,-137,307,-337,1,7,11
1.72313E+12,-7416,2697,-532,-209,314,-335,1,7,11
1.72313E+12,-7417,2929,-533,-528,320,-320,1,7,11
1.72313E+12,-7681,2919,-536,-567,342,-305,1,7,11
1.72313E+12,-7697,2906,-533,-599,364,-289,1,7,11
1.72313E+12,-7707,2893,-524,-621,129,-268,1,7,11
1.72313E+12,-7704,2891,-531,-630,146,12,1,7,11
1.72313E+12,-7703,2890,-538,-637,165,37,1,7,11
1.72313E+12,-7696,2887,-552,-397,186,64,1,7,11
1.72313E+12,-7690,2871,-548,-413,206,94,1,7,11
1.72313E+12,-7681,2861,-562,-414,221,117,1,7,11
1.72313E+12,-7421,2864,-562,-403,246,122,1,7,11
1.72313E+12,-7423,2876,-561,-394,520,121,1,7,11
1.72313E+12,-7412,2888,-566,-395,520,123,1,7,11
1.72313E+12,-7389,2920,-581,-400,515,115,1,7,11
1.72313E+12,-7388,2943,-584,-406,516,91,1,7,11
1.72313E+12,-7395,2733,-585,-423,251,74,1,7,11
1.72313E+12,-7403,2767,-587,-462,226,81,1,7,11
1.72313E+12,-7405,2776,-587,-507,200,103,1,7,11
1.72313E+12,-7390,2764,-581,-807,180,-128,1,7,11
1.72313E+12,-7370,2749,-566,-833,168,-113,1,7,11
1.72313E+12,-7363,2740,-558,-836,152,-103,1,7,11
1.72313E+12,-7353,2731,-549,-823,378,-94,1,7,11
1.72313E+12,-7339,2722,-544,-800,351,-89,1,7,11
1.72313E+12,-7327,2710,-530,-777,333,-96,1,7,11
1.72313E+12,-7322,2706,-522,-485,309,-117,1,7,11
1.72313E+12,-7331,2716,-520,-438,305,115,1,7,11
1.72313E+12,-7351,2728,-532,-626,281,106,1,7,11
1.72313E+12,-7353,2731,-543,-561,-3,113,1,7,11
1.72313E+12,-7351,2734,-554,-241,-23,114,1,7,11
1.72313E+12,-7339,2736,-559,-166,-25,111,1,7,11
1.72313E+12,-7340,2734,-560,-371,-16,98,1,7,11
1.72313E+12,-7345,2740,-569,-300,-5,91,1,7,11
1.72313E+12,-7364,2747,-588,6,-7,99,1,7,11
1.72313E+12,-7341,2743,-607,34,-17,119,1,7,11
1.72313E+12,-7345,2759,-623,61,260,124,1,7,11
1.72313E+12,-7350,2766,-627,55,283,-124,1,7,11
1.72313E+12,-7357,2773,-623,65,297,-111,1,7,11
1.72313E+12,-7376,2794,-628,49,297,-93,1,7,11
1.72313E+12,-7367,2803,-623,19,275,-66,1,7,11
1.72313E+12,-7360,2815,-625,-265,257,-57,1,7,11
1.72313E+12,-7346,3083,-622,-296,-18,-55,1,7,11
1.72313E+12,-7333,3102,-628,-328,-27,-60,1,7,11
1.72313E+12,-7330,3120,-621,-363,-35,-67,1,7,11
1.72313E+12,-7314,3130,-616,-153,-48,-76,1,7,11
1.72313E+12,-7305,3125,-591,-198,-56,-93,1,7,11
1.72313E+12,-7544,3110,-567,-223,-63,-113,1,7,11
1.72313E+12,-7533,3101,-552,-220,-63,114,1,7,11
1.72313E+12,-7526,3093,-525,-207,-62,86,1,7,11
1.72313E+12,-7529,3078,-248,-171,-60,59,1,7,11
1.72313E+12,-7535,3077,-239,-366,-62,34,1,7,11
1.72313E+12,-7548,3083,-250,-303,-66,12,1,7,11
1.72313E+12,-7310,3082,-520,7,-75,-259,1,7,11
1.72313E+12,-7321,3083,-533,49,-90,-264,1,7,11
1.72313E+12,-7327,3091,-554,86,-109,-263,1,7,11
1.72313E+12,-7320,3085,-569,100,-128,1,1,7,11
1.72313E+12,-7314,3085,-580,104,122,2,1,7,11
1.72313E+12,-7309,3089,-603,101,120,5,1,7,11
1.72313E+12,-7316,3094,-619,85,123,6,1,7,11
1.72313E+12,-7318,3084,-626,58,126,8,1,7,11
1.72313E+12,-7309,2815,-618,33,-119,0,1,7,11
1.72313E+12,-7321,3075,-622,13,-100,-280,1,7,11
1.72313E+12,-7339,2811,-614,-277,-98,-298,1,7,11
1.72313E+12,-7333,2791,-611,-303,-102,-303,1,7,11
1.72313E+12,-7327,2781,-612,-321,-94,-310,1,7,11
1.72313E+12,-7328,2767,-605,-335,-72,-318,1,7,11
1.72313E+12,-7339,2751,-584,-338,-54,-318,1,7,11
1.72313E+12,-7356,2751,-581,-318,-33,-314,1,7,11
1.72313E+12,-7377,2747,-580,-303,-17,-301,1,7,11
1.72313E+12,-7382,2738,-575,-284,-8,-274,1,7,11
1.72313E+12,-7373,2736,-585,-258,257,5,1,7,11
1.72313E+12,-7372,2729,-577,20,270,25,1,7,11
1.72313E+12,-7364,2722,-574,39,290,40,1,7,11
1.72313E+12,-7353,2734,-577,74,313,48,1,7,11
1.72313E+12,-7363,2755,-602,93,336,50,1,7,11
1.72313E+12,-7351,2744,-609,88,349,71,1,7,11
1.72313E+12,-7343,2751,-629,105,365,78,1,7,11
1.72313E+12,-7345,2758,-391,101,376,81,1,7,11
1.72313E+12,-7346,2765,-410,92,382,91,1,7,11
1.72313E+12,-7348,2774,-432,75,380,102,1,7,11
1.72313E+12,-7341,2778,-444,48,366,118,1,7,11
1.72313E+12,-7341,2777,-453,19,350,127,1,7,11
1.72313E+12,-7340,2775,-461,-266,326,-123,1,7,11
1.72313E+12,-7334,2777,-467,-287,303,-120,1,7,11
1.72313E+12,-7330,2778,-470,-311,281,-122,1,7,11
1.72313E+12,-7323,2771,-475,-335,258,-119,1,7,11
1.72313E+12,-7316,2774,-476,-343,-22,-121,1,7,11
1.72313E+12,-7324,2777,-470,-353,-44,125,1,7,11
1.72313E+12,-7318,2780,-464,-360,-62,114,1,7,11
1.72313E+12,-7309,2783,-462,-371,-76,105,1,7,11
1.72313E+12,-7309,2784,-461,-379,-85,94,1,7,11
1.72313E+12,-7308,2771,-455,-135,-85,86,1,7,11
1.72313E+12,-7307,2762,-450,-384,-82,79,1,7,11
1.72313E+12,-7299,2757,-443,-370,-76,73,1,7,11
1.72313E+12,-7548,2757,-439,-344,-62,68,1,7,11
1.72313E+12,-7548,2766,-436,-309,-38,70,1,7,11
1.72313E+12,-7303,2768,-449,-279,-9,81,1,7,11
1.72313E+12,-7314,2776,-445,-257,276,98,1,7,11
1.72313E+12,-7333,2799,-462,23,299,120,1,7,11
1.72313E+12,-7339,2814,-460,36,309,-107,1,7,11
1.72313E+12,-7341,3076,-468,35,312,-77,1,7,11
1.72313E+12,-7320,2811,-479,31,319,-55,1,7,11
1.72313E+12,-7319,3073,-476,30,335,-64,1,7,11
1.72313E+12,-7321,3079,-473,25,334,-79,1,7,11
1.72313E+12,-7310,3078,-477,11,306,-89,1,7,11
1.72313E+12,-7547,2810,-468,-258,275,-104,1,7,11
1.72313E+12,-7532,2807,-474,-262,-13,-128,1,7,11
1.72313E+12,-7540,2813,-471,1,-37,95,1,7,11
1.72313E+12,-7541,2813,-469,1,-70,72,1,7,11
1.72313E+12,-7518,2801,-476,1,-102,55,1,7,11
1.72313E+12,-7497,2779,-485,9,-113,31,1,7,11
1.72313E+12,-7473,2755,-495,33,-100,-257,1,7,11
1.72313E+12,-7468,2759,-496,86,-52,-300,1,7,11
1.72313E+12,-7489,2775,-497,-119,266,-335,1,7,11
1.72313E+12,-7515,2796,-492,-80,322,-358,1,7,11
1.72313E+12,-7304,3097,-500,-51,368,-367,1,7,11
1.72313E+12,-7335,3113,-772,-64,375,-339,1,7,11
1.72313E+12,-7339,3110,-784,-98,373,-302,1,7,11
1.72313E+12,-7346,3106,-801,118,376,-269,1,7,11
1.72313E+12,-7348,3088,-819,68,363,14,1,7,11
1.72313E+12,-7349,3080,-832,27,346,37,1,7,11
1.72313E+12,-7341,2813,-841,-287,316,56,1,7,11
1.72313E+12,-7327,2796,-844,-343,284,67,1,7,11
1.72313E+12,-7320,2773,-844,-142,-5,65,1,7,11
1.72313E+12,-7317,2777,-828,-187,-38,49,1,7,11
1.72313E+12,-7317,2765,-813,-224,-68,18,1,7,11
1.72313E+12,-7317,2758,-803,-234,123,6,1,7,11
1.72313E+12,-7311,2751,-779,-230,77,6,1,7,11
1.72313E+12,-7312,2751,-508,-224,50,-267,1,7,11
1.72313E+12,-7313,2743,-492,-212,38,-281,1,7,11
1.72313E+12,-7307,2747,-494,-191,38,-293,1,7,11
1.72313E+12,-7315,2749,-491,-167,51,-299,1,7,11
1.72313E+12,-7321,2759,-488,-139,65,-291,1,7,11
1.72313E+12,-7325,2766,-483,-376,82,-283,1,7,11
1.72313E+12,-7329,2759,-462,-376,102,-269,1,7,11
1.72313E+12,-7314,2743,-454,-351,126,-258,1,7,11
1.72313E+12,-7328,2741,-457,-324,-104,6,1,7,11
1.72313E+12,-7317,2743,-457,-293,-92,24,1,7,11
1.72313E+12,-7323,2751,-462,-270,-76,38,1,7,11
1.72313E+12,-7327,2761,-469,-261,-64,52,1,7,11
1.72313E+12,-7324,2760,-474,-268,-58,72,1,7,11
1.72313E+12,-7319,2764,-489,-272,-47,84,1,7,11
1.72313E+12,-7315,2756,-486,-290,-30,79,1,7,11
1.72313E+12,-7326,2757,-479,-301,-19,66,1,7,11
1.72313E+12,-7340,2756,-472,-313,-27,53,1,7,11
1.72313E+12,-7338,2758,-476,-339,-75,55,1,7,11
1.72313E+12,-7319,2755,-479,-354,-98,64,1,7,11
1.72313E+12,-7314,2747,-487,-358,-98,70,1,7,11
1.72313E+12,-7302,2745,-490,-352,-87,71,1,7,11
1.72313E+12,-7310,2747,-494,-347,-66,69,1,7,11
1.72313E+12,-7318,2756,-500,-335,-50,69,1,7,11
1.72313E+12,-7332,2759,-507,-334,-41,72,1,7,11
1.72313E+12,-7341,2752,-505,-335,-39,84,1,7,11
1.72313E+12,-7337,2744,-796,-352,-47,95,1,7,11
1.72313E+12,-7345,2735,-826,-138,-41,96,1,7,11
1.72313E+12,-7324,2735,-854,-202,-41,106,1,7,11
1.72313E+12,-7334,2753,-895,-531,259,105,1,7,11
1.72313E+12,-7333,2726,-674,-396,303,117,1,7,11
1.72313E+12,-7361,2736,-698,-491,375,126,1,7,11
1.72313E+12,-7412,2795,-719,-861,168,-98,1,7,11
1.72313E+12,-7703,3141,-739,-756,178,-2,1,7,11
1.72313E+12,-7734,2945,-743,-973,158,139,1,7,11
1.72313E+12,-7716,3187,-707,-1244,356,563,1,7,11
1.72313E+12,-7391,3137,-645,-1443,298,452,1,7,11
1.72313E+12,-7327,3103,-824,-1800,268,777,1,7,11
1.72313E+12,-7537,3105,-489,-1811,259,784,1,7,11
1.72313E+12,-7513,3127,-420,-1518,-7,498,1,7,11
1.72313E+12,-7501,3168,-623,-1449,-28,466,1,7,11
1.72313E+12,-7487,2944,-568,-1631,-57,436,1,7,11
1.72313E+12,-7478,2978,-524,-1280,-84,412,1,7,11
1.72313E+12,-7451,2994,-219,-1166,-110,388,1,7,11
1.72313E+12,-7432,3028,-174,-956,-128,603,1,7,11
1.72313E+12,-7435,3056,-155,-1053,120,586,1,7,11
1.72313E+12,-7444,3353,-155,-888,101,586,1,7,11
1.72313E+12,-7436,3397,-170,-498,64,609,1,7,11
1.72313E+12,-7167,3441,-194,-401,40,627,1,7,11
1.72313E+12,-7160,3230,-226,-601,29,637,1,7,11
1.72313E+12,-7151,3263,-244,-578,19,395,1,7,11
1.72313E+12,-7134,3294,-256,-579,17,411,1,7,11
1.72313E+12,-7115,3326,-523,-604,18,423,1,7,11
1.72313E+12,-7103,3615,-523,-385,33,422,1,7,11
1.72313E+12,-7102,3638,-242,-435,49,416,1,7,11
1.72313E+12,-7085,3628,-228,-484,47,411,1,7,11
1.72313E+12,-7062,3617,-182,-498,55,390,1,7,11
1.72313E+12,-7045,3624,-140,-484,66,600,1,7,11
1.72313E+12,-7042,3631,-356,-458,72,544,1,7,11
1.72313E+12,-7290,3644,-338,-415,67,240,1,7,11
1.72313E+12,-7284,3659,-323,-623,61,194,1,7,11
1.72313E+12,-7280,3676,-300,-569,54,145,1,7,11
1.72313E+12,-7279,3688,-290,-256,43,360,1,7,11
1.72313E+12,-7281,3711,-284,-186,29,310,1,7,11
1.72313E+12,-7280,3475,-289,-380,17,282,1,7,11
1.72313E+12,-7273,3491,-296,-328,9,259,1,7,11
1.72313E+12,-7275,3517,-298,-259,10,-19,1,7,11
1.72313E+12,-7280,3542,-300,21,18,-48,1,7,11
1.72313E+12,-7296,3569,-280,31,21,-71,1,7,11
1.72313E+12,-7052,3850,4,23,8,-93,1,7,11
1.72313E+12,-7042,3851,25,0,-269,-117,1,7,11
1.72313E+12,-7261,3579,54,-264,-289,99,1,7,11
1.72313E+12,-7209,3553,77,-266,-299,30,1,7,11
1.72313E+12,-6867,3500,98,-259,-282,-327,1,7,11
1.72313E+12,-6820,3471,93,51,51,-213,1,7,11
1.72313E+12,-6828,3487,68,118,-86,-628,1,7,11
1.72313E+12,-6871,3492,38,-94,284,-499,1,7,11
1.72313E+12,-6905,3484,6,-56,130,-834,1,7,11
1.72313E+12,-7205,3711,-282,-21,228,-874,1,7,11
1.72313E+12,-7250,3685,-321,280,590,-891,1,7,11
1.72313E+12,-7057,3657,-343,327,425,-886,1,7,11
1.72313E+12,-7101,3625,-367,375,484,-853,1,7,11
1.72313E+12,-7135,3591,-141,166,769,-805,1,7,11
1.72313E+12,-7165,3304,-177,200,772,-502,1,7,11
1.72313E+12,-7427,3277,-211,230,505,-455,1,7,11
1.72313E+12,-7433,3248,-252,250,483,-410,1,7,11
1.72313E+12,-7446,3229,-544,520,460,-627,1,7,11
1.72313E+12,-7451,3211,-599,523,433,-585,1,7,11
1.72313E+12,-7450,3449,-640,513,406,-545,1,7,11
1.72313E+12,-7456,3425,-427,237,639,-516,1,7,11
1.72313E+12,-7452,3402,-444,215,614,-239,1,7,11
1.72313E+12,-7454,3380,-469,196,587,-230,1,7,11
1.72313E+12,-7449,3371,-495,177,551,-223,1,7,11
