timestamp,ax,ay,az,gx,gy,gz,Label1,Label2,Label3
1.72313E+12,-4202,5409,-3650,660,2373,1956,1,7,11
1.72313E+12,-4114,5461,-3478,697,1986,1750,1,7,11
1.72313E+12,-3815,5462,-3493,679,2162,1841,1,7,11
1.72313E+12,-3782,5267,-3582,708,2119,1461,1,7,11
1.72313E+12,-3745,5251,-3862,894,2111,1663,1,7,11
1.72313E+12,-3956,5495,-3889,661,2088,1635,1,7,11
1.72313E+12,-3903,5261,-3719,715,1787,1630,1,7,11
1.72313E+12,-3580,5248,-3772,705,1708,1655,1,7,11
1.72313E+12,-3504,5482,-3821,752,1830,1427,1,7,11
1.72313E+12,-3665,5481,-4156,1081,1655,1479,1,7,11
1.72313E+12,-3304,5479,-4019,1109,1200,1525,1,7,11
1.72313E+12,-3453,5442,-4361,1097,1000,1809,1,7,11
1.72313E+12,-3334,5443,-4477,1098,1057,1811,1,7,11
1.72313E+12,-2991,5446,-4331,1024,891,1527,1,7,11
1.72313E+12,-3150,5432,-4663,643,479,1480,1,7,11
1.72313E+12,-2792,5432,-4483,782,621,1659,1,7,11
1.72313E+12,-2730,5437,-4506,387,554,1539,1,7,11
1.72313E+12,-2711,5470,-4507,518,230,1385,1,7,11
1.72313E+12,-2691,5490,-4731,359,165,981,1,7,11
1.72313E+12,-2921,5473,-4666,-29,359,1097,1,7,11
1.72313E+12,-2899,5447,-4341,-98,320,728,1,7,11
1.72313E+12,-2870,5437,-4300,-97,298,640,1,7,11
1.72313E+12,-2832,5437,-4300,-50,310,834,1,7,11
1.72313E+12,-2555,5460,-4332,-5,336,786,1,7,11
1.72313E+12,-2539,5479,-4631,259,364,475,1,7,11
1.72313E+12,-2539,5482,-4650,-26,382,407,1,7,11
1.72313E+12,-2546,5482,-4643,-59,367,576,1,7,11
1.72313E+12,-2547,5492,-4638,-88,341,241,1,7,11
1.72313E+12,-2541,5480,-4351,-113,322,182,1,7,11
1.72313E+12,-2547,5489,-4338,-103,308,144,1,7,11
1.72313E+12,-2543,5252,-4336,-85,313,140,1,7,11
1.72313E+12,-2546,5264,-4336,-69,327,158,1,7,11
1.72313E+12,-2531,5274,-4345,-54,339,178,1,7,11
1.72313E+12,-2506,5274,-4621,-40,356,190,1,7,11
1.72313E+12,-2481,5264,-4661,-33,381,189,1,7,11
1.72313E+12,-2456,5263,-4700,-19,162,169,1,7,11
1.72313E+12,-2453,5277,-4724,-28,224,379,1,7,11
1.72313E+12,-2436,5273,-4487,-80,230,336,1,7,11
1.72313E+12,-2674,5277,-4510,-111,236,290,1,7,11
1.72313E+12,-2433,5268,-4500,113,236,-16,1,7,11
1.72313E+12,-2455,5259,-4733,100,207,-57,1,7,11
1.72313E+12,-2460,5257,-4726,102,158,-81,1,7,11
1.72313E+12,-2449,5280,-4498,112,377,-95,1,7,11
1.72313E+12,-2452,5292,-4503,79,365,-92,1,7,11
1.72313E+12,-2443,5295,-4491,46,351,-79,1,7,11
1.72313E+12,-2436,5300,-4499,22,348,-64,1,7,11
1.72313E+12,-2676,5307,-4505,-272,356,-45,1,7,11
1.72313E+12,-2674,5297,-4489,-331,356,-26,1,7,11
1.72313E+12,-2662,5268,-4486,-382,330,-6,1,7,11
1.72313E+12,-2623,5477,-4728,-155,301,276,1,7,11
1.72313E+12,-2619,5457,-4697,-139,294,294,1,7,11
1.72313E+12,-2628,5458,-4672,-343,276,301,1,7,11
1.72313E+12,-2618,5477,-4664,-285,-19,297,1,7,11
1.72313E+12,-2597,5493,-4690,18,-46,278,1,7,11
1.72313E+12,-2567,5498,-4707,35,-55,256,1,7,11
1.72313E+12,-2280,5501,-4723,40,-57,-46,1,7,11
1.72313E+12,-2277,5271,-4496,58,-47,-101,1,7,11
1.72313E+12,-2286,5286,-4527,68,-40,103,1,7,11
1.72313E+12,-2296,5276,-4516,29,-20,50,1,7,11
1.72313E+12,-2297,5503,-4487,-280,-6,30,1,7,11
1.72313E+12,-2562,5248,-4732,-289,-1,3,1,7,11
1.72313E+12,-2577,5276,-4730,-283,-2,-269,1,7,11
1.72313E+12,-2581,5288,-4733,-320,-12,-265,1,7,11
1.72313E+12,-2301,5271,-4492,-351,-39,-267,1,7,11
1.72313E+12,-2277,5260,-4495,-376,-63,-293,1,7,11
1.72313E+12,-2260,5267,-4502,-384,-84,-331,1,7,11
1.72313E+12,-2262,5269,-4496,-135,-119,-376,1,7,11
1.72313E+12,-2262,5281,-4502,-147,89,-168,1,7,11
1.72313E+12,-2262,5269,-4736,-176,49,-198,1,7,11
1.72313E+12,-2285,5275,-4731,-166,1,-245,1,7,11
1.72313E+12,-2288,5281,-4723,-175,-318,-544,1,7,11
1.72313E+12,-2293,5284,-4724,-188,-374,-594,1,7,11
1.72313E+12,-2286,5272,-4728,-198,-175,-387,1,7,11
1.72313E+12,-2291,5282,-4489,-193,-225,-451,1,7,11
1.72313E+12,-2295,5304,-4520,-205,-519,-510,1,7,11
1.72313E+12,-2567,5287,-4521,-256,-537,-820,1,7,11
1.72313E+12,-2582,5281,-4522,-536,-561,-883,1,7,11
1.72313E+12,-2620,5280,-4516,-571,-578,-673,1,7,11
1.72313E+12,-2671,5483,-4718,-609,-616,-703,1,7,11
1.72313E+12,-2501,5446,-4671,-625,-399,-725,1,7,11
1.72313E+12,-2827,5435,-4639,-616,-415,-684,1,7,11
1.72313E+12,-2890,5456,-4632,-594,-433,-871,1,7,11
1.72313E+12,-2942,5476,-4633,-599,-511,-832,1,7,11
1.72313E+12,-2716,5503,-4617,-635,-889,-829,1,7,11
1.72313E+12,-2738,5259,-4324,-411,-1048,-870,1,7,11
1.72313E+12,-2788,5276,-4265,-413,-988,-733,1,7,11
1.72313E+12,-3122,5318,-4473,-414,-1228,-912,1,7,11
1.72313E+12,-3186,5338,-4425,-478,-1479,-1360,1,7,11
1.72313E+12,-3019,5291,-4032,-828,-1733,-1573,1,7,11
1.72313E+12,-3419,5283,-4180,-825,-2343,-1853,1,7,11
1.72313E+12,-3281,5280,-3838,-828,-2524,-2156,1,7,11
1.72313E+12,-3710,5284,-3737,-831,-2983,-2249,1,7,11
1.72313E+12,-3886,5305,-3903,-854,-3497,-2882,1,7,11
1.72313E+12,-3808,5296,-3544,-657,-4058,-3003,1,7,11
1.72313E+12,-4196,5497,-3681,-685,-4904,-3608,1,7,11
1.72313E+12,-4075,5413,-3279,-656,-5462,-3926,1,7,11
1.72313E+12,-4227,5113,-3412,-781,-5966,-4215,1,7,11
1.72313E+12,-4677,4998,-3189,-441,-6441,-4285,1,7,11
1.72313E+12,-4869,4851,-3058,-208,-6590,-4640,1,7,11
1.72313E+12,-4859,4743,-2937,94,-7173,-4487,1,7,11
1.72313E+12,-5383,4523,-2538,344,-7482,-4580,1,7,11
1.72313E+12,-5748,4621,-2652,578,-7781,-4982,1,7,11
1.72313E+12,-5766,4616,-2586,734,-7898,-4841,1,7,11
1.72313E+12,-6235,4665,-2586,1136,-8145,-5126,1,7,11
1.72313E+12,-6227,4290,-2295,1084,-8354,-4740,1,7,11
1.72313E+12,-5887,4368,-2231,744,-8519,-4894,1,7,11
1.72313E+12,-6188,4147,-2322,853,-7891,-4889,1,7,11
1.72313E+12,-6096,3715,-2139,787,-7373,-4902,1,7,11
1.72313E+12,-6308,3572,-1734,470,-6820,-4874,1,7,11
1.72313E+12,-6708,3705,-1842,486,-6515,-4711,1,7,11
1.72313E+12,-6629,3628,-1442,492,-5600,-4250,1,7,11
1.72313E+12,-6864,3268,-1263,452,-5204,-4208,1,7,11
1.72313E+12,-7056,3437,-1352,436,-4638,-3554,1,7,11
1.72313E+12,-7425,3372,-998,499,-4169,-3332,1,7,11
1.72313E+12,-7535,2984,-1121,635,-3459,-2921,1,7,11
1.72313E+12,-7353,2790,-667,560,-3058,-2250,1,7,11
1.72313E+12,-7389,2721,-833,564,-2911,-1933,1,7,11
1.72313E+12,-7712,2926,-460,207,-2238,-1713,1,7,11
1.72313E+12,-7719,2858,-639,362,-2143,-1472,1,7,11
1.72313E+12,-7697,2503,-574,-39,-1795,-1556,1,7,11
1.72313E+12,-7701,2605,-186,101,-1200,-1173,1,7,11
1.72313E+12,-7423,2562,-163,-90,-918,-1351,1,7,11
1.72313E+12,-7721,2217,-129,98,-660,-1402,1,7,11
1.72313E+12,-7729,2423,-372,61,-437,-1200,1,7,11
1.72313E+12,-7592,2374,-335,19,-528,-1258,1,7,11
1.72313E+12,-7976,2354,-321,-325,-180,-1260,1,7,11
1.72313E+12,-7983,2037,-335,-235,-138,-1176,1,7,11
1.72313E+12,-8022,2012,-346,-626,-301,-1323,1,7,11
1.72313E+12,-7826,1933,-335,-511,50,-900,1,7,11
1.72313E+12,-7858,1932,-321,-838,-100,-721,1,7,11
1.72313E+12,-7891,1950,-296,-890,-23,-779,1,7,11
1.72313E+12,-7912,1987,-298,-675,297,-563,1,7,11
1.72313E+12,-7884,1982,-308,-1046,364,-335,1,7,11
1.72313E+12,-7837,1991,-291,-912,193,112,1,7,11
1.72313E+12,-8059,2000,-273,-1008,525,259,1,7,11
1.72313E+12,-8030,2031,6,-1323,526,337,1,7,11
1.72313E+12,-7987,2325,24,-1355,513,138,1,7,11
1.72313E+12,-7959,2341,57,-1364,230,169,1,7,11
1.72313E+12,-7636,2385,58,-1317,187,170,1,7,11
1.72313E+12,-7611,2416,53,-1006,165,148,1,7,11
1.72313E+12,-7599,2427,88,-966,379,351,1,7,11
1.72313E+12,-7587,2196,125,-919,311,288,1,7,11
1.72313E+12,-7603,2231,-99,-1134,-61,-60,1,7,11
1.72313E+12,-7607,2260,-78,-1146,38,101,1,7,11
1.72313E+12,-7590,2266,-17,-945,-368,-264,1,7,11
1.72313E+12,-7564,2256,283,-995,-516,-135,1,7,11
1.72313E+12,-7561,2248,324,-1284,-385,-534,1,7,11
1.72313E+12,-7569,2237,372,-1312,-497,-395,1,7,11
1.72313E+12,-7567,2208,185,-1391,-848,-773,1,7,11
1.72313E+12,-7652,2201,232,-1222,-866,-662,1,7,11
1.72313E+12,-7613,2377,563,-1617,-883,-730,1,7,11
1.72313E+12,-7945,2421,550,-1655,-741,-761,1,7,11
1.72313E+12,-7940,2428,527,-1625,-607,-649,1,7,11
1.72313E+12,-7669,2382,520,-1656,-342,-473,1,7,11
1.72313E+12,-7989,2346,582,-1641,-12,-587,1,7,11
1.72313E+12,-8055,2305,420,-1613,253,-168,1,7,11
1.72313E+12,-7817,2008,466,-1279,421,-268,1,7,11
1.72313E+12,-8060,1925,811,-1347,502,-127,1,7,11
1.72313E+12,-8039,1946,787,-719,491,258,1,7,11
1.72313E+12,-8025,2033,497,-406,432,326,1,7,11
1.72313E+12,-8006,2422,606,-154,604,138,1,7,11
1.72313E+12,-7668,2042,391,-327,254,206,1,7,11
1.72313E+12,-7626,2389,250,-83,209,223,1,7,11
1.72313E+12,-7567,2389,522,-87,369,367,1,7,11
1.72313E+12,-7560,2177,192,279,310,-39,1,7,11
1.72313E+12,-7800,2233,367,-56,-62,99,1,7,11
1.72313E+12,-7748,2205,341,66,111,-310,1,7,11
1.72313E+12,-7745,2235,307,-334,47,-245,1,7,11
1.72313E+12,-7754,2206,362,-194,-275,-393,1,7,11
1.72313E+12,-7783,2205,345,-196,-336,-495,1,7,11
1.72313E+12,-7805,2184,331,-244,-135,-807,1,7,11
1.72313E+12,-7808,2411,314,-564,-139,-844,1,7,11
1.72313E+12,-7593,2378,335,-413,-330,-891,1,7,11
1.72313E+12,-7643,2321,364,-496,11,-645,1,7,11
1.72313E+12,-7679,2022,133,-791,104,-868,1,7,11
1.72313E+12,-7978,1978,158,-807,-61,-823,1,7,11
1.72313E+12,-8017,1944,171,-786,282,-495,1,7,11
1.72313E+12,-8044,2173,189,-502,341,-418,1,7,11
1.72313E+12,-8050,2139,208,-439,365,-606,1,7,11
1.72313E+12,-8059,2111,224,-568,363,-565,1,7,11
1.72313E+12,-7835,2123,239,-195,330,-539,1,7,11
1.72313E+12,-7831,2093,522,-361,-10,-523,1,7,11
1.72313E+12,-7844,2119,255,8,-98,-531,1,7,11
1.72313E+12,-7823,2123,223,47,27,-528,1,7,11
1.72313E+12,-8020,2129,174,58,-315,-539,1,7,11
1.72313E+12,-7995,2146,139,33,-347,-577,1,7,11
1.72313E+12,-7949,2132,375,-273,-371,-600,1,7,11
1.72313E+12,-7676,2116,128,-316,-348,-395,1,7,11
1.72313E+12,-7959,2096,158,-342,-308,-453,1,7,11
1.72313E+12,-7996,2083,182,-332,-285,-475,1,7,11
1.72313E+12,-8044,1779,231,-328,-286,-480,1,7,11
1.72313E+12,-7827,1781,226,-267,-303,-423,1,7,11
1.72313E+12,-7853,1761,243,-286,-330,-613,1,7,11
1.72313E+12,-7870,1745,214,-285,-329,-521,1,7,11
1.72313E+12,-7866,1750,189,-133,-311,-192,1,7,11
1.72313E+12,-7863,1702,521,-546,8,-133,1,7,11
1.72313E+12,-7859,1681,549,-640,53,-342,1,7,11
1.72313E+12,-7871,1695,561,-415,97,-310,1,7,11
1.72313E+12,-7855,1671,593,-475,119,-286,1,7,11
1.72313E+12,-7854,1912,392,-770,-122,-279,1,7,11
1.72313E+12,-7857,1906,400,-770,-121,-301,1,7,11
1.72313E+12,-7827,1899,405,-476,85,-324,1,7,11
1.72313E+12,-7821,1885,457,-443,72,-350,1,7,11
1.72313E+12,-7845,1881,463,-620,60,-360,1,7,11
1.72313E+12,-7823,1872,481,-226,23,-368,1,7,11
1.72313E+12,-7837,1864,485,-361,15,-132,1,7,11
1.72313E+12,-7827,1877,460,-267,6,-137,1,7,11
1.72313E+12,-7837,1850,470,41,24,-151,1,7,11
1.72313E+12,-7831,1841,455,107,40,-139,1,7,11
1.72313E+12,-7833,1824,448,-98,73,-142,1,7,11
1.72313E+12,-7818,1832,414,-46,103,-129,1,7,11
1.72313E+12,-7809,1858,434,280,-106,-359,1,7,11
1.72313E+12,-7846,1876,620,344,-71,16,1,7,11
1.72313E+12,-7849,1853,633,282,-80,74,1,7,11
1.72313E+12,-7820,1881,610,-18,-105,61,1,7,11
1.72313E+12,-7838,1887,588,-107,-77,48,1,7,11
1.72313E+12,-7809,1889,559,54,-54,68,1,7,11
1.72313E+12,-7811,1887,550,-284,266,65,1,7,11
1.72313E+12,-7828,1911,529,-337,306,87,1,7,11
1.72313E+12,-8032,1914,217,-196,338,111,1,7,11
1.72313E+12,-8018,1886,234,-596,186,63,1,7,11
1.72313E+12,-8051,1875,512,-417,522,6,1,7,11
1.72313E+12,-7829,1858,577,-417,534,-273,1,7,11
1.72313E+12,-7851,1865,567,-559,219,12,1,7,11
1.72313E+12,-7842,1880,547,-243,140,42,1,7,11
1.72313E+12,-7817,1885,539,-231,338,57,1,7,11
1.72313E+12,-7819,1874,559,-190,302,41,1,7,11
1.72313E+12,-7815,1890,541,-368,256,37,1,7,11
1.72313E+12,-8061,1891,535,-341,-22,26,1,7,11
1.72313E+12,-8062,1895,537,-314,-21,23,1,7,11
1.72313E+12,-7824,1903,551,-293,-23,18,1,7,11
1.72313E+12,-7823,1885,542,-273,-47,33,1,7,11
1.72313E+12,-8062,1870,532,9,-48,49,1,7,11
1.72313E+12,-7813,1874,539,25,-18,52,1,7,11
1.72313E+12,-7840,1870,549,29,262,72,1,7,11
1.72313E+12,-7851,1868,561,41,267,82,1,7,11
1.72313E+12,-7856,1875,542,65,256,97,1,7,11
1.72313E+12,-7846,1886,516,63,-6,115,1,7,11
1.72313E+12,-7842,1897,243,56,256,-127,1,7,11
1.72313E+12,-7838,1908,214,46,272,-110,1,7,11
1.72313E+12,-7838,1667,184,23,306,-86,1,7,11
1.72313E+12,-7839,1677,165,-285,351,-49,1,7,11
1.72313E+12,-7843,1687,174,-359,146,-16,1,7,11
1.72313E+12,-7852,1689,169,-159,175,278,1,7,11
1.72313E+12,-7843,1687,184,-206,183,312,1,7,11
1.72313E+12,-7837,1694,184,-233,183,342,1,7,11
1.72313E+12,-7829,1716,183,-245,175,371,1,7,11
1.72313E+12,-8062,1718,184,-518,159,141,1,7,11
1.72313E+12,-8050,1737,182,-514,165,155,1,7,11
1.72313E+12,-8037,1740,188,-253,163,164,1,7,11
1.72313E+12,-8007,1747,198,-206,165,174,1,7,11
1.72313E+12,-8003,1776,174,-146,170,169,1,7,11
1.72313E+12,-7978,1770,173,-134,170,159,1,7,11
1.72313E+12,-7979,1763,191,-354,205,373,1,7,11
1.72313E+12,-8003,1780,203,-311,223,329,1,7,11
1.72313E+12,-8025,2053,218,-287,236,293,1,7,11
1.72313E+12,-8044,1785,255,-269,241,286,1,7,11
1.72313E+12,-8042,1752,254,47,246,310,1,7,11
1.72313E+12,-8027,1742,227,-99,521,359,1,7,11
1.72313E+12,-8012,1724,233,321,636,203,1,7,11
1.72313E+12,-8023,1738,211,220,502,534,1,7,11
1.72313E+12,-8036,1761,190,586,865,630,1,7,11
1.72313E+12,-8021,1790,139,446,702,490,1,7,11
1.72313E+12,-8024,2074,333,769,1047,837,1,7,11
1.72313E+12,-8005,2089,264,840,1105,668,1,7,11
1.72313E+12,-7993,2138,-88,662,897,726,1,7,11
1.72313E+12,-7996,1948,94,688,932,1028,1,7,11
1.72313E+12,-8002,2001,-259,751,937,1119,1,7,11
1.72313E+12,-7961,2330,-363,679,935,928,1,7,11
1.72313E+12,-7662,2347,-151,774,920,958,1,7,11
1.72313E+12,-7622,2373,-185,401,924,940,1,7,11
1.72313E+12,-7612,2410,-232,532,905,901,1,7,11
1.72313E+12,-7581,2189,-515,183,1122,1130,1,7,11
1.72313E+12,-7560,2238,-573,347,1111,1081,1,7,11
1.72313E+12,-7804,2285,-604,-11,1101,1044,1,7,11
1.72313E+12,-7785,2303,-616,-125,1094,751,1,7,11
1.72313E+12,-7802,2582,-635,54,1102,732,1,7,11
1.72313E+12,-7721,2589,-434,16,1101,761,1,7,11
1.72313E+12,-7712,2597,-465,-276,957,750,1,7,11
1.72313E+12,-7705,2622,-506,-297,1374,1028,1,7,11
1.72313E+12,-7686,2652,-813,-330,1217,1032,1,7,11
1.72313E+12,-7687,2668,-823,-133,1575,1026,1,7,11
1.72313E+12,-7399,2684,-867,-374,1614,1066,1,7,11
1.72313E+12,-7375,2504,-700,-353,1410,1082,1,7,11
1.72313E+12,-7360,2822,-1043,-157,1469,1106,1,7,11
1.72313E+12,-7324,2846,-1102,-518,1797,1141,1,7,11
1.72313E+12,-7314,2874,-904,-635,1881,917,1,7,11
1.72313E+12,-7298,2883,-912,-497,1672,955,1,7,11
1.72313E+12,-7532,2912,-928,-795,1706,998,1,7,11
1.72313E+12,-7528,2726,-967,-820,1737,1289,1,7,11
1.72313E+12,-7515,2778,-992,-653,1748,1328,1,7,11
1.72313E+12,-7502,2808,-984,-761,1755,1359,1,7,11
1.72313E+12,-7471,3100,-1015,-1064,1735,1395,1,7,11
1.72313E+12,-7156,3153,-1287,-1077,1693,1188,1,7,11
1.72313E+12,-7115,2968,-1305,-1046,1677,1230,1,7,11
1.72313E+12,-7079,3015,-1317,-755,1907,1257,1,7,11
1.72313E+12,-7067,3051,-1342,-701,1856,1269,1,7,11
1.72313E+12,-7293,3356,-1328,-676,1532,1276,1,7,11
1.72313E+12,-7233,3426,-1375,-853,1445,1551,1,7,11
1.72313E+12,-6885,3249,-1180,-468,1628,1566,1,7,11
1.72313E+12,-6850,3588,-1235,-608,1591,1580,1,7,11
1.72313E+12,-6798,3635,-1276,-539,1560,1633,1,7,11
1.72313E+12,-6966,3673,-1595,-181,1262,1445,1,7,11
1.72313E+12,-6633,3463,-1643,-318,1274,1514,1,7,11
1.72313E+12,-6572,3840,-1501,121,1600,1839,1,7,11
1.72313E+12,-6780,3923,-1857,-75,1456,1894,1,7,11
1.72313E+12,-6690,3721,-1693,117,1854,1728,1,7,11
1.72313E+12,-6330,3825,-2068,89,2070,2110,1,7,11
1.72313E+12,-6480,4107,-2112,-260,2329,1986,1,7,11
1.72313E+12,-6132,4116,-2136,40,2580,2365,1,7,11
1.72313E+12,-6099,4019,-2015,-81,2839,2215,1,7,11
1.72313E+12,-6079,4400,-2355,94,2812,2601,1,7,11
1.72313E+12,-6217,4442,-2412,-272,2984,2535,1,7,11
1.72313E+12,-6208,4228,-2207,-336,3232,2882,1,7,11
1.72313E+12,-6147,4248,-2248,-133,3587,2805,1,7,11
1.72313E+12,-6010,4283,-2295,-365,3670,2979,1,7,11
1.72313E+12,-5938,4330,-2563,-331,3535,3347,1,7,11
1.72313E+12,-5593,4667,-2619,40,3858,3228,1,7,11
1.72313E+12,-5510,4505,-2683,122,3912,3308,1,7,11
1.72313E+12,-5676,4570,-2473,-74,3936,3624,1,7,11
1.72313E+12,-5312,4933,-2553,289,3945,3654,1,7,11
1.72313E+12,-5497,4952,-2846,308,3902,3644,1,7,11
1.72313E+12,-5099,4737,-2891,194,3516,3638,1,7,11
1.72313E+12,-5213,4788,-2757,604,3631,3326,1,7,11
1.72313E+12,-4792,4801,-3112,495,3210,3228,1,7,11
1.72313E+12,-4869,5167,-3018,692,3042,3063,1,7,11
1.72313E+12,-4721,5203,-3392,1048,3139,3106,1,7,11
1.72313E+12,-4339,5240,-3266,1133,2693,2859,1,7,11
1.72313E+12,-4448,5053,-3634,938,2488,2680,1,7,11
1.72313E+12,-4391,5107,-3703,950,2397,2131,1,7,11
1.72313E+12,-4065,5112,-3523,950,2079,1854,1,7,11
1.72313E+12,-4195,5092,-3886,950,1498,1584,1,7,11
1.72313E+12,-3807,5099,-3777,905,1274,1355,1,7,11
1.72313E+12,-3937,5087,-4150,1063,1391,924,1,7,11
1.72313E+12,-3860,5110,-3976,697,1298,1036,1,7,11
1.72313E+12,-3560,5109,-3999,810,948,685,1,7,11
1.72313E+12,-3548,5098,-3990,435,1084,878,1,7,11
1.72313E+12,-3525,5077,-3983,607,679,821,1,7,11
1.72313E+12,-3490,5038,-3981,554,782,498,1,7,11
1.72313E+12,-3457,5018,-4000,528,417,436,1,7,11
1.72313E+12,-3687,5020,-4036,519,603,633,1,7,11
1.72313E+12,-3682,5037,-4065,250,568,586,1,7,11
1.72313E+12,-3688,5060,-4362,216,541,544,1,7,11
1.72313E+12,-3708,5071,-4375,134,517,249,1,7,11
1.72313E+12,-3462,5066,-4359,296,225,217,1,7,11
1.72313E+12,-3484,5056,-4079,-26,180,172,1,7,11
1.72313E+12,-3485,5041,-4053,-68,373,381,1,7,11
1.72313E+12,-3482,5028,-4041,-58,331,353,1,7,11
1.72313E+12,-3459,5012,-4046,-23,306,347,1,7,11
1.72313E+12,-3685,5013,-4353,290,313,360,1,7,11
1.72313E+12,-3654,5003,-4387,320,353,138,1,7,11
1.72313E+12,-3638,4995,-4452,348,164,167,1,7,11
1.72313E+12,-3639,4995,-4463,356,236,187,1,7,11
1.72313E+12,-3636,4999,-4234,356,528,186,1,7,11
1.72313E+12,-3640,5008,-4227,315,539,175,1,7,11
1.72313E+12,-3630,5007,-4471,262,523,156,1,7,11
1.72313E+12,-3602,5003,-4467,-36,222,132,1,7,11
1.72313E+12,-3315,4994,-4468,-52,190,366,1,7,11
1.72313E+12,-3299,5008,-4470,-52,164,351,1,7,11
1.72313E+12,-3294,5011,-4461,-82,133,349,1,7,11
1.72313E+12,-3297,5016,-4464,-103,332,337,1,7,11
1.72313E+12,-3297,5024,-4473,-122,261,301,1,7,11
1.72313E+12,-3283,5007,-4453,106,-67,270,1,7,11
1.72313E+12,-3277,5015,-4474,113,127,256,1,7,11
1.72313E+12,-3253,5240,-4460,94,95,286,1,7,11
1.72313E+12,-3237,5240,-4478,-125,92,319,1,7,11
1.72313E+12,-3247,4997,-4226,-108,107,360,1,7,11
1.72313E+12,-3250,5009,-4229,-97,109,140,1,7,11
1.72313E+12,-3259,5022,-4238,-90,103,172,1,7,11
1.72313E+12,-3246,5004,-4228,-93,100,205,1,7,11
1.72313E+12,-3218,5004,-4245,-75,103,224,1,7,11
1.72313E+12,-3438,5018,-4279,-66,123,231,1,7,11
1.72313E+12,-3406,5037,-4340,-84,-100,224,1,7,11
1.72313E+12,-3385,5048,-4341,116,-62,207,1,7,11
1.72313E+12,-3372,5048,-4331,54,-29,171,1,7,11
1.72313E+12,-3370,5054,-4323,10,-9,377,1,7,11
1.72313E+12,-3368,5056,-4311,-288,260,327,1,7,11
1.72313E+12,-3363,5054,-4290,-320,-2,252,1,7,11
1.72313E+12,-3362,5055,-4292,-332,-11,-49,1,7,11
1.72313E+12,-3347,5037,-4277,-342,-27,-83,1,7,11
1.72313E+12,-3341,5020,-4260,-325,-76,127,1,7,11
1.72313E+12,-3331,5024,-4263,-285,-115,80,1,7,11
1.72313E+12,-3069,5039,-4289,-259,107,30,1,7,11
1.72313E+12,-3061,5045,-4317,-257,80,-276,1,7,11
1.72313E+12,-3061,5035,-4341,-281,69,-320,1,7,11
1.72313E+12,-3338,5032,-4341,-310,75,-376,1,7,11
1.72313E+12,-3369,5039,-4339,-337,59,-178,1,7,11
1.72313E+12,-3387,5040,-4318,-378,24,-222,1,7,11
1.72313E+12,-3399,5033,-4295,-149,-269,-513,1,7,11
1.72313E+12,-3402,5026,-4278,-165,-303,-532,1,7,11
1.72313E+12,-3411,5016,-4263,-161,-333,-550,1,7,11
1.72313E+12,-3432,5020,-4259,-145,-368,-568,1,7,11
1.72313E+12,-3448,5025,-4258,-140,-162,-588,1,7,11
1.72313E+12,-3210,5030,-4284,-147,-207,-611,1,7,11
1.72313E+12,-3232,5041,-4306,-197,-250,-640,1,7,11
1.72313E+12,-3253,5040,-4304,-548,-562,-422,1,7,11
1.72313E+12,-3260,5042,-4308,-399,-618,-457,1,7,11
1.72313E+12,-3253,5016,-4284,-783,-389,-478,1,7,11
1.72313E+12,-3272,5017,-4251,-837,-426,-798,1,7,11
1.72313E+12,-3291,5027,-4232,-893,-497,-885,1,7,11
1.72313E+12,-3586,5020,-4423,-690,-836,-733,1,7,11
1.72313E+12,-3666,5003,-4072,-723,-727,-945,1,7,11
1.72313E+12,-3462,5003,-4032,-730,-1282,-1334,1,7,11
1.72313E+12,-3525,5005,-3986,-723,-1246,-1230,1,7,11
1.72313E+12,-3845,5011,-4211,-724,-1511,-1650,1,7,11
1.72313E+12,-3896,5244,-4147,-711,-2061,-1824,1,7,11
1.72313E+12,-3717,5229,-3808,-878,-2370,-1762,1,7,11
1.72313E+12,-3809,5227,-3741,-426,-2450,-1958,1,7,11
1.72313E+12,-3971,5243,-3941,-253,-2744,-2375,1,7,11
1.72313E+12,-4464,5222,-3551,-242,-2997,-2202,1,7,11
1.72313E+12,-4707,5175,-3687,-249,-3243,-2262,1,7,11
1.72313E+12,-4948,5144,-3290,-572,-3690,-2590,1,7,11
1.72313E+12,-5127,4806,-3382,-618,-3917,-2659,1,7,11
1.72313E+12,-5076,4773,-2957,-553,-4213,-2504,1,7,11
1.72313E+12,-5476,4978,-2807,-238,-4350,-2527,1,7,11
1.72313E+12,-5274,4873,-2691,-163,-4737,-2496,1,7,11
1.72313E+12,-5342,4536,-2838,-266,-5071,-2497,1,7,11
1.72313E+12,-5657,4492,-2531,-62,-5366,-2494,1,7,11
1.72313E+12,-5704,4505,-2557,249,-5908,-2472,1,7,11
1.72313E+12,-5719,4521,-2832,607,-5935,-2686,1,7,11
1.72313E+12,-5736,4679,-2483,583,-5597,-2643,1,7,11
1.72313E+12,-5559,4339,-2617,579,-5715,-2672,1,7,11
1.72313E+12,-5925,4272,-2223,561,-5341,-2505,1,7,11
1.72313E+12,-5816,4239,-2347,234,-5432,-2888,1,7,11
1.72313E+12,-6223,4399,-1921,364,-5039,-2739,1,7,11
1.72313E+12,-6035,4070,-2112,303,-5182,-2813,1,7,11
1.72313E+12,-6041,4163,-1751,-41,-4945,-2800,1,7,11
1.72313E+12,-6094,3744,-1902,-34,-4261,-2766,1,7,11
1.72313E+12,-6493,3874,-1511,289,-3718,-2754,1,7,11
1.72313E+12,-6697,3558,-1645,156,-3442,-2737,1,7,11
1.72313E+12,-6612,3492,-1564,238,-2772,-2936,1,7,11
1.72313E+12,-6961,3641,-1257,543,-2456,-2848,1,7,11
1.72313E+12,-7017,3287,-1224,586,-2420,-2516,1,7,11
1.72313E+12,-6887,3212,-1182,630,-2135,-2475,1,7,11
1.72313E+12,-7241,3399,-1153,385,-1685,-2683,1,7,11
1.72313E+12,-7068,3337,-1372,628,-1806,-2634,1,7,11
1.72313E+12,-7093,3030,-1366,577,-1486,-2577,1,7,11
1.72313E+12,-7117,2952,-1352,533,-1414,-2263,1,7,11
1.72313E+12,-7165,3188,-1353,252,-1594,-2197,1,7,11
1.72313E+12,-7430,3125,-1302,188,-1251,-2348,1,7,11
1.72313E+12,-7456,2780,-975,375,-1400,-2008,1,7,11
1.72313E+12,-7428,2860,-1147,278,-1333,-1945,1,7,11
1.72313E+12,-7434,2469,-1072,271,-996,-1967,1,7,11
1.72313E+12,-7497,2630,-760,282,-929,-2310,1,7,11
1.72313E+12,-7306,2301,-726,279,-902,-2417,1,7,11
1.72313E+12,-7366,2259,-737,-12,-903,-2274,1,7,11
1.72313E+12,-7417,2430,-891,90,-918,-2648,1,7,11
1.72313E+12,-7625,2321,-827,-274,-934,-2503,1,7,11
1.72313E+12,-7962,1950,-802,-367,-1090,-2472,1,7,11
1.72313E+12,-7970,2148,-852,-249,-1179,-2672,1,7,11
1.72313E+12,-7991,2102,-859,-440,-1395,-2653,1,7,11
1.72313E+12,-8040,2080,-857,-684,-1010,-2579,1,7,11
1.72313E+12,-7854,1771,-793,-958,-1082,-2197,1,7,11
1.72313E+12,-7898,1687,-459,-1384,-893,-2011,1,7,11
1.72313E+12,-8239,1888,-633,-1220,-438,-1790,1,7,11
1.72313E+12,-8281,1829,-545,-1547,-554,-1508,1,7,11
1.72313E+12,-8300,1489,-207,-1590,-208,-1239,1,7,11
1.72313E+12,-8288,1424,-134,-1588,-154,-990,1,7,11
1.72313E+12,-8249,1611,-321,-1255,-148,-766,1,7,11
1.72313E+12,-8224,1610,-296,-1391,-149,-848,1,7,11
1.72313E+12,-7935,1620,-279,-1289,-166,-435,1,7,11
1.72313E+12,-7913,1614,11,-955,-195,-557,1,7,11
1.72313E+12,-7881,1601,62,-1136,-243,-188,1,7,11
1.72313E+12,-7853,1592,95,-1050,-547,-369,1,7,11
1.72313E+12,-7841,1613,121,-705,-585,-328,1,7,11
1.72313E+12,-7860,1657,-104,-652,-628,-309,1,7,11
1.72313E+12,-7859,1424,-70,-646,-435,-284,1,7,11
1.72313E+12,-7860,1461,-59,-891,-486,9,1,7,11
1.72313E+12,-7847,1473,-31,-680,-795,49,1,7,11
1.72313E+12,-7819,1483,-12,-710,-782,91,1,7,11
1.72313E+12,-8062,1500,-2,-737,-465,120,1,7,11
1.72313E+12,-7813,1534,283,-764,-623,-122,1,7,11
1.72313E+12,-7831,1846,296,-1098,-241,-103,1,7,11
1.72313E+12,-8025,1835,320,-1012,-382,-53,1,7,11
1.72313E+12,-8063,1831,361,-1331,59,-77,1,7,11
1.72313E+12,-8036,1845,128,-1359,-91,-49,1,7,11
1.72313E+12,-8017,1828,171,-1371,288,-61,1,7,11
1.72313E+12,-8029,1524,229,-1301,370,-100,1,7,11
1.72313E+12,-7982,1435,549,-1074,348,-116,1,7,11
1.72313E+12,-7984,1483,530,-410,344,79,1,7,11
1.72313E+12,-8042,1805,244,-358,290,44,1,7,11
1.72313E+12,-8058,1840,243,115,-42,44,1,7,11
1.72313E+12,-7826,1831,562,365,87,92,1,7,11
1.72313E+12,-7843,1860,515,473,-333,-102,1,7,11
1.72313E+12,-7887,1894,244,870,-532,-50,1,7,11
1.72313E+12,-8032,1854,528,1028,-476,266,1,7,11
1.72313E+12,-8010,1721,-44,988,-499,-14,1,7,11
1.72313E+12,-7636,1731,-77,842,-458,61,1,7,11
1.72313E+12,-7642,1883,283,600,-568,-376,1,7,11
1.72313E+12,-7968,1914,286,536,-203,-535,1,7,11
1.72313E+12,-8027,1667,298,191,-173,-629,1,7,11
1.72313E+12,-8039,1915,296,345,-156,-454,1,7,11
1.72313E+12,-7838,1883,301,-42,-133,-781,1,7,11
1.72313E+12,-7881,1839,332,97,-157,-796,1,7,11
1.72313E+12,-7901,1805,346,8,-210,-773,1,7,11
1.72313E+12,-7925,1497,377,-325,-524,-481,1,7,11
1.72313E+12,-8194,1446,148,-369,-594,-440,1,7,11
1.72313E+12,-8231,1412,177,-132,-399,-397,1,7,11
1.72313E+12,-8260,1644,215,-137,-478,-586,1,7,11
1.72313E+12,-8278,1646,518,-134,-805,-516,1,7,11
1.72313E+12,-8280,1634,550,-167,-663,-137,1,7,11
1.72313E+12,-8230,1612,603,-182,-758,-295,1,7,11
1.72313E+12,-7927,1622,620,-201,-1052,14,1,7,11
1.72313E+12,-7886,1617,395,-204,-768,38,1,7,11
1.72313E+12,-7835,1601,427,-203,-716,41,1,7,11
1.72313E+12,-7822,1619,441,-209,-885,-259,1,7,11
1.72313E+12,-8063,1623,439,-514,-796,-314,1,7,11
1.72313E+12,-8035,1638,638,-630,-423,-134,1,7,11
1.72313E+12,-8023,1408,428,-894,-522,-244,1,7,11
1.72313E+12,-7817,1635,508,-716,-358,-224,1,7,11
1.72313E+12,-7827,1643,813,-749,-267,-144,1,7,11
1.72313E+12,-7830,1573,647,-742,46,-318,1,7,11
1.72313E+12,-8054,1570,642,-860,91,-292,1,7,11
1.72313E+12,-8056,1566,653,-496,-91,-321,1,7,11
1.72313E+12,-7811,1557,895,-385,-20,-334,1,7,11
1.72313E+12,-7840,1544,887,-556,303,-348,1,7,11
1.72313E+12,-7873,1268,646,-211,336,-337,1,7,11
1.72313E+12,-7884,1251,879,-377,338,-321,1,7,11
1.72313E+12,-7894,1244,859,-291,343,-320,1,7,11
1.72313E+12,-7907,1246,840,35,333,-308,1,7,11
1.72313E+12,-7910,1260,801,87,328,-296,1,7,11
1.72313E+12,-7908,1536,503,92,321,-288,1,7,11
1.72313E+12,-7886,1258,485,49,328,-286,1,7,11
1.72313E+12,-7896,1269,472,17,359,-318,1,7,11
1.72313E+12,-7924,1276,465,-309,381,-359,1,7,11
1.72313E+12,-7931,1257,480,-363,132,-135,1,7,11
1.72313E+12,-8204,1251,483,-353,132,-147,1,7,11
1.72313E+12,-8223,1241,485,-295,374,-383,1,7,11
1.72313E+12,-8240,1245,486,50,340,-331,1,7,11
1.72313E+12,-8253,1227,770,-127,287,-273,1,7,11
1.72313E+12,-8256,1218,773,-8,-31,27,1,7,11
1.72313E+12,-8228,1188,501,302,-114,47,1,7,11
1.72313E+12,-7931,1208,467,365,87,37,1,7,11
1.72313E+12,-7935,1266,427,378,80,-265,1,7,11
1.72313E+12,-7930,1223,464,319,50,-275,1,7,11
1.72313E+12,-7915,1189,817,530,-263,25,1,7,11
1.72313E+12,-8241,1278,494,769,-359,70,1,7,11
1.72313E+12,-8217,1279,473,843,-523,-94,1,7,11
1.72313E+12,-7907,1262,452,653,-588,-83,1,7,11
1.72313E+12,-7844,1595,548,891,-570,-62,1,7,11
1.72313E+12,-7842,1540,596,614,-169,116,1,7,11
1.72313E+12,-7859,1545,625,518,-316,94,1,7,11
1.72313E+12,-7889,1279,403,149,-259,48,1,7,11
1.72313E+12,-7888,1268,429,341,27,19,1,7,11
1.72313E+12,-7892,1267,441,292,69,-271,1,7,11
1.72313E+12,-7897,1244,455,-22,100,-300,1,7,11
1.72313E+12,-7903,1221,472,-49,125,-326,1,7,11
1.72313E+12,-7921,1203,488,-83,-120,-358,1,7,11
1.72313E+12,-7919,1195,497,-105,-112,-374,1,7,11
1.72313E+12,-7936,1173,772,104,-92,-145,1,7,11
1.72313E+12,-8209,1155,796,66,-77,-154,1,7,11
1.72313E+12,-8219,1403,799,29,-73,-157,1,7,11
1.72313E+12,-8213,1393,811,12,-79,-138,1,7,11
1.72313E+12,-8224,1385,816,-279,-77,-136,1,7,11
1.72313E+12,-8227,1383,813,-294,-83,-375,1,7,11
1.72313E+12,-8207,1386,804,-312,-89,-355,1,7,11
1.72313E+12,-7932,1370,803,-326,-71,-343,1,7,11
1.72313E+12,-7915,1357,813,-352,-40,-353,1,7,11
1.72313E+12,-7929,1375,795,-352,-11,-363,1,7,11
1.72313E+12,-7931,1378,792,-382,271,-354,1,7,11
1.72313E+12,-7914,1383,495,-163,295,-332,1,7,11
1.72313E+12,-7890,1185,410,-535,358,-340,1,7,11
1.72313E+12,-7929,1394,506,-493,198,-370,1,7,11
1.72313E+12,-8222,1388,774,-430,211,-262,1,7,11
1.72313E+12,-8240,1164,494,-422,169,84,1,7,11
1.72313E+12,-8223,1405,492,-471,374,-95,1,7,11
1.72313E+12,-8196,1380,773,-510,339,-66,1,7,11
1.72313E+12,-7926,1383,779,-486,319,-70,1,7,11
1.72313E+12,-7917,1392,774,-452,290,-92,1,7,11
1.72313E+12,-7907,1392,770,-416,281,-121,1,7,11
1.72313E+12,-7924,1394,772,-626,286,104,1,7,11
1.72313E+12,-7928,1397,509,-596,281,78,1,7,11
1.72313E+12,-7934,1383,511,-572,286,45,1,7,11
1.72313E+12,-7931,1373,500,-546,298,18,1,7,11
1.72313E+12,-8198,1370,499,-515,324,0,1,7,11
1.72313E+12,-8212,1373,490,-230,340,0,1,7,11
1.72313E+12,-8220,1373,475,-221,338,15,1,7,11
1.72313E+12,-8209,1362,483,-218,318,38,1,7,11
1.72313E+12,-8199,1368,464,-197,313,51,1,7,11
1.72313E+12,-7931,1373,452,-195,310,60,1,7,11
1.72313E+12,-7930,1386,426,-189,324,61,1,7,11
1.72313E+12,-7935,1404,400,-190,329,66,1,7,11
1.72313E+12,-7934,1165,393,-210,330,85,1,7,11
1.72313E+12,-7936,1173,636,-236,337,104,1,7,11
1.72313E+12,-7933,1181,615,-517,341,-127,1,7,11
1.72313E+12,-7930,1195,603,-539,364,-99,1,7,11
1.72313E+12,-7934,1199,598,-578,145,-82,1,7,11
1.72313E+12,-7924,1176,612,-618,171,-59,1,7,11
1.72313E+12,-8196,1179,618,-610,211,-57,1,7,11
1.72313E+12,-8207,1177,631,-596,214,-36,1,7,11
1.72313E+12,-8198,1183,636,-564,217,-16,1,7,11
1.72313E+12,-7935,1187,623,-531,204,263,1,7,11
1.72313E+12,-7921,1186,630,-239,209,269,1,7,11
1.72313E+12,-7936,1195,395,-192,220,257,1,7,11
1.72313E+12,-8193,1184,398,-292,155,-12,1,7,11
1.72313E+12,-7927,1194,632,65,367,-10,1,7,11
1.72313E+12,-7922,1206,612,-121,335,-14,1,7,11
1.72313E+12,-7930,1227,599,-67,311,-21,1,7,11
1.72313E+12,-8201,1234,585,-51,280,-25,1,7,11
1.72313E+12,-7920,1234,567,-53,-22,-20,1,7,11
1.72313E+12,-7899,1236,564,-76,-47,-41,1,7,11
1.72313E+12,-7895,1246,555,-76,-69,-73,1,7,11
1.72313E+12,-7891,1274,534,-100,-106,-102,1,7,11
1.72313E+12,-7884,1268,591,117,124,-117,1,7,11
1.72313E+12,-7900,1545,518,266,116,-64,1,7,11
1.72313E+12,-7888,1545,544,-52,89,-52,1,7,11
1.72313E+12,-7865,1536,543,124,83,-63,1,7,11
1.72313E+12,-7860,1548,541,103,94,-102,1,7,11
1.72313E+12,-7867,1551,538,66,117,121,1,7,11
1.72313E+12,-7866,1551,523,32,-90,108,1,7,11
1.72313E+12,-7889,1536,536,-265,-57,93,1,7,11
1.72313E+12,-7894,1278,552,-265,-48,95,1,7,11
1.72313E+12,-7902,1278,553,0,-39,98,1,7,11
1.72313E+12,-7907,1537,543,14,-29,113,1,7,11
1.72313E+12,-7912,1279,528,33,-27,-111,1,7,11
1.72313E+12,-7909,1273,513,54,-33,-82,1,7,11
1.72313E+12,-7906,1269,246,58,-51,-66,1,7,11
1.72313E+12,-7901,1538,239,71,-86,-63,1,7,11
1.72313E+12,-7897,1571,208,70,118,-79,1,7,11
1.72313E+12,-7888,1595,182,22,63,-106,1,7,11
1.72313E+12,-7872,1608,165,-311,8,116,1,7,11
1.72313E+12,-7852,1606,172,-146,-278,70,1,7,11
1.72313E+12,-7856,1619,187,-227,-285,20,1,7,11
1.72313E+12,-7865,1614,211,-582,-274,-277,1,7,11
1.72313E+12,-7894,1600,245,-417,10,-305,1,7,11
1.72313E+12,-7888,1557,555,-512,49,-312,1,7,11
1.72313E+12,-7914,1273,598,-797,-114,-313,1,7,11
1.72313E+12,-8196,1250,631,-811,-20,-287,1,7,11
1.72313E+12,-8221,1224,417,-794,332,23,1,7,11
1.72313E+12,-8235,1220,428,-487,155,102,1,7,11
1.72313E+12,-8222,1198,441,-445,211,-65,1,7,11
1.72313E+12,-8217,1192,446,-622,514,261,1,7,11
1.72313E+12,-8206,1200,440,-532,533,309,1,7,11
1.72313E+12,-7926,1220,419,-175,519,340,1,7,11
1.72313E+12,-7880,1248,389,-332,231,350,1,7,11
1.72313E+12,-7878,1536,609,0,192,330,1,7,11
1.72313E+12,-7841,1588,549,53,368,297,1,7,11
1.72313E+12,-7817,1590,525,61,347,-2,1,7,11
1.72313E+12,-8058,1600,253,40,304,-62,1,7,11
1.72313E+12,-7829,1616,248,17,307,125,1,7,11
1.72313E+12,-7863,1635,241,-269,296,88,1,7,11
1.72313E+12,-7878,1627,246,-317,278,76,1,7,11
1.72313E+12,-7902,1624,246,-351,273,76,1,7,11
1.72313E+12,-7915,1621,255,-130,269,81,1,7,11
1.72313E+12,-7928,1617,521,-166,282,87,1,7,11
1.72313E+12,-8193,1615,538,-205,296,106,1,7,11
1.72313E+12,-8194,1610,550,-236,309,-126,1,7,11
1.72313E+12,-7930,1616,557,-256,333,-102,1,7,11
1.72313E+12,-7923,1614,563,-529,370,-79,1,7,11
1.72313E+12,-7916,1622,566,-527,166,-50,1,7,11
1.72313E+12,-7925,1638,571,-527,233,-14,1,7,11
1.72313E+12,-8206,1631,618,-527,557,286,1,7,11
1.72313E+12,-7931,1622,639,-198,589,130,1,7,11
1.72313E+12,-7933,1630,636,-364,400,226,1,7,11
1.72313E+12,-7914,1584,592,-273,466,632,1,7,11
1.72313E+12,-7826,1192,518,63,839,804,1,7,11
1.72313E+12,-8054,1313,189,-17,1086,698,1,7,11
1.72313E+12,-7876,1378,343,551,1159,1131,1,7,11
1.72313E+12,-8264,1622,-109,841,1489,1171,1,7,11
1.72313E+12,-8107,1864,-300,894,1777,1845,1,7,11
1.72313E+12,-8128,1746,-146,478,2011,2339,1,7,11
1.72313E+12,-8094,2111,-206,247,2430,2538,1,7,11
1.72313E+12,-8246,1936,-235,262,2245,3133,1,7,11
1.72313E+12,-7849,2016,-527,37,2263,3044,1,7,11
1.72313E+12,-7948,2359,-573,-170,2259,3066,1,7,11
1.72313E+12,-7800,2202,-633,-631,2255,2984,1,7,11
1.72313E+12,-7414,2294,-426,-837,2260,3103,1,7,11
1.72313E+12,-7318,2636,-471,-761,2278,2936,1,7,11
1.72313E+12,-7520,2453,-478,-1142,2298,2498,1,7,11
1.72313E+12,-7487,2537,-776,-905,2283,2608,1,7,11
1.72313E+12,-7436,2879,-821,-904,2242,2226,1,7,11
1.72313E+12,-7139,2940,-855,-1143,2223,2368,1,7,11
1.72313E+12,-7148,2778,-663,-1099,2205,1996,1,7,11
1.72313E+12,-7097,3079,-696,-1103,2392,2167,1,7,11
1.72313E+12,-7090,3122,-743,-1054,2354,1791,1,7,11
1.72313E+12,-7093,2959,-1080,-754,2009,1681,1,7,11
1.72313E+12,-7295,3014,-1143,-1048,2155,1815,1,7,11
1.72313E+12,-7231,3034,-938,-1088,2049,1663,1,7,11
1.72313E+12,-6893,3067,-1288,-1093,1701,1228,1,7,11
1.72313E+12,-6801,3390,-1388,-1102,1675,1293,1,7,11
1.72313E+12,-6996,3210,-1231,-1136,1736,1111,1,7,11
1.72313E+12,-6988,3304,-1578,-914,2130,714,1,7,11
1.72313E+12,-6998,3609,-1643,-971,2030,671,1,7,11
1.72313E+12,-7000,3589,-1652,-1000,2178,712,1,7,11
1.72313E+12,-7024,3593,-1655,-912,2572,1037,1,7,11
1.72313E+12,-6799,3679,-1443,-756,2664,904,1,7,11
1.72313E+12,-7033,3504,-1485,-644,2444,1365,1,7,11
1.72313E+12,-7001,3554,-1795,-818,2453,1597,1,7,11
1.72313E+12,-6933,3880,-1681,-457,2443,1845,1,7,11
1.72313E+12,-6581,3774,-1957,-473,2507,2085,1,7,11
1.72313E+12,-6761,4118,-1961,-1028,2888,2316,1,7,11
1.72313E+12,-6364,4170,-2147,-967,2765,2249,1,7,11
1.72313E+12,-6308,4070,-1923,-940,3195,2636,1,7,11
1.72313E+12,-6521,4433,-2155,-985,2980,2553,1,7,11
1.72313E+12,-6494,4426,-2092,-973,3155,2768,1,7,11
1.72313E+12,-6024,4436,-2153,-1052,2727,3028,1,7,11
1.72313E+12,-5794,4428,-1924,-833,2726,3217,1,7,11
1.72313E+12,-5563,4242,-2137,-610,3330,3672,1,7,11
1.72313E+12,-5900,4694,-2119,311,3682,3556,1,7,11
1.72313E+12,-5911,4868,-1932,573,3567,4111,1,7,11
1.72313E+12,-5592,4922,-2006,478,3870,4423,1,7,11
1.72313E+12,-5534,4736,-2380,687,3843,4677,1,7,11
1.72313E+12,-5714,4850,-2562,1094,3711,4580,1,7,11
1.72313E+12,-5322,5188,-2483,1111,3210,4901,1,7,11
1.72313E+12,-5380,5242,-2903,1093,3142,4889,1,7,11
1.72313E+12,-5162,5057,-2816,1071,2556,4555,1,7,11
1.72313E+12,-4906,5380,-2953,723,2251,4674,1,7,11
1.72313E+12,-4653,5453,-3061,650,2019,4238,1,7,11
1.72313E+12,-4465,5468,-3056,822,2107,4017,1,7,11
1.72313E+12,-4066,5258,-3056,840,1708,3799,1,7,11
1.72313E+12,-4202,5310,-3033,668,1818,3859,1,7,11
1.72313E+12,-4111,5357,-3044,1063,1418,3672,1,7,11
1.72313E+12,-3956,5357,-3343,949,1223,3222,1,7,11
1.72313E+12,-3520,5675,-3228,1153,1318,2990,1,7,11
1.72313E+12,-3602,5721,-3647,1253,974,2737,1,7,11
1.72313E+12,-3208,5531,-3541,1536,939,2464,1,7,11
1.72313E+12,-3070,5578,-3941,1188,915,2191,1,7,11
1.72313E+12,-3199,5585,-3783,1294,916,1927,1,7,11
1.72313E+12,-3095,5555,-4098,1136,923,1912,1,7,11
1.72313E+12,-2780,5560,-4152,1044,941,1634,1,7,11
1.72313E+12,-2769,5559,-4186,663,947,1375,1,7,11
1.72313E+12,-2774,5557,-4212,811,907,1134,1,7,11
1.72313E+12,-2797,5551,-3977,446,1098,680,1,7,11
1.72313E+12,-2806,5518,-3980,610,739,777,1,7,11
1.72313E+12,-2783,5750,-3993,559,874,404,1,7,11
1.72313E+12,-2742,5732,-4027,532,790,589,1,7,11
1.72313E+12,-2720,5727,-4075,516,476,543,1,7,11
1.72313E+12,-2943,5732,-4389,218,431,250,1,7,11
1.72313E+12,-2690,5717,-4404,160,425,212,1,7,11
1.72313E+12,-2706,5715,-4399,368,414,156,1,7,11
1.72313E+12,-2720,5746,-4416,324,386,357,1,7,11
1.72313E+12,-2733,5740,-4403,-14,602,324,1,7,11
1.72313E+12,-2723,5727,-4391,-83,549,299,1,7,11
1.72313E+12,-2694,5695,-4384,121,237,278,1,7,11
1.72313E+12,-2920,5695,-4394,105,205,-13,1,7,11
1.72313E+12,-2915,5701,-4412,90,187,-56,1,7,11
1.72313E+12,-2898,5678,-4410,33,173,-96,1,7,11
1.72313E+12,-2886,5674,-4399,-259,162,120,1,7,11
1.72313E+12,-2887,5687,-4375,-263,152,80,1,7,11
1.72313E+12,-2907,5713,-4369,-265,373,53,1,7,11
1.72313E+12,-2914,5706,-4088,-289,316,34,1,7,11
1.72313E+12,-2904,5704,-4071,-308,262,7,1,7,11
1.72313E+12,-2924,5728,-4067,-284,-39,-289,1,7,11
1.72313E+12,-2944,5738,-4050,-291,-83,-318,1,7,11
1.72313E+12,-2936,5729,-4041,-318,-121,-331,1,7,11
1.72313E+12,-2929,5716,-4043,-325,110,-373,1,7,11
1.72313E+12,-2904,5700,-4040,-344,97,-131,1,7,11
1.72313E+12,-2888,5699,-4070,-346,113,-188,1,7,11
1.72313E+12,-2905,5698,-4088,-333,-102,-234,1,7,11
1.72313E+12,-2936,5707,-4081,-339,-45,-543,1,7,11
1.72313E+12,-2702,5703,-4080,-354,-35,-600,1,7,11
1.72313E+12,-2721,5708,-4092,-365,-32,-401,1,7,11
1.72313E+12,-2697,5659,-4095,-175,-44,-448,1,7,11
1.72313E+12,-2907,5350,-4094,-171,-59,-788,1,7,11
1.72313E+12,-2864,5320,-4090,-130,-67,-654,1,7,11
1.72313E+12,-2832,5306,-4092,-309,-62,-1074,1,7,11
1.72313E+12,-2823,5357,-4404,28,-49,-1016,1,7,11
1.72313E+12,-2828,5655,-4442,25,-38,-1230,1,7,11
1.72313E+12,-2867,5731,-4241,-285,-15,-1430,1,7,11
1.72313E+12,-2712,5744,-4477,-202,-10,-1854,1,7,11
1.72313E+12,-2805,5721,-4447,-631,-90,-1740,1,7,11
1.72313E+12,-3142,5677,-4419,-773,74,-2099,1,7,11
1.72313E+12,-3002,5368,-4355,-842,-283,-1921,1,7,11
1.72313E+12,-3376,5647,-4084,-866,-164,-1971,1,7,11
1.72313E+12,-3212,5375,-4048,-692,-586,-1974,1,7,11
1.72313E+12,-3286,5350,-3996,-1031,-780,-1963,1,7,11
1.72313E+12,-3325,5305,-4209,-1088,-735,-1935,1,7,11
1.72313E+12,-3610,5251,-4162,-1101,-926,-2165,1,7,11
1.72313E+12,-3660,5496,-4137,-1062,-1358,-2163,1,7,11
1.72313E+12,-3700,5432,-3780,-1045,-1552,-1921,1,7,11
1.72313E+12,-3488,5437,-3788,-666,-1533,-1996,1,7,11
1.72313E+12,-3548,5438,-3747,-861,-1765,-2336,1,7,11
1.72313E+12,-3936,5428,-3930,-829,-2007,-2431,1,7,11
1.72313E+12,-3756,5403,-3895,-770,-2567,-2620,1,7,11
1.72313E+12,-3837,5109,-3851,-485,-2752,-2511,1,7,11
1.72313E+12,-4215,5050,-3485,-503,-2982,-2931,1,7,11
1.72313E+12,-4370,5044,-3639,-492,-3230,-3137,1,7,11
1.72313E+12,-4282,4992,-3217,-520,-3516,-3336,1,7,11
1.72313E+12,-4710,5166,-3058,-483,-4098,-3317,1,7,11
1.72313E+12,-4946,5134,-3155,-452,-4434,-3581,1,7,11
1.72313E+12,-5197,4841,-2942,-475,-4548,-3833,1,7,11
1.72313E+12,-5452,4757,-2440,-457,-5219,-4058,1,7,11
1.72313E+12,-5718,4963,-2261,-391,-5715,-4323,1,7,11
1.72313E+12,-5991,4560,-2030,-637,-6260,-4545,1,7,11
1.72313E+12,-6174,4637,-2098,-219,-6580,-4945,1,7,11
1.72313E+12,-6262,4254,-1761,23,-7076,-4794,1,7,11
1.72313E+12,-6054,4372,-1667,-49,-7376,-4843,1,7,11
1.72313E+12,-6108,3984,-1815,174,-7734,-4833,1,7,11
1.72313E+12,-6278,4158,-1430,626,-7411,-4796,1,7,11
1.72313E+12,-6685,3767,-1280,447,-7318,-4950,1,7,11
1.72313E+12,-6776,3569,-1401,796,-7150,-4537,1,7,11
1.72313E+12,-6617,3693,-1022,688,-6811,-4611,1,7,11
1.72313E+12,-6991,3629,-950,898,-6337,-4404,1,7,11
1.72313E+12,-6894,3285,-1042,1121,-5993,-4185,1,7,11
1.72313E+12,-7291,3393,-845,1087,-5445,-3716,1,7,11
1.72313E+12,-7162,2981,-442,1052,-4986,-3841,1,7,11
1.72313E+12,-7509,3082,-566,751,-4338,-3484,1,7,11
1.72313E+12,-7539,2913,-177,689,-4209,-3678,1,7,11
1.72313E+12,-7349,2492,-314,697,-3537,-3681,1,7,11
1.72313E+12,-7405,2683,-292,1081,-3403,-3670,1,7,11
1.72313E+12,-7683,2593,-266,1151,-2747,-3600,1,7,11
1.72313E+12,-7735,2218,38,977,-2579,-3237,1,7,11
1.72313E+12,-7570,2402,76,1323,-2174,-3368,1,7,11
1.72313E+12,-7954,2329,119,1370,-1820,-2982,1,7,11
1.72313E+12,-8057,1951,-86,1381,-1556,-2807,1,7,11
1.72313E+12,-7872,2062,-53,1378,-1368,-2874,1,7,11
1.72313E+12,-8220,1680,-8,1372,-959,-2482,1,7,11
1.72313E+12,-8310,1897,-1,1361,-1129,-2589,1,7,11
1.72313E+12,-8103,1850,275,996,-1101,-2423,1,7,11
1.72313E+12,-8128,1503,310,1093,-1117,-1986,1,7,11
1.72313E+12,-8114,1409,335,685,-898,-2052,1,7,11
1.72313E+12,-8082,1570,350,790,-914,-1881,1,7,11
1.72313E+12,-8296,1206,367,415,-1150,-1464,1,7,11
1.72313E+12,-8257,1389,381,575,-1077,-1583,1,7,11
1.72313E+12,-8256,1312,157,217,-696,-1210,1,7,11
1.72313E+12,-8279,962,230,364,-837,-1375,1,7,11
1.72313E+12,-8296,906,542,318,-495,-1016,1,7,11
1.72313E+12,-8291,1101,598,257,-444,-927,1,7,11
1.72313E+12,-8299,1051,395,-30,-400,-1096,1,7,11
1.72313E+12,-8307,1040,432,-40,-624,-766,1,7,11
1.72313E+12,-8071,1029,457,-67,-600,-692,1,7,11
1.72313E+12,-8320,737,504,-114,-587,-867,1,7,11
1.72313E+12,-8311,737,780,120,-554,-794,1,7,11
1.72313E+12,-8286,706,821,55,-523,-486,1,7,11
1.72313E+12,-8275,706,838,43,-212,-444,1,7,11
1.72313E+12,-8261,714,846,-268,-165,-420,1,7,11
1.72313E+12,-8228,681,889,-367,-381,-420,1,7,11
1.72313E+12,-8235,694,642,-187,-315,-445,1,7,11
1.72313E+12,-8247,692,647,-598,-265,-483,1,7,11
1.72313E+12,-8278,855,736,-779,29,-493,1,7,11
1.72313E+12,-8257,815,755,-833,39,-460,1,7,11
1.72313E+12,-8254,783,1030,-843,95,-465,1,7,11
1.72313E+12,-8267,770,1030,-842,-113,-462,1,7,11
1.72313E+12,-8275,768,1035,-822,-77,-444,1,7,11
1.72313E+12,-8290,502,1052,-782,-50,-407,1,7,11
1.72313E+12,-8066,769,1035,-473,-39,-603,1,7,11
1.72313E+12,-8317,477,1031,-477,-63,-521,1,7,11
1.72313E+12,-8304,398,1048,-439,-82,-203,1,7,11
1.72313E+12,-8294,631,733,-566,-66,-173,1,7,11
1.72313E+12,-8098,425,874,-234,266,-174,1,7,11
1.72313E+12,-8130,465,783,-525,374,-364,1,7,11
1.72313E+12,-8142,467,494,-576,528,14,1,7,11
1.72313E+12,-8467,460,463,-548,427,-127,1,7,11
1.72313E+12,-8481,436,459,-216,465,289,1,7,11
1.72313E+12,-8186,457,401,-322,503,177,1,7,11
1.72313E+12,-8181,475,623,50,812,514,1,7,11
1.72313E+12,-8157,504,563,-67,841,574,1,7,11
1.72313E+12,-8154,776,250,317,867,589,1,7,11
1.72313E+12,-8147,791,197,196,854,597,1,7,11
1.72313E+12,-8131,814,138,615,827,579,1,7,11
1.72313E+12,-8156,857,335,770,814,528,1,7,11
1.72313E+12,-8177,887,262,893,785,234,1,7,11
1.72313E+12,-8500,650,-72,1025,775,175,1,7,11
1.72313E+12,-8329,688,117,940,476,143,1,7,11
1.72313E+12,-8370,743,52,1355,388,149,1,7,11
1.72313E+12,-8374,1056,11,1202,550,170,1,7,11
1.72313E+12,-8343,1115,-265,1231,210,224,1,7,11
1.72313E+12,-8330,942,-262,1165,146,531,1,7,11
1.72313E+12,-8358,1011,9,1008,317,603,1,7,11
1.72313E+12,-8381,1324,15,1038,-77,452,1,7,11
1.72313E+12,-8369,1383,27,510,28,822,1,7,11
1.72313E+12,-8525,1361,67,211,-129,696,1,7,11
1.72313E+12,-8474,1389,-127,-13,-189,743,1,7,11
1.72313E+12,-8138,1177,257,5,-539,1058,1,7,11
1.72313E+12,-8249,1217,329,-188,-606,1094,1,7,11
1.72313E+12,-7869,1218,185,-417,-421,1107,1,7,11
1.72313E+12,-8055,1230,571,-833,-456,1102,1,7,11
1.72313E+12,-7983,1537,398,-643,-788,1075,1,7,11
1.72313E+12,-7940,1554,768,-664,-845,1055,1,7,11
1.72313E+12,-7626,1572,878,-663,-661,1045,1,7,11
1.72313E+12,-7808,1554,753,-890,-729,750,1,7,11
1.72313E+12,-7761,1568,1114,-781,-1026,683,1,7,11
1.72313E+12,-7684,1279,1335,-584,-1113,656,1,7,11
1.72313E+12,-7689,1617,1293,-99,-916,668,1,7,11
1.72313E+12,-7416,1656,1363,296,-997,684,1,7,11
1.72313E+12,-7521,1438,950,200,-1301,733,1,7,11
1.72313E+12,-7159,1480,1006,-33,-1094,449,1,7,11
1.72313E+12,-7516,1453,1344,-123,-892,210,1,7,11
1.72313E+12,-7522,1459,1370,102,-806,-15,1,7,11
1.72313E+12,-7314,1442,1163,114,-471,53,1,7,11
1.72313E+12,-7320,1430,1169,-71,-403,-375,1,7,11
1.72313E+12,-7366,1663,1173,257,-543,-529,1,7,11
1.72313E+12,-7410,1632,1159,340,-200,-634,1,7,11
1.72313E+12,-7686,1600,1403,173,-370,-453,1,7,11
1.72313E+12,-7712,1580,1386,524,-281,-500,1,7,11
1.72313E+12,-7735,1574,1346,602,56,-769,1,7,11
1.72313E+12,-7756,1572,1307,388,-127,-773,1,7,11
1.72313E+12,-7796,1591,1010,407,-59,-774,1,7,11
1.72313E+12,-7617,1602,979,631,-10,-780,1,7,11
1.72313E+12,-8011,1621,964,569,271,-819,1,7,11
1.72313E+12,-7911,1424,932,239,-11,-861,1,7,11
1.72313E+12,-8316,1436,926,334,-90,-654,1,7,11
1.72313E+12,-8168,1448,899,-82,64,-687,1,7,11
1.72313E+12,-8508,1439,1149,-268,-282,-702,1,7,11
1.72313E+12,-8574,1410,916,-194,-338,-695,1,7,11
1.72313E+12,-8390,1646,955,-597,-353,-679,1,7,11
1.72313E+12,-8446,1622,1018,-479,-361,-891,1,7,11
1.72313E+12,-8435,1569,1336,-871,-360,-821,1,7,11
1.72313E+12,-8414,1248,1404,-726,-323,-503,1,7,11
1.72313E+12,-8546,1367,1230,-1063,-269,-417,1,7,11
1.72313E+12,-8467,1300,1250,-1059,-76,-548,1,7,11
1.72313E+12,-8144,1008,1219,-725,365,-202,1,7,11
1.72313E+12,-8078,999,1160,-869,578,-350,1,7,11
1.72313E+12,-8242,1001,1329,-476,804,37,1,7,11
1.72313E+12,-7867,996,975,-589,767,-80,1,7,11
1.72313E+12,-7998,975,1120,-149,1000,282,1,7,11
1.72313E+12,-7940,1022,701,70,1228,307,1,7,11
1.72313E+12,-7651,1333,803,-19,1657,274,1,7,11
1.72313E+12,-7632,1380,424,370,1520,-63,1,7,11
1.72313E+12,-7639,1172,564,192,1826,83,1,7,11
1.72313E+12,-7671,1204,222,207,1823,-307,1,7,11
1.72313E+12,-7989,1231,163,184,1492,-189,1,7,11
1.72313E+12,-8046,1234,136,373,1595,-561,1,7,11
1.72313E+12,-7859,1227,155,289,1398,-409,1,7,11
1.72313E+12,-8214,1215,149,-44,912,-497,1,7,11
1.72313E+12,-8066,1205,164,77,649,-824,1,7,11
1.72313E+12,-8180,1177,213,-337,630,-868,1,7,11
1.72313E+12,-8518,1165,238,-225,333,-850,1,7,11
1.72313E+12,-8555,1406,517,-633,74,-773,1,7,11
1.72313E+12,-8555,1392,536,-837,-163,-575,1,7,11
1.72313E+12,-8523,1363,590,-692,-219,-146,1,7,11
1.72313E+12,-8470,1397,601,-724,-206,59,1,7,11
1.72313E+12,-8146,1181,619,-1029,-132,266,1,7,11
1.72313E+12,-8085,1227,633,-1055,3,205,1,7,11
1.72313E+12,-8285,1267,391,-1075,-122,396,1,7,11
1.72313E+12,-8210,1551,419,-1088,-7,809,1,7,11
1.72313E+12,-7870,1575,443,-1069,345,665,1,7,11
1.72313E+12,-8051,1583,452,-1033,157,711,1,7,11
1.72313E+12,-8009,1614,466,-715,208,681,1,7,11
1.72313E+12,-8015,1639,469,-647,216,865,1,7,11
1.72313E+12,-8034,1660,474,-843,171,511,1,7,11
1.72313E+12,-8060,1660,487,-776,350,398,1,7,11
1.72313E+12,-7826,1417,480,-439,-11,550,1,7,11
1.72313E+12,-7833,1651,478,-640,-103,177,1,7,11
1.72313E+12,-7874,1644,483,-553,95,326,1,7,11
1.72313E+12,-7901,1624,498,-208,45,-5,1,7,11
1.72313E+12,-8195,1624,500,-341,18,-33,1,7,11
1.72313E+12,-8209,1649,494,26,4,-2,1,7,11
1.72313E+12,-7928,1660,488,107,22,339,1,7,11
1.72313E+12,-7895,1414,466,-83,72,189,1,7,11
1.72313E+12,-7845,1435,450,-31,-89,605,1,7,11
1.72313E+12,-7815,1461,435,280,-36,445,1,7,11
1.72313E+12,-8038,1482,416,288,-2,781,1,7,11
1.72313E+12,-7994,1510,396,282,271,841,1,7,11
1.72313E+12,-7962,1808,628,260,288,871,1,7,11
1.72313E+12,-7676,1836,617,-63,285,874,1,7,11
1.72313E+12,-7941,1859,598,-128,282,841,1,7,11
1.72313E+12,-7952,1892,574,57,-10,787,1,7,11
1.72313E+12,-7954,1899,569,-287,-61,460,1,7,11
1.72313E+12,-7971,1919,560,-350,-98,621,1,7,11
1.72313E+12,-7978,1684,545,-173,118,523,1,7,11
1.72313E+12,-7995,1686,535,-235,105,173,1,7,11
1.72313E+12,-8030,1689,255,-254,-109,324,1,7,11
1.72313E+12,-8212,1757,227,-238,-16,-76,1,7,11
1.72313E+12,-8132,2096,221,-245,269,96,1,7,11
1.72313E+12,-8117,2087,519,-593,-69,109,1,7,11
1.72313E+12,-8311,1770,570,-397,-80,98,1,7,11
1.72313E+12,-8239,1688,607,-452,-101,76,1,7,11
1.72313E+12,-7848,1806,406,-476,-93,51,1,7,11
1.72313E+12,-7965,1427,425,-412,-13,-273,1,7,11
1.72313E+12,-7640,1603,434,-573,144,-383,1,7,11
1.72313E+12,-7634,1267,453,-229,564,-247,1,7,11
1.72313E+12,-7671,1190,441,-129,438,-606,1,7,11
1.72313E+12,-7947,1340,437,-282,773,-417,1,7,11
1.72313E+12,-7951,996,400,-111,843,-457,1,7,11
1.72313E+12,-7949,932,608,341,664,-485,1,7,11
1.72313E+12,-7965,1141,523,562,755,-504,1,7,11
1.72313E+12,-7977,1094,194,510,1095,-512,1,7,11
1.72313E+12,-8040,1080,128,732,943,-781,1,7,11
1.72313E+12,-7864,1123,302,928,1004,-508,1,7,11
1.72313E+12,-8197,917,-27,1323,1280,-456,1,7,11
1.72313E+12,-8275,1009,-96,1401,1009,-620,1,7,11
1.72313E+12,-8112,1364,105,1377,953,-239,1,7,11
1.72313E+12,-8189,1183,71,1002,1091,-338,1,7,11
1.72313E+12,-8509,1247,37,1090,674,87,1,7,11
1.72313E+12,-8541,1562,4,886,484,-4,1,7,11
1.72313E+12,-8530,1614,-281,397,538,151,1,7,11
1.72313E+12,-8474,1663,-306,135,350,550,1,7,11
1.72313E+12,-8136,1460,-309,104,-48,408,1,7,11
1.72313E+12,-8094,1526,-291,-183,125,475,1,7,11
1.72313E+12,-8288,1834,-272,-499,41,800,1,7,11
1.72313E+12,-8193,1847,33,-1066,-277,869,1,7,11
1.72313E+12,-7854,1848,69,-1321,-294,661,1,7,11
1.72313E+12,-7993,1821,95,-1267,-281,706,1,7,11
1.72313E+12,-7626,1529,126,-1638,71,725,1,7,11
1.72313E+12,-7807,1508,-102,-1415,80,677,1,7,11
1.72313E+12,-7800,1506,-82,-1656,524,879,1,7,11
1.72313E+12,-7803,1490,-46,-1622,416,821,1,7,11
1.72313E+12,-7793,1460,-19,-1502,790,505,1,7,11
1.72313E+12,-7583,1464,-34,-1338,653,413,1,7,11
1.72313E+12,-7650,1502,-73,-911,751,581,1,7,11
1.72313E+12,-7982,1815,-117,-768,1086,252,1,7,11
1.72313E+12,-8039,1901,88,-675,1143,209,1,7,11
1.72313E+12,-7850,1724,42,-665,924,198,1,7,11
1.72313E+12,-7866,1773,-268,-723,925,239,1,7,11
1.72313E+12,-7858,2059,-328,-1070,942,564,1,7,11
1.72313E+12,-7846,2076,-364,-916,1000,385,1,7,11
1.72313E+12,-7859,2101,-130,-1013,1328,464,1,7,11
1.72313E+12,-7842,2138,-139,-1347,1381,835,1,7,11
1.72313E+12,-7827,2175,-151,-1159,1176,703,1,7,11
1.72313E+12,-8060,1966,-190,-1213,1203,1110,1,7,11
1.72313E+12,-7996,1972,-227,-1568,1216,1000,1,7,11
1.72313E+12,-7666,1971,-234,-1641,1262,1366,1,7,11
1.72313E+12,-7645,1998,-520,-1652,1587,1191,1,7,11
1.72313E+12,-7609,2043,-570,-1646,1640,1271,1,7,11
1.72313E+12,-7574,2328,-616,-1654,1447,1602,1,7,11
1.72313E+12,-7554,2375,-415,-1619,1525,1427,1,7,11
1.72313E+12,-7793,2186,-486,-1579,1860,1513,1,7,11
1.72313E+12,-7775,2249,-832,-1551,1679,1869,1,7,11
1.72313E+12,-7720,2279,-652,-1539,1749,1720,1,7,11
1.72313E+12,-7421,2585,-747,-1230,2108,2070,1,7,11
1.72313E+12,-7393,2683,-1099,-1173,1961,2165,1,7,11
1.72313E+12,-7338,2532,-928,-1398,2318,2031,1,7,11
1.72313E+12,-7496,2892,-1015,-1354,2428,2183,1,7,11
1.72313E+12,-7096,2718,-1367,-1317,2575,2588,1,7,11
1.72313E+12,-7199,2775,-1402,-1303,2554,2673,1,7,11
1.72313E+12,-6848,3104,-1403,-970,3124,2675,1,7,11
1.72313E+12,-6837,2968,-1383,-1106,3437,2627,1,7,11
1.72313E+12,-6884,3340,-1376,-720,3662,2595,1,7,11
1.72313E+12,-6893,3226,-1401,-796,3512,2641,1,7,11
1.72313E+12,-6879,3628,-1215,-390,3557,2467,1,7,11
1.72313E+12,-6854,3459,-1261,-561,3537,2554,1,7,11
1.72313E+12,-6789,3557,-1616,-158,3459,2924,1,7,11
1.72313E+12,-6945,3907,-1470,-273,3591,2767,1,7,11
1.72313E+12,-6566,3757,-1836,-120,3217,3102,1,7,11
1.72313E+12,-6678,4128,-1711,269,3364,3180,1,7,11
1.72313E+12,-6525,3996,-2085,347,3042,2999,1,7,11
1.72313E+12,-6106,4088,-1932,356,3002,3060,1,7,11
1.72313E+12,-6212,4421,-2018,359,3003,3351,1,7,11
1.72313E+12,-5829,4273,-2403,355,3037,3359,1,7,11
1.72313E+12,-5997,4347,-2228,-55,3371,3329,1,7,11
1.72313E+12,-5930,4634,-2247,-258,3443,2989,1,7,11
1.72313E+12,-5627,4731,-2576,-151,3239,3131,1,7,11
1.72313E+12,-5589,4495,-2576,-412,3227,2768,1,7,11
1.72313E+12,-5545,4563,-2256,-776,3432,2937,1,7,11
1.72313E+12,-5522,4736,-2281,-473,3040,2885,1,7,11
1.72313E+12,-5707,4869,-2665,-495,2792,2878,1,7,11
1.72313E+12,-5314,5135,-2658,-835,2629,2497,1,7,11
1.72313E+12,-5493,5182,-2437,-751,2309,2632,1,7,11
1.72313E+12,-5120,5201,-2469,-389,1695,2283,1,7,11
1.72313E+12,-5192,5204,-2518,-203,1622,2230,1,7,11
1.72313E+12,-4926,5237,-2900,54,1393,2208,1,7,11
1.72313E+12,-4695,5019,-2776,266,1383,2416,1,7,11
1.72313E+12,-4321,5060,-3116,150,1247,2318,1,7,11
1.72313E+12,-4268,5099,-3171,251,1644,1956,1,7,11
1.72313E+12,-4253,5415,-2990,564,1507,2082,1,7,11
1.72313E+12,-4249,5471,-3060,573,1827,1687,1,7,11
1.72313E+12,-4261,5259,-3374,537,1841,1799,1,7,11
1.72313E+12,-4256,5272,-3385,201,1534,1417,1,7,11
1.72313E+12,-4234,5267,-3394,161,1428,1561,1,7,11
1.72313E+12,-4457,5266,-3435,135,1552,1216,1,7,11
1.72313E+12,-4413,5256,-3220,370,1202,1159,1,7,11
1.72313E+12,-4355,5252,-3259,368,1381,1395,1,7,11
1.72313E+12,-4022,5259,-3325,144,1320,1401,1,7,11
1.72313E+12,-4216,5293,-3647,191,1022,1170,1,7,11
1.72313E+12,-4165,5345,-3457,206,969,1215,1,7,11
1.72313E+12,-4110,5331,-3472,151,1103,1239,1,7,11
1.72313E+12,-3780,5343,-3508,151,658,1210,1,7,11
1.72313E+12,-3952,5337,-3529,148,455,1393,1,7,11
1.72313E+12,-3884,5355,-3572,176,516,1014,1,7,11
1.72313E+12,-3558,5632,-3873,178,343,1130,1,7,11
1.72313E+12,-3494,5640,-3894,166,-50,723,1,7,11
1.72313E+12,-3694,5647,-3914,383,117,828,1,7,11
1.72313E+12,-3656,5657,-3929,332,70,421,1,7,11
1.72313E+12,-3637,5659,-3943,-25,78,541,1,7,11
1.72313E+12,-3640,5648,-3904,-125,123,153,1,7,11
1.72313E+12,-3664,5658,-3870,56,-88,284,1,7,11
1.72313E+12,-3687,5648,-3569,8,-27,-65,1,7,11
1.72313E+12,-3466,5657,-3536,3,305,126,1,7,11
1.72313E+12,-3498,5682,-3505,27,132,110,1,7,11
1.72313E+12,-3507,5685,-3467,47,211,-117,1,7,11
1.72313E+12,-3510,5686,-3462,119,542,-65,1,7,11
1.72313E+12,-3501,5690,-3508,-58,625,261,1,7,11
1.72313E+12,-3491,5673,-3548,-4,455,332,1,7,11
1.72313E+12,-3479,5673,-3860,313,783,371,1,7,11
1.72313E+12,-3468,5662,-3926,345,820,130,1,7,11
1.72313E+12,-3694,5361,-3733,339,840,383,1,7,11
1.72313E+12,-3659,5357,-3804,374,857,370,1,7,11
1.72313E+12,-3629,5332,-4106,368,887,369,1,7,11
1.72313E+12,-3617,5294,-4137,357,650,362,1,7,11
1.72313E+12,-3642,5286,-4165,365,659,340,1,7,11
1.72313E+12,-3685,5288,-4187,324,886,317,1,7,11
1.72313E+12,-3472,5265,-4176,-11,806,295,1,7,11
1.72313E+12,-3478,5502,-4168,-55,428,290,1,7,11
1.72313E+12,-3709,5478,-4151,-84,561,305,1,7,11
1.72313E+12,-3686,5489,-4167,-66,203,336,1,7,11
1.72313E+12,-3666,5255,-4176,-56,371,383,1,7,11
1.72313E+12,-3655,5282,-4189,-68,280,168,1,7,11
1.72313E+12,-3630,5284,-4175,-91,-58,212,1,7,11
1.72313E+12,-3593,5288,-4159,-98,-128,243,1,7,11
1.72313E+12,-3285,5303,-4170,-96,78,253,1,7,11
1.72313E+12,-3233,5307,-4165,-104,63,253,1,7,11
1.72313E+12,-3454,5323,-4158,-113,79,242,1,7,11
1.72313E+12,-3426,5345,-4165,-125,120,231,1,7,11
1.72313E+12,-3406,5347,-4157,96,-79,215,1,7,11
1.72313E+12,-3391,5358,-4158,73,-36,191,1,7,11
1.72313E+12,-3390,5359,-4149,52,266,159,1,7,11
1.72313E+12,-3401,5375,-4153,51,294,383,1,7,11
1.72313E+12,-3406,5654,-4168,42,293,346,1,7,11
1.72313E+12,-3400,5651,-4166,1,272,304,1,7,11
1.72313E+12,-3396,5645,-4144,-286,-18,-4,1,7,11
1.72313E+12,-3399,5650,-4126,-291,-72,-55,1,7,11
1.72313E+12,-3400,5653,-4111,-289,126,-104,1,7,11
1.72313E+12,-3390,5650,-4116,-287,69,107,1,7,11
1.72313E+12,-3374,5643,-4120,-268,22,57,1,7,11
1.72313E+12,-3376,5643,-4110,14,-268,2,1,7,11
1.72313E+12,-3393,5647,-3838,33,-301,-304,1,7,11
1.72313E+12,-3398,5641,-3824,47,-331,-341,1,7,11
1.72313E+12,-3402,5633,-3817,74,-361,-366,1,7,11
1.72313E+12,-3406,5362,-3812,126,-370,-380,1,7,11
1.72313E+12,-3443,5640,-3823,-73,-364,-143,1,7,11
1.72313E+12,-3232,5640,-3819,-72,-357,-383,1,7,11
1.72313E+12,-3243,5348,-3786,-80,-362,-364,1,7,11
1.72313E+12,-3249,5331,-3786,-52,-365,-349,1,7,11
1.72313E+12,-3254,5316,-3791,-20,-347,-332,1,7,11
1.72313E+12,-3258,5347,-3826,273,-317,-316,1,7,11
1.72313E+12,-3262,5370,-4114,259,-277,-301,1,7,11
1.72313E+12,-3256,5341,-4128,-50,10,-299,1,7,11
1.72313E+12,-3255,5328,-4134,-79,40,-342,1,7,11
1.72313E+12,-3270,5333,-4139,-104,69,-148,1,7,11
1.72313E+12,-3294,5348,-4149,118,90,-212,1,7,11
1.72313E+12,-3300,5328,-4122,57,103,-250,1,7,11
1.72313E+12,-3302,5308,-4124,28,114,-532,1,7,11
1.72313E+12,-3302,5291,-4132,8,-109,-539,1,7,11
1.72313E+12,-3325,5305,-4136,23,-63,-541,1,7,11
1.72313E+12,-3617,5309,-4154,13,-19,-519,1,7,11
1.72313E+12,-3614,5289,-4168,-293,286,-247,1,7,11
1.72313E+12,-3618,5282,-4178,-323,319,-248,1,7,11
1.72313E+12,-3634,5282,-4168,-353,344,-513,1,7,11
1.72313E+12,-3652,5287,-4185,-381,344,-537,1,7,11
1.72313E+12,-3655,5287,-4216,-175,327,-567,1,7,11
1.72313E+12,-3647,5269,-3974,-255,304,-609,1,7,11
1.72313E+12,-3641,5487,-4211,-618,269,-407,1,7,11
1.72313E+12,-3643,5268,-4006,-387,-31,-459,1,7,11
1.72313E+12,-3683,5657,-4364,-445,-38,-449,1,7,11
1.72313E+12,-3660,5335,-4016,-675,-46,-613,1,7,11
1.72313E+12,-3650,5309,-4224,-730,-83,-559,1,7,11
1.72313E+12,-3702,5323,-4182,-740,-102,-220,1,7,11
1.72313E+12,-3485,5347,-4142,-700,105,-133,1,7,11
1.72313E+12,-3514,5659,-4120,-641,32,-307,1,7,11
1.72313E+12,-3529,5698,-4100,-846,-313,30,1,7,11
1.72313E+12,-3532,5739,-3835,-793,-151,101,1,7,11
1.72313E+12,-3501,5743,-3806,-499,-230,-94,1,7,11
1.72313E+12,-3484,5515,-3810,-414,-526,-60,1,7,11
1.72313E+12,-3489,5574,-4099,-569,-528,-20,1,7,11
1.72313E+12,-3496,5627,-4136,-236,-244,289,1,7,11
1.72313E+12,-3496,5959,-4181,-148,-188,346,1,7,11
1.72313E+12,-3463,5982,-4180,-130,-364,177,1,7,11
1.72313E+12,-3617,5621,-3823,-151,-299,238,1,7,11
1.72313E+12,-3230,5731,-3741,-371,2,227,1,7,11
1.72313E+12,-3380,5347,-3919,-305,48,141,1,7,11
1.72313E+12,-3334,5285,-3912,31,89,258,1,7,11
1.72313E+12,-3067,5256,-3932,48,120,106,1,7,11
1.72313E+12,-3344,5491,-3939,10,-111,-304,1,7,11
1.72313E+12,-3390,5447,-3902,-332,-83,-184,1,7,11
1.72313E+12,-3430,5436,-3876,-355,-52,-544,1,7,11
1.72313E+12,-3225,5473,-3914,-347,271,-595,1,7,11
1.72313E+12,-3285,5451,-3888,-375,377,-585,1,7,11
1.72313E+12,-3602,5458,-3900,-328,217,-560,1,7,11
1.72313E+12,-3678,5493,-3961,-296,562,-514,1,7,11
1.72313E+12,-3476,5260,-3776,-310,627,-218,1,7,11
1.72313E+12,-3503,5277,-3816,-382,412,-189,1,7,11
1.72313E+12,-3494,5252,-3793,-219,426,-169,1,7,11
1.72313E+12,-3470,5494,-3777,-525,410,-170,1,7,11
1.72313E+12,-3700,5460,-3742,-553,387,-184,1,7,11
1.72313E+12,-3695,5455,-3720,-532,604,-211,1,7,11
1.72313E+12,-3690,5436,-3962,-256,550,-235,1,7,11
1.72313E+12,-3680,5430,-3963,-210,232,-248,1,7,11
1.72313E+12,-3702,5465,-3763,-153,189,-521,1,7,11
1.72313E+12,-3473,5468,-3776,-173,146,-525,1,7,11
1.72313E+12,-3493,5449,-3766,-198,345,-534,1,7,11
1.72313E+12,-3525,5451,-3758,-198,276,-556,1,7,11
1.72313E+12,-3549,5465,-3754,-213,-64,-576,1,7,11
1.72313E+12,-3573,5461,-3727,-245,87,-590,1,7,11
1.72313E+12,-3580,5456,-3957,-524,-284,-605,1,7,11
1.72313E+12,-3843,5457,-3948,-528,-140,-619,1,7,11
1.72313E+12,-3856,5452,-3935,-534,-247,-630,1,7,11
1.72313E+12,-3870,5441,-3923,-530,-597,-393,1,7,11
1.72313E+12,-3890,5441,-3922,-514,-429,-420,1,7,11
1.72313E+12,-3911,5436,-3904,-518,-770,-459,1,7,11
1.72313E+12,-3940,5474,-3926,-244,-856,-511,1,7,11
1.72313E+12,-3945,5461,-3907,-534,-661,-801,1,7,11
1.72313E+12,-3715,5473,-3888,-562,-742,-883,1,7,11
1.72313E+12,-3736,5476,-3870,-592,-1060,-674,1,7,11
1.72313E+12,-3762,5473,-3574,-598,-1125,-725,1,7,11
1.72313E+12,-3791,5465,-3530,-590,-938,-1032,1,7,11
1.72313E+12,-3824,5461,-3493,-555,-1013,-1082,1,7,11
1.72313E+12,-4126,5484,-3481,-517,-1335,-1122,1,7,11
1.72313E+12,-4153,5488,-3474,-519,-1382,-1140,1,7,11
1.72313E+12,-4191,5485,-3688,-526,-1153,-902,1,7,11
1.72313E+12,-3970,5489,-3638,-248,-1176,-913,1,7,11
1.72313E+12,-4006,5496,-3317,-202,-1216,-922,1,7,11
1.72313E+12,-4021,5489,-3254,-376,-1540,-937,1,7,11
1.72313E+12,-4022,5476,-3221,-271,-1600,-989,1,7,11
1.72313E+12,-4055,5438,-3405,31,-1605,-1328,1,7,11
1.72313E+12,-4085,5110,-3063,105,-1618,-1221,1,7,11
1.72313E+12,-4445,5115,-3006,-9,-1427,-1474,1,7,11
1.72313E+12,-4337,5117,-3197,317,-1869,-1756,1,7,11
1.72313E+12,-4726,5068,-3092,376,-2166,-2310,1,7,11
1.72313E+12,-4596,5016,-2704,236,-2259,-2625,1,7,11
1.72313E+12,-4744,5213,-2849,611,-2852,-2931,1,7,11
1.72313E+12,-5127,5081,-2484,500,-2951,-2951,1,7,11
1.72313E+12,-5008,4762,-2436,737,-3298,-3201,1,7,11
1.72313E+12,-5482,4921,-2627,905,-3883,-3528,1,7,11
1.72313E+12,-5349,4571,-2300,1080,-4069,-3957,1,7,11
1.72313E+12,-5726,4725,-2230,1238,-4343,-4115,1,7,11
1.72313E+12,-5902,4641,-2195,1643,-4582,-4004,1,7,11
1.72313E+12,-5827,4467,-2356,1430,-4826,-4370,1,7,11
1.72313E+12,-6244,3984,-1989,1487,-5080,-4250,1,7,11
1.72313E+12,-6406,3777,-2124,1815,-5327,-4683,1,7,11
1.72313E+12,-6282,3903,-2061,1695,-5546,-4572,1,7,11
1.72313E+12,-6355,3964,-1928,1984,-5928,-4559,1,7,11
1.72313E+12,-6379,3715,-2343,2017,-5592,-4279,1,7,11
1.72313E+12,-6663,3464,-2043,2100,-5258,-3832,1,7,11
1.72313E+12,-6750,3447,-1932,1742,-4812,-3677,1,7,11
1.72313E+12,-6619,2989,-2076,1712,-4339,-3066,1,7,11
1.72313E+12,-6999,3095,-1693,1705,-4158,-2760,1,7,11
1.72313E+12,-6854,2769,-1873,1724,-3506,-2515,1,7,11
1.72313E+12,-7243,2739,-1802,1674,-3407,-2598,1,7,11
1.72313E+12,-7113,2735,-1461,1814,-3146,-2202,1,7,11
1.72313E+12,-7496,2731,-1635,1655,-2710,-2350,1,7,11
1.72313E+12,-7361,2794,-1623,1277,-2866,-1952,1,7,11
1.72313E+12,-7685,3076,-1600,1350,-2540,-1769,1,7,11
1.72313E+12,-7773,2773,-1256,1109,-2443,-1868,1,7,11
1.72313E+12,-7604,2936,-1399,895,-2608,-1482,1,7,11
1.72313E+12,-7945,2856,-1294,424,-2300,-1627,1,7,11
1.72313E+12,-7974,2522,-930,177,-2251,-1235,1,7,11
1.72313E+12,-8030,2478,-1082,316,-2183,-1183,1,7,11
1.72313E+12,-8051,2646,-672,-1,-2393,-1319,1,7,11
1.72313E+12,-7962,2293,-800,-113,-2358,-921,1,7,11
1.72313E+12,-7955,2428,-594,58,-1991,-1140,1,7,11
1.72313E+12,-7968,2351,-195,66,-2164,-1125,1,7,11
1.72313E+12,-7958,2003,-302,69,-2110,-1124,1,7,11
1.72313E+12,-7667,2169,68,125,-2066,-1114,1,7,11
1.72313E+12,-7611,2079,-93,-47,-1743,-1137,1,7,11
1.72313E+12,-7607,1790,-42,348,-1891,-922,1,7,11
1.72313E+12,-7628,1788,-22,221,-1512,-961,1,7,11
1.72313E+12,-8016,2112,-58,621,-1589,-1285,1,7,11
1.72313E+12,-7916,1941,-124,419,-1217,-1305,1,7,11
1.72313E+12,-8280,1956,95,388,-1374,-1306,1,7,11
1.72313E+12,-8115,2023,22,612,-1283,-1295,1,7,11
1.72313E+12,-8112,2001,27,177,-981,-993,1,7,11
1.72313E+12,-8075,1947,48,-22,-1149,-950,1,7,11
1.72313E+12,-8073,2148,65,3,-1026,-903,1,7,11
1.72313E+12,-8089,2098,97,-516,-646,-1088,1,7,11
1.72313E+12,-8106,2064,-115,-780,-511,-717,1,7,11
1.72313E+12,-8073,1753,-60,-1069,-405,-804,1,7,11
1.72313E+12,-8258,1671,-18,-1322,-520,-608,1,7,11
1.72313E+12,-7916,1842,312,-1272,-376,-163,1,7,11
1.72313E+12,-7836,1505,379,-1412,41,-278,1,7,11
1.72313E+12,-8038,1449,196,-1485,-100,91,1,7,11
1.72313E+12,-7975,1423,236,-1485,-19,-64,1,7,11
1.72313E+12,-7948,1438,249,-1455,309,259,1,7,11
1.72313E+12,-7663,1423,241,-1420,350,318,1,7,11
1.72313E+12,-7651,1440,224,-1586,130,350,1,7,11
1.72313E+12,-7668,1511,188,-1236,158,337,1,7,11
1.72313E+12,-7680,1808,167,-1208,134,316,1,7,11
1.72313E+12,-7678,1849,143,-1196,354,269,1,7,11
1.72313E+12,-7958,1664,344,-1221,305,-62,1,7,11
1.72313E+12,-7964,1743,327,-1578,-17,-118,1,7,11
1.72313E+12,-7950,1767,329,-1480,-64,83,1,7,11
1.72313E+12,-7954,1745,378,-1703,-93,14,1,7,11
1.72313E+12,-7943,1722,153,-1991,102,-297,1,7,11
1.72313E+12,-7680,1698,182,-2405,79,-334,1,7,11
1.72313E+12,-7680,1666,223,-2267,77,-347,1,7,11
1.72313E+12,-7940,1902,521,-2587,90,-344,1,7,11
1.72313E+12,-7954,1889,543,-2603,110,-334,1,7,11
1.72313E+12,-7954,1904,525,-2602,-119,-315,1,7,11
1.72313E+12,-7942,1918,536,-2669,-68,-310,1,7,11
1.72313E+12,-7669,1880,611,-2473,263,-323,1,7,11
1.72313E+12,-7626,1876,384,-2679,334,-348,1,7,11
1.72313E+12,-7615,1884,403,-2609,178,-154,1,7,11
1.72313E+12,-7606,1881,438,-2274,523,-203,1,7,11
1.72313E+12,-7584,1862,468,-2196,599,-256,1,7,11
1.72313E+12,-7589,1817,775,-2354,407,-587,1,7,11
1.72313E+12,-7577,1520,808,-1963,405,-394,1,7,11
1.72313E+12,-7796,1468,837,-2076,634,-455,1,7,11
1.72313E+12,-7749,1423,854,-1671,589,-504,1,7,11
1.72313E+12,-7415,1605,877,-1510,533,-788,1,7,11
1.72313E+12,-7311,1549,869,-1577,226,-785,1,7,11
1.72313E+12,-7160,1195,879,-1179,204,-780,1,7,11
1.72313E+12,-7101,1376,887,-987,525,-832,1,7,11
1.72313E+12,-7112,1344,867,-1044,578,-654,1,7,11
1.72313E+12,-7445,1311,832,-878,609,-1027,1,7,11
1.72313E+12,-7316,1009,801,-499,612,-927,1,7,11
1.72313E+12,-7567,958,508,-635,592,-1368,1,7,11
1.72313E+12,-8029,917,472,-530,545,-1653,1,7,11
1.72313E+12,-8251,1140,430,-162,196,-1795,1,7,11
1.72313E+12,-8462,1100,615,-137,145,-1889,1,7,11
1.72313E+12,-8360,1029,579,-384,375,-1904,1,7,11
1.72313E+12,-8592,702,562,-309,179,-1672,1,7,11
1.72313E+12,-9079,660,543,36,176,-1845,1,7,11
1.72313E+12,-9252,857,536,103,131,-1453,1,7,11
1.72313E+12,-9134,810,536,-75,308,-1266,1,7,11
1.72313E+12,-9175,780,521,-13,-80,-1016,1,7,11
1.72313E+12,-9146,772,531,292,55,-744,1,7,11
1.72313E+12,-9334,813,532,315,-321,-438,1,7,11
1.72313E+12,-8952,642,526,287,-202,-335,1,7,11
1.72313E+12,-8981,711,251,-26,-604,315,1,7,11
1.72313E+12,-8729,1103,211,-101,-438,421,1,7,11
1.72313E+12,-8458,957,208,-288,-488,749,1,7,11
1.72313E+12,-8209,1310,209,-200,-469,1017,1,7,11
1.72313E+12,-8002,1387,215,-385,-437,1208,1,7,11
1.72313E+12,-7558,1187,220,-840,-637,1550,1,7,11
1.72313E+12,-7712,1214,520,-731,-558,1254,1,7,11
1.72313E+12,-7383,1269,524,-1046,-252,1406,1,7,11
1.72313E+12,-7347,1557,524,-1091,-210,975,1,7,11
1.72313E+12,-7359,1582,606,-1078,-162,752,1,7,11
1.72313E+12,-7718,1591,531,-833,-130,828,1,7,11
1.72313E+12,-7775,1639,241,-457,-156,401,1,7,11
1.72313E+12,-7606,1633,255,-508,-353,137,1,7,11
1.72313E+12,-8034,1598,557,-811,-260,100,1,7,11
1.72313E+12,-7903,1578,556,-814,8,-319,1,7,11
1.72313E+12,-8120,1542,554,-782,52,-182,1,7,11
1.72313E+12,-8189,1204,576,-772,51,-205,1,7,11
1.72313E+12,-8510,1164,581,-434,59,-171,1,7,11
1.72313E+12,-8539,1407,572,-574,69,-356,1,7,11
1.72313E+12,-8540,1407,560,-228,66,-266,1,7,11
1.72313E+12,-8513,1176,545,-170,40,99,1,7,11
1.72313E+12,-8456,1202,542,-190,9,-55,1,7,11
1.72313E+12,-8137,1224,541,-587,-285,293,1,7,11
1.72313E+12,-8070,1226,558,-487,-320,363,1,7,11
1.72313E+12,-8264,1227,608,-653,-349,146,1,7,11
1.72313E+12,-8202,1221,417,-1068,-371,160,1,7,11
1.72313E+12,-7852,1217,481,-948,-142,166,1,7,11
1.72313E+12,-8031,1156,876,-1361,-130,378,1,7,11
1.72313E+12,-8040,1393,727,-1407,-335,295,1,7,11
1.72313E+12,-7859,1162,1062,-1393,-296,-43,1,7,11
1.72313E+12,-7918,1198,1101,-1333,-290,-84,1,7,11
1.72313E+12,-7882,1211,1114,-982,-266,-58,1,7,11
1.72313E+12,-8036,1203,1124,-1138,62,-10,1,7,11
1.72313E+12,-7966,1203,1118,-718,-20,-3,1,7,11
1.72313E+12,-7965,1235,1098,-811,158,-45,1,7,11
1.72313E+12,-7949,1262,1066,-390,549,-95,1,7,11
1.72313E+12,-7951,1550,1024,-239,389,84,1,7,11
1.72313E+12,-7653,1551,724,-138,431,11,1,7,11
1.72313E+12,-7593,1268,688,-304,453,-345,1,7,11
1.72313E+12,-7798,1225,669,24,463,-214,1,7,11
1.72313E+12,-7790,1178,668,86,456,-617,1,7,11
1.72313E+12,-7592,1399,666,-128,420,-788,1,7,11
1.72313E+12,-7674,1328,677,124,577,-697,1,7,11
1.72313E+12,-7828,1296,664,-105,224,-1128,1,7,11
1.72313E+12,-8306,1015,879,-78,129,-1308,1,7,11
1.72313E+12,-8558,1022,813,-81,-24,-1158,1,7,11
1.72313E+12,-8535,1150,829,89,22,-1362,1,7,11
1.72313E+12,-8456,1027,867,80,-304,-1015,1,7,11
1.72313E+12,-8158,731,894,114,-266,-1145,1,7,11
1.72313E+12,-8504,1033,655,118,70,-740,1,7,11
1.72313E+12,-8332,1071,706,5,46,-774,1,7,11
1.72313E+12,-8340,1058,1037,-146,-306,-246,1,7,11
1.72313E+12,-8565,1046,1087,-528,-172,-262,1,7,11
1.72313E+12,-8512,1034,1116,-622,-550,-60,1,7,11
1.72313E+12,-8132,756,1113,-392,-397,363,1,7,11
1.72313E+12,-8266,765,1100,-592,-403,207,1,7,11
1.72313E+12,-7930,1079,1077,-256,-594,239,1,7,11
1.72313E+12,-7912,899,1071,-194,-246,211,1,7,11
1.72313E+12,-7926,974,1079,-155,-186,146,1,7,11
1.72313E+12,-8206,1290,1113,-135,-172,318,1,7,11
1.72313E+12,-8196,1309,1140,-383,-195,-29,1,7,11
1.72313E+12,-7928,1315,914,-357,-211,-114,1,7,11
1.72313E+12,-7930,1329,913,-286,-213,84,1,7,11
1.72313E+12,-7895,1325,938,17,-206,56,1,7,11
1.72313E+12,-7901,1328,951,91,-130,49,1,7,11
1.72313E+12,-7886,1346,919,-59,-309,80,1,7,11
1.72313E+12,-7882,1344,911,268,41,-124,1,7,11
1.72313E+12,-7849,1335,1125,340,-108,-75,1,7,11
1.72313E+12,-7830,1336,1087,181,261,-56,1,7,11
1.72313E+12,-7828,1348,1034,540,137,-51,1,7,11
1.72313E+12,-7821,1389,699,399,573,-59,1,7,11
1.72313E+12,-7824,1161,879,486,413,-73,1,7,11
1.72313E+12,-7817,1182,804,831,485,-105,1,7,11
1.72313E+12,-7819,1202,480,866,794,92,1,7,11
1.72313E+12,-7840,1223,421,879,818,7,1,7,11
1.72313E+12,-7861,1235,635,876,809,-339,1,7,11
1.72313E+12,-7864,1229,586,840,770,-176,1,7,11
1.72313E+12,-7860,1215,560,784,458,-527,1,7,11
1.72313E+12,-7877,1190,543,471,404,-625,1,7,11
1.72313E+12,-7900,1169,532,418,595,-461,1,7,11
1.72313E+12,-7895,1391,532,608,522,-790,1,7,11
1.72313E+12,-7917,1342,534,551,229,-874,1,7,11
1.72313E+12,-8201,1290,531,245,178,-675,1,7,11
1.72313E+12,-8214,962,544,208,143,-710,1,7,11
1.72313E+12,-8233,915,553,215,379,-726,1,7,11
1.72313E+12,-8256,1149,561,226,381,-717,1,7,11
1.72313E+12,-8281,1123,552,229,383,-681,1,7,11
1.72313E+12,-8299,1096,561,231,129,-871,1,7,11
1.72313E+12,-8319,1075,571,224,379,-792,1,7,11
1.72313E+12,-8080,1060,568,207,359,-451,1,7,11
1.72313E+12,-8100,1059,589,174,327,-626,1,7,11
1.72313E+12,-8104,1075,592,138,274,-538,1,7,11
1.72313E+12,-8104,1095,582,332,-40,-205,1,7,11
1.72313E+12,-8086,1108,569,-15,-97,-140,1,7,11
1.72313E+12,-8306,1120,560,-122,122,-348,1,7,11
1.72313E+12,-8279,1121,557,9,106,-321,1,7,11
1.72313E+12,-8248,1113,555,-365,110,-306,1,7,11
1.72313E+12,-8230,1097,577,-240,125,-309,1,7,11
1.72313E+12,-8222,1086,598,-600,-113,-321,1,7,11
1.72313E+12,-8212,1064,627,-435,-107,-326,1,7,11
1.72313E+12,-8212,1030,412,-769,-100,-338,1,7,11
1.72313E+12,-8230,740,457,-808,-103,-343,1,7,11
1.72313E+12,-8238,705,486,-819,127,-341,1,7,11
1.72313E+12,-8253,670,776,-793,99,-335,1,7,11
1.72313E+12,-8258,669,776,-491,53,-318,1,7,11
1.72313E+12,-8275,673,784,-457,15,-312,1,7,11
1.72313E+12,-8261,654,785,-436,-298,-293,1,7,11
1.72313E+12,-8243,641,792,-408,-317,-289,1,7,11
1.72313E+12,-8262,658,802,-637,-320,-304,1,7,11
1.72313E+12,-8265,659,825,-630,-333,-309,1,7,11
1.72313E+12,-8272,659,851,-627,-348,-312,1,7,11
1.72313E+12,-8268,661,866,-386,-371,-311,1,7,11
1.72313E+12,-8264,641,893,-396,-129,-317,1,7,11
1.72313E+12,-8258,893,665,-397,-143,-324,1,7,11
1.72313E+12,-8261,886,698,-399,-150,-336,1,7,11
1.72313E+12,-8272,881,722,-392,-155,-335,1,7,11
1.72313E+12,-8270,871,752,-391,-161,-326,1,7,11
1.72313E+12,-8270,852,1026,-622,-156,-313,1,7,11
1.72313E+12,-8253,836,1029,-587,-148,-302,1,7,11
1.72313E+12,-8257,832,1054,-541,-376,-299,1,7,11
1.72313E+12,-8261,844,1061,-218,-349,-284,1,7,11
1.72313E+12,-8250,848,1071,-162,-325,-265,1,7,11
1.72313E+12,-8250,847,1076,-362,-288,2,1,7,11
1.72313E+12,-8248,853,1065,-280,-266,15,1,7,11
1.72313E+12,-8248,855,1065,36,3,20,1,7,11
1.72313E+12,-8255,863,1057,89,27,10,1,7,11
1.72313E+12,-8249,866,1055,-127,30,-3,1,7,11
1.72313E+12,-8248,866,1064,-111,37,-276,1,7,11
1.72313E+12,-8246,870,1053,-86,46,-286,1,7,11
1.72313E+12,-8247,863,1046,-87,61,-298,1,7,11
1.72313E+12,-8257,867,1040,-80,78,-307,1,7,11
1.72313E+12,-8265,860,1031,-92,90,-309,1,7,11
1.72313E+12,-8272,854,1026,-109,108,-311,1,7,11
1.72313E+12,-8286,865,756,-118,121,-307,1,7,11
1.72313E+12,-8290,869,750,114,-128,-297,1,7,11
1.72313E+12,-8294,867,741,95,-122,-280,1,7,11
1.72313E+12,-8288,864,731,64,-110,-261,1,7,11
1.72313E+12,-8289,855,713,30,-96,10,1,7,11
1.72313E+12,-8288,857,704,-259,-82,26,1,7,11
1.72313E+12,-8294,851,700,-299,-66,33,1,7,11
1.72313E+12,-8295,854,699,-331,-59,44,1,7,11
1.72313E+12,-8295,848,690,-374,-61,51,1,7,11
1.72313E+12,-8297,835,688,-152,-62,56,1,7,11
1.72313E+12,-8291,839,686,-173,-73,66,1,7,11
1.72313E+12,-8292,848,688,-198,-74,75,1,7,11
1.72313E+12,-8281,835,681,-228,-88,96,1,7,11
1.72313E+12,-8243,813,687,-251,-71,104,1,7,11
1.72313E+12,-8273,810,700,-251,-26,85,1,7,11
1.72313E+12,-8290,808,706,-255,-19,91,1,7,11
1.72313E+12,-8296,802,715,-513,-26,105,1,7,11
1.72313E+12,-8312,784,727,-243,-31,120,1,7,11
1.72313E+12,-8309,770,727,-222,-45,-110,1,7,11
1.72313E+12,-8313,771,738,-187,-48,-88,1,7,11
1.72313E+12,-8315,786,735,-134,-56,-57,1,7,11
1.72313E+12,-8303,805,722,-355,-64,-27,1,7,11
1.72313E+12,-8289,819,720,-335,-67,-5,1,7,11
1.72313E+12,-8271,836,707,-313,-57,267,1,7,11
1.72313E+12,-8259,842,706,-323,-40,262,1,7,11
1.72313E+12,-8260,863,701,-307,-14,-3,1,7,11
1.72313E+12,-8252,883,686,-316,-7,-7,1,7,11
1.72313E+12,-8246,882,688,-335,261,-19,1,7,11
1.72313E+12,-8253,649,674,-333,266,-27,1,7,11
1.72313E+12,-8260,656,675,-347,259,-39,1,7,11
1.72313E+12,-8260,656,679,-336,-10,-49,1,7,11
1.72313E+12,-8255,668,690,-325,-28,-61,1,7,11
1.72313E+12,-8256,672,693,-320,-48,-73,1,7,11
1.72313E+12,-8267,682,693,-313,-67,-82,1,7,11
1.72313E+12,-8268,694,685,-313,-90,-83,1,7,11
1.72313E+12,-8264,697,692,-322,-107,-86,1,7,11
1.72313E+12,-8260,701,688,-325,-111,-92,1,7,11
1.72313E+12,-8248,696,689,-331,-110,-96,1,7,11
1.72313E+12,-8250,704,694,-331,-92,-108,1,7,11
1.72313E+12,-8251,705,691,-334,-76,-117,1,7,11
1.72313E+12,-8252,702,687,-333,-61,-123,1,7,11
1.72313E+12,-8255,703,679,-324,-47,-125,1,7,11
1.72313E+12,-8266,706,674,-320,-31,-126,1,7,11
1.72313E+12,-8273,709,677,-317,-24,-121,1,7,11
1.72313E+12,-8276,717,668,-316,-22,-111,1,7,11
1.72313E+12,-8267,719,655,-313,-21,-97,1,7,11
1.72313E+12,-8262,718,658,-315,-13,-96,1,7,11
1.72313E+12,-8275,726,652,-309,256,-93,1,7,11
1.72313E+12,-8267,722,648,-311,-2,-84,1,7,11
1.72313E+12,-8264,732,647,-309,270,-82,1,7,11
1.72313E+12,-8264,747,650,-318,272,-76,1,7,11
1.72313E+12,-8270,762,889,-324,282,-73,1,7,11
1.72313E+12,-8250,749,886,-346,275,-67,1,7,11
1.72313E+12,-8223,739,885,-347,299,-74,1,7,11
1.72313E+12,-8257,751,884,-342,340,-101,1,7,11
1.72313E+12,-8268,738,641,-353,340,-106,1,7,11
1.72313E+12,-8270,733,655,-334,337,-102,1,7,11
1.72313E+12,-8269,734,657,-323,331,-92,1,7,11
1.72313E+12,-8265,730,647,-303,327,-76,1,7,11
1.72313E+12,-8269,731,646,-277,325,-69,1,7,11
1.72313E+12,-8273,747,642,4,322,-63,1,7,11
1.72313E+12,-8266,764,882,31,319,-49,1,7,11
1.72313E+12,-8247,1030,867,44,319,-42,1,7,11
1.72313E+12,-8238,1036,868,51,326,-40,1,7,11
1.72313E+12,-8239,1058,862,70,334,-37,1,7,11
1.72313E+12,-8239,1067,845,73,338,-29,1,7,11
1.72313E+12,-8221,1056,841,73,344,-12,1,7,11
1.72313E+12,-8234,1072,836,95,371,-9,1,7,11
1.72313E+12,-8242,1072,831,115,130,-5,1,7,11
1.72313E+12,-8244,1072,830,-102,132,-1,1,7,11
1.72313E+12,-8248,1083,826,-68,381,259,1,7,11
1.72313E+12,-8242,1081,823,-39,365,258,1,7,11
1.72313E+12,-8238,1100,799,-1,347,-3,1,7,11
1.72313E+12,-8234,1112,790,275,337,-8,1,7,11
1.72313E+12,-8225,1121,778,287,331,-9,1,7,11
1.72313E+12,-8220,1131,501,301,341,-13,1,7,11
1.72313E+12,-8214,1145,487,309,348,-9,1,7,11
1.72313E+12,-8216,911,470,312,375,-15,1,7,11
1.72313E+12,-8201,922,449,303,132,-5,1,7,11
1.72313E+12,-7931,922,432,284,171,-8,1,7,11
1.72313E+12,-7932,929,418,272,213,-8,1,7,11
1.72313E+12,-8193,937,406,-5,255,-12,1,7,11
1.72313E+12,-8201,926,407,-26,545,-20,1,7,11
1.72313E+12,-8212,920,393,-38,561,-32,1,7,11
1.72313E+12,-8207,908,393,-56,564,-45,1,7,11
1.72313E+12,-8213,902,639,-64,562,-62,1,7,11
1.72313E+12,-8208,900,622,-74,554,-80,1,7,11
1.72313E+12,-8213,899,603,-81,552,-103,1,7,11
1.72313E+12,-8207,902,595,-92,549,127,1,7,11
1.72313E+12,-8222,910,591,-99,540,103,1,7,11
1.72313E+12,-8249,930,575,-116,522,82,1,7,11
1.72313E+12,-8238,914,573,72,211,85,1,7,11
1.72313E+12,-8225,898,577,34,187,82,1,7,11
1.72313E+12,-8238,1145,570,8,175,69,1,7,11
1.72313E+12,-8228,1134,570,-277,154,65,1,7,11
1.72313E+12,-8232,1130,568,-288,149,66,1,7,11
1.72313E+12,-8231,1126,559,-306,149,79,1,7,11
1.72313E+12,-8230,1126,549,-310,157,93,1,7,11
1.72313E+12,-8247,1133,555,-301,167,106,1,7,11
1.72313E+12,-8254,1139,561,-291,161,-125,1,7,11
1.72313E+12,-8250,1148,545,-273,151,-95,1,7,11
1.72313E+12,-8230,1144,545,-261,141,-67,1,7,11
1.72313E+12,-8224,1140,536,18,144,-46,1,7,11
1.72313E+12,-8213,1138,527,47,153,-28,1,7,11
1.72313E+12,-8204,1149,254,70,170,-18,1,7,11
1.72313E+12,-7919,1151,241,79,185,-14,1,7,11
1.72313E+12,-7909,907,228,77,216,-28,1,7,11
1.72313E+12,-7932,936,202,46,245,-46,1,7,11
1.72313E+12,-8199,952,167,-267,518,-47,1,7,11
1.72313E+12,-8203,967,133,-351,543,-36,1,7,11
1.72313E+12,-8206,968,354,-202,587,-21,1,7,11
1.72313E+12,-8205,958,333,-565,385,259,1,7,11
1.72313E+12,-8213,950,319,-398,446,288,1,7,11
1.72313E+12,-8230,952,305,-469,505,325,1,7,11
1.72313E+12,-8254,958,290,-774,792,128,1,7,11
1.72313E+12,-8267,963,285,-810,801,195,1,7,11
1.72313E+12,-8263,964,274,-822,788,530,1,7,11
1.72313E+12,-8249,981,-4,-806,772,599,1,7,11
1.72313E+12,-8234,994,-45,-792,494,402,1,7,11
1.72313E+12,-8220,1286,-61,-777,483,447,1,7,11
1.72313E+12,-8216,1333,-109,-780,480,481,1,7,11
1.72313E+12,-8218,1377,124,-815,477,771,1,7,11
1.72313E+12,-8211,1153,103,-868,472,815,1,7,11
1.72313E+12,-7924,1177,72,-650,470,871,1,7,11
1.72313E+12,-7885,1191,44,-665,490,674,1,7,11
1.72313E+12,-7845,1201,6,-665,780,728,1,7,11
1.72313E+12,-8035,1221,-335,-641,793,1053,1,7,11
1.72313E+12,-7825,1561,-142,-867,860,1069,1,7,11
1.72313E+12,-7897,1655,-154,-660,672,1090,1,7,11
1.72313E+12,-7917,1485,-164,-744,649,918,1,7,11
1.72313E+12,-8210,1823,-179,-1130,847,1295,1,7,11
1.72313E+12,-7923,1858,-177,-936,799,1238,1,7,11
1.72313E+12,-7839,1878,-170,-954,843,1448,1,7,11
1.72313E+12,-8046,1918,-153,-934,723,1882,1,7,11
1.72313E+12,-8002,1725,-139,-1148,1151,1781,1,7,11
1.72313E+12,-7961,2053,-132,-1120,1321,2163,1,7,11
1.72313E+12,-7678,2132,-380,-1123,1238,1992,1,7,11
1.72313E+12,-7654,1983,-350,-901,1640,2047,1,7,11
1.72313E+12,-7597,2325,-378,-1148,1481,2373,1,7,11
1.72313E+12,-7789,2423,-184,-1046,1870,2205,1,7,11
1.72313E+12,-7708,2217,-223,-717,2053,2654,1,7,11
1.72313E+12,-7367,2599,-589,-769,2014,2860,1,7,11
1.72313E+12,-7323,2483,-435,-249,2513,3083,1,7,11
1.72313E+12,-7516,2874,-777,-324,3153,3367,1,7,11
1.72313E+12,-7447,2801,-688,-3,3322,3697,1,7,11
1.72313E+12,-7127,3152,-1055,310,3749,3761,1,7,11
1.72313E+12,-7284,3007,-936,164,4416,4076,1,7,11
1.72313E+12,-7202,3441,-1386,246,4561,4351,1,7,11
1.72313E+12,-6879,3275,-1243,357,5180,4519,1,7,11
1.72313E+12,-6834,3598,-1561,-24,5429,4879,1,7,11
1.72313E+12,-6786,3692,-1631,-109,5277,4912,1,7,11
1.72313E+12,-7001,3544,-1650,90,5486,4864,1,7,11
1.72313E+12,-6938,3924,-1461,-123,5238,4544,1,7,11
1.72313E+12,-6736,3784,-1827,-42,4597,4725,1,7,11
1.72313E+12,-6307,4120,-1665,304,4241,4298,1,7,11
1.72313E+12,-6092,3976,-1792,253,4143,4434,1,7,11
1.72313E+12,-5880,4067,-2161,455,3842,4056,1,7,11
1.72313E+12,-5598,4452,-2333,700,3626,4192,1,7,11
1.72313E+12,-5714,4280,-2218,976,3210,3804,1,7,11
1.72313E+12,-5371,4673,-2670,1254,3425,3729,1,7,11
1.72313E+12,-5259,4542,-2885,1444,3340,3906,1,7,11
1.72313E+12,-5403,4865,-2809,1641,3030,3499,1,7,11
1.72313E+12,-5019,4937,-2990,1561,2965,3613,1,7,11
1.72313E+12,-5125,4744,-3422,1397,3191,3437,1,7,11
1.72313E+12,-4760,4788,-3294,948,3186,2987,1,7,11
1.72313E+12,-4917,4844,-3662,744,3174,2798,1,7,11
1.72313E+12,-4577,5127,-3462,795,3127,2901,1,7,11
1.72313E+12,-4485,5149,-3497,637,2781,2515,1,7,11
1.72313E+12,-4673,5143,-3480,527,2913,2681,1,7,11
1.72313E+12,-4337,5131,-3464,548,2449,2623,1,7,11
1.72313E+12,-4470,5147,-3515,434,2429,2604,1,7,11
1.72313E+12,-4092,5154,-3847,860,2150,2589,1,7,11
1.72313E+12,-3982,5173,-3929,1029,1901,2577,1,7,11
1.72313E+12,-4124,5199,-3794,1135,1428,2568,1,7,11
1.72313E+12,-3748,5179,-4144,1149,1245,2284,1,7,11
1.72313E+12,-3889,5185,-4007,902,1354,2194,1,7,11
1.72313E+12,-3542,5224,-4356,1091,993,2039,1,7,11
1.72313E+12,-3468,5240,-4421,693,907,2115,1,7,11
1.72313E+12,-3629,4998,-4445,820,1104,1698,1,7,11
1.72313E+12,-3286,5017,-4459,480,1105,1841,1,7,11
1.72313E+12,-3230,5026,-4434,441,1150,1531,1,7,11
1.72313E+12,-3439,5040,-4430,445,916,1509,1,7,11
1.72313E+12,-3384,5053,-4448,464,926,1497,1,7,11
1.72313E+12,-3050,5070,-4238,497,918,1492,1,7,11
1.72313E+12,-2965,5074,-4298,484,907,1457,1,7,11
1.72313E+12,-3140,5062,-4349,453,910,1643,1,7,11
1.72313E+12,-3081,5086,-4658,411,909,1267,1,7,11
1.72313E+12,-2791,5107,-4690,592,1144,1388,1,7,11
1.72313E+12,-2756,5393,-4736,525,1103,990,1,7,11
1.72313E+12,-2732,5445,-4555,200,1064,1121,1,7,11
1.72313E+12,-2712,5458,-4878,297,761,749,1,7,11
1.72313E+12,-2937,5429,-4907,104,703,888,1,7,11
1.72313E+12,-2911,5119,-4900,-335,644,770,1,7,11
1.72313E+12,-2895,5075,-4873,-212,839,392,1,7,11
1.72313E+12,-2899,5068,-4545,-546,770,542,1,7,11
1.72313E+12,-2910,5060,-4718,-562,432,214,1,7,11
1.72313E+12,-2914,5057,-4651,-252,608,191,1,7,11
1.72313E+12,-2912,5077,-4625,-140,536,194,1,7,11
1.72313E+12,-2913,5094,-4343,-281,222,211,1,7,11
1.72313E+12,-2905,5384,-4629,92,161,228,1,7,11
1.72313E+12,-2890,5397,-4651,-107,374,245,1,7,11
1.72313E+12,-2873,5407,-4673,-72,338,255,1,7,11
1.72313E+12,-2839,5441,-4718,-53,302,517,1,7,11
1.72313E+12,-2555,5459,-4496,-91,271,516,1,7,11
1.72313E+12,-2522,5463,-4508,91,-31,236,1,7,11
1.72313E+12,-2483,5440,-4503,23,-92,203,1,7,11
1.72313E+12,-2680,5434,-4502,4,117,159,1,7,11
1.72313E+12,-2627,5446,-4517,-279,100,367,1,7,11
1.72313E+12,-2587,5450,-4515,-318,108,314,1,7,11
1.72313E+12,-2571,5481,-4536,-355,127,266,1,7,11
1.72313E+12,-2572,5475,-4523,-156,-119,-48,1,7,11
1.72313E+12,-2604,5486,-4496,-175,-126,122,1,7,11
1.72313E+12,-2627,5261,-4496,-192,91,32,1,7,11
1.72313E+12,-2642,5274,-4729,-240,45,-313,1,7,11
1.72313E+12,-2649,5264,-4689,-548,-260,-141,1,7,11
1.72313E+12,-2657,5254,-4658,-575,-310,-216,1,7,11
1.72313E+12,-2667,5273,-4656,-558,-357,-543,1,7,11
1.72313E+12,-2456,5289,-4655,-545,-137,-611,1,7,11
1.72313E+12,-2478,5281,-4642,-559,-175,-427,1,7,11
1.72313E+12,-2484,5275,-4642,-578,-232,-498,1,7,11
1.72313E+12,-2502,5269,-4643,-584,-538,-831,1,7,11
1.72313E+12,-2511,5267,-4656,-594,-580,-660,1,7,11
1.72313E+12,-2544,5268,-4652,-629,-608,-736,1,7,11
1.72313E+12,-2822,5274,-4662,-416,-394,-1060,1,7,11
1.72313E+12,-2848,5277,-4673,-461,-441,-907,1,7,11
1.72313E+12,-2878,5306,-4716,-819,-510,-981,1,7,11
1.72313E+12,-2916,5302,-4709,-713,-833,-1319,1,7,11
1.72313E+12,-2721,5289,-4653,-1120,-672,-1177,1,7,11
1.72313E+12,-2783,5317,-4352,-979,-1056,-1565,1,7,11
1.72313E+12,-2807,5295,-4275,-1384,-957,-1424,1,7,11
1.72313E+12,-3105,5259,-4429,-1210,-1379,-1814,1,7,11
1.72313E+12,-3163,5257,-4094,-1211,-1565,-1709,1,7,11
1.72313E+12,-3005,5498,-3991,-1201,-1523,-2133,1,7,11
1.72313E+12,-3396,5487,-4116,-1391,-2062,-2340,1,7,11
1.72313E+12,-3293,5473,-3733,-977,-2182,-2576,1,7,11
1.72313E+12,-3460,5462,-3886,-766,-2871,-2831,1,7,11
1.72313E+12,-3879,5448,-3546,-803,-3044,-3093,1,7,11
1.72313E+12,-3788,5429,-3531,-397,-3675,-3345,1,7,11
1.72313E+12,-3970,5380,-3694,-390,-3720,-3604,1,7,11
1.72313E+12,-4405,5105,-3606,-388,-3979,-3844,1,7,11
1.72313E+12,-4287,5242,-3420,-460,-4478,-3735,1,7,11
1.72313E+12,-4662,5150,-3046,-622,-4496,-4183,1,7,11
1.72313E+12,-4575,4854,-3184,-222,-4758,-4091,1,7,11
1.72313E+12,-4741,4788,-2803,-316,-5039,-4464,1,7,11
1.72313E+12,-5181,4961,-2904,112,-5317,-4320,1,7,11
1.72313E+12,-5117,4875,-2513,336,-5609,-4677,1,7,11
1.72313E+12,-5305,4501,-2615,556,-5887,-4526,1,7,11
1.72313E+12,-5509,4338,-2177,768,-6132,-4913,1,7,11
1.72313E+12,-6010,4421,-1973,731,-6351,-4834,1,7,11
1.72313E+12,-6026,4051,-2085,975,-6562,-5021,1,7,11
1.72313E+12,-6470,4205,-1757,1160,-7031,-5399,1,7,11
1.72313E+12,-6332,4140,-1738,1584,-6878,-5427,1,7,11
1.72313E+12,-6393,3836,-2066,1435,-6785,-5040,1,7,11
1.72313E+12,-6686,3855,-1753,1538,-6716,-4787,1,7,11
1.72313E+12,-6550,3325,-1884,1182,-6219,-4582,1,7,11
1.72313E+12,-6979,3357,-1509,1400,-5719,-4706,1,7,11
1.72313E+12,-6912,3189,-1659,1393,-5236,-4345,1,7,11
1.72313E+12,-7104,3130,-1584,1403,-4535,-4250,1,7,11
1.72313E+12,-7530,3118,-1257,1326,-4414,-4073,1,7,11
1.72313E+12,-7376,2708,-1205,896,-3937,-3881,1,7,11
1.72313E+12,-7371,2528,-1366,846,-3319,-3292,1,7,11
1.72313E+12,-7409,2615,-988,452,-3142,-3010,1,7,11
1.72313E+12,-7724,2240,-1131,616,-2463,-2772,1,7,11
1.72313E+12,-7772,2367,-755,526,-2363,-2817,1,7,11
1.72313E+12,-7781,1976,-642,226,-2073,-2632,1,7,11
1.72313E+12,-7796,2122,-839,253,-1830,-2227,1,7,11
1.72313E+12,-7808,2050,-803,546,-1615,-2371,1,7,11
1.72313E+12,-7591,1718,-781,577,-1165,-2034,1,7,11
1.72313E+12,-7628,1895,-504,578,-1000,-1953,1,7,11
1.72313E+12,-7954,1799,-455,581,-1110,-2134,1,7,11
1.72313E+12,-8039,1476,-409,599,-1031,-1783,1,7,11
1.72313E+12,-7841,1432,-393,559,-728,-1686,1,7,11
1.72313E+12,-7904,1656,-598,185,-694,-1864,1,7,11
1.72313E+12,-8203,1636,-554,268,-677,-1526,1,7,11
1.72313E+12,-8215,1620,-256,33,-671,-1445,1,7,11
1.72313E+12,-8212,1580,-220,-251,-662,-1615,1,7,11
1.72313E+12,-8198,1254,-149,-789,-890,-1542,1,7,11
1.72313E+12,-8222,1178,-337,-754,-855,-1224,1,7,11
1.72313E+12,-8222,1391,-297,-936,-831,-1401,1,7,11
1.72313E+12,-8231,1327,22,-1393,-801,-1335,1,7,11
1.72313E+12,-8241,1005,97,-1545,-784,-1006,1,7,11
1.72313E+12,-8245,959,-98,-1633,-787,-940,1,7,11
1.72313E+12,-8245,930,-30,-1438,-810,-1136,1,7,11
1.72313E+12,-8249,899,278,-1434,-857,-1071,1,7,11
1.72313E+12,-8241,1140,291,-1640,-642,-730,1,7,11
1.72313E+12,-8237,1112,331,-1641,-657,-656,1,7,11
1.72313E+12,-8258,1063,137,-1622,-646,-848,1,7,11
1.72313E+12,-8270,1052,177,-1573,-641,-778,1,7,11
1.72313E+12,-8283,1056,229,-1271,-877,-460,1,7,11
1.72313E+12,-8292,1061,521,-1221,-870,-394,1,7,11
1.72313E+12,-8292,1107,553,-1174,-862,-550,1,7,11
1.72313E+12,-8258,1106,596,-1199,-862,-240,1,7,11
1.72313E+12,-8255,1117,391,-1216,-834,-217,1,7,11
1.72313E+12,-8267,1140,438,-1228,-825,-209,1,7,11
1.72313E+12,-8255,1148,491,-1241,-847,-199,1,7,11
1.72313E+12,-8230,901,781,-1223,-865,-185,1,7,11
1.72313E+12,-8205,905,821,-1235,-864,-177,1,7,11
1.72313E+12,-7936,1133,870,-1237,-841,-175,1,7,11
1.72313E+12,-7922,1126,640,-1199,-802,-174,1,7,11
1.72313E+12,-7920,1105,684,-1172,-497,-179,1,7,11
1.72313E+12,-7930,1084,726,-1379,-436,-182,1,7,11
1.72313E+12,-8197,1045,1026,-1313,-634,-189,1,7,11
1.72313E+12,-8199,750,1086,-966,-584,-202,1,7,11
1.72313E+12,-8231,738,1122,-1075,-525,-228,1,7,11
1.72313E+12,-8258,741,1130,-678,-235,-239,1,7,11
1.72313E+12,-8278,730,903,-819,-212,-228,1,7,11
1.72313E+12,-8300,719,912,-437,-180,-214,1,7,11
1.72313E+12,-8310,721,909,-574,-163,-191,1,7,11
1.72313E+12,-8317,709,923,-220,-144,-169,1,7,11
1.72313E+12,-8320,693,929,-369,-134,-138,1,7,11
1.72313E+12,-8065,692,915,5,-374,-368,1,7,11
1.72313E+12,-8071,704,1138,119,-358,-338,1,7,11
1.72313E+12,-8307,705,1109,-13,-347,-277,1,7,11
1.72313E+12,-8307,731,1085,313,-318,-258,1,7,11
1.72313E+12,-8285,765,1059,333,-299,15,1,7,11
1.72313E+12,-8263,1058,1037,315,-273,30,1,7,11
1.72313E+12,-8239,1084,764,267,19,40,1,7,11
1.72313E+12,-8219,1088,747,-48,56,46,1,7,11
1.72313E+12,-7935,1088,714,-124,106,34,1,7,11
1.72313E+12,-7922,1072,715,38,-83,1,1,7,11
1.72313E+12,-7922,1049,725,-308,-21,-295,1,7,11
1.72313E+12,-8193,1040,734,-376,294,-342,1,7,11
1.72313E+12,-8217,767,747,-190,338,-381,1,7,11
1.72313E+12,-8236,759,750,-245,363,-153,1,7,11
1.72313E+12,-8251,743,746,-548,366,-162,1,7,11
1.72313E+12,-8253,727,754,-590,365,-162,1,7,11
1.72313E+12,-8260,706,758,-606,360,-155,1,7,11
1.72313E+12,-8251,685,761,-598,357,-140,1,7,11
1.72313E+12,-8245,660,765,-567,366,-131,1,7,11
1.72313E+12,-8248,894,763,-235,370,-378,1,7,11
1.72313E+12,-8247,891,755,-138,369,-368,1,7,11
1.72313E+12,-8253,891,737,-303,368,-365,1,7,11
1.72313E+12,-8226,868,717,15,351,-361,1,7,11
1.72313E+12,-8214,861,702,86,371,-132,1,7,11
1.72313E+12,-8245,876,682,-107,134,-174,1,7,11
1.72313E+12,-8248,877,648,-76,376,-193,1,7,11
1.72313E+12,-8248,878,891,-51,364,-199,1,7,11
1.72313E+12,-8247,859,876,-52,358,-192,1,7,11
1.72313E+12,-8245,829,860,-57,359,-183,1,7,11
1.72313E+12,-8262,806,857,-59,367,-181,1,7,11
1.72313E+12,-8277,796,842,-40,364,-172,1,7,11
1.72313E+12,-8295,507,850,-34,349,-154,1,7,11
1.72313E+12,-8297,495,834,-14,325,-381,1,7,11
1.72313E+12,-8299,504,826,-11,295,-362,1,7,11
1.72313E+12,-8311,776,812,-20,280,-345,1,7,11
1.72313E+12,-8283,499,794,-75,-12,-319,1,7,11
1.72313E+12,-8279,502,787,-128,259,-314,1,7,11
1.72313E+12,-8294,776,776,79,273,-304,1,7,11
1.72313E+12,-8286,770,773,-301,276,-291,1,7,11
1.72313E+12,-8284,507,779,-378,289,-279,1,7,11
1.72313E+12,-8286,491,801,-189,308,-269,1,7,11
1.72313E+12,-8294,483,827,-213,313,-258,1,7,11
1.72313E+12,-8296,484,826,-210,304,18,1,7,11
1.72313E+12,-8298,478,832,-195,294,37,1,7,11
1.72313E+12,-8295,476,828,-169,279,54,1,7,11
1.72313E+12,-8304,477,825,-140,267,66,1,7,11
1.72313E+12,-8301,483,809,-373,-3,79,1,7,11
1.72313E+12,-8293,495,798,-346,-16,95,1,7,11
1.72313E+12,-8287,774,781,-322,-20,110,1,7,11
1.72313E+12,-8289,786,773,-317,-21,125,1,7,11
1.72313E+12,-8289,800,500,-311,-18,-112,1,7,11
1.72313E+12,-8292,813,504,-321,-14,-100,1,7,11
1.72313E+12,-8295,822,509,-329,-18,-83,1,7,11
1.72313E+12,-8290,834,499,-336,-28,-70,1,7,11
1.72313E+12,-8287,838,769,-357,-40,-67,1,7,11
1.72313E+12,-8280,847,509,-361,-46,-66,1,7,11
1.72313E+12,-8269,853,768,-369,-56,-68,1,7,11
1.72313E+12,-8248,854,511,-370,-67,-65,1,7,11
1.72313E+12,-8256,878,504,-360,-54,-80,1,7,11
1.72313E+12,-8260,875,768,-369,-68,-88,1,7,11
1.72313E+12,-8247,876,782,-340,-86,-77,1,7,11
1.72313E+12,-8247,888,779,-311,-98,-82,1,7,11
1.72313E+12,-8237,861,802,-290,-109,-84,1,7,11
1.72313E+12,-8256,873,816,63,-101,-81,1,7,11
1.72313E+12,-8272,644,800,112,121,-60,1,7,11
1.72313E+12,-8278,867,843,122,90,-40,1,7,11
1.72313E+12,-8272,872,836,-55,54,-14,1,7,11
1.72313E+12,-8271,873,780,265,34,271,1,7,11
1.72313E+12,-8233,640,491,-19,53,270,1,7,11
1.72313E+12,-8258,884,775,-87,-127,-12,1,7,11
1.72313E+12,-8278,893,773,-107,-102,256,1,7,11
1.72313E+12,-8262,895,508,124,-80,266,1,7,11
1.72313E+12,-8261,890,775,74,-48,259,1,7,11
1.72313E+12,-8262,648,782,69,-15,259,1,7,11
1.72313E+12,-8278,690,487,66,257,263,1,7,11
1.72313E+12,-8260,674,497,-265,258,280,1,7,11
1.72313E+12,-8263,693,482,-275,292,313,1,7,11
1.72313E+12,-8275,706,477,-332,332,329,1,7,11
1.72313E+12,-8282,693,502,-380,355,349,1,7,11
1.72313E+12,-8309,710,495,-143,378,368,1,7,11
1.72313E+12,-8299,713,488,-171,378,158,1,7,11
1.72313E+12,-8282,711,496,-198,138,179,1,7,11
1.72313E+12,-8301,717,496,-204,154,190,1,7,11
1.72313E+12,-8289,733,491,-206,138,201,1,7,11
1.72313E+12,-8269,755,477,-207,380,209,1,7,11
1.72313E+12,-8247,1027,466,-218,130,196,1,7,11
1.72313E+12,-8241,1045,467,-241,133,170,1,7,11
1.72313E+12,-8223,1059,448,-534,137,130,1,7,11
1.72313E+12,-8208,1083,434,-593,150,326,1,7,11
1.72313E+12,-8217,1094,432,-397,172,279,1,7,11
1.72313E+12,-8210,1112,439,-434,184,-6,1,7,11
1.72313E+12,-8224,1113,452,-412,201,-10,1,7,11
1.72313E+12,-8218,1144,419,-614,201,274,1,7,11
1.72313E+12,-8222,1140,429,-596,224,294,1,7,11
1.72313E+12,-8245,1134,426,-241,233,343,1,7,11
1.72313E+12,-8220,1137,400,-149,226,132,1,7,11
1.72313E+12,-8198,1128,638,-310,236,163,1,7,11
1.72313E+12,-8196,910,620,52,526,172,1,7,11
1.72313E+12,-8201,951,572,125,544,196,1,7,11
1.72313E+12,-8211,997,538,-82,577,230,1,7,11
1.72313E+12,-8210,1292,243,-90,599,542,1,7,11
1.72313E+12,-7932,1009,251,108,623,568,1,7,11
1.72313E+12,-8201,1288,246,77,395,563,1,7,11
1.72313E+12,-7928,1305,237,24,386,550,1,7,11
1.72313E+12,-7926,1302,243,-316,633,244,1,7,11
1.72313E+12,-7922,1306,250,-160,595,194,1,7,11
1.72313E+12,-7927,1304,513,-521,543,133,1,7,11
1.72313E+12,-7921,1287,538,-612,211,326,1,7,11
1.72313E+12,-7910,1288,517,-399,149,265,1,7,11
1.72313E+12,-7904,1305,240,-447,371,-57,1,7,11
1.72313E+12,-7890,1298,254,-495,360,-103,1,7,11
1.72313E+12,-7916,1293,515,-496,371,125,1,7,11
1.72313E+12,-8200,1304,524,-476,369,112,1,7,11
1.72313E+12,-8202,1316,518,-423,349,-124,1,7,11
1.72313E+12,-7930,1306,253,-638,324,-96,1,7,11
1.72313E+12,-7934,1320,235,-559,354,-72,1,7,11
1.72313E+12,-8212,1399,180,-193,150,-12,1,7,11
1.72313E+12,-8194,1355,209,-200,213,308,1,7,11
1.72313E+12,-8240,1374,200,-144,543,356,1,7,11
1.72313E+12,-8219,1373,210,-145,543,165,1,7,11
1.72313E+12,-8218,1387,215,-366,566,195,1,7,11
1.72313E+12,-8205,1398,204,-339,560,218,1,7,11
1.72313E+12,-7924,1152,191,-328,552,225,1,7,11
1.72313E+12,-7905,1162,179,-313,552,208,1,7,11
1.72313E+12,-7897,1174,161,-296,553,186,1,7,11
1.72313E+12,-7899,1187,154,-280,546,159,1,7,11
1.72313E+12,-7900,1202,134,-266,536,134,1,7,11
1.72313E+12,-7896,1214,130,-258,518,372,1,7,11
1.72313E+12,-7891,1220,377,2,243,361,1,7,11
1.72313E+12,-7882,1218,360,22,226,369,1,7,11
1.72313E+12,-7870,1211,338,74,223,128,1,7,11
1.72313E+12,-7856,1203,309,-107,235,147,1,7,11
1.72313E+12,-7858,1195,307,-18,518,162,1,7,11
1.72313E+12,-7882,1240,283,351,549,185,1,7,11
1.72313E+12,-7914,1576,-24,173,555,227,1,7,11
1.72313E+12,-8213,1440,-111,157,552,549,1,7,11
1.72313E+12,-8226,1495,110,331,549,438,1,7,11
1.72313E+12,-8234,1794,77,-48,553,540,1,7,11
1.72313E+12,-8216,1815,35,48,559,887,1,7,11
1.72313E+12,-7873,1525,32,-161,559,691,1,7,11
1.72313E+12,-7817,1507,33,-613,632,675,1,7,11
1.72313E+12,-8035,1505,42,-568,455,870,1,7,11
1.72313E+12,-7998,1491,66,-677,786,796,1,7,11
1.72313E+12,-7993,1511,83,-706,823,460,1,7,11
1.72313E+12,-8000,1526,90,-739,887,408,1,7,11
1.72313E+12,-8009,1805,104,-751,671,633,1,7,11
1.72313E+12,-8025,1829,93,-730,709,615,1,7,11
1.72313E+12,-8051,1861,68,-696,710,623,1,7,11
1.72313E+12,-8063,1893,37,-644,693,405,1,7,11
1.72313E+12,-8062,1669,-267,-882,680,459,1,7,11
1.72313E+12,-8045,1668,-319,-661,667,782,1,7,11
1.72313E+12,-8005,1863,-363,-711,679,852,1,7,11
1.72313E+12,-7977,1818,-156,-717,748,656,1,7,11
1.72313E+12,-7680,1528,-201,-715,1122,713,1,7,11
1.72313E+12,-7940,1820,-234,-665,1330,758,1,7,11
1.72313E+12,-8002,1915,-520,-892,1554,1071,1,7,11
1.72313E+12,-8051,1739,-532,-677,1458,913,1,7,11
1.72313E+12,-8063,1785,-253,-760,1802,1300,1,7,11
1.72313E+12,-8060,2084,-241,-1075,1844,1178,1,7,11
1.72313E+12,-8029,2125,-519,-1100,1840,1576,1,7,11
1.72313E+12,-7976,2172,-569,-1091,1842,1475,1,7,11
1.72313E+12,-7653,1965,-631,-1052,1867,1906,1,7,11
1.72313E+12,-7588,2317,-489,-701,1692,2105,1,7,11
1.72313E+12,-7799,2417,-846,-894,2069,2322,1,7,11
1.72313E+12,-7735,2257,-690,-811,1947,2303,1,7,11
1.72313E+12,-7408,2677,-1109,-413,2379,2818,1,7,11
1.72313E+12,-7351,2829,-987,-402,2598,2811,1,7,11
1.72313E+12,-7524,2899,-1314,-409,2834,3068,1,7,11
1.72313E+12,-7475,2779,-1367,-619,3117,3274,1,7,11
1.72313E+12,-7467,3159,-1163,-617,3356,3698,1,7,11
1.72313E+12,-7295,3059,-1223,-513,3594,3772,1,7,11
1.72313E+12,-6895,3230,-1575,-302,3673,4174,1,7,11
1.72313E+12,-6801,3669,-1426,86,3532,4026,1,7,11
1.72313E+12,-6919,3523,-1500,-98,3566,4399,1,7,11
1.72313E+12,-6767,3901,-1829,-7,3583,4463,1,7,11
1.72313E+12,-6395,3786,-1918,335,3578,4236,1,7,11
1.72313E+12,-6521,4180,-1775,137,3529,4258,1,7,11
1.72313E+12,-6114,4011,-2098,152,3701,4263,1,7,11
1.72313E+12,-6213,4374,-2170,236,3600,4235,1,7,11
1.72313E+12,-5822,4244,-1998,591,3237,4438,1,7,11
1.72313E+12,-5959,4632,-2328,425,3372,4390,1,7,11
1.72313E+12,-5591,4530,-2419,816,2946,4380,1,7,11
1.72313E+12,-5728,4766,-2641,660,2784,4411,1,7,11
1.72313E+12,-5300,5172,-2832,484,2696,4238,1,7,11
1.72313E+12,-5397,5202,-2931,185,2704,4323,1,7,11
1.72313E+12,-5228,5186,-2732,-33,2729,4671,1,7,11
1.72313E+12,-4842,5183,-2757,81,3078,4496,1,7,11
1.72313E+12,-4758,5177,-2702,0,3172,4549,1,7,11
1.72313E+12,-4968,5191,-2880,46,3199,4544,1,7,11
1.72313E+12,-4524,5040,-2863,-43,3021,4702,1,7,11
1.72313E+12,-4654,5386,-2905,164,2848,4313,1,7,11
1.72313E+12,-4478,5454,-2733,492,2609,4388,1,7,11
1.72313E+12,-4045,5302,-3109,697,2369,4145,1,7,11
1.72313E+12,-4121,5675,-2996,1110,2134,3884,1,7,11
1.72313E+12,-3948,5728,-3376,918,1908,3623,1,7,11
1.72313E+12,-3510,5736,-3227,962,1428,3333,1,7,11
1.72313E+12,-3327,5534,-3657,1282,1235,2763,1,7,11
1.72313E+12,-3393,5571,-3573,1015,1357,2450,1,7,11
1.72313E+12,-2965,5576,-3955,956,1020,2391,1,7,11
1.72313E+12,-3103,5565,-3768,1146,982,2094,1,7,11
1.72313E+12,-2764,5568,-3832,1102,964,1823,1,7,11
1.72313E+12,-2735,5576,-4143,1044,961,1587,1,7,11
1.72313E+12,-2736,5552,-4142,709,924,1362,1,7,11
1.72313E+12,-2735,5541,-4166,658,1094,1137,1,7,11
1.72313E+12,-2759,5529,-4166,849,740,673,1,7,11
1.72313E+12,-2774,5516,-4185,781,876,484,1,7,11
1.72313E+12,-2777,5756,-4202,464,510,579,1,7,11
1.72313E+12,-2793,5516,-4216,427,422,184,1,7,11
1.72313E+12,-2800,5517,-4216,623,594,345,1,7,11
1.72313E+12,-2804,5754,-4211,584,531,288,1,7,11
1.72313E+12,-3077,5748,-4220,556,245,268,1,7,11
1.72313E+12,-3079,5725,-3969,524,236,288,1,7,11
1.72313E+12,-3091,5737,-3996,534,253,320,1,7,11
1.72313E+12,-3110,5735,-4011,519,525,355,1,7,11
1.72313E+12,-3128,5727,-4029,242,523,370,1,7,11
1.72313E+12,-3141,5733,-4059,207,229,362,1,7,11
1.72313E+12,-3112,5718,-4356,153,173,348,1,7,11
1.72313E+12,-3085,5702,-4394,343,133,331,1,7,11
1.72313E+12,-3074,5691,-4387,288,360,317,1,7,11
1.72313E+12,-3076,5679,-4376,-7,319,308,1,7,11
1.72313E+12,-2812,5684,-4391,-34,260,295,1,7,11
1.72313E+12,-2813,5683,-4397,-77,-60,275,1,7,11
1.72313E+12,-2796,5689,-4420,-117,125,-8,1,7,11
1.72313E+12,-2780,5699,-4404,94,64,-39,1,7,11
1.72313E+12,-2764,5695,-4390,52,13,-65,1,7,11
1.72313E+12,-2737,5697,-4390,36,-296,-94,1,7,11
1.72313E+12,-2704,5675,-4366,-262,-322,-120,1,7,11
1.72313E+12,-2700,5696,-4370,-259,-314,72,1,7,11
1.72313E+12,-2711,5708,-4362,-272,-283,28,1,7,11
1.72313E+12,-2717,5691,-4354,-332,-262,-269,1,7,11
1.72313E+12,-2729,5681,-4062,-352,-260,-319,1,7,11
1.72313E+12,-2741,5683,-4038,-351,-270,-371,1,7,11
1.72313E+12,-2757,5699,-4038,-355,-289,-158,1,7,11
1.72313E+12,-2772,5708,-4039,-381,-322,-197,1,7,11
1.72313E+12,-2761,5683,-4037,-156,-369,-241,1,7,11
1.72313E+12,-2765,5695,-4050,-161,-146,-562,1,7,11
1.72313E+12,-2773,5705,-4071,-196,-169,-634,1,7,11
1.72313E+12,-2785,5702,-4080,-246,-197,-454,1,7,11
1.72313E+12,-2794,5684,-4066,-559,-239,-791,1,7,11
1.72313E+12,-2813,5690,-4060,-594,-539,-887,1,7,11
1.72313E+12,-3095,5683,-4036,-395,-584,-716,1,7,11
1.72313E+12,-3117,5691,-4029,-427,-387,-1073,1,7,11
1.72313E+12,-3147,5699,-4025,-488,-503,-988,1,7,11
1.72313E+12,-3182,5703,-4017,-846,-858,-1391,1,7,11
1.72313E+12,-2953,5701,-4015,-668,-725,-1550,1,7,11
1.72313E+12,-2969,5669,-4218,-761,-1111,-1462,1,7,11
1.72313E+12,-3010,5684,-4196,-1056,-991,-1899,1,7,11
1.72313E+12,-3351,5687,-4162,-1139,-1405,-2085,1,7,11
1.72313E+12,-3437,5665,-3822,-966,-1609,-2033,1,7,11
1.72313E+12,-3257,5685,-3795,-1002,-1847,-2253,1,7,11
1.72313E+12,-3598,5645,-3715,-1374,-2086,-2503,1,7,11
1.72313E+12,-3485,5345,-3583,-1175,-2357,-2807,1,7,11
1.72313E+12,-3965,5349,-3680,-1207,-2455,-3439,1,7,11
1.72313E+12,-3994,5323,-3453,-1546,-2948,-3856,1,7,11
1.72313E+12,-4477,5320,-2999,-1581,-3867,-4042,1,7,11
1.72313E+12,-4628,5252,-2804,-1653,-4614,-4486,1,7,11
1.72313E+12,-4504,5422,-2883,-1639,-5120,-5206,1,7,11
1.72313E+12,-4913,5384,-2514,-1574,-5819,-5664,1,7,11
1.72313E+12,-4851,5063,-2629,-1566,-6673,-5817,1,7,11
1.72313E+12,-5026,4997,-2224,-1623,-7291,-6521,1,7,11
1.72313E+12,-5254,4839,-2018,-1423,-7743,-6653,1,7,11
1.72313E+12,-5732,4909,-2090,-1461,-7902,-7219,1,7,11
1.72313E+12,-5927,4622,-1838,-1495,-8521,-7481,1,7,11
1.72313E+12,-5855,4224,-1476,-1273,-8717,-7345,1,7,11
1.72313E+12,-6222,4418,-1438,-1364,-8441,-7547,1,7,11
1.72313E+12,-6107,3984,-1277,-1165,-8088,-7156,1,7,11
1.72313E+12,-6388,3756,-1320,-1256,-7719,-7222,1,7,11
1.72313E+12,-7020,3711,-762,-1447,-7040,-6970,1,7,11
1.72313E+12,-7114,3350,-415,-1536,-6442,-6371,1,7,11
1.72313E+12,-7334,3141,-207,-1628,-5934,-6180,1,7,11
1.72313E+12,-7693,2723,-302,-1235,-5411,-5743,1,7,11
1.72313E+12,-7779,2833,86,-1368,-4583,-5070,1,7,11
1.72313E+12,-7604,2433,-63,-1014,-4005,-4895,1,7,11
1.72313E+12,-7666,2294,292,-967,-3701,-4476,1,7,11
1.72313E+12,-7985,2424,152,-952,-3190,-3837,1,7,11
1.72313E+12,-8028,2337,531,-925,-2490,-3494,1,7,11
1.72313E+12,-7821,2041,561,-928,-2371,-3203,1,7,11
1.72313E+12,-7896,1999,618,-993,-2051,-3180,1,7,11
1.72313E+12,-7936,2139,409,-1379,-1806,-2882,1,7,11
1.72313E+12,-8200,1760,433,-1218,-1591,-2588,1,7,11
1.72313E+12,-7927,1876,477,-1543,-1377,-2313,1,7,11
1.72313E+12,-8243,1535,802,-1573,-1069,-1718,1,7,11
1.72313E+12,-8237,1468,862,-1255,-729,-1467,1,7,11
1.72313E+12,-8221,1409,654,-1209,-661,-1540,1,7,11
1.72313E+12,-8199,1612,708,-1172,-888,-1157,1,7,11
1.72313E+12,-7925,1570,754,-1402,-863,-1358,1,7,11
1.72313E+12,-7933,1538,1071,-1374,-875,-1341,1,7,11
1.72313E+12,-8206,1538,1124,-1336,-648,-1324,1,7,11
1.72313E+12,-8239,1258,918,-1325,-717,-1294,1,7,11
1.72313E+12,-8219,1205,974,-1328,-1064,-981,1,7,11
1.72313E+12,-8226,1154,1316,-1337,-1102,-954,1,7,11
1.72313E+12,-8258,1380,1166,-1346,-1132,-929,1,7,11
1.72313E+12,-8265,1349,1268,-1351,-929,-1131,1,7,11
1.72313E+12,-8264,1328,1603,-1352,-965,-1059,1,7,11
1.72313E+12,-8231,1282,1450,-1384,-989,-720,1,7,11
1.72313E+12,-7928,987,1804,-1408,-974,-653,1,7,11
1.72313E+12,-7897,962,1888,-1161,-920,-874,1,7,11
1.72313E+12,-7889,915,1719,-1172,-1102,-856,1,7,11
1.72313E+12,-7888,1119,2067,-1379,-1044,-831,1,7,11
1.72313E+12,-7877,1087,2142,-1281,-721,-823,1,7,11
1.72313E+12,-7914,1061,1968,-920,-645,-827,1,7,11
1.72313E+12,-8197,1051,2025,-1055,-845,-803,1,7,11
1.72313E+12,-8215,1037,2321,-690,-811,-505,1,7,11
1.72313E+12,-8208,760,2340,-844,-778,-456,1,7,11
1.72313E+12,-8214,764,2360,-492,-468,-425,1,7,11
1.72313E+12,-8228,1042,2371,-425,-409,-401,1,7,11
1.72313E+12,-8236,1066,2382,-386,-614,-620,1,7,11
1.72313E+12,-8243,1083,2387,-637,-522,-558,1,7,11
1.72313E+12,-8246,1092,2398,-406,-221,-255,1,7,11
1.72313E+12,-8225,1084,2398,-423,-188,-204,1,7,11
1.72313E+12,-8205,1074,2402,-413,-155,-170,1,7,11
1.72313E+12,-7912,1047,2387,-393,-129,-131,1,7,11
1.72313E+12,-7893,1037,2383,-609,-328,-129,1,7,11
1.72313E+12,-7898,1038,2387,-569,-280,-141,1,7,11
1.72313E+12,-7894,1039,2387,-538,0,-154,1,7,11
1.72313E+12,-7900,1047,2382,-520,14,-163,1,7,11
1.72313E+12,-7899,1036,2369,-523,17,-176,1,7,11
1.72313E+12,-7898,766,2356,-532,29,-190,1,7,11
1.72313E+12,-7890,750,2350,-548,46,-216,1,7,11
1.72313E+12,-7885,729,2338,-565,70,-242,1,7,11
1.72313E+12,-7885,701,2336,-576,95,-521,1,7,11
1.72313E+12,-7891,675,2337,-586,122,-543,1,7,11
1.72313E+12,-7910,645,2336,-588,-112,-559,1,7,11
1.72313E+12,-7926,881,2336,-584,-81,-557,1,7,11
1.72313E+12,-7934,857,2329,-580,-68,-541,1,7,11
1.72313E+12,-7933,839,2320,-564,-47,-527,1,7,11
1.72313E+12,-7923,827,2308,-550,-28,-250,1,7,11
1.72313E+12,-7926,822,2036,-528,258,-240,1,7,11
1.72313E+12,-7921,813,2007,-251,273,-229,1,7,11
1.72313E+12,-7892,769,1990,-247,288,-224,1,7,11
1.72313E+12,-7892,488,1982,-210,326,-247,1,7,11
1.72313E+12,-7919,476,1981,-160,353,-533,1,7,11
1.72313E+12,-8196,468,1978,-368,354,-544,1,7,11
1.72313E+12,-8203,457,1954,-329,344,-545,1,7,11
1.72313E+12,-8208,439,1935,-297,330,-541,1,7,11
1.72313E+12,-8221,418,1922,-267,317,-542,1,7,11
1.72313E+12,-8232,405,2175,23,294,-538,1,7,11
1.72313E+12,-8249,400,1923,54,267,-527,1,7,11
1.72313E+12,-8253,385,2160,70,-19,-251,1,7,11
1.72313E+12,-8252,628,2145,74,-40,-229,1,7,11
1.72313E+12,-8255,621,2142,76,-44,-204,1,7,11
1.72313E+12,-8288,636,2128,78,-38,-172,1,7,11
1.72313E+12,-8278,634,2112,52,-48,-376,1,7,11
1.72313E+12,-8279,624,2115,24,-39,-332,1,7,11
1.72313E+12,-8286,624,2109,-262,-28,-286,1,7,11
1.72313E+12,-8291,621,2118,-286,-21,19,1,7,11
1.72313E+12,-8296,624,2110,-313,-12,65,1,7,11
1.72313E+12,-8301,631,2107,-346,-7,109,1,7,11
1.72313E+12,-8290,387,2092,-375,-17,-78,1,7,11
1.72313E+12,-8278,397,2087,-136,-19,-40,1,7,11
1.72313E+12,-8267,417,2079,-157,-18,-8,1,7,11
1.72313E+12,-8265,432,2075,-189,-15,271,1,7,11
1.72313E+12,-8244,435,2080,-217,-19,288,1,7,11
1.72313E+12,-8240,448,2091,-229,-18,292,1,7,11
1.72313E+12,-8240,456,2098,-234,-25,296,1,7,11
1.72313E+12,-8229,465,2102,-234,-33,299,1,7,11
1.72313E+12,-8228,480,2105,-224,-41,300,1,7,11
1.72313E+12,-8217,487,2104,-213,-54,305,1,7,11
1.72313E+12,-8209,490,2110,-180,-58,302,1,7,11
1.72313E+12,-8211,507,2106,-159,-69,299,1,7,11
1.72313E+12,-8208,781,2111,-138,-67,291,1,7,11
1.72313E+12,-8214,801,2108,-377,-65,284,1,7,11
1.72313E+12,-8198,814,2106,-376,-61,281,1,7,11
1.72313E+12,-8193,824,2112,-372,-45,280,1,7,11
1.72313E+12,-8195,840,2103,-369,-21,280,1,7,11
1.72313E+12,-7932,831,2122,-129,256,279,1,7,11
1.72313E+12,-8196,830,2139,-378,294,256,1,7,11
1.72313E+12,-8196,836,2139,-353,300,-12,1,7,11
1.72313E+12,-8196,851,2133,-313,310,-28,1,7,11
1.72313E+12,-8201,851,2118,-292,323,-36,1,7,11
1.72313E+12,-7932,829,2135,-279,335,-38,1,7,11
1.72313E+12,-8206,830,2144,27,371,-63,1,7,11
1.72313E+12,-8235,847,2142,85,381,-67,1,7,11
1.72313E+12,-8264,862,2140,-111,364,-46,1,7,11
1.72313E+12,-8263,868,2139,-39,330,259,1,7,11
1.72313E+12,-8251,851,2144,288,286,339,1,7,11
1.72313E+12,-8242,856,2139,137,263,375,1,7,11
1.72313E+12,-8237,866,2142,248,-15,134,1,7,11
1.72313E+12,-8248,647,2101,630,-19,143,1,7,11
1.72313E+12,-8239,670,2074,456,-47,188,1,7,11
1.72313E+12,-8250,701,1784,488,-51,216,1,7,11
1.72313E+12,-8233,734,1772,476,-59,238,1,7,11
1.72313E+12,-8223,751,1755,420,-62,234,1,7,11
1.72313E+12,-8206,756,1733,605,-51,225,1,7,11
1.72313E+12,-7930,1046,1706,533,-17,205,1,7,11
1.72313E+12,-8205,1059,1722,370,295,161,1,7,11
1.72313E+12,-8203,1085,1712,294,316,151,1,7,11
1.72313E+12,-8199,1103,1706,-50,340,132,1,7,11
1.72313E+12,-7935,1109,1706,121,360,376,1,7,11
1.72313E+12,-7922,1113,1688,80,383,368,1,7,11
1.72313E+12,-7925,1142,1714,45,160,354,1,7,11
1.72313E+12,-8203,900,1693,96,176,156,1,7,11
1.72313E+12,-8196,907,1691,56,189,167,1,7,11
1.72313E+12,-7933,1145,1712,55,200,181,1,7,11
1.72313E+12,-8194,1151,1697,87,206,179,1,7,11
1.72313E+12,-7905,1143,1683,101,199,184,1,7,11
1.72313E+12,-7910,934,1902,-117,234,151,1,7,11
1.72313E+12,-7930,944,1898,106,255,377,1,7,11
1.72313E+12,-7930,945,1895,94,515,366,1,7,11
1.72313E+12,-7924,953,1875,94,513,357,1,7,11
1.72313E+12,-7918,968,1856,102,531,329,1,7,11
1.72313E+12,-7930,989,1827,112,550,302,1,7,11
1.72313E+12,-7893,1004,1503,93,570,290,1,7,11
1.72313E+12,-7887,1302,1444,-274,397,-39,1,7,11
1.72313E+12,-7933,996,1503,-160,469,-92,1,7,11
1.72313E+12,-8205,1004,1484,-377,452,-72,1,7,11
1.72313E+12,-8209,1022,1451,-138,426,-79,1,7,11
1.72313E+12,-8209,1019,1413,-208,409,-79,1,7,11
1.72313E+12,-7931,1295,1623,-567,417,-96,1,7,11
1.72313E+12,-8203,1304,1615,-446,460,120,1,7,11
1.72313E+12,-8212,1286,1622,-817,480,116,1,7,11
1.72313E+12,-8221,1000,1412,-847,491,117,1,7,11
1.72313E+12,-8259,1002,1423,-795,455,118,1,7,11
1.72313E+12,-8258,987,1425,-494,613,-126,1,7,11
1.72313E+12,-8229,972,1648,-443,525,120,1,7,11
1.72313E+12,-8210,990,1622,-398,211,90,1,7,11
1.72313E+12,-8202,994,1609,-416,197,36,1,7,11
1.72313E+12,-7933,1000,1602,-408,189,18,1,7,11
1.72313E+12,-8193,1009,1587,-613,198,7,1,7,11
1.72313E+12,-7930,1013,1583,-589,199,18,1,7,11
1.72313E+12,-7929,996,1590,-561,213,22,1,7,11
1.72313E+12,-8204,990,1600,-243,202,26,1,7,11
1.72313E+12,-8215,995,1592,-182,162,40,1,7,11
1.72313E+12,-8209,972,1595,-147,370,50,1,7,11
1.72313E+12,-8200,957,1597,-349,337,48,1,7,11
1.72313E+12,-8206,957,1605,-288,313,33,1,7,11
1.72313E+12,-8222,957,1611,43,272,24,1,7,11
1.72313E+12,-8230,966,1592,117,-35,28,1,7,11
1.72313E+12,-8231,971,1583,-96,-76,34,1,7,11
1.72313E+12,-8231,976,1580,-54,-106,39,1,7,11
1.72313E+12,-8221,975,1562,-28,-120,40,1,7,11
1.72313E+12,-8218,977,1557,-12,-118,40,1,7,11
1.72313E+12,-8204,987,1547,-7,-105,35,1,7,11
1.72313E+12,-8201,1001,1260,256,-85,30,1,7,11
1.72313E+12,-7935,1012,1253,-11,-62,33,1,7,11
1.72313E+12,-8199,1007,1255,-34,-37,28,1,7,11
1.72313E+12,-8206,1288,1217,-61,-7,21,1,7,11
1.72313E+12,-7911,1000,1237,116,266,32,1,7,11
1.72313E+12,-8194,1009,1223,125,339,-262,1,7,11
1.72313E+12,-8215,1002,1233,93,337,-263,1,7,11
1.72313E+12,-8203,988,1238,107,336,-263,1,7,11
1.72313E+12,-8221,989,1246,125,332,-267,1,7,11
1.72313E+12,-8222,959,1272,-91,301,-261,1,7,11
1.72313E+12,-8231,955,1267,260,263,-268,1,7,11
1.72313E+12,-8238,962,1258,345,-42,-263,1,7,11
1.72313E+12,-8229,944,1268,162,-90,0,1,7,11
1.72313E+12,-8243,963,1255,255,125,6,1,7,11
1.72313E+12,-8242,960,1260,541,71,13,1,7,11
1.72313E+12,-8235,972,1247,591,30,13,1,7,11
1.72313E+12,-8217,982,1228,602,-270,10,1,7,11
1.72313E+12,-7928,951,1297,599,-286,5,1,7,11
1.72313E+12,-8217,940,1275,474,-264,15,1,7,11
1.72313E+12,-8292,997,1242,849,-309,70,1,7,11
1.72313E+12,-8218,984,1207,801,-130,-111,1,7,11
1.72313E+12,-8202,982,1175,458,-376,126,1,7,11
1.72313E+12,-7934,983,1170,593,-303,80,1,7,11
1.72313E+12,-8193,958,1201,189,41,39,1,7,11
1.72313E+12,-8217,956,1215,365,122,12,1,7,11
1.72313E+12,-8239,944,1237,302,-78,-260,1,7,11
1.72313E+12,-8237,929,1239,261,-53,4,1,7,11
1.72313E+12,-8239,921,1232,-21,-35,3,1,7,11
1.72313E+12,-8257,930,1245,-50,-27,-258,1,7,11
1.72313E+12,-8256,939,1229,-59,-45,14,1,7,11
1.72313E+12,-8247,933,1231,-80,-64,38,1,7,11
1.72313E+12,-8247,940,1225,-86,-70,56,1,7,11
1.72313E+12,-8243,944,1229,-93,-83,73,1,7,11
1.72313E+12,-8232,947,1235,-100,-96,87,1,7,11
1.72313E+12,-8229,945,1230,-119,-104,84,1,7,11
1.72313E+12,-8219,957,1214,-125,-110,89,1,7,11
1.72313E+12,-8211,957,1219,99,-108,85,1,7,11
1.72313E+12,-8212,970,1216,75,-95,81,1,7,11
1.72313E+12,-8221,963,1223,49,-89,75,1,7,11
1.72313E+12,-8212,960,1221,22,-93,77,1,7,11
1.72313E+12,-8214,968,1227,6,-92,73,1,7,11
1.72313E+12,-8209,964,1236,-271,-100,76,1,7,11
1.72313E+12,-8210,965,1246,-290,-104,74,1,7,11
1.72313E+12,-8208,964,1245,-305,-115,71,1,7,11
1.72313E+12,-8206,963,1248,-317,-128,64,1,7,11
1.72313E+12,-8214,966,1246,-317,122,56,1,7,11
1.72313E+12,-8212,964,1247,-319,113,58,1,7,11
1.72313E+12,-8215,966,1251,-324,110,59,1,7,11
1.72313E+12,-8212,963,1265,-331,102,62,1,7,11
1.72313E+12,-8215,959,1260,-330,97,66,1,7,11
1.72313E+12,-8204,954,1270,-335,89,63,1,7,11
1.72313E+12,-8207,956,1537,-338,94,51,1,7,11
1.72313E+12,-8200,951,1541,-340,94,44,1,7,11
1.72313E+12,-8206,964,1277,-334,108,31,1,7,11
1.72313E+12,-8225,971,1275,-349,119,28,1,7,11
1.72313E+12,-8202,944,1544,-379,118,41,1,7,11
1.72313E+12,-8209,941,1554,-370,-104,28,1,7,11
1.72313E+12,-8228,932,1575,-363,-85,14,1,7,11
1.72313E+12,-8232,932,1579,-351,-82,11,1,7,11
1.72313E+12,-8234,928,1573,-337,-87,11,1,7,11
1.72313E+12,-8226,921,1565,-325,-91,19,1,7,11
1.72313E+12,-8219,926,1558,-305,-90,31,1,7,11
1.72313E+12,-8223,931,1547,-287,-81,41,1,7,11
1.72313E+12,-8223,945,1540,-273,-71,45,1,7,11
1.72313E+12,-8222,945,1540,-268,-69,49,1,7,11
1.72313E+12,-8212,941,1537,-282,-69,46,1,7,11
1.72313E+12,-8213,951,1279,-285,-56,31,1,7,11
1.72313E+12,-8221,948,1274,-300,-59,23,1,7,11
1.72313E+12,-8198,941,1274,-318,-61,25,1,7,11
1.72313E+12,-8205,939,1277,-331,-44,10,1,7,11
1.72313E+12,-8220,941,1536,-335,-43,9,1,7,11
1.72313E+12,-8227,941,1277,-334,-46,9,1,7,11
1.72313E+12,-8228,934,1542,-337,-43,10,1,7,11
1.72313E+12,-8239,930,1278,-327,-45,16,1,7,11
1.72313E+12,-8232,929,1279,-330,-49,19,1,7,11
1.72313E+12,-8232,921,1549,-323,-47,22,1,7,11
1.72313E+12,-8226,925,1541,-302,-53,32,1,7,11
1.72313E+12,-8222,924,1545,-296,-52,30,1,7,11
1.72313E+12,-8223,920,1536,-290,-43,28,1,7,11
1.72313E+12,-8220,920,1538,-288,-35,29,1,7,11
1.72313E+12,-8221,919,1277,-297,-24,30,1,7,11
1.72313E+12,-8224,921,1538,-304,-8,25,1,7,11
1.72313E+12,-8228,920,1541,-310,-1,25,1,7,11
1.72313E+12,-8219,919,1270,-317,261,24,1,7,11
1.72313E+12,-8220,920,1267,-339,271,18,1,7,11
1.72313E+12,-8214,916,1267,-359,290,15,1,7,11
1.72313E+12,-8210,914,1257,-384,308,9,1,7,11
1.72313E+12,-8205,917,1235,-172,336,-260,1,7,11
1.72313E+12,-8207,913,1240,-244,374,-270,1,7,11
1.72313E+12,-8233,914,1229,-524,153,4,1,7,11
1.72313E+12,-8238,910,1244,-554,163,47,1,7,11
1.72313E+12,-8247,901,1251,-540,168,100,1,7,11
1.72313E+12,-8243,1148,1238,-231,141,-67,1,7,11
1.72313E+12,-8226,1149,1206,-190,376,-52,1,7,11
1.72313E+12,-8230,897,1199,-176,153,-55,1,7,11
1.72313E+12,-8235,902,1197,-176,188,-63,1,7,11
1.72313E+12,-8233,908,1199,-168,213,-79,1,7,11
1.72313E+12,-8233,922,1188,-132,228,-84,1,7,11
1.72313E+12,-8246,936,1168,-344,243,-84,1,7,11
1.72313E+12,-8247,939,1157,-314,240,-70,1,7,11
1.72313E+12,-8254,941,1395,-286,236,-64,1,7,11
1.72313E+12,-8250,939,1383,-273,225,-47,1,7,11
1.72313E+12,-8223,964,1352,27,197,-28,1,7,11
1.72313E+12,-8212,981,1329,36,213,-29,1,7,11
1.72313E+12,-8227,1004,1307,45,230,-33,1,7,11
1.72313E+12,-8194,999,1288,-257,238,-5,1,7,11
1.72313E+12,-7934,1023,1009,-279,579,259,1,7,11
1.72313E+12,-8206,1018,1007,-323,404,269,1,7,11
1.72313E+12,-8211,965,1317,-182,439,276,1,7,11
1.72313E+12,-8231,977,1302,-135,465,277,1,7,11
1.72313E+12,-8253,982,1294,-375,463,283,1,7,11
1.72313E+12,-8255,982,1284,-344,456,311,1,7,11
1.72313E+12,-8258,984,1022,-319,442,334,1,7,11
1.72313E+12,-8256,975,1014,-289,412,349,1,7,11
1.72313E+12,-8256,996,997,28,629,359,1,7,11
1.72313E+12,-8251,1009,978,69,573,365,1,7,11
1.72313E+12,-8229,1017,950,115,523,367,1,7,11
1.72313E+12,-8217,1296,919,-103,220,358,1,7,11
1.72313E+12,-8196,1302,1149,-87,175,350,1,7,11
1.72313E+12,-7931,1314,1122,-71,156,328,1,7,11
1.72313E+12,-8200,1329,1105,-72,138,304,1,7,11
1.72313E+12,-8206,1335,1094,-86,365,288,1,7,11
1.72313E+12,-8212,1355,1077,-100,344,278,1,7,11
1.72313E+12,-8227,1373,1080,-128,325,280,1,7,11
1.72313E+12,-8236,1387,1066,90,308,291,1,7,11
1.72313E+12,-8224,1383,1064,43,297,308,1,7,11
1.72313E+12,-8227,1152,1066,18,314,311,1,7,11
1.72313E+12,-8230,1401,1096,-270,318,324,1,7,11
1.72313E+12,-8221,1157,1100,40,311,347,1,7,11
1.72313E+12,-8232,1183,1100,103,294,355,1,7,11
1.72313E+12,-8229,1173,1109,-59,-3,382,1,7,11
1.72313E+12,-8228,1201,1084,301,-21,135,1,7,11
1.72313E+12,-8225,1225,1081,375,-51,155,1,7,11
1.72313E+12,-8219,1242,1043,189,-80,181,1,7,11
1.72313E+12,-8195,1550,763,233,-87,226,1,7,11
1.72313E+12,-7917,1549,1041,195,-56,247,1,7,11
1.72313E+12,-7913,1579,742,231,-18,516,1,7,11
1.72313E+12,-7874,1603,719,251,-2,519,1,7,11
1.72313E+12,-7863,1610,695,232,299,247,1,7,11
1.72313E+12,-7842,1624,693,203,351,224,1,7,11
1.72313E+12,-7841,1631,674,172,149,191,1,7,11
1.72313E+12,-7838,1646,695,135,192,154,1,7,11
1.72313E+12,-7859,1622,712,347,221,364,1,7,11
1.72313E+12,-7837,1629,686,359,207,342,1,7,11
1.72313E+12,-7833,1634,656,372,203,308,1,7,11
1.72313E+12,-7846,1612,642,330,222,268,1,7,11
1.72313E+12,-7841,1623,861,326,230,272,1,7,11
1.72313E+12,-7860,1647,486,306,516,286,1,7,11
1.72313E+12,-7820,1502,544,-95,584,309,1,7,11
1.72313E+12,-7870,1656,437,-391,404,243,1,7,11
1.72313E+12,-7865,1627,854,-1096,789,257,1,7,11
1.72313E+12,-8058,1650,879,-1079,574,123,1,7,11
1.72313E+12,-7840,1663,891,-895,459,-287,1,7,11
1.72313E+12,-7831,1652,868,-481,310,-382,1,7,11
1.72313E+12,-7824,1418,812,-169,-33,-206,1,7,11
1.72313E+12,-7881,1657,800,-284,-79,-246,1,7,11
1.72313E+12,-7901,1645,784,92,-120,-225,1,7,11
1.72313E+12,-7935,1634,776,-70,117,-197,1,7,11
1.72313E+12,-7932,1641,493,-23,108,-383,1,7,11
1.72313E+12,-7924,1622,776,-70,-104,-328,1,7,11
1.72313E+12,-8211,1608,826,-101,-61,-277,1,7,11
1.72313E+12,-8203,1612,809,-110,-71,48,1,7,11
1.72313E+12,-7933,1625,810,91,-60,87,1,7,11
1.72313E+12,-7922,1627,815,24,-31,120,1,7,11
1.72313E+12,-7899,1630,813,-272,272,-110,1,7,11
1.72313E+12,-7895,1638,816,-273,332,-56,1,7,11
1.72313E+12,-7872,1590,854,-273,369,-27,1,7,11
1.72313E+12,-7905,1573,871,33,149,-37,1,7,11
1.72313E+12,-7913,1585,860,-100,381,-50,1,7,11
1.72313E+12,-7907,1581,872,-47,358,-77,1,7,11
1.72313E+12,-7915,1589,864,-7,329,-101,1,7,11
1.72313E+12,-7903,1596,835,-20,310,-123,1,7,11
1.72313E+12,-7884,1610,815,-84,321,109,1,7,11
1.72313E+12,-7884,1613,795,77,373,83,1,7,11
1.72313E+12,-7899,1609,771,-288,180,75,1,7,11
1.72313E+12,-7873,1613,500,-188,248,99,1,7,11
1.72313E+12,-7879,1584,784,-573,384,117,1,7,11
1.72313E+12,-7927,1581,808,-628,507,-99,1,7,11
1.72313E+12,-7908,1559,684,-633,784,-21,1,7,11
1.72313E+12,-8080,1555,868,-268,773,-14,1,7,11
1.72313E+12,-7900,1591,785,45,520,367,1,7,11
1.72313E+12,-7817,1586,499,59,531,313,1,7,11
1.72313E+12,-7849,1653,420,-105,554,-37,1,7,11
1.72313E+12,-8054,1658,400,-103,550,-99,1,7,11
1.72313E+12,-7849,1622,431,266,564,78,1,7,11
1.72313E+12,-7885,1663,623,185,244,42,1,7,11
1.72313E+12,-7868,1432,539,236,161,4,1,7,11
1.72313E+12,-7878,1481,202,216,135,-285,1,7,11
1.72313E+12,-7820,1481,159,147,140,-257,1,7,11
1.72313E+12,-7858,1508,366,317,226,13,1,7,11
1.72313E+12,-7851,1490,343,-114,537,80,1,7,11
1.72313E+12,-7834,1460,130,-296,390,101,1,7,11
1.72313E+12,-7889,1415,209,-310,460,96,1,7,11
1.72313E+12,-7906,1463,171,-77,626,-81,1,7,11
1.72313E+12,-7893,1514,361,275,600,-15,1,7,11
1.72313E+12,-7892,1516,345,315,597,310,1,7,11
1.72313E+12,-7864,1491,338,133,575,128,1,7,11
1.72313E+12,-7845,1514,299,236,554,167,1,7,11
1.72313E+12,-7833,1798,269,558,547,182,1,7,11
1.72313E+12,-7828,1823,-25,590,532,193,1,7,11
1.72313E+12,-7818,1857,-55,571,530,192,1,7,11
1.72313E+12,-8053,1856,-56,241,525,192,1,7,11
1.72313E+12,-8018,1824,-37,202,533,174,1,7,11
1.72313E+12,-7994,1833,-65,240,567,132,1,7,11
1.72313E+12,-8033,1851,-71,235,624,338,1,7,11
1.72313E+12,-7825,1849,-46,204,398,312,1,7,11
1.72313E+12,-7857,1834,-56,202,630,314,1,7,11
1.72313E+12,-7848,1898,77,140,600,341,1,7,11
1.72313E+12,-7810,1870,72,-104,393,351,1,7,11
1.72313E+12,-7834,1844,82,-279,479,342,1,7,11
1.72313E+12,-7849,1856,96,-154,769,358,1,7,11
1.72313E+12,-7855,1836,120,-226,773,368,1,7,11
1.72313E+12,-7843,1845,100,-239,465,144,1,7,11
1.72313E+12,-8047,1871,8,-243,407,211,1,7,11
1.72313E+12,-7983,1864,-7,-525,417,530,1,7,11
1.72313E+12,-7954,1868,-276,-255,522,556,1,7,11
1.72313E+12,-7994,1894,-272,-549,840,255,1,7,11
1.72313E+12,-8023,1919,-259,-593,838,224,1,7,11
1.72313E+12,-8031,1697,-262,-625,775,205,1,7,11
1.72313E+12,-8026,1704,9,-417,409,180,1,7,11
1.72313E+12,-8013,1713,-267,-448,522,144,1,7,11
1.72313E+12,-7984,1740,-314,-825,139,355,1,7,11
1.72313E+12,-7671,1712,-270,-742,323,299,1,7,11
1.72313E+12,-7941,1697,42,-1068,282,-76,1,7,11
1.72313E+12,-7970,1694,74,-1083,-69,57,1,7,11
1.72313E+12,-7973,1712,77,-1090,81,-305,1,7,11
1.72313E+12,-7979,1732,77,-1088,28,-376,1,7,11
1.72313E+12,-8012,1754,95,-1091,23,-137,1,7,11
1.72313E+12,-8056,1717,-77,-1090,-266,-363,1,7,11
1.72313E+12,-7834,1700,-11,-761,-353,-351,1,7,11
1.72313E+12,-7862,1691,279,-737,-201,-363,1,7,11
1.72313E+12,-7832,1695,295,-725,-544,-369,1,7,11
1.72313E+12,-8053,1728,279,-738,-532,-133,1,7,11
1.72313E+12,-8048,1731,288,-1043,-200,-358,1,7,11
1.72313E+12,-8054,1733,320,-1078,-349,-286,1,7,11
1.72313E+12,-8053,1714,132,-1083,-264,53,1,7,11
1.72313E+12,-8058,1693,201,-748,39,117,1,7,11
1.72313E+12,-7815,1724,234,-846,46,-87,1,7,11
1.72313E+12,-8051,1740,251,-433,7,-28,1,7,11
1.72313E+12,-8010,1757,246,-242,-296,263,1,7,11
1.72313E+12,-7985,2058,235,-333,-329,258,1,7,11
1.72313E+12,-7975,2075,234,45,-383,-23,1,7,11
1.72313E+12,-7962,2091,218,-66,-213,-71,1,7,11
1.72313E+12,-7640,2143,140,285,-579,124,1,7,11
1.72313E+12,-7578,1924,303,275,-624,6,1,7,11
1.72313E+12,-7808,1964,-11,-88,-623,-169,1,7,11
1.72313E+12,-7554,2174,261,10,-573,-544,1,7,11
1.72313E+12,-7593,2123,271,-345,-245,-388,1,7,11
1.72313E+12,-7648,2058,307,-215,-182,-476,1,7,11
1.72313E+12,-7978,1759,346,-532,-358,-793,1,7,11
1.72313E+12,-8045,1771,306,-592,-276,-796,1,7,11
1.72313E+12,-8058,1749,-36,-831,105,-469,1,7,11
1.72313E+12,-8024,1708,-34,-964,325,-633,1,7,11
1.72313E+12,-7824,1822,171,-1257,567,-568,1,7,11
1.72313E+12,-7815,1482,540,-1180,607,-545,1,7,11
1.72313E+12,-7862,1452,567,-1127,581,-609,1,7,11
1.72313E+12,-7888,1495,202,-799,239,-615,1,7,11
1.72313E+12,-7852,1509,342,-587,229,-552,1,7,11
1.72313E+12,-7887,1451,315,-196,537,-240,1,7,11
1.72313E+12,-7927,1439,258,-267,537,-165,1,7,11
1.72313E+12,-7920,1440,-56,123,243,-334,1,7,11
1.72313E+12,-7883,1449,122,-52,243,9,1,7,11
1.72313E+12,-7846,1456,66,-35,545,83,1,7,11
1.72313E+12,-7847,1462,42,-14,594,-111,1,7,11
1.72313E+12,-7832,1447,30,-15,581,-58,1,7,11
1.72313E+12,-8049,1432,21,-2,551,-36,1,7,11
1.72313E+12,-8038,1431,-259,305,524,-45,1,7,11
1.72313E+12,-7999,1647,27,329,224,-74,1,7,11
1.72313E+12,-7825,1418,-288,245,223,117,1,7,11
1.72313E+12,-8038,1663,-325,238,374,-110,1,7,11
1.72313E+12,-8003,1600,-329,535,142,-120,1,7,11
1.72313E+12,-8062,1610,-381,613,184,100,1,7,11
1.72313E+12,-7839,1605,-158,607,221,75,1,7,11
1.72313E+12,-7870,1602,-173,415,516,75,1,7,11
1.72313E+12,-7871,1611,-206,503,529,115,1,7,11
1.72313E+12,-7847,1271,-214,813,513,-111,1,7,11
1.72313E+12,-8022,1563,-542,735,215,-52,1,7,11
1.72313E+12,-8037,1240,-231,1103,189,-65,1,7,11
1.72313E+12,-8020,1555,-588,1337,330,-25,1,7,11
1.72313E+12,-7960,1591,-423,1320,-40,-36,1,7,11
1.72313E+12,-7650,1562,-432,951,-73,-100,1,7,11
1.72313E+12,-7670,1551,-447,1131,-70,39,1,7,11
1.72313E+12,-7968,1536,-471,1092,-92,-316,1,7,11
1.72313E+12,-8001,1601,-833,1079,-106,-383,1,7,11
1.72313E+12,-8037,1652,-652,675,-60,-194,1,7,11
1.72313E+12,-7884,1432,-705,478,303,-515,1,7,11
1.72313E+12,-8299,1801,-1047,553,157,-554,1,7,11
1.72313E+12,-8145,1818,-749,303,170,-536,1,7,11
1.72313E+12,-8167,1535,-728,275,152,-232,1,7,11
1.72313E+12,-8441,1746,-1106,543,611,-604,1,7,11
1.72313E+12,-9005,2017,-953,562,557,-616,1,7,11
1.72313E+12,-8741,1962,-1093,145,283,-353,1,7,11
1.72313E+12,-8288,2056,-690,365,-99,86,1,7,11
1.72313E+12,-8059,2053,-644,366,-35,-121,1,7,11
1.72313E+12,-7601,1869,-450,-44,280,-91,1,7,11
1.72313E+12,-7607,1526,-552,-26,357,121,1,7,11
1.72313E+12,-7657,1440,-166,282,283,-110,1,7,11
1.72313E+12,-7636,1658,-360,351,-100,-26,1,7,11
1.72313E+12,-7595,1607,53,377,47,333,1,7,11
1.72313E+12,-7724,1561,-128,163,-324,220,1,7,11
1.72313E+12,-7386,1562,-67,208,-130,583,1,7,11
1.72313E+12,-7521,1279,-3,208,-208,442,1,7,11
1.72313E+12,-7459,1577,284,254,-215,486,1,7,11
1.72313E+12,-7490,1437,-3,580,-222,482,1,7,11
1.72313E+12,-7473,1532,-9,559,-206,473,1,7,11
1.72313E+12,-7487,1912,-36,570,-370,439,1,7,11
1.72313E+12,-7503,1759,-64,532,1,395,1,7,11
1.72313E+12,-7524,2071,-68,222,-109,605,1,7,11
1.72313E+12,-7312,2122,-53,190,284,558,1,7,11
