timestamp,ax,ay,az,gx,gy,gz,Label1,Label2,Label3
1.72313E+12,-8221,1361,826,-575,-33,2,1,7,11
1.72313E+12,-8220,1364,835,-565,-19,6,1,7,11
1.72313E+12,-8212,1374,836,-555,-9,15,1,7,11
1.72313E+12,-8201,1370,833,-558,261,15,1,7,11
1.72313E+12,-8203,1372,843,-544,281,9,1,7,11
1.72313E+12,-8202,1375,845,-525,289,17,1,7,11
1.72313E+12,-8204,1380,831,-251,303,25,1,7,11
1.72313E+12,-8215,1395,823,-244,315,34,1,7,11
1.72313E+12,-8213,1392,812,-241,325,53,1,7,11
1.72313E+12,-8217,1398,802,-228,338,67,1,7,11
1.72313E+12,-8237,1405,804,-220,353,80,1,7,11
1.72313E+12,-8267,1158,791,-193,358,105,1,7,11
1.72313E+12,-8297,1185,510,-171,356,-122,1,7,11
1.72313E+12,-8081,1206,491,-169,351,-96,1,7,11
1.72313E+12,-8092,1215,474,-168,344,-56,1,7,11
1.72313E+12,-8107,1219,451,-185,340,-25,1,7,11
1.72313E+12,-8173,1218,432,-191,383,-38,1,7,11
1.72313E+12,-8550,1269,418,-177,382,-54,1,7,11
1.72313E+12,-8532,1259,430,-217,287,256,1,7,11
1.72313E+12,-8482,1232,452,-215,-33,299,1,7,11
1.72313E+12,-8152,1235,430,-180,-103,357,1,7,11
1.72313E+12,-8297,1212,420,-170,104,147,1,7,11
1.72313E+12,-7921,1190,427,-140,80,180,1,7,11
1.72313E+12,-8051,1163,426,-379,81,176,1,7,11
1.72313E+12,-7959,1154,430,-366,110,132,1,7,11
1.72313E+12,-7650,1153,437,-363,-119,313,1,7,11
1.72313E+12,-7609,1403,438,-381,-102,-37,1,7,11
1.72313E+12,-7595,1392,426,-156,-80,103,1,7,11
1.72313E+12,-7639,1398,436,-224,-50,-358,1,7,11
1.72313E+12,-7943,1394,415,-537,-44,-232,1,7,11
1.72313E+12,-7968,1352,401,-633,-53,-599,1,7,11
1.72313E+12,-8018,1303,403,-448,-24,-463,1,7,11
1.72313E+12,-7827,995,400,-772,-2,-826,1,7,11
1.72313E+12,-7890,921,412,-831,268,-653,1,7,11
1.72313E+12,-8197,1108,415,-846,270,-702,1,7,11
1.72313E+12,-8229,1042,410,-867,261,-711,1,7,11
1.72313E+12,-8254,721,416,-874,263,-695,1,7,11
1.72313E+12,-8264,666,422,-868,264,-651,1,7,11
1.72313E+12,-8264,880,423,-861,266,-843,1,7,11
1.72313E+12,-8256,849,424,-860,270,-782,1,7,11
1.72313E+12,-8229,826,427,-871,273,-464,1,7,11
1.72313E+12,-8215,800,433,-892,278,-422,1,7,11
1.72313E+12,-8200,788,446,-662,274,-396,1,7,11
1.72313E+12,-8198,785,447,-689,268,-402,1,7,11
1.72313E+12,-8198,782,436,-710,-3,-409,1,7,11
1.72313E+12,-8198,776,439,-739,-12,-421,1,7,11
1.72313E+12,-8208,508,437,-764,-17,-428,1,7,11
1.72313E+12,-8209,479,457,-1040,-27,-437,1,7,11
1.72313E+12,-8229,467,460,-764,-34,-446,1,7,11
1.72313E+12,-8232,433,478,-746,-51,-441,1,7,11
1.72313E+12,-8236,403,504,-725,-63,-436,1,7,11
1.72313E+12,-8243,392,499,-677,-69,-426,1,7,11
1.72313E+12,-8256,384,499,-649,-82,-413,1,7,11
1.72313E+12,-8270,633,491,-877,-73,-389,1,7,11
1.72313E+12,-8276,607,489,-880,-60,-602,1,7,11
1.72313E+12,-8288,607,474,-881,-26,-556,1,7,11
1.72313E+12,-8312,613,472,-654,265,-248,1,7,11
1.72313E+12,-8075,602,473,-685,286,-180,1,7,11
1.72313E+12,-8074,588,467,-708,300,-358,1,7,11
1.72313E+12,-8082,576,475,-725,327,-301,1,7,11
1.72313E+12,-8107,568,472,-725,351,-257,1,7,11
1.72313E+12,-8129,573,464,-712,357,44,1,7,11
1.72313E+12,-8131,574,462,-699,343,92,1,7,11
1.72313E+12,-8133,571,437,-665,326,-119,1,7,11
1.72313E+12,-8121,578,423,-888,303,-77,1,7,11
1.72313E+12,-8116,589,406,-865,288,-41,1,7,11
1.72313E+12,-8105,608,630,-845,271,257,1,7,11
1.72313E+12,-8118,395,598,-838,259,294,1,7,11
1.72313E+12,-8109,425,557,-873,-20,128,1,7,11
1.72313E+12,-8103,464,525,-688,-44,196,1,7,11
1.72313E+12,-8109,507,517,-1037,-50,517,1,7,11
1.72313E+12,-8105,804,520,-955,-59,577,1,7,11
1.72313E+12,-8098,844,519,-1333,-71,631,1,7,11
1.72313E+12,-8089,869,541,-1197,-87,426,1,7,11
1.72313E+12,-8079,889,559,-1549,-108,457,1,7,11
1.72313E+12,-8069,656,574,-1621,-128,476,1,7,11
1.72313E+12,-8316,682,589,-1423,110,486,1,7,11
1.72313E+12,-8304,713,598,-1468,100,487,1,7,11
1.72313E+12,-8301,756,588,-1502,96,484,1,7,11
1.72313E+12,-8302,1056,570,-1806,87,483,1,7,11
1.72313E+12,-8315,1095,547,-1881,73,483,1,7,11
1.72313E+12,-8310,1130,524,-1711,46,501,1,7,11
1.72313E+12,-8285,915,517,-2077,17,775,1,7,11
1.72313E+12,-8259,927,534,-1951,7,787,1,7,11
1.72313E+12,-8238,941,562,-2330,-264,794,1,7,11
1.72313E+12,-8210,952,595,-2189,-304,787,1,7,11
1.72313E+12,-8204,970,394,-2291,-331,494,1,7,11
1.72313E+12,-7935,979,446,-2677,-372,442,1,7,11
1.72313E+12,-7918,973,511,-2477,-163,638,1,7,11
1.72313E+12,-7907,967,821,-2490,-210,564,1,7,11
1.72313E+12,-7887,965,872,-2487,-513,225,1,7,11
1.72313E+12,-7881,972,668,-2679,-546,135,1,7,11
1.72313E+12,-7849,971,699,-2615,-580,306,1,7,11
1.72313E+12,-7833,962,751,-2275,-572,-53,1,7,11
1.72313E+12,-7839,947,1058,-2420,-557,96,1,7,11
1.72313E+12,-7841,924,1117,-2033,-551,-259,1,7,11
1.72313E+12,-7854,917,896,-2136,-533,-349,1,7,11
1.72313E+12,-7859,912,912,-1720,-513,-164,1,7,11
1.72313E+12,-7885,912,928,-1832,-231,-218,1,7,11
1.72313E+12,-7909,908,936,-1454,-210,-253,1,7,11
1.72313E+12,-7911,1151,941,-1615,-205,-522,1,7,11
1.72313E+12,-7901,1145,930,-1538,-196,-526,1,7,11
1.72313E+12,-7896,1131,933,-1232,-180,-522,1,7,11
1.72313E+12,-7894,1128,932,-1202,-161,-249,1,7,11
1.72313E+12,-7913,1122,937,-1206,-138,-237,1,7,11
1.72313E+12,-7934,1119,946,-1236,-140,-225,1,7,11
1.72313E+12,-8214,1108,966,-1539,-155,-223,1,7,11
1.72313E+12,-8219,1075,1001,-1598,-185,-222,1,7,11
1.72313E+12,-8223,1053,1290,-1652,-208,-231,1,7,11
1.72313E+12,-8249,1029,1321,-1458,-228,-247,1,7,11
1.72313E+12,-8266,761,1342,-1522,-252,-248,1,7,11
1.72313E+12,-8279,743,1376,-1846,-523,-237,1,7,11
1.72313E+12,-8305,725,1152,-1902,-523,-207,1,7,11
1.72313E+12,-8081,708,1181,-1695,-516,-161,1,7,11
1.72313E+12,-8095,678,1227,-1743,-253,-357,1,7,11
1.72313E+12,-8120,658,1270,-1760,-236,-296,1,7,11
1.72313E+12,-8131,651,1549,-1750,-230,40,1,7,11
1.72313E+12,-8151,659,1581,-1730,-215,-124,1,7,11
1.72313E+12,-8153,688,1598,-1708,-200,-19,1,7,11
1.72313E+12,-8138,713,1614,-1705,-179,351,1,7,11
1.72313E+12,-8106,749,1629,-1701,-148,215,1,7,11
1.72313E+12,-8081,1047,1640,-1706,-353,573,1,7,11
1.72313E+12,-8314,1091,1658,-1721,-296,406,1,7,11
1.72313E+12,-8292,1132,1415,-1732,23,489,1,7,11
1.72313E+12,-8258,917,1431,-1746,79,823,1,7,11
1.72313E+12,-8212,940,1464,-1768,-117,876,1,7,11
1.72313E+12,-8197,960,1497,-1770,-58,642,1,7,11
1.72313E+12,-7914,983,1529,-1744,-30,657,1,7,11
1.72313E+12,-7905,1285,1802,-1691,257,654,1,7,11
1.72313E+12,-7904,1340,1818,-1667,277,647,1,7,11
1.72313E+12,-7896,1375,1848,-1896,288,650,1,7,11
1.72313E+12,-7894,1403,1869,-1851,299,652,1,7,11
1.72313E+12,-7861,1397,1892,-1797,312,661,1,7,11
1.72313E+12,-7878,1179,1916,-1458,376,642,1,7,11
1.72313E+12,-7891,1185,1674,-1627,181,867,1,7,11
1.72313E+12,-7905,1191,1693,-1265,205,857,1,7,11
1.72313E+12,-7916,1226,1902,-1364,210,872,1,7,11
1.72313E+12,-7932,1293,1860,-1000,201,894,1,7,11
1.72313E+12,-7912,1580,1831,-953,202,666,1,7,11
1.72313E+12,-7918,1616,1535,-934,229,676,1,7,11
1.72313E+12,-7912,1625,1521,-939,255,690,1,7,11
1.72313E+12,-7902,1654,1527,-953,544,699,1,7,11
1.72313E+12,-7901,1409,1796,-948,574,698,1,7,11
1.72313E+12,-7870,1420,1799,-911,590,697,1,7,11
1.72313E+12,-7851,1444,1817,-1117,609,687,1,7,11
1.72313E+12,-7838,1480,1817,-1047,635,654,1,7,11
1.72313E+12,-8056,1491,1830,-733,395,877,1,7,11
1.72313E+12,-8015,1494,1818,-661,433,826,1,7,11
1.72313E+12,-7981,1503,1804,-820,474,497,1,7,11
1.72313E+12,-7969,1500,1792,-454,777,404,1,7,11
1.72313E+12,-7967,1511,1506,-528,815,551,1,7,11
1.72313E+12,-7991,1514,1478,-168,834,179,1,7,11
1.72313E+12,-8010,1527,1429,-313,819,328,1,7,11
1.72313E+12,-8017,1531,1627,23,783,-21,1,7,11
1.72313E+12,-8030,1531,1560,83,497,-108,1,7,11
1.72313E+12,-8027,1810,1237,-95,472,91,1,7,11
1.72313E+12,-8023,1857,1403,-36,485,65,1,7,11
1.72313E+12,-8037,1879,1331,-35,800,61,1,7,11
1.72313E+12,-7816,1894,1294,-72,866,70,1,7,11
1.72313E+12,-7836,1870,1005,118,643,92,1,7,11
1.72313E+12,-7851,1836,1001,68,648,95,1,7,11
1.72313E+12,-7865,1839,973,64,872,89,1,7,11
1.72313E+12,-7863,1861,934,29,819,77,1,7,11
1.72313E+12,-7874,1880,908,-288,511,63,1,7,11
1.72313E+12,-7873,1887,1147,-350,428,65,1,7,11
1.72313E+12,-7845,1906,1101,-134,599,76,1,7,11
1.72313E+12,-7832,1670,1075,-171,568,70,1,7,11
1.72313E+12,-7830,1668,1068,-220,550,69,1,7,11
1.72313E+12,-7819,1672,1064,-253,534,72,1,7,11
1.72313E+12,-7824,1699,1048,-529,529,79,1,7,11
1.72313E+12,-7853,1712,1047,-572,535,93,1,7,11
1.72313E+12,-7880,1686,1064,-617,516,-123,1,7,11
1.72313E+12,-7879,1889,1086,-624,240,-74,1,7,11
1.72313E+12,-7897,1857,1122,-586,240,-44,1,7,11
1.72313E+12,-8197,1842,912,-522,228,-26,1,7,11
1.72313E+12,-8228,1832,950,-185,167,267,1,7,11
1.72313E+12,-8225,1842,954,-335,322,325,1,7,11
1.72313E+12,-7918,1886,915,27,-25,377,1,7,11
1.72313E+12,-7895,1693,1146,89,-60,382,1,7,11
1.72313E+12,-7873,1761,1129,106,-91,134,1,7,11
1.72313E+12,-7852,2066,1110,76,-99,144,1,7,11
1.72313E+12,-7839,2071,1122,13,-102,167,1,7,11
1.72313E+12,-7810,2075,902,-275,-86,191,1,7,11
1.72313E+12,-8047,2065,924,-286,-63,185,1,7,11
1.72313E+12,-8025,2069,936,14,-56,183,1,7,11
1.72313E+12,-8024,2113,919,70,-47,162,1,7,11
1.72313E+12,-8007,2128,1151,94,-65,141,1,7,11
1.72313E+12,-7977,2163,1128,124,-62,378,1,7,11
1.72313E+12,-7969,1935,1096,123,-43,345,1,7,11
1.72313E+12,-7969,1961,1069,106,-16,308,1,7,11
1.72313E+12,-7979,1967,1068,53,-1,273,1,7,11
1.72313E+12,-7988,1970,1064,2,266,-29,1,7,11
1.72313E+12,-8010,1978,1055,-287,262,-59,1,7,11
1.72313E+12,-8025,1984,1054,-327,-2,-71,1,7,11
1.72313E+12,-8055,1974,1072,-135,262,-72,1,7,11
1.72313E+12,-8061,1953,1087,-199,-1,-63,1,7,11
1.72313E+12,-8042,1945,1079,-242,-22,-50,1,7,11
1.72313E+12,-8031,1929,1082,-587,-10,-64,1,7,11
1.72313E+12,-8035,2165,1110,-639,263,-86,1,7,11
1.72313E+12,-8058,2146,900,-402,271,-112,1,7,11
1.72313E+12,-7820,2136,929,-622,-22,-113,1,7,11
1.72313E+12,-8051,2140,911,-547,-83,-89,1,7,11
1.72313E+12,-8009,2170,1140,-206,-108,-65,1,7,11
1.72313E+12,-8005,1938,1117,-169,-89,-58,1,7,11
1.72313E+12,-7996,1943,1107,-176,-64,-48,1,7,11
1.72313E+12,-7990,1952,1107,-189,-38,-51,1,7,11
1.72313E+12,-7974,1970,1087,-206,-20,-53,1,7,11
1.72313E+12,-7977,1988,1076,-514,272,-72,1,7,11
1.72313E+12,-7977,2000,1079,-570,306,-80,1,7,11
1.72313E+12,-7990,2006,1096,-621,349,-89,1,7,11
1.72313E+12,-8017,1993,1113,-411,382,-92,1,7,11
1.72313E+12,-8011,1962,1122,-428,146,-88,1,7,11
1.72313E+12,-8026,1954,1146,-426,180,-106,1,7,11
1.72313E+12,-8047,1941,907,-412,176,-119,1,7,11
1.72313E+12,-8029,1940,1150,-639,138,-127,1,7,11
1.72313E+12,-8011,1935,1140,-619,366,124,1,7,11
1.72313E+12,-7999,1927,1122,-601,352,100,1,7,11
1.72313E+12,-8004,1929,1121,-574,338,74,1,7,11
1.72313E+12,-8006,1928,1126,-546,303,53,1,7,11
1.72313E+12,-8011,1932,1124,-246,263,34,1,7,11
1.72313E+12,-8004,1945,1110,-211,-49,24,1,7,11
1.72313E+12,-7993,1949,1087,-195,-91,22,1,7,11
1.72313E+12,-7998,1951,1078,-200,-112,18,1,7,11
1.72313E+12,-7999,1945,1080,-207,124,15,1,7,11
1.72313E+12,-8002,1972,1082,-192,108,23,1,7,11
1.72313E+12,-8002,2000,1085,-201,90,47,1,7,11
1.72313E+12,-7964,2000,1093,-226,91,84,1,7,11
1.72313E+12,-7970,1986,1116,-516,124,80,1,7,11
1.72313E+12,-7975,1961,1142,-545,-77,70,1,7,11
1.72313E+12,-8001,1935,908,-548,-49,41,1,7,11
1.72313E+12,-8027,2159,918,-512,-41,23,1,7,11
1.72313E+12,-8059,2153,933,-199,-30,15,1,7,11
1.72313E+12,-7838,2150,949,-148,-30,38,1,7,11
1.72313E+12,-7851,2154,947,-345,-31,90,1,7,11
1.72313E+12,-7860,1920,929,-301,-22,-117,1,7,11
1.72313E+12,-7849,1924,927,-283,-13,-68,1,7,11
1.72313E+12,-7839,1935,929,-270,260,-49,1,7,11
1.72313E+12,-7825,1944,925,0,266,-29,1,7,11
1.72313E+12,-8059,1972,906,6,290,-14,1,7,11
1.72313E+12,-8051,1986,903,-268,319,258,1,7,11
1.72313E+12,-8032,2010,905,-279,350,288,1,7,11
1.72313E+12,-8019,2030,912,-292,380,322,1,7,11
1.72313E+12,-8003,2305,912,-305,152,355,1,7,11
1.72313E+12,-7980,2316,912,-324,171,136,1,7,11
1.72313E+12,-7957,2332,914,-333,196,159,1,7,11
1.72313E+12,-7943,2350,922,-357,216,164,1,7,11
1.72313E+12,-7658,2364,923,-377,222,157,1,7,11
1.72313E+12,-7646,2386,908,-382,228,142,1,7,11
1.72313E+12,-7636,2414,1137,-130,231,130,1,7,11
1.72313E+12,-7634,2177,1130,-143,237,360,1,7,11
1.72313E+12,-7649,2424,1135,-159,228,322,1,7,11
1.72313E+12,-7661,2424,1137,-163,187,-9,1,7,11
1.72313E+12,-7672,2416,1130,-149,142,-61,1,7,11
1.72313E+12,-7937,2416,1118,-130,354,-101,1,7,11
1.72313E+12,-7942,2418,1100,-359,320,-128,1,7,11
1.72313E+12,-7944,2417,1077,-353,300,113,1,7,11
1.72313E+12,-7951,2403,1073,-349,288,105,1,7,11
1.72313E+12,-7949,2403,1067,-337,283,105,1,7,11
1.72313E+12,-7953,2408,1060,-335,286,109,1,7,11
1.72313E+12,-7963,2397,1058,-345,291,115,1,7,11
1.72313E+12,-7963,2390,1066,-345,287,-120,1,7,11
1.72313E+12,-7940,2385,1055,-340,282,-99,1,7,11
1.72313E+12,-7662,2383,1042,-337,290,-91,1,7,11
1.72313E+12,-7651,2384,1045,-333,301,-106,1,7,11
1.72313E+12,-7664,2395,1027,-317,300,125,1,7,11
1.72313E+12,-7646,2384,767,-299,270,106,1,7,11
1.72313E+12,-7646,2399,743,-260,263,66,1,7,11
1.72313E+12,-7667,2402,741,11,-6,15,1,7,11
1.72313E+12,-7949,2400,727,36,-25,-280,1,7,11
1.72313E+12,-7990,2399,717,44,-53,-305,1,7,11
1.72313E+12,-7997,2398,721,53,-89,-312,1,7,11
1.72313E+12,-8021,2367,737,58,-122,-330,1,7,11
1.72313E+12,-8008,2382,719,97,81,-318,1,7,11
1.72313E+12,-7991,2358,731,122,55,-318,1,7,11
1.72313E+12,-7986,2395,696,-107,40,-306,1,7,11
1.72313E+12,-7998,2384,688,-125,75,-282,1,7,11
1.72313E+12,-7995,2390,682,112,105,13,1,7,11
1.72313E+12,-7979,2386,690,74,-109,32,1,7,11
1.72313E+12,-7972,2380,695,51,-78,36,1,7,11
1.72313E+12,-7947,2380,695,49,-70,37,1,7,11
1.72313E+12,-7674,2385,673,55,-57,18,1,7,11
1.72313E+12,-7657,2384,662,36,-53,-265,1,7,11
1.72313E+12,-7657,2382,647,22,-63,-315,1,7,11
1.72313E+12,-7662,2376,660,19,-105,-378,1,7,11
1.72313E+12,-7679,2364,680,56,85,-184,1,7,11
1.72313E+12,-7940,2348,695,120,-279,-236,1,7,11
1.72313E+12,-7937,2343,697,-71,-133,-539,1,7,11
1.72313E+12,-7940,2333,708,-19,-236,-587,1,7,11
1.72313E+12,-7676,2328,732,292,-590,-633,1,7,11
1.72313E+12,-7946,2316,761,328,-404,-429,1,7,11
1.72313E+12,-7960,2017,1067,338,-464,-478,1,7,11
1.72313E+12,-7960,1967,1136,382,-769,-786,1,7,11
1.72313E+12,-7980,1930,948,208,-786,-841,1,7,11
1.72313E+12,-8018,2129,1298,556,-791,-889,1,7,11
1.72313E+12,-8055,2075,1390,455,-792,-652,1,7,11
1.72313E+12,-7822,1730,1240,886,-798,-647,1,7,11
1.72313E+12,-7848,1685,1277,986,-771,-872,1,7,11
1.72313E+12,-7861,1679,1244,1537,-477,-812,1,7,11
1.72313E+12,-7848,1678,1179,1535,-411,-479,1,7,11
1.72313E+12,-7839,1915,1395,1736,-576,-410,1,7,11
1.72313E+12,-7840,1897,1371,1933,-239,-615,1,7,11
1.72313E+12,-7833,1905,1302,2383,-196,-575,1,7,11
1.72313E+12,-7815,1917,961,2291,-169,-548,1,7,11
1.72313E+12,-8050,1907,921,2658,-149,-550,1,7,11
1.72313E+12,-8044,1902,1128,2531,-141,-565,1,7,11
1.72313E+12,-8033,1910,1061,2880,-163,-591,1,7,11
1.72313E+12,-8021,1897,750,2933,-172,-628,1,7,11
1.72313E+12,-8033,1887,698,2725,-161,-419,1,7,11
1.72313E+12,-8053,1875,654,2735,-152,-453,1,7,11
1.72313E+12,-7822,1848,887,2718,-149,-479,1,7,11
1.72313E+12,-7856,1828,869,2692,-154,-505,1,7,11
1.72313E+12,-7896,1799,873,2902,-186,-776,1,7,11
1.72313E+12,-7904,1510,884,2867,-243,-511,1,7,11
1.72313E+12,-7910,1508,870,2856,-548,-502,1,7,11
1.72313E+12,-7898,1478,866,2821,-593,-488,1,7,11
1.72313E+12,-7893,1435,873,2558,-617,-488,1,7,11
1.72313E+12,-7884,1652,854,2827,-638,-485,1,7,11
1.72313E+12,-7859,1593,848,2833,-386,-495,1,7,11
1.72313E+12,-7847,1552,858,2872,-620,-778,1,7,11
1.72313E+12,-7844,1263,858,2938,-589,-827,1,7,11
1.72313E+12,-7856,1232,843,2767,-562,-875,1,7,11
1.72313E+12,-7883,1244,813,3119,-525,-649,1,7,11
1.72313E+12,-7920,1252,773,3168,-240,-651,1,7,11
1.72313E+12,-8208,1233,463,3163,-216,-879,1,7,11
1.72313E+12,-8227,1200,452,3102,-195,-836,1,7,11
1.72313E+12,-8240,1177,445,2769,-171,-792,1,7,11
1.72313E+12,-8257,1166,431,2689,-155,-501,1,7,11
1.72313E+12,-8263,1158,411,2835,-149,-448,1,7,11
1.72313E+12,-8261,1158,395,2452,-135,-411,1,7,11
1.72313E+12,-8255,1156,400,2283,-375,-631,1,7,11
1.72313E+12,-8253,1153,397,2040,-362,-599,1,7,11
1.72313E+12,-8247,1164,390,2130,-350,-560,1,7,11
1.72313E+12,-8239,1167,639,1688,-339,-520,1,7,11
1.72313E+12,-8219,1397,400,1495,-325,-230,1,7,11
1.72313E+12,-8204,1397,402,1606,-309,-204,1,7,11
1.72313E+12,-8204,1396,406,1187,-290,-197,1,7,11
1.72313E+12,-8224,1390,418,1282,-272,-186,1,7,11
1.72313E+12,-8236,1372,437,1119,-275,-164,1,7,11
1.72313E+12,-8241,1347,446,711,-286,-140,1,7,11
1.72313E+12,-8244,1322,446,851,-293,-382,1,7,11
1.72313E+12,-8252,1310,450,497,-289,-366,1,7,11
1.72313E+12,-8281,1298,449,419,-276,-341,1,7,11
1.72313E+12,-8290,1296,451,588,-268,-309,1,7,11
1.72313E+12,-8296,1285,453,254,-259,-274,1,7,11
1.72313E+12,-8292,1019,449,180,4,19,1,7,11
1.72313E+12,-8290,1010,464,361,21,41,1,7,11
1.72313E+12,-8292,1020,465,300,37,55,1,7,11
1.72313E+12,-8300,1283,473,-26,33,72,1,7,11
1.72313E+12,-8269,1006,498,-106,16,98,1,7,11
1.72313E+12,-8256,993,776,98,11,99,1,7,11
1.72313E+12,-8233,975,797,78,-264,86,1,7,11
1.72313E+12,-8217,966,797,77,-287,69,1,7,11
1.72313E+12,-8205,957,800,103,-303,45,1,7,11
1.72313E+12,-8203,942,830,99,-310,30,1,7,11
1.72313E+12,-8207,909,860,122,-320,11,1,7,11
1.72313E+12,-7934,1141,864,-58,-339,7,1,7,11
1.72313E+12,-7916,1099,891,-3,-334,-281,1,7,11
1.72313E+12,-7919,1090,881,325,-319,-302,1,7,11
1.72313E+12,-8194,1061,641,358,-293,-317,1,7,11
1.72313E+12,-8217,753,657,163,-282,-311,1,7,11
1.72313E+12,-8231,725,662,534,-278,-296,1,7,11
1.72313E+12,-8234,709,640,395,-272,-274,1,7,11
1.72313E+12,-8235,691,872,504,9,-258,1,7,11
1.72313E+12,-8249,681,848,844,43,7,1,7,11
1.72313E+12,-8266,681,823,669,81,8,1,7,11
1.72313E+12,-8096,703,788,747,118,-273,1,7,11
1.72313E+12,-8128,692,771,1037,94,-266,1,7,11
1.72313E+12,-8097,894,500,1060,75,-261,1,7,11
1.72313E+12,-8113,887,465,1124,107,-290,1,7,11
1.72313E+12,-8134,884,461,1131,-120,-310,1,7,11
1.72313E+12,-8166,887,453,1124,-79,-321,1,7,11
1.72313E+12,-8559,664,443,1125,-31,-328,1,7,11
1.72313E+12,-8345,662,466,1085,-10,-279,1,7,11
1.72313E+12,-8364,879,494,757,-27,23,1,7,11
1.72313E+12,-8792,685,463,1047,329,41,1,7,11
1.72313E+12,-8719,674,465,1062,275,-76,1,7,11
1.72313E+12,-8408,686,468,1060,354,264,1,7,11
1.72313E+12,-8367,720,473,1094,146,349,1,7,11
1.72313E+12,-8569,754,499,1084,205,170,1,7,11
1.72313E+12,-8567,1077,506,1079,228,242,1,7,11
1.72313E+12,-8510,1127,774,1036,178,614,1,7,11
1.72313E+12,-8166,912,779,739,364,467,1,7,11
1.72313E+12,-8068,955,773,697,291,824,1,7,11
1.72313E+12,-8227,984,779,646,-28,893,1,7,11
1.72313E+12,-7890,1281,793,873,-81,666,1,7,11
1.72313E+12,-7818,1327,794,857,113,680,1,7,11
1.72313E+12,-8003,1360,809,826,50,674,1,7,11
1.72313E+12,-7968,1381,835,821,-270,889,1,7,11
1.72313E+12,-7666,1166,853,857,-360,844,1,7,11
1.72313E+12,-7638,1206,845,664,-175,792,1,7,11
1.72313E+12,-7613,1257,834,696,-207,475,1,7,11
1.72313E+12,-7600,1566,822,696,-196,431,1,7,11
1.72313E+12,-7591,1602,826,653,-169,391,1,7,11
1.72313E+12,-7588,1629,835,878,-381,616,1,7,11
1.72313E+12,-7594,1659,874,848,-339,581,1,7,11
1.72313E+12,-7635,1425,654,839,-314,532,1,7,11
1.72313E+12,-7632,1464,669,844,-336,246,1,7,11
1.72313E+12,-7641,1492,673,820,-338,212,1,7,11
1.72313E+12,-7640,1514,684,770,-349,192,1,7,11
1.72313E+12,-7632,1506,743,472,-368,171,1,7,11
1.72313E+12,-7613,1525,727,796,-143,179,1,7,11
1.72313E+12,-7609,1506,771,779,-175,172,1,7,11
1.72313E+12,-7589,1499,1047,817,-203,153,1,7,11
1.72313E+12,-7599,1527,1043,867,-230,371,1,7,11
1.72313E+12,-7585,1830,1085,856,-522,335,1,7,11
1.72313E+12,-7603,1844,1120,837,-540,289,1,7,11
1.72313E+12,-7618,1841,902,817,-571,-15,1,7,11
1.72313E+12,-7636,1848,946,807,-600,-73,1,7,11
1.72313E+12,-7621,1856,994,793,-632,-114,1,7,11
1.72313E+12,-7648,1893,1015,821,-633,74,1,7,11
1.72313E+12,-7950,1680,1016,849,-614,60,1,7,11
1.72313E+12,-7993,1738,981,891,-585,88,1,7,11
1.72313E+12,-8033,1791,942,681,-526,107,1,7,11
1.72313E+12,-7826,2119,912,735,-167,-84,1,7,11
1.72313E+12,-7834,2167,1146,1035,-327,-40,1,7,11
1.72313E+12,-7875,1970,1132,1059,29,-28,1,7,11
1.72313E+12,-7899,1996,1147,1053,101,-25,1,7,11
1.72313E+12,-7910,1992,929,744,77,-33,1,7,11
1.72313E+12,-7914,1987,944,708,30,-63,1,7,11
1.72313E+12,-7922,1986,948,702,-284,-111,1,7,11
1.72313E+12,-7932,1983,954,702,-330,84,1,7,11
1.72313E+12,-7927,1939,970,668,-384,25,1,7,11
1.72313E+12,-7913,2143,1011,641,-152,-303,1,7,11
1.72313E+12,-7922,2087,1280,863,-165,-378,1,7,11
1.72313E+12,-7896,1772,1285,846,-159,-164,1,7,11
1.72313E+12,-7869,1716,1010,838,-354,-183,1,7,11
1.72313E+12,-7846,1666,980,832,20,-166,1,7,11
1.72313E+12,-7829,1869,947,846,-71,-376,1,7,11
1.72313E+12,-8063,1845,896,883,361,-290,1,7,11
1.72313E+12,-8045,1849,1098,659,539,64,1,7,11
1.72313E+12,-8043,1854,1025,672,439,-96,1,7,11
1.72313E+12,-8012,1863,691,670,803,269,1,7,11
1.72313E+12,-8003,1883,859,653,645,339,1,7,11
1.72313E+12,-8015,1908,772,872,708,378,1,7,11
1.72313E+12,-8044,1693,453,828,742,143,1,7,11
1.72313E+12,-7843,1769,617,787,741,162,1,7,11
1.72313E+12,-7844,2061,558,443,691,196,1,7,11
1.72313E+12,-7884,2130,228,397,664,216,1,7,11
1.72313E+12,-7920,1966,165,572,867,239,1,7,11
1.72313E+12,-7920,2015,372,194,792,521,1,7,11
1.72313E+12,-7893,2316,324,346,470,537,1,7,11
1.72313E+12,-7853,2353,289,-16,423,521,1,7,11
1.72313E+12,-8051,2377,267,-113,402,225,1,7,11
1.72313E+12,-8011,2401,-2,61,404,154,1,7,11
1.72313E+12,-7968,2398,-13,-281,396,323,1,7,11
1.72313E+12,-7662,2363,257,-358,384,-40,1,7,11
1.72313E+12,-7622,2307,283,-166,618,86,1,7,11
1.72313E+12,-7589,1978,296,-207,584,-322,1,7,11
1.72313E+12,-7567,2156,318,-224,533,-229,1,7,11
1.72313E+12,-7571,2077,341,-222,218,-405,1,7,11
1.72313E+12,-7587,1741,348,-195,147,-817,1,7,11
1.72313E+12,-7631,1918,352,-168,343,-693,1,7,11
1.72313E+12,-7668,1826,357,-131,284,-1040,1,7,11
1.72313E+12,-7978,1509,354,-325,-14,-1102,1,7,11
1.72313E+12,-8003,1431,361,-275,-62,-1116,1,7,11
1.72313E+12,-8052,1634,352,53,-78,-1115,1,7,11
1.72313E+12,-7877,1608,340,117,-98,-1098,1,7,11
1.72313E+12,-8202,1592,335,-106,103,-1043,1,7,11
1.72313E+12,-8244,1583,313,-92,16,-699,1,7,11
1.72313E+12,-8260,1578,309,-103,-339,-857,1,7,11
1.72313E+12,-8284,1593,306,-127,-182,-510,1,7,11
1.72313E+12,-8314,1628,301,75,-563,-430,1,7,11
1.72313E+12,-8066,1411,313,-271,-464,-605,1,7,11
1.72313E+12,-8320,1459,319,-133,-890,-548,1,7,11
1.72313E+12,-8286,1495,340,-548,-1079,-252,1,7,11
1.72313E+12,-8249,1800,368,-468,-999,-244,1,7,11
1.72313E+12,-8209,1858,140,-660,-1167,-246,1,7,11
1.72313E+12,-7913,1900,187,-1131,-1539,-252,1,7,11
1.72313E+12,-7889,1902,530,-1385,-1597,-249,1,7,11
1.72313E+12,-7845,1856,398,-1626,-1595,-229,1,7,11
1.72313E+12,-7824,1807,883,-1799,-1269,-222,1,7,11
1.72313E+12,-7819,1505,784,-1896,-1155,-217,1,7,11
1.72313E+12,-7822,1466,914,-1919,-1007,-208,1,7,11
1.72313E+12,-7832,1414,1286,-1890,-1106,-192,1,7,11
1.72313E+12,-7822,1614,1386,-1837,-702,-191,1,7,11
1.72313E+12,-7817,1569,1193,-1470,-735,-207,1,7,11
1.72313E+12,-7811,1539,1245,-1584,-596,-235,1,7,11
1.72313E+12,-7837,1278,1266,-1318,-199,-532,1,7,11
1.72313E+12,-7832,1238,1260,-907,-365,-550,1,7,11
1.72313E+12,-7831,1210,1227,-731,-263,-587,1,7,11
1.72313E+12,-7861,1205,1184,-820,83,-629,1,7,11
1.72313E+12,-7876,1194,1402,-430,-113,-400,1,7,11
1.72313E+12,-7891,1173,1362,-576,-66,-420,1,7,11
1.72313E+12,-7914,1159,1322,-238,-31,-433,1,7,11
1.72313E+12,-7931,1380,1296,-201,-25,-443,1,7,11
1.72313E+12,-7934,1357,1280,-168,-27,-438,1,7,11
1.72313E+12,-8221,1341,993,-154,-22,-442,1,7,11
1.72313E+12,-8267,1336,973,-164,-19,-434,1,7,11
1.72313E+12,-8292,1336,963,-192,-23,-399,1,7,11
1.72313E+12,-8317,1328,960,-240,-23,-609,1,7,11
1.72313E+12,-8078,1309,975,-548,-26,-546,1,7,11
1.72313E+12,-8081,1304,990,-590,-33,-219,1,7,11
1.72313E+12,-8088,1304,1006,-614,-41,-141,1,7,11
1.72313E+12,-8078,1311,1016,-636,-38,-314,1,7,11
1.72313E+12,-8312,1304,1285,-407,-22,17,1,7,11
1.72313E+12,-8299,1313,1296,-423,-3,84,1,7,11
1.72313E+12,-8274,1319,1297,-437,268,-115,1,7,11
1.72313E+12,-8280,1349,1288,-436,293,-82,1,7,11
1.72313E+12,-8256,1383,1283,-456,296,-41,1,7,11
1.72313E+12,-8230,1155,1016,-493,317,-8,1,7,11
1.72313E+12,-8218,1178,1003,-771,339,273,1,7,11
1.72313E+12,-8198,1207,994,-797,361,295,1,7,11
1.72313E+12,-7920,1238,990,-811,382,309,1,7,11
1.72313E+12,-7903,1265,979,-820,142,312,1,7,11
1.72313E+12,-7886,1581,958,-778,152,305,1,7,11
1.72313E+12,-7863,1624,936,-487,144,294,1,7,11
1.72313E+12,-7848,1649,931,-441,145,264,1,7,11
1.72313E+12,-7846,1448,923,-391,133,-31,1,7,11
1.72313E+12,-7842,1479,913,-611,359,-70,1,7,11
1.72313E+12,-7837,1496,911,-588,327,-119,1,7,11
1.72313E+12,-7826,1508,910,-572,286,93,1,7,11
1.72313E+12,-8063,1522,909,-545,256,45,1,7,11
1.72313E+12,-8048,1499,928,-555,-10,-276,1,7,11
1.72313E+12,-7813,1490,951,-536,258,-337,1,7,11
1.72313E+12,-7821,1485,954,-531,266,-374,1,7,11
1.72313E+12,-7852,1469,974,-550,299,-148,1,7,11
1.72313E+12,-7874,1445,994,-563,323,-149,1,7,11
1.72313E+12,-7895,1411,1013,-589,350,-147,1,7,11
1.72313E+12,-8193,1627,1286,-611,374,-140,1,7,11
1.72313E+12,-8212,1608,1289,-616,381,-362,1,7,11
1.72313E+12,-8221,1580,1289,-393,378,-324,1,7,11
1.72313E+12,-8202,1557,1282,-425,135,-289,1,7,11
1.72313E+12,-8219,1553,1002,-459,165,-279,1,7,11
1.72313E+12,-8236,1558,984,-496,176,-262,1,7,11
1.72313E+12,-8247,1572,967,-803,178,3,1,7,11
1.72313E+12,-8262,1580,935,-859,172,9,1,7,11
1.72313E+12,-8265,1613,1148,-671,160,18,1,7,11
1.72313E+12,-8276,1629,1117,-753,173,24,1,7,11
1.72313E+12,-8258,1602,1112,-1128,180,49,1,7,11
1.72313E+12,-8279,1562,1111,-973,204,19,1,7,11
1.72313E+12,-8483,1617,1081,-996,581,-335,1,7,11
1.72313E+12,-8329,1635,1084,-1043,245,-353,1,7,11
1.72313E+12,-8547,1562,1096,-1324,136,-321,1,7,11
1.72313E+12,-8495,1562,1061,-1302,306,-302,1,7,11
1.72313E+12,-8082,1194,1071,-1353,-27,-278,1,7,11
1.72313E+12,-8255,1357,1097,-1345,-18,-324,1,7,11
1.72313E+12,-7862,1000,1109,-1021,-67,-356,1,7,11
1.72313E+12,-8005,903,1123,-954,-53,-175,1,7,11
1.72313E+12,-7964,1099,1116,-1145,-22,-517,1,7,11
1.72313E+12,-7939,1034,1127,-1118,256,-597,1,7,11
1.72313E+12,-7951,731,1134,-1059,278,-417,1,7,11
1.72313E+12,-7990,714,1128,-1002,282,-462,1,7,11
1.72313E+12,-8035,690,1126,-728,276,-488,1,7,11
1.72313E+12,-7837,679,1122,-716,265,-502,1,7,11
1.72313E+12,-7895,669,1112,-723,-14,-479,1,7,11
1.72313E+12,-7926,667,1097,-751,-38,-427,1,7,11
1.72313E+12,-8199,649,1080,-1043,-39,-607,1,7,11
1.72313E+12,-8215,889,1078,-1088,-21,-525,1,7,11
1.72313E+12,-8234,875,1079,-1140,271,-201,1,7,11
1.72313E+12,-8276,867,1084,-928,311,-150,1,7,11
1.72313E+12,-8305,866,1089,-978,327,-344,1,7,11
1.72313E+12,-8303,849,1103,-1014,344,-274,1,7,11
1.72313E+12,-8283,839,1091,-1297,365,47,1,7,11
1.72313E+12,-8264,823,1108,-1339,146,90,1,7,11
1.72313E+12,-8250,802,1140,-1360,180,119,1,7,11
1.72313E+12,-8245,793,903,-1363,197,-127,1,7,11
1.72313E+12,-8211,499,924,-1364,192,-112,1,7,11
1.72313E+12,-8202,498,905,-1295,206,-107,1,7,11
1.72313E+12,-7936,495,1142,-1005,217,-104,1,7,11
1.72313E+12,-7932,485,1134,-950,242,-93,1,7,11
1.72313E+12,-8207,504,1111,-1118,542,-83,1,7,11
1.72313E+12,-8228,768,1081,-1053,572,-60,1,7,11
1.72313E+12,-8236,772,1059,-731,609,-33,1,7,11
1.72313E+12,-8281,795,1034,-657,393,-16,1,7,11
1.72313E+12,-8074,817,762,-848,412,271,1,7,11
1.72313E+12,-8115,826,735,-772,417,321,1,7,11
1.72313E+12,-8147,838,709,-426,419,129,1,7,11
1.72313E+12,-8184,854,683,-582,421,187,1,7,11
1.72313E+12,-8465,644,886,-225,419,254,1,7,11
1.72313E+12,-8477,695,828,-149,404,583,1,7,11
1.72313E+12,-8459,741,775,-356,635,405,1,7,11
1.72313E+12,-8170,1044,463,-315,616,473,1,7,11
1.72313E+12,-8151,1094,410,-297,601,770,1,7,11
1.72313E+12,-8109,1141,597,-282,574,802,1,7,11
1.72313E+12,-8068,926,547,-265,554,807,1,7,11
1.72313E+12,-8282,974,255,-262,536,793,1,7,11
1.72313E+12,-8258,1024,229,-276,519,501,1,7,11
1.72313E+12,-8225,1300,215,-295,230,456,1,7,11
1.72313E+12,-7890,1327,199,-296,186,414,1,7,11
1.72313E+12,-7860,1356,182,-301,166,623,1,7,11
1.72313E+12,-7840,1376,174,-325,157,568,1,7,11
1.72313E+12,-8053,1371,171,-366,137,510,1,7,11
1.72313E+12,-8019,1338,191,-158,131,199,1,7,11
1.72313E+12,-8000,1316,203,-191,382,128,1,7,11
1.72313E+12,-8012,1316,204,-219,133,293,1,7,11
1.72313E+12,-8059,1314,218,-528,374,-48,1,7,11
1.72313E+12,-7829,1289,242,-608,325,-106,1,7,11
1.72313E+12,-7869,1021,536,-427,277,84,1,7,11
1.72313E+12,-7919,1004,569,-501,-49,29,1,7,11
1.72313E+12,-8211,991,583,-824,121,-257,1,7,11
1.72313E+12,-8235,980,602,-653,44,-273,1,7,11
1.72313E+12,-8248,961,612,-736,-271,-280,1,7,11
1.72313E+12,-8271,959,628,-1058,-307,-274,1,7,11
1.72313E+12,-8289,947,394,-1121,-330,4,1,7,11
1.72313E+12,-8316,947,413,-919,-333,29,1,7,11
1.72313E+12,-8076,951,431,-974,-344,74,1,7,11
1.72313E+12,-8084,961,452,-1283,-352,126,1,7,11
1.72313E+12,-8078,969,466,-1348,-356,-70,1,7,11
1.72313E+12,-8081,976,497,-1157,-358,-7,1,7,11
1.72313E+12,-8319,992,507,-1210,-360,312,1,7,11
1.72313E+12,-8315,1000,775,-1268,-359,367,1,7,11
1.72313E+12,-8272,998,797,-1593,-367,170,1,7,11
1.72313E+12,-8253,1011,820,-1648,-352,204,1,7,11
1.72313E+12,-8237,1022,863,-1453,-353,235,1,7,11
1.72313E+12,-8223,1295,644,-1499,-371,522,1,7,11
1.72313E+12,-8212,1312,677,-1797,-141,554,1,7,11
1.72313E+12,-8193,1332,701,-1845,-168,582,1,7,11
1.72313E+12,-8196,1359,723,-1879,-178,611,1,7,11
1.72313E+12,-8204,1152,730,-1909,-186,399,1,7,11
1.72313E+12,-8216,1197,730,-1716,-177,452,1,7,11
1.72313E+12,-8223,1241,730,-1790,-156,786,1,7,11
1.72313E+12,-8222,1536,734,-2141,-379,864,1,7,11
1.72313E+12,-8228,1564,756,-1982,-333,674,1,7,11
1.72313E+12,-8236,1605,1049,-2314,-292,728,1,7,11
1.72313E+12,-8227,1640,1067,-2363,2,1028,1,7,11
1.72313E+12,-8216,1431,1094,-2392,35,1066,1,7,11
1.72313E+12,-7927,1473,1114,-2387,65,1100,1,7,11
1.72313E+12,-7900,1518,1141,-2350,112,1106,1,7,11
1.72313E+12,-7862,1823,925,-2039,-93,1098,1,7,11
1.72313E+12,-7833,1868,960,-1963,-47,1077,1,7,11
1.72313E+12,-7811,1904,1008,-2144,-9,1021,1,7,11
1.72313E+12,-8037,1688,1283,-2051,274,729,1,7,11
1.72313E+12,-7988,1737,1020,-1668,285,710,1,7,11
1.72313E+12,-7963,1790,1010,-1795,352,677,1,7,11
1.72313E+12,-7948,2085,1015,-1655,150,644,1,7,11
1.72313E+12,-7678,2107,1289,-1570,191,861,1,7,11
1.72313E+12,-7671,2140,1293,-1215,209,819,1,7,11
1.72313E+12,-7662,1923,1016,-1387,210,780,1,7,11
1.72313E+12,-7652,1961,1003,-1337,217,477,1,7,11
1.72313E+12,-7650,1987,991,-1318,229,435,1,7,11
1.72313E+12,-7658,2013,980,-1306,247,391,1,7,11
1.72313E+12,-7668,2033,971,-1309,517,602,1,7,11
1.72313E+12,-7660,2308,975,-1308,537,563,1,7,11
1.72313E+12,-7946,2332,968,-1318,580,251,1,7,11
1.72313E+12,-7963,2338,977,-1340,607,208,1,7,11
1.72313E+12,-7979,2344,968,-1353,634,166,1,7,11
1.72313E+12,-7980,2346,954,-1378,400,130,1,7,11
1.72313E+12,-7973,2332,956,-1403,428,357,1,7,11
1.72313E+12,-7984,2350,955,-1158,480,323,1,7,11
1.72313E+12,-8007,2350,964,-1188,772,312,1,7,11
1.72313E+12,-8015,2337,978,-1206,803,314,1,7,11
1.72313E+12,-8022,2328,994,-1211,815,318,1,7,11
1.72313E+12,-8013,2311,1008,-1207,806,324,1,7,11
1.72313E+12,-8000,2044,1012,-1169,786,317,1,7,11
1.72313E+12,-7966,2308,995,-1364,770,309,1,7,11
1.72313E+12,-7961,2324,992,-1313,773,291,1,7,11
1.72313E+12,-7957,2337,990,-1282,511,272,1,7,11
1.72313E+12,-7962,2340,995,-1001,485,-10,1,7,11
1.72313E+12,-7948,2334,1001,-968,439,-47,1,7,11
1.72313E+12,-7672,2342,991,-905,386,-86,1,7,11
1.72313E+12,-7668,2351,977,-1108,605,121,1,7,11
1.72313E+12,-7660,2355,967,-1062,581,72,1,7,11
1.72313E+12,-7658,2360,954,-755,560,32,1,7,11
1.72313E+12,-7636,2361,935,-731,548,-258,1,7,11
1.72313E+12,-7624,2352,918,-702,564,-300,1,7,11
1.72313E+12,-7635,2360,1144,-661,609,-344,1,7,11
1.72313E+12,-7660,2357,1123,-654,403,-131,1,7,11
1.72313E+12,-7937,2362,1114,-891,449,-161,1,7,11
1.72313E+12,-7967,2331,1109,-894,482,-185,1,7,11
1.72313E+12,-7968,2322,1096,-641,489,-201,1,7,11
1.72313E+12,-7969,2327,1076,-880,500,-230,1,7,11
1.72313E+12,-7985,2355,1028,-828,769,-238,1,7,11
1.72313E+12,-7974,2350,754,-823,778,-225,1,7,11
1.72313E+12,-7979,2339,739,-819,798,-215,1,7,11
1.72313E+12,-7966,2322,702,-806,791,-204,1,7,11
1.72313E+12,-7981,2309,686,-786,796,-191,1,7,11
1.72313E+12,-8010,2021,713,-792,819,-194,1,7,11
1.72313E+12,-8050,1988,732,-790,817,-186,1,7,11
1.72313E+12,-7809,1949,740,-775,481,-171,1,7,11
1.72313E+12,-8060,1932,738,-454,406,-149,1,7,11
1.72313E+12,-7809,1934,720,-406,602,-139,1,7,11
1.72313E+12,-7817,1936,712,-639,546,-380,1,7,11
1.72313E+12,-7809,1941,697,-619,245,-350,1,7,11
1.72313E+12,-7812,1956,682,-605,205,-316,1,7,11
1.72313E+12,-7821,1945,698,-594,161,-292,1,7,11
1.72313E+12,-8059,1940,694,-567,354,-264,1,7,11
1.72313E+12,-8038,1935,700,-533,315,1,1,7,11
1.72313E+12,-8037,1937,693,-218,287,11,1,7,11
1.72313E+12,-8046,1959,668,-156,276,29,1,7,11
1.72313E+12,-8046,1958,657,-139,267,60,1,7,11
1.72313E+12,-8050,1983,659,-134,277,90,1,7,11
1.72313E+12,-8045,1988,668,-149,281,114,1,7,11
1.72313E+12,-8039,1995,672,-165,275,-122,1,7,11
1.72313E+12,-8026,1998,664,-173,263,-101,1,7,11
1.72313E+12,-8025,2017,656,-177,257,-86,1,7,11
1.72313E+12,-8001,2033,651,-185,-7,-60,1,7,11
1.72313E+12,-7994,2043,649,-194,261,-42,1,7,11
1.72313E+12,-7986,2042,658,-201,275,-28,1,7,11
1.72313E+12,-7989,2038,669,-194,284,-19,1,7,11
1.72313E+12,-7973,2029,679,-165,272,-11,1,7,11
1.72313E+12,-7977,2044,662,-381,263,-21,1,7,11
1.72313E+12,-7977,2313,657,-364,-15,-22,1,7,11
1.72313E+12,-7976,2343,647,-357,-33,-25,1,7,11
1.72313E+12,-7972,2350,648,-366,-55,-37,1,7,11
1.72313E+12,-7964,2375,892,-371,-74,-41,1,7,11
1.72313E+12,-7962,2377,889,-129,-90,-38,1,7,11
1.72313E+12,-7948,2388,881,-138,-91,-38,1,7,11
1.72313E+12,-7946,2392,889,-154,-83,-47,1,7,11
1.72313E+12,-7948,2403,882,-167,-81,-62,1,7,11
1.72313E+12,-7680,2417,879,-189,-94,-74,1,7,11
1.72313E+12,-7672,2425,871,-205,-105,-82,1,7,11
1.72313E+12,-7660,2424,874,-226,-117,-97,1,7,11
1.72313E+12,-7644,2431,876,-223,-115,-118,1,7,11
1.72313E+12,-7653,2177,887,-230,-111,101,1,7,11
1.72313E+12,-7650,2418,895,-234,-118,55,1,7,11
1.72313E+12,-7671,2417,658,-244,-121,-265,1,7,11
1.72313E+12,-7956,2406,677,-518,117,-303,1,7,11
1.72313E+12,-7974,2394,697,-533,89,-315,1,7,11
1.72313E+12,-7978,2379,704,-533,61,-312,1,7,11
1.72313E+12,-7979,2378,709,-521,45,-296,1,7,11
1.72313E+12,-7982,2383,720,-521,49,-284,1,7,11
1.72313E+12,-7975,2385,718,-255,54,3,1,7,11
1.72313E+12,-7969,2391,713,-254,69,53,1,7,11
1.72313E+12,-7957,2392,722,-538,89,71,1,7,11
1.72313E+12,-7950,2394,728,-576,119,76,1,7,11
1.72313E+12,-7953,2387,737,-604,-107,73,1,7,11
1.72313E+12,-7941,2386,735,-612,-97,69,1,7,11
1.72313E+12,-7960,2397,736,-605,-80,59,1,7,11
1.72313E+12,-7962,2381,740,-607,-86,67,1,7,11
1.72313E+12,-7963,2377,740,-599,-81,57,1,7,11
1.72313E+12,-7972,2367,751,-597,-93,50,1,7,11
1.72313E+12,-7967,2364,767,-590,-112,38,1,7,11
1.72313E+12,-7968,2356,766,-574,115,22,1,7,11
1.72313E+12,-7947,2359,767,-573,80,2,1,7,11
1.72313E+12,-7943,2348,1039,-579,70,-293,1,7,11
1.72313E+12,-7943,2342,1045,-559,59,-323,1,7,11
1.72313E+12,-7668,2363,1033,-527,47,-336,1,7,11
1.72313E+12,-7937,2356,1036,-521,62,-360,1,7,11
1.72313E+12,-7944,2346,1053,-522,74,-371,1,7,11
1.72313E+12,-7961,2340,1051,-521,83,-133,1,7,11
1.72313E+12,-7963,2329,1059,-526,84,-145,1,7,11
1.72313E+12,-7982,2329,1043,-528,94,-155,1,7,11
1.72313E+12,-7995,2323,1041,-552,100,-155,1,7,11
1.72313E+12,-8005,2321,1053,-576,104,-148,1,7,11
1.72313E+12,-8022,2046,1072,-597,111,-131,1,7,11
1.72313E+12,-8025,2031,1087,-613,108,-365,1,7,11
1.72313E+12,-8034,2008,1111,-622,105,-357,1,7,11
1.72313E+12,-8045,1998,1124,-614,83,-352,1,7,11
1.72313E+12,-8046,1981,1143,-596,41,-342,1,7,11
1.72313E+12,-8021,2017,1112,-547,-265,-332,1,7,11
1.72313E+12,-7984,2010,1078,-606,-273,-345,1,7,11
1.72313E+12,-7996,1981,1133,-639,-257,-348,1,7,11
1.72313E+12,-7986,1997,1146,-629,-257,-371,1,7,11
1.72313E+12,-7986,1971,1146,-637,5,-378,1,7,11
1.72313E+12,-7969,1972,905,-604,48,-379,1,7,11
1.72313E+12,-8005,1932,939,-618,101,-136,1,7,11
1.72313E+12,-7999,1926,924,-592,113,-371,1,7,11
1.72313E+12,-8006,2164,934,-587,-123,-373,1,7,11
1.72313E+12,-8009,2158,934,-585,-98,-358,1,7,11
1.72313E+12,-8025,2165,923,-545,-64,-338,1,7,11
1.72313E+12,-8043,1923,916,-522,6,-292,1,7,11
1.72313E+12,-8057,2163,921,-522,307,2,1,7,11
1.72313E+12,-8058,2156,913,-532,337,38,1,7,11
1.72313E+12,-8041,2161,1146,-556,364,56,1,7,11
1.72313E+12,-8040,2154,1145,-583,132,62,1,7,11
1.72313E+12,-8027,2144,907,-565,132,48,1,7,11
1.72313E+12,-8045,2167,901,-245,375,28,1,7,11
1.72313E+12,-8031,2163,1140,-208,319,42,1,7,11
1.72313E+12,-8002,2162,1136,-152,288,40,1,7,11
1.72313E+12,-8015,2163,1125,-340,261,16,1,7,11
1.72313E+12,-8005,2173,1113,-300,-25,-269,1,7,11
1.72313E+12,-8026,2155,1147,-265,-51,-305,1,7,11
1.72313E+12,-8037,2147,910,53,-88,-322,1,7,11
1.72313E+12,-8045,2136,918,112,-123,-329,1,7,11
1.72313E+12,-8042,2134,907,-91,108,-326,1,7,11
1.72313E+12,-8023,2136,1151,-69,104,-333,1,7,11
1.72313E+12,-8016,2150,1130,-55,-119,-344,1,7,11
1.72313E+12,-8015,2143,1125,-59,-80,-345,1,7,11
1.72313E+12,-8011,2139,1108,-58,-37,-345,1,7,11
1.72313E+12,-8013,2155,1090,-47,-3,-348,1,7,11
1.72313E+12,-8020,2155,1076,-51,287,-366,1,7,11
1.72313E+12,-8031,2157,1071,-70,293,-375,1,7,11
1.72313E+12,-8020,2147,1069,-54,276,-369,1,7,11
1.72313E+12,-8043,2159,1033,-19,261,-361,1,7,11
1.72313E+12,-8037,2136,1031,-41,-33,-350,1,7,11
1.72313E+12,-8052,2126,1024,-50,-71,-375,1,7,11
1.72313E+12,-8052,2136,740,-47,84,-129,1,7,11
1.72313E+12,-8039,2133,723,-80,-280,-172,1,7,11
1.72313E+12,-8022,2128,710,115,-135,-236,1,7,11
1.72313E+12,-8013,2124,742,40,-253,-581,1,7,11
1.72313E+12,-8024,2103,1037,-296,-604,-455,1,7,11
1.72313E+12,-8011,2101,1079,-364,-442,-521,1,7,11
1.72313E+12,-8044,2059,1150,-202,-506,-843,1,7,11
1.72313E+12,-8039,1758,931,-221,-845,-873,1,7,11
1.72313E+12,-8020,1719,974,-238,-704,-659,1,7,11
1.72313E+12,-8025,1669,1291,-516,-746,-728,1,7,11
1.72313E+12,-8042,1863,1382,-235,-1031,-1038,1,7,11
1.72313E+12,-8061,1819,1203,-141,-1054,-1080,1,7,11
1.72313E+12,-7812,1512,1540,-274,-1048,-1096,1,7,11
1.72313E+12,-7824,1473,1620,-108,-744,-1101,1,7,11
1.72313E+12,-7864,1420,1445,335,-667,-1100,1,7,11
1.72313E+12,-7891,1617,1507,558,-864,-1074,1,7,11
1.72313E+12,-7901,1580,1528,819,-800,-1043,1,7,11
1.72313E+12,-7914,1551,1528,1079,-463,-754,1,7,11
1.72313E+12,-7911,1536,1506,1325,-630,-701,1,7,11
1.72313E+12,-7915,1256,1480,1546,-526,-649,1,7,11
1.72313E+12,-7913,1231,1455,1497,-171,-854,1,7,11
1.72313E+12,-7936,1219,1439,1707,-330,-837,1,7,11
1.72313E+12,-8193,1220,1621,2174,-293,-791,1,7,11
1.72313E+12,-7920,1223,1571,2328,11,-510,1,7,11
1.72313E+12,-8202,1205,1277,2209,54,-501,1,7,11
1.72313E+12,-8200,1254,1189,2583,65,-463,1,7,11
1.72313E+12,-8194,1253,1172,2600,65,-431,1,7,11
1.72313E+12,-8198,1223,1394,2661,57,-403,1,7,11
1.72313E+12,-7908,1216,1370,2455,19,-636,1,7,11
1.72313E+12,-7897,1211,1152,2491,5,-396,1,7,11
1.72313E+12,-8254,1203,1366,2819,4,-553,1,7,11
1.72313E+12,-7900,1279,944,2805,-379,-155,1,7,11
1.72313E+12,-7860,1180,946,2864,-332,-186,1,7,11
1.72313E+12,-7867,1195,916,2498,-259,-542,1,7,11
1.72313E+12,-8197,1181,928,2633,33,-583,1,7,11
1.72313E+12,-8199,1195,1145,2563,26,-547,1,7,11
1.72313E+12,-8222,1213,1110,2179,80,-518,1,7,11
1.72313E+12,-8208,1185,1102,2036,123,-219,1,7,11
1.72313E+12,-8206,1159,1084,1924,-70,-214,1,7,11
1.72313E+12,-7930,1379,1063,2098,-21,-228,1,7,11
1.72313E+12,-8206,1375,1044,1774,305,-522,1,7,11
1.72313E+12,-8228,1367,1029,1692,332,-531,1,7,11
1.72313E+12,-8222,1348,746,1859,339,-543,1,7,11
1.72313E+12,-8232,1336,717,1520,359,-559,1,7,11
1.72313E+12,-8219,1325,679,1439,365,-554,1,7,11
1.72313E+12,-8231,1015,677,1590,135,-568,1,7,11
1.72313E+12,-8245,1010,650,1270,142,-541,1,7,11
1.72313E+12,-8243,995,650,1155,154,-537,1,7,11
1.72313E+12,-8266,998,895,1309,171,-534,1,7,11
1.72313E+12,-8260,981,865,915,165,-521,1,7,11
1.72313E+12,-8244,926,874,1035,183,-524,1,7,11
1.72313E+12,-8272,919,857,713,207,-519,1,7,11
1.72313E+12,-8067,904,862,872,201,-232,1,7,11
1.72313E+12,-8078,1123,864,786,153,-169,1,7,11
1.72313E+12,-8297,1080,839,468,352,-361,1,7,11
1.72313E+12,-8274,1037,825,432,333,-329,1,7,11
1.72313E+12,-8278,1025,815,431,337,-320,1,7,11
1.72313E+12,-8305,1041,802,424,338,-300,1,7,11
1.72313E+12,-8316,1051,777,394,323,-260,1,7,11
1.72313E+12,-8311,1058,493,601,300,40,1,7,11
1.72313E+12,-8245,1061,419,224,298,84,1,7,11
1.72313E+12,-8231,1039,414,324,360,51,1,7,11
1.72313E+12,-8235,763,455,-59,142,26,1,7,11
1.72313E+12,-8264,1033,429,-91,150,37,1,7,11
1.72313E+12,-8245,766,399,62,377,64,1,7,11
1.72313E+12,-8247,751,396,-281,146,91,1,7,11
1.72313E+12,-8274,744,389,-336,182,112,1,7,11
1.72313E+12,-8066,706,443,-330,197,-121,1,7,11
1.72313E+12,-8114,750,407,78,173,-68,1,7,11
1.72313E+12,-8174,1075,603,100,143,-28,1,7,11
1.72313E+12,-8163,1059,591,8,376,289,1,7,11
1.72313E+12,-8141,1059,552,-325,171,327,1,7,11
1.72313E+12,-8128,1056,520,-151,525,362,1,7,11
1.72313E+12,-8116,1060,247,-209,399,156,1,7,11
1.72313E+12,-8126,1081,252,-242,782,220,1,7,11
1.72313E+12,-8120,1077,528,-513,869,551,1,7,11
1.72313E+12,-8097,1082,553,-226,648,636,1,7,11
1.72313E+12,-8310,1080,563,-142,656,446,1,7,11
1.72313E+12,-8317,1096,554,-261,661,472,1,7,11
1.72313E+12,-8288,1077,568,123,871,503,1,7,11
1.72313E+12,-8302,1140,514,325,868,485,1,7,11
1.72313E+12,-8542,968,227,560,869,624,1,7,11
1.72313E+12,-8537,958,232,450,475,386,1,7,11
1.72313E+12,-8513,967,216,642,577,637,1,7,11
1.72313E+12,-8517,1010,188,1137,225,388,1,7,11
1.72313E+12,-8490,1298,147,1358,330,441,1,7,11
1.72313E+12,-8464,1316,380,1545,266,508,1,7,11
1.72313E+12,-8164,1343,309,1431,-28,830,1,7,11
1.72313E+12,-8099,1179,-18,1624,262,881,1,7,11
1.72313E+12,-8229,1176,261,1237,334,720,1,7,11
1.72313E+12,-8219,1165,379,1362,204,1025,1,7,11
1.72313E+12,-7931,1161,199,1381,180,908,1,7,11
1.72313E+12,-7825,1222,201,1301,337,1003,1,7,11
1.72313E+12,-7970,1202,515,919,266,1306,1,7,11
1.72313E+12,-7635,1549,521,1085,-26,1296,1,7,11
1.72313E+12,-7593,1631,553,861,-45,1006,1,7,11
1.72313E+12,-7556,1627,448,577,-79,922,1,7,11
1.72313E+12,-7770,1642,786,218,75,1042,1,7,11
1.72313E+12,-7731,1845,393,516,-267,658,1,7,11
1.72313E+12,-7340,1884,403,365,-282,641,1,7,11
1.72313E+12,-7350,1682,417,383,115,869,1,7,11
1.72313E+12,-7365,1764,452,164,-91,868,1,7,11
1.72313E+12,-7681,1693,823,137,-87,781,1,7,11
1.72313E+12,-7420,1785,795,606,90,488,1,7,11
1.72313E+12,-7730,2089,828,409,70,629,1,7,11
1.72313E+12,-7792,2071,691,496,27,535,1,7,11
1.72313E+12,-7705,2091,728,762,-343,166,1,7,11
1.72313E+12,-8018,2129,643,1349,-562,332,1,7,11
1.72313E+12,-7970,1962,503,1617,-487,303,1,7,11
1.72313E+12,-7992,1957,445,1417,-438,-33,1,7,11
1.72313E+12,-7994,1966,416,1497,-611,-35,1,7,11
1.72313E+12,-7945,2007,601,1683,-234,-18,1,7,11
1.72313E+12,-7678,2310,525,1732,-322,-30,1,7,11
1.72313E+12,-7642,2340,235,1723,97,-23,1,7,11
1.72313E+12,-7608,2344,212,1675,-18,-23,1,7,11
1.72313E+12,-7556,2317,538,1902,312,-31,1,7,11
1.72313E+12,-7611,2017,212,1723,369,-122,1,7,11
1.72313E+12,-7574,2316,361,1664,270,-120,1,7,11
1.72313E+12,-7771,2012,357,1798,271,87,1,7,11
1.72313E+12,-7606,1989,152,1657,-5,-323,1,7,11
1.72313E+12,-7639,2154,514,1410,62,-185,1,7,11
1.72313E+12,-7667,2123,523,1899,-213,-590,1,7,11
1.72313E+12,-7942,2062,559,2133,-503,-769,1,7,11
1.72313E+12,-8025,1721,611,2424,-1058,-756,1,7,11
1.72313E+12,-7821,1780,243,2554,-1357,-958,1,7,11
1.72313E+12,-7863,2136,134,2784,-1272,-1302,1,7,11
1.72313E+12,-8221,1974,311,2949,-1542,-994,1,7,11
1.72313E+12,-8279,1952,315,3163,-1553,-1077,1,7,11
1.72313E+12,-8284,2164,330,2764,-1275,-664,1,7,11
1.72313E+12,-8263,2130,351,2513,-1205,-830,1,7,11
1.72313E+12,-8226,1783,180,2183,-1325,-791,1,7,11
1.72313E+12,-7919,1728,522,1922,-899,-503,1,7,11
1.72313E+12,-7855,1889,411,1708,-729,-456,1,7,11
1.72313E+12,-8045,1814,486,1864,-823,-411,1,7,11
1.72313E+12,-7870,1824,458,1695,-638,-395,1,7,11
1.72313E+12,-8046,1532,448,1833,-578,-538,1,7,11
1.72313E+12,-8039,1487,473,1793,-365,-517,1,7,11
1.72313E+12,-7910,1447,500,1501,25,-525,1,7,11
1.72313E+12,-7930,1661,772,1462,30,-251,1,7,11
1.72313E+12,-8217,1414,451,1481,19,-529,1,7,11
1.72313E+12,-7926,1453,618,1414,-278,-536,1,7,11
1.72313E+12,-7892,1460,545,1543,37,-544,1,7,11
1.72313E+12,-7920,1491,214,1177,-102,-525,1,7,11
1.72313E+12,-7919,1487,197,1324,-9,-171,1,7,11
1.72313E+12,-7899,1432,244,1005,300,-294,1,7,11
1.72313E+12,-8242,1531,362,1153,350,109,1,7,11
1.72313E+12,-7882,1815,344,1348,305,359,1,7,11
1.72313E+12,-7848,1901,297,1337,208,563,1,7,11
1.72313E+12,-7889,1719,-23,1321,602,789,1,7,11
1.72313E+12,-7809,1748,-52,928,481,759,1,7,11
1.72313E+12,-7855,2111,-112,1029,694,1121,1,7,11
1.72313E+12,-7811,1960,76,863,1118,940,1,7,11
1.72313E+12,-7945,1989,42,581,962,1292,1,7,11
1.72313E+12,-7676,2035,-274,291,1194,957,1,7,11
1.72313E+12,-7665,2342,-339,7,1241,1084,1,7,11
1.72313E+12,-7618,2326,-329,-444,1218,661,1,7,11
1.72313E+12,-7563,2018,-284,-844,1152,466,1,7,11
1.72313E+12,-7804,1978,-272,-865,1289,193,1,7,11
1.72313E+12,-7797,1952,-287,-846,1122,-98,1,7,11
1.72313E+12,-7781,2112,-308,-805,697,-359,1,7,11
1.72313E+12,-7740,1788,-356,-445,810,-581,1,7,11
1.72313E+12,-7695,1688,-384,-593,482,-801,1,7,11
1.72313E+12,-7586,1666,-145,-204,496,-1082,1,7,11
1.72313E+12,-7557,1813,-380,-203,602,-941,1,7,11
1.72313E+12,-7793,1430,-372,-374,613,-1318,1,7,11
1.72313E+12,-7656,1632,-164,30,422,-1155,1,7,11
1.72313E+12,-7994,1571,-191,-126,475,-1382,1,7,11
1.72313E+12,-8059,1250,-211,256,815,-1290,1,7,11
1.72313E+12,-7870,1238,-246,376,656,-905,1,7,11
1.72313E+12,-8211,1224,-516,203,742,-758,1,7,11
1.72313E+12,-8302,1259,-516,542,1040,-845,1,7,11
1.72313E+12,-8130,1605,-570,590,707,-546,1,7,11
1.72313E+12,-8128,1452,-388,549,874,-331,1,7,11
1.72313E+12,-8101,1518,-428,151,796,123,1,7,11
1.72313E+12,-8065,1833,-468,-18,475,292,1,7,11
1.72313E+12,-8290,1899,-478,47,406,159,1,7,11
1.72313E+12,-8243,1713,-487,-155,581,236,1,7,11
1.72313E+12,-8203,2058,-491,-396,251,521,1,7,11
1.72313E+12,-7927,2141,-477,-645,181,545,1,7,11
1.72313E+12,-7874,2163,-437,-897,347,590,1,7,11
1.72313E+12,-7809,1927,-612,-1243,-87,612,1,7,11
1.72313E+12,-8022,1929,-584,-1411,94,585,1,7,11
1.72313E+12,-7592,2092,-224,-1941,46,163,1,7,11
1.72313E+12,-7587,2072,-197,-1988,94,370,1,7,11
1.72313E+12,-7629,2073,-352,-2100,-87,565,1,7,11
1.72313E+12,-7668,2129,-359,-2060,110,639,1,7,11
1.72313E+12,-7917,2578,-150,-2381,-308,883,1,7,11
1.72313E+12,-7916,2622,-384,-2283,-351,651,1,7,11
1.72313E+12,-7663,2592,61,-2692,-189,790,1,7,11
1.72313E+12,-7562,2282,110,-2730,-192,459,1,7,11
1.72313E+12,-7686,2019,146,-2459,-194,-117,1,7,11
1.72313E+12,-7410,1998,184,-2599,-242,59,1,7,11
1.72313E+12,-7641,2358,169,-1998,-553,-525,1,7,11
1.72313E+12,-7977,2405,163,-1991,-571,-568,1,7,11
1.72313E+12,-7646,2099,784,-2592,-789,-421,1,7,11
1.72313E+12,-7591,1698,884,-2612,-794,-455,1,7,11
1.72313E+12,-8016,1523,922,-1970,-150,-149,1,7,11
1.72313E+12,-8061,1802,920,-2140,-353,7,1,7,11
1.72313E+12,-7839,2082,1052,-2053,-94,545,1,7,11
1.72313E+12,-7846,1921,761,-2117,-4,636,1,7,11
1.72313E+12,-7992,2327,728,-2423,214,847,1,7,11
1.72313E+12,-7976,2381,718,-2420,224,858,1,7,11
1.72313E+12,-7608,2244,730,-2198,567,730,1,7,11
1.72313E+12,-7569,2269,738,-2185,587,736,1,7,11
1.72313E+12,-7780,2436,1063,-2306,639,445,1,7,11
1.72313E+12,-7787,2447,1086,-2021,623,614,1,7,11
1.72313E+12,-7730,2432,953,-2087,576,292,1,7,11
1.72313E+12,-7746,2445,972,-1763,604,-41,1,7,11
1.72313E+12,-7591,2681,1300,-1521,451,-277,1,7,11
1.72313E+12,-7593,2432,1010,-1471,464,-297,1,7,11
1.72313E+12,-7677,2466,964,-1664,679,-313,1,7,11
1.72313E+12,-7680,2466,949,-1641,704,-313,1,7,11
1.72313E+12,-7657,2451,1114,-1275,1141,-263,1,7,11
1.72313E+12,-7643,2444,1078,-1234,937,21,1,7,11
1.72313E+12,-7581,2671,652,-1368,1324,112,1,7,11
1.72313E+12,-7576,2661,882,-1391,1349,119,1,7,11
1.72313E+12,-7619,2651,832,-1242,1390,104,1,7,11
1.72313E+12,-7624,2644,842,-1250,1362,101,1,7,11
1.72313E+12,-7631,2457,502,-1290,1102,120,1,7,11
1.72313E+12,-7624,2478,479,-963,1065,-126,1,7,11
1.72313E+12,-7614,2504,432,-641,850,-121,1,7,11
1.72313E+12,-7623,2831,613,-471,793,-122,1,7,11
1.72313E+12,-7577,2822,552,-712,181,-45,1,7,11
1.72313E+12,-7566,2543,586,-688,369,-45,1,7,11
1.72313E+12,-7760,2537,419,-544,120,-91,1,7,11
1.72313E+12,-7744,2821,414,-198,104,-127,1,7,11
1.72313E+12,-7760,2841,419,-263,-121,-306,1,7,11
1.72313E+12,-7765,2834,425,0,-86,-326,1,7,11
1.72313E+12,-7596,2558,447,7,303,-302,1,7,11
1.72313E+12,-7589,2816,449,28,297,-267,1,7,11
1.72313E+12,-7562,2828,402,35,287,94,1,7,11
1.72313E+12,-7566,2830,394,38,295,101,1,7,11
1.72313E+12,-7567,2858,392,-285,-21,99,1,7,11
1.72313E+12,-7559,2850,409,-310,-39,103,1,7,11
1.72313E+12,-7800,2872,418,-340,-22,112,1,7,11
1.72313E+12,-7794,2871,423,-349,-13,119,1,7,11
1.72313E+12,-7781,2861,428,-156,290,27,1,7,11
1.72313E+12,-7786,2849,421,-150,299,14,1,7,11
1.72313E+12,-7554,2849,604,-547,252,84,1,7,11
1.72313E+12,-7777,2843,599,122,-11,-92,1,7,11
1.72313E+12,-7770,2857,575,-58,-74,-101,1,7,11
1.72313E+12,-7748,2864,246,139,50,60,1,7,11
1.72313E+12,-7748,2846,270,326,95,28,1,7,11
1.72313E+12,-7765,2834,540,300,-115,-260,1,7,11
1.72313E+12,-7789,2834,549,312,-99,-265,1,7,11
1.72313E+12,-7793,2829,559,331,-111,10,1,7,11
1.72313E+12,-7796,2832,560,355,-124,29,1,7,11
1.72313E+12,-7795,2835,550,137,114,31,1,7,11
1.72313E+12,-7787,2831,522,169,82,40,1,7,11
1.72313E+12,-7764,2841,233,208,46,40,1,7,11
1.72313E+12,-7760,2848,223,200,46,15,1,7,11
1.72313E+12,-7778,2840,233,200,38,-267,1,7,11
1.72313E+12,-7775,2838,228,184,12,-282,1,7,11
1.72313E+12,-7795,2826,247,157,-280,-309,1,7,11
1.72313E+12,-7795,2821,250,161,-344,-328,1,7,11
1.72313E+12,-7801,2529,559,343,-614,-203,1,7,11
1.72313E+12,-7553,2501,603,353,-453,-226,1,7,11
1.72313E+12,-7801,2463,773,539,-1108,-411,1,7,11
1.72313E+12,-7802,2441,832,601,-949,-478,1,7,11
1.72313E+12,-7567,2646,671,404,-1285,-829,1,7,11
1.72313E+12,-7594,2573,1027,775,-1369,-661,1,7,11
1.72313E+12,-7600,2264,1109,710,-1187,-734,1,7,11
1.72313E+12,-7629,2225,920,936,-1220,-1057,1,7,11
1.72313E+12,-7646,2418,978,1176,-1245,-1098,1,7,11
1.72313E+12,-7675,2391,1008,1465,-1237,-1124,1,7,11
1.72313E+12,-7970,2375,1010,1725,-1229,-1123,1,7,11
1.72313E+12,-7985,2345,984,1976,-1217,-1093,1,7,11
1.72313E+12,-8007,2341,950,2216,-1196,-1050,1,7,11
1.72313E+12,-8028,2321,924,2655,-1176,-738,1,7,11
1.72313E+12,-8045,2039,902,2553,-1157,-684,1,7,11
1.72313E+12,-8056,2031,1141,2919,-1393,-866,1,7,11
1.72313E+12,-8048,2025,1126,2768,-1388,-815,1,7,11
1.72313E+12,-8048,2036,1100,2794,-1380,-771,1,7,11
1.72313E+12,-8033,2028,1089,2779,-1379,-473,1,7,11
1.72313E+12,-8021,2030,1051,2766,-1369,-428,1,7,11
1.72313E+12,-7973,2026,764,2717,-1343,-396,1,7,11
1.72313E+12,-7949,2028,735,2895,-1013,-394,1,7,11
1.72313E+12,-7678,2043,719,2499,-918,-421,1,7,11
1.72313E+12,-7940,2039,726,2589,-1074,-458,1,7,11
1.72313E+12,-7674,2027,708,2419,-730,-484,1,7,11
1.72313E+12,-7670,2010,696,1981,-875,-784,1,7,11
1.72313E+12,-7944,1999,678,2060,-498,-824,1,7,11
1.72313E+12,-7968,1990,666,1882,-638,-851,1,7,11
1.72313E+12,-7992,1983,660,1445,-528,-865,1,7,11
1.72313E+12,-8024,1976,655,1260,-180,-864,1,7,11
1.72313E+12,-8038,1966,646,1328,-363,-839,1,7,11
1.72313E+12,-8035,1929,895,1140,-300,-817,1,7,11
1.72313E+12,-8032,2130,646,722,17,-802,1,7,11
1.72313E+12,-8034,2106,889,866,73,-791,1,7,11
1.72313E+12,-8036,2093,866,507,-126,-782,1,7,11
1.72313E+12,-8059,2069,848,403,-70,-778,1,7,11
1.72313E+12,-8056,1749,845,539,-42,-774,1,7,11
1.72313E+12,-8049,1678,860,203,-19,-788,1,7,11
1.72313E+12,-7813,1872,882,152,-14,-865,1,7,11
1.72313E+12,-7826,1850,642,367,-38,-893,1,7,11
1.72313E+12,-7860,1809,655,344,-79,-687,1,7,11
1.72313E+12,-7878,1516,660,318,124,-721,1,7,11
1.72313E+12,-7892,1482,668,294,76,-729,1,7,11
1.72313E+12,-7913,1452,688,272,36,-713,1,7,11
1.72313E+12,-8271,1430,693,-29,43,-431,1,7,11
1.72313E+12,-8280,1627,718,-94,69,-528,1,7,11
1.72313E+12,-8262,1566,749,110,89,-137,1,7,11
1.72313E+12,-8241,1268,760,85,113,-307,1,7,11
1.72313E+12,-8248,1540,749,74,124,0,1,7,11
1.72313E+12,-8223,1547,731,27,120,43,1,7,11
1.72313E+12,-8205,1562,720,-277,-121,67,1,7,11
1.72313E+12,-7932,1568,708,-331,-110,86,1,7,11
1.72313E+12,-7917,1574,720,-370,-103,86,1,7,11
1.72313E+12,-7923,1601,713,-382,-107,78,1,7,11
1.72313E+12,-7902,1595,722,-160,-124,76,1,7,11
1.72313E+12,-7909,1597,725,-158,-105,57,1,7,11
1.72313E+12,-7901,1585,736,-174,-99,43,1,7,11
1.72313E+12,-7878,1571,753,-174,-78,24,1,7,11
1.72313E+12,-7888,1572,753,-165,-35,-269,1,7,11
1.72313E+12,-7890,1574,755,-181,258,-288,1,7,11
1.72313E+12,-7898,1574,762,-205,309,-314,1,7,11
1.72313E+12,-7929,1536,1053,-250,346,-339,1,7,11
1.72313E+12,-7931,1273,1068,-256,352,-357,1,7,11
1.72313E+12,-7933,1263,1070,-233,344,-130,1,7,11
1.72313E+12,-8202,1250,1070,-182,321,-148,1,7,11
1.72313E+12,-7936,1262,1041,-360,276,-147,1,7,11
1.72313E+12,-7922,1264,759,-299,-11,-147,1,7,11
1.72313E+12,-7917,1247,750,1,-26,-145,1,7,11
1.72313E+12,-7903,1243,735,65,-37,-136,1,7,11
1.72313E+12,-7916,1238,716,-113,-35,-378,1,7,11
1.72313E+12,-7917,1252,662,-10,-34,-362,1,7,11
1.72313E+12,-7924,1246,894,313,-34,-329,1,7,11
1.72313E+12,-7936,1246,867,131,-18,-307,1,7,11
1.72313E+12,-8207,1269,817,165,257,-289,1,7,11
1.72313E+12,-8213,1537,776,143,288,-284,1,7,11
1.72313E+12,-8206,1275,501,347,327,-276,1,7,11
1.72313E+12,-8218,1256,785,338,366,-266,1,7,11
1.72313E+12,-8243,1232,821,220,358,42,1,7,11
1.72313E+12,-8269,1266,787,592,284,122,1,7,11
1.72313E+12,-8222,1236,782,629,-66,-31,1,7,11
1.72313E+12,-7911,1218,496,411,-108,276,1,7,11
1.72313E+12,-7875,1190,479,424,-120,292,1,7,11
1.72313E+12,-7883,1190,462,438,-104,268,1,7,11
1.72313E+12,-7907,1189,463,419,-100,-31,1,7,11
1.72313E+12,-8200,1189,466,395,126,-74,1,7,11
1.72313E+12,-8223,1184,458,616,76,-121,1,7,11
1.72313E+12,-8247,1168,462,576,38,74,1,7,11
1.72313E+12,-8303,1179,451,554,12,12,1,7,11
1.72313E+12,-8076,1183,436,515,-257,-282,1,7,11
1.72313E+12,-8114,1202,420,223,5,-310,1,7,11
1.72313E+12,-8172,1237,409,173,28,-322,1,7,11
1.72313E+12,-8480,1248,399,368,53,-331,1,7,11
1.72313E+12,-8339,1538,627,338,95,-370,1,7,11
1.72313E+12,-8734,1612,590,273,98,-143,1,7,11
1.72313E+12,-8437,1279,400,-114,25,-130,1,7,11
1.72313E+12,-8396,1267,418,-107,-269,-382,1,7,11
1.72313E+12,-8516,1240,449,114,-343,-339,1,7,11
1.72313E+12,-7937,1381,861,56,-286,-95,1,7,11
1.72313E+12,-7647,1366,644,52,-272,-66,1,7,11
1.72313E+12,-7676,1330,1137,-304,-182,-272,1,7,11
1.72313E+12,-7980,1319,929,-305,-189,-310,1,7,11
1.72313E+12,-8034,1336,958,1,-183,-336,1,7,11
1.72313E+12,-7839,1348,1003,40,-163,-358,1,7,11
1.72313E+12,-7903,1347,1310,96,-140,-365,1,7,11
1.72313E+12,-8226,1355,1355,-77,-132,-343,1,7,11
1.72313E+12,-8228,1344,1383,271,-142,-281,1,7,11
1.72313E+12,-8198,1329,1406,371,-134,52,1,7,11
1.72313E+12,-7910,1329,1162,223,-355,124,1,7,11
1.72313E+12,-7875,1336,1164,576,-313,-68,1,7,11
1.72313E+12,-7838,1371,1158,401,-270,-15,1,7,11
1.72313E+12,-8060,1395,1397,430,27,275,1,7,11
1.72313E+12,-8045,1170,1385,438,81,281,1,7,11
1.72313E+12,-8054,1215,1370,423,115,268,1,7,11
1.72313E+12,-8033,1238,1364,637,124,269,1,7,11
1.72313E+12,-7996,1266,1352,601,-119,269,1,7,11
1.72313E+12,-7960,1542,1334,564,-91,264,1,7,11
1.72313E+12,-7938,1558,1325,528,-46,-9,1,7,11
1.72313E+12,-7680,1572,1327,248,-6,-27,1,7,11
1.72313E+12,-7962,1592,1340,236,273,-52,1,7,11
1.72313E+12,-7994,1612,1352,236,269,-82,1,7,11
1.72313E+12,-8030,1636,1371,239,-13,-119,1,7,11
1.72313E+12,-8060,1646,1380,515,-52,92,1,7,11
1.72313E+12,-7852,1660,1381,547,-92,36,1,7,11
1.72313E+12,-7881,1414,1381,600,125,-269,1,7,11
1.72313E+12,-7928,1459,1350,435,109,-310,1,7,11
1.72313E+12,-7931,1482,1330,510,100,-334,1,7,11
1.72313E+12,-7927,1504,1309,877,-115,-337,1,7,11
1.72313E+12,-7910,1515,1283,694,-80,-332,1,7,11
1.72313E+12,-7889,1520,1006,765,-38,-340,1,7,11
1.72313E+12,-7866,1509,990,1092,-10,-359,1,7,11
1.72313E+12,-7851,1492,971,901,260,-138,1,7,11
1.72313E+12,-7840,1470,955,967,-4,-189,1,7,11
1.72313E+12,-7848,1449,938,1303,-15,-250,1,7,11
1.72313E+12,-7865,1427,919,1380,-40,-565,1,7,11
1.72313E+12,-7881,1409,896,1199,-74,-609,1,7,11
1.72313E+12,-7921,1659,1124,1270,-109,-395,1,7,11
1.72313E+12,-8211,1643,1114,1577,92,-415,1,7,11
1.72313E+12,-8244,1629,1105,1617,40,-434,1,7,11
1.72313E+12,-8273,1619,1110,1642,-273,-440,1,7,11
1.72313E+12,-8285,1615,1111,1656,-326,-442,1,7,11
1.72313E+12,-8303,1614,1103,1658,-376,-435,1,7,11
1.72313E+12,-8310,1613,1098,1637,-157,-424,1,7,11
1.72313E+12,-8082,1608,1115,1269,-194,-632,1,7,11
1.72313E+12,-8078,1565,1149,1180,-209,-588,1,7,11
1.72313E+12,-8213,1205,959,751,-135,11,1,7,11
1.72313E+12,-7904,1184,949,666,-346,84,1,7,11
1.72313E+12,-7877,1191,948,858,-276,-117,1,7,11
1.72313E+12,-7857,1193,943,795,42,-69,1,7,11
1.72313E+12,-7834,1189,944,483,92,-19,1,7,11
1.72313E+12,-7819,1196,935,450,-117,284,1,7,11
1.72313E+12,-8063,1205,921,428,-77,328,1,7,11
1.72313E+12,-7826,1224,912,428,-35,358,1,7,11
1.72313E+12,-7857,1259,1145,444,-24,130,1,7,11
1.72313E+12,-7892,1547,1126,460,-35,151,1,7,11
1.72313E+12,-7926,1580,1108,479,-66,159,1,7,11
1.72313E+12,-8204,1619,1090,501,-117,162,1,7,11
1.72313E+12,-8215,1650,1064,774,81,155,1,7,11
1.72313E+12,-8232,1431,1055,792,38,137,1,7,11
1.72313E+12,-8260,1473,1044,804,-263,380,1,7,11
1.72313E+12,-8264,1494,1033,791,-313,379,1,7,11
1.72313E+12,-8246,1506,1032,784,-341,377,1,7,11
1.72313E+12,-8247,1529,1030,771,-352,364,1,7,11
1.72313E+12,-8231,1530,1045,483,-373,358,1,7,11
1.72313E+12,-8200,1806,1060,455,-132,351,1,7,11
1.72313E+12,-7908,1804,1088,413,-135,338,1,7,11
1.72313E+12,-7848,1801,1112,620,-382,312,1,7,11
1.72313E+12,-7830,1800,1121,586,-362,283,1,7,11
1.72313E+12,-8020,1534,1135,559,-324,257,1,7,11
1.72313E+12,-8016,1524,910,529,4,-38,1,7,11
1.72313E+12,-8020,1513,940,243,78,-84,1,7,11
1.72313E+12,-8032,1492,973,216,124,112,1,7,11
1.72313E+12,-8046,1465,987,214,-110,97,1,7,11
1.72313E+12,-8041,1440,998,227,-118,62,1,7,11
1.72313E+12,-8057,1412,999,255,-127,-264,1,7,11
1.72313E+12,-7813,1647,991,546,125,-307,1,7,11
1.72313E+12,-7834,1642,983,617,107,-344,1,7,11
1.72313E+12,-7854,1638,968,637,91,-373,1,7,11
1.72313E+12,-7879,1647,959,416,82,-132,1,7,11
1.72313E+12,-7898,1652,929,443,47,-134,1,7,11
1.72313E+12,-7909,1657,903,440,34,-379,1,7,11
1.72313E+12,-7908,1412,1140,415,10,-361,1,7,11
1.72313E+12,-7908,1422,1116,395,17,-351,1,7,11
1.72313E+12,-7899,1429,1100,547,29,-337,1,7,11
1.72313E+12,-7917,1452,1087,213,55,-334,1,7,11
1.72313E+12,-7904,1440,1090,354,70,-318,1,7,11
1.72313E+12,-7898,1436,1083,258,114,-310,1,7,11
1.72313E+12,-7915,1443,1086,-94,-100,-308,1,7,11
1.72313E+12,-7917,1434,1093,69,-70,-292,1,7,11
1.72313E+12,-7916,1430,1098,3,-44,-271,1,7,11
1.72313E+12,-7910,1418,1097,-321,-16,5,1,7,11
1.72313E+12,-7913,1409,1105,-369,263,14,1,7,11
1.72313E+12,-7916,1413,1103,-138,279,17,1,7,11
1.72313E+12,-7910,1424,1099,-156,282,19,1,7,11
1.72313E+12,-7895,1427,1081,-181,283,12,1,7,11
1.72313E+12,-7881,1429,1070,-213,286,-268,1,7,11
1.72313E+12,-7865,1426,1063,-241,293,-307,1,7,11
1.72313E+12,-7853,1662,1067,-525,304,-368,1,7,11
1.72313E+12,-7865,1652,1065,-533,317,-180,1,7,11
1.72313E+12,-7852,1615,1064,-560,303,-231,1,7,11
1.72313E+12,-7836,1569,1075,-560,317,-553,1,7,11
1.72313E+12,-7851,1540,1073,-538,348,-626,1,7,11
1.72313E+12,-7876,1246,1084,-522,358,-427,1,7,11
1.72313E+12,-7900,1209,1087,-241,354,-465,1,7,11
1.72313E+12,-7925,1170,1076,-224,338,-482,1,7,11
1.72313E+12,-7936,1397,1062,-212,323,-478,1,7,11
1.72313E+12,-8201,1371,1040,-202,314,-463,1,7,11
1.72313E+12,-8206,1353,764,-200,318,-431,1,7,11
1.72313E+12,-8202,1341,749,-208,329,-389,1,7,11
1.72313E+12,-8213,1337,722,-229,351,-599,1,7,11
1.72313E+12,-8221,1325,716,-529,367,-550,1,7,11
1.72313E+12,-8225,1325,709,-570,375,-238,1,7,11
1.72313E+12,-8227,1329,712,-615,374,-183,1,7,11
1.72313E+12,-8239,1335,719,-407,367,-137,1,7,11
1.72313E+12,-8240,1337,722,-468,343,-327,1,7,11
1.72313E+12,-8250,1344,744,-481,335,-285,1,7,11
1.72313E+12,-8246,1352,759,-774,299,8,1,7,11
1.72313E+12,-8246,1364,1028,-788,278,32,1,7,11
1.72313E+12,-8251,1391,1039,-791,261,53,1,7,11
1.72313E+12,-8251,1157,1045,-801,-12,70,1,7,11
1.72313E+12,-8247,1181,1058,-807,-13,75,1,7,11
1.72313E+12,-8256,1212,1072,-824,-6,83,1,7,11
1.72313E+12,-8249,1230,1080,-825,256,98,1,7,11
1.72313E+12,-8258,1242,1086,-832,274,109,1,7,11
1.72313E+12,-8230,1224,1093,-840,293,-125,1,7,11
1.72313E+12,-8228,1220,1103,-818,337,127,1,7,11
1.72313E+12,-8255,1229,1109,-787,374,111,1,7,11
1.72313E+12,-8276,1228,1114,-484,128,113,1,7,11
1.72313E+12,-8281,1224,1102,-441,372,-126,1,7,11
1.72313E+12,-8261,1202,1102,-401,366,-104,1,7,11
1.72313E+12,-8273,1198,1097,-604,370,-98,1,7,11
1.72313E+12,-8296,1209,1083,-553,358,-91,1,7,11
1.72313E+12,-8298,1220,1059,-254,334,-60,1,7,11
1.72313E+12,-8301,1248,761,-228,321,-30,1,7,11
1.72313E+12,-8291,1259,731,-234,295,269,1,7,11
1.72313E+12,-8262,1263,708,-518,287,319,1,7,11
1.72313E+12,-8248,1262,700,-553,292,354,1,7,11
1.72313E+12,-8229,1255,699,-587,285,129,1,7,11
1.72313E+12,-8244,1247,694,-621,274,150,1,7,11
1.72313E+12,-8260,1225,696,-397,-6,150,1,7,11
1.72313E+12,-8306,1232,700,-398,-30,134,1,7,11
1.72313E+12,-8083,1243,712,-400,-94,374,1,7,11
1.72313E+12,-8089,1261,720,-391,92,369,1,7,11
1.72313E+12,-8305,1270,717,-401,24,377,1,7,11
1.72313E+12,-8210,1251,729,-419,-261,364,1,7,11
1.72313E+12,-7886,1220,732,-433,14,340,1,7,11
1.72313E+12,-7843,1181,735,-432,70,287,1,7,11
1.72313E+12,-7817,1155,749,-408,-123,-30,1,7,11
1.72313E+12,-7809,1383,764,-617,-66,-85,1,7,11
1.72313E+12,-8061,1371,1028,-560,-22,-120,1,7,11
1.72313E+12,-8064,1367,759,-248,267,117,1,7,11
1.72313E+12,-8060,1364,739,-212,281,120,1,7,11
1.72313E+12,-8053,1375,722,-191,291,-122,1,7,11
1.72313E+12,-8056,1400,690,-204,299,-111,1,7,11
1.72313E+12,-8053,1155,672,-521,301,-94,1,7,11
1.72313E+12,-8037,1156,895,-604,298,-66,1,7,11
1.72313E+12,-8026,1393,894,-463,309,-58,1,7,11
1.72313E+12,-8033,1367,892,-820,321,-73,1,7,11
1.72313E+12,-8044,1358,643,-653,331,-93,1,7,11
1.72313E+12,-8049,1354,651,-743,336,-115,1,7,11
1.72313E+12,-8054,1340,668,-1099,352,114,1,7,11
1.72313E+12,-8063,1313,690,-941,365,89,1,7,11
1.72313E+12,-8064,1285,707,-1022,133,49,1,7,11
1.72313E+12,-7825,1002,722,-1343,165,-258,1,7,11
1.72313E+12,-7841,949,749,-1379,212,-309,1,7,11
1.72313E+12,-8074,967,700,-1336,615,-348,1,7,11
1.72313E+12,-8122,991,674,-1296,631,-277,1,7,11
1.72313E+12,-8129,1286,883,-987,636,91,1,7,11
1.72313E+12,-8130,1340,824,-931,416,-49,1,7,11
1.72313E+12,-8091,1389,509,-914,425,338,1,7,11
1.72313E+12,-8301,1154,460,-951,452,177,1,7,11
1.72313E+12,-8285,1167,413,-993,470,245,1,7,11
1.72313E+12,-8269,1180,626,-1013,480,543,1,7,11
1.72313E+12,-8264,1200,592,-1339,474,562,1,7,11
1.72313E+12,-8262,1233,565,-1402,458,574,1,7,11
1.72313E+12,-8263,1537,530,-1218,439,592,1,7,11
1.72313E+12,-8264,1591,251,-1569,417,626,1,7,11
1.72313E+12,-8253,1620,232,-1421,410,415,1,7,11
1.72313E+12,-8249,1641,237,-1534,415,454,1,7,11
1.72313E+12,-8234,1642,517,-1885,420,485,1,7,11
1.72313E+12,-8222,1645,541,-1686,422,503,1,7,11
1.72313E+12,-8206,1649,549,-1708,426,768,1,7,11
1.72313E+12,-8195,1654,568,-1712,422,771,1,7,11
1.72313E+12,-7917,1418,564,-1682,415,785,1,7,11
1.72313E+12,-7912,1454,561,-1897,413,800,1,7,11
1.72313E+12,-7903,1480,570,-1865,399,812,1,7,11
1.72313E+12,-7883,1496,576,-1845,633,815,1,7,11
1.72313E+12,-7858,1512,589,-1816,603,797,1,7,11
1.72313E+12,-7824,1808,593,-1518,573,776,1,7,11
1.72313E+12,-8050,1856,579,-1494,550,495,1,7,11
1.72313E+12,-8024,1899,578,-1500,530,473,1,7,11
1.72313E+12,-7983,1914,590,-1518,247,458,1,7,11
1.72313E+12,-7675,1903,605,-1523,242,422,1,7,11
1.72313E+12,-7670,1906,620,-1498,252,602,1,7,11
1.72313E+12,-7668,1912,390,-1459,235,520,1,7,11
1.72313E+12,-7655,1900,393,-1656,199,179,1,7,11
1.72313E+12,-7648,1899,397,-1569,176,338,1,7,11
1.72313E+12,-7666,1673,394,-1214,149,-2,1,7,11
1.72313E+12,-7678,1690,395,-1369,363,-79,1,7,11
1.72313E+12,-7677,1712,395,-1021,323,-111,1,7,11
1.72313E+12,-7940,1737,395,-942,278,121,1,7,11
1.72313E+12,-7952,1765,386,-1131,262,113,1,7,11
1.72313E+12,-7662,1750,636,-1064,-61,108,1,7,11
1.72313E+12,-7653,1750,387,-1040,-68,73,1,7,11
1.72313E+12,-7666,1748,406,-748,-99,36,1,7,11
1.72313E+12,-7944,1751,432,-714,117,-264,1,7,11
1.72313E+12,-7974,1753,468,-721,52,-304,1,7,11
1.72313E+12,-7996,1748,507,-740,-281,-338,1,7,11
1.72313E+12,-8023,1750,773,-1025,-355,-366,1,7,11
1.72313E+12,-8039,1757,779,-1053,-166,-369,1,7,11
1.72313E+12,-7814,1785,782,-1084,-196,-364,1,7,11
1.72313E+12,-7834,1791,808,-1146,-216,-333,1,7,11
1.72313E+12,-7849,2049,839,-943,-215,-292,1,7,11
1.72313E+12,-7864,2048,864,-991,-208,11,1,7,11
1.72313E+12,-7873,1786,895,-1282,-197,61,1,7,11
1.72313E+12,-7869,2055,658,-1298,-185,111,1,7,11
1.72313E+12,-7885,2076,667,-1307,-169,-93,1,7,11
1.72313E+12,-7856,2083,673,-1335,-170,-26,1,7,11
1.72313E+12,-7838,2105,667,-1343,-141,274,1,7,11
1.72313E+12,-7828,2132,678,-1360,-370,300,1,7,11
1.72313E+12,-8060,2156,682,-1376,-345,325,1,7,11
1.72313E+12,-8042,1927,691,-1406,-313,329,1,7,11
1.72313E+12,-8023,1928,699,-1207,-281,324,1,7,11
1.72313E+12,-8020,1936,708,-1257,16,290,1,7,11
1.72313E+12,-8023,1940,745,-1565,40,-20,1,7,11
1.72313E+12,-8022,1923,1029,-1616,43,-71,1,7,11
1.72313E+12,-8014,2172,1048,-1646,34,124,1,7,11
1.72313E+12,-8002,2157,1073,-1424,13,53,1,7,11
1.72313E+12,-8000,2143,1091,-1443,-268,-269,1,7,11
1.72313E+12,-8005,2121,1111,-1459,-284,-370,1,7,11
1.72313E+12,-8015,2103,1128,-1471,-278,-144,1,7,11
1.72313E+12,-8024,2066,905,-1487,-266,-215,1,7,11
1.72313E+12,-8045,1769,948,-1500,7,-234,1,7,11
1.72313E+12,-7810,1743,992,-1499,49,-535,1,7,11
1.72313E+12,-7834,1726,1016,-1475,70,-538,1,7,11
1.72313E+12,-7843,1699,1296,-1442,-112,-253,1,7,11
1.72313E+12,-7863,1681,1320,-1415,-35,-206,1,7,11
1.72313E+12,-7859,1912,1348,-1646,291,-139,1,7,11
1.72313E+12,-7838,1904,1360,-1597,374,-322,1,7,11
1.72313E+12,-7833,1894,1362,-1564,203,-258,1,7,11
1.72313E+12,-7829,1900,1351,-1268,534,54,1,7,11
1.72313E+12,-7849,1664,1340,-1240,601,92,1,7,11
1.72313E+12,-7863,1674,1322,-1238,637,127,1,7,11
1.72313E+12,-7845,1670,1316,-1229,394,-106,1,7,11
1.72313E+12,-7852,1670,1308,-1199,414,-115,1,7,11
1.72313E+12,-7881,1666,1355,-1200,446,99,1,7,11
1.72313E+12,-7834,1697,1020,-1020,408,-64,1,7,11
1.72313E+12,-7847,1769,923,-1009,477,-87,1,7,11
1.72313E+12,-7882,1745,943,-1302,787,-76,1,7,11
1.72313E+12,-7868,1746,918,-1290,790,-68,1,7,11
1.72313E+12,-7854,1753,1149,-1300,787,-89,1,7,11
1.72313E+12,-7839,1742,1136,-1298,772,-125,1,7,11
1.72313E+12,-7813,1731,1114,-1288,492,75,1,7,11
1.72313E+12,-8052,1729,1104,-1015,478,11,1,7,11
1.72313E+12,-8042,1717,1099,-993,455,-304,1,7,11
1.72313E+12,-8048,1707,1108,-963,427,-356,1,7,11
1.72313E+12,-7821,1710,1106,-924,396,-146,1,7,11
1.72313E+12,-7828,1691,1101,-1142,581,-161,1,7,11
1.72313E+12,-7810,1665,1092,-1088,520,-171,1,7,11
1.72313E+12,-7813,1668,1075,-1035,227,-189,1,7,11
1.72313E+12,-8061,1913,1068,-744,185,-195,1,7,11
1.72313E+12,-8063,1665,1055,-708,160,-198,1,7,11
1.72313E+12,-7825,1907,1064,-695,159,-185,1,7,11
1.72313E+12,-7843,1892,1072,-705,181,-152,1,7,11
1.72313E+12,-7843,1877,1073,-702,206,-366,1,7,11
1.72313E+12,-7836,1880,1084,-688,247,-332,1,7,11
1.72313E+12,-7834,1674,1066,-674,566,-290,1,7,11
1.72313E+12,-7833,1691,1071,-747,388,9,1,7,11
1.72313E+12,-7862,1899,1110,-1123,468,44,1,7,11
1.72313E+12,-7835,1512,925,-959,497,66,1,7,11
1.72313E+12,-7824,1420,979,-897,786,7,1,7,11
1.72313E+12,-7821,1428,954,-698,806,-324,1,7,11
1.72313E+12,-7826,1468,1143,-784,833,-138,1,7,11
1.72313E+12,-7858,1493,1091,-409,866,-177,1,7,11
1.72313E+12,-7898,1519,1044,-580,881,-177,1,7,11
1.72313E+12,-8204,1517,762,-515,862,-148,1,7,11
1.72313E+12,-8255,1535,730,-173,807,-356,1,7,11
1.72313E+12,-8292,1807,697,-360,452,-283,1,7,11
1.72313E+12,-8279,1822,666,-296,579,75,1,7,11
1.72313E+12,-8250,1857,873,-257,227,-86,1,7,11
1.72313E+12,-8222,1881,850,-264,157,259,1,7,11
1.72313E+12,-7921,1906,839,-273,374,332,1,7,11
1.72313E+12,-7893,1665,831,-306,353,379,1,7,11
1.72313E+12,-7849,1673,837,-345,348,152,1,7,11
1.72313E+12,-7830,1685,858,-372,356,148,1,7,11
1.72313E+12,-7816,1714,870,-383,365,144,1,7,11
1.72313E+12,-7826,1711,640,-168,368,134,1,7,11
1.72313E+12,-7821,1689,672,-208,357,371,1,7,11
1.72313E+12,-7827,1701,684,-212,335,363,1,7,11
1.72313E+12,-8064,1727,669,-194,283,371,1,7,11
1.72313E+12,-8019,1762,673,-188,301,338,1,7,11
1.72313E+12,-8018,1759,674,-177,315,316,1,7,11
1.72313E+12,-8013,2050,665,-138,322,299,1,7,11
1.72313E+12,-8039,2095,889,-368,334,284,1,7,11
1.72313E+12,-8024,2104,866,-378,323,295,1,7,11
1.72313E+12,-8027,2124,852,-137,342,288,1,7,11
1.72313E+12,-8042,2135,853,-158,342,274,1,7,11
1.72313E+12,-8042,2142,848,-162,325,265,1,7,11
1.72313E+12,-8042,2165,839,-161,308,258,1,7,11
1.72313E+12,-8043,1923,847,-186,286,258,1,7,11
1.72313E+12,-8029,1933,854,-195,260,256,1,7,11
1.72313E+12,-8013,1950,842,-208,-21,-3,1,7,11
1.72313E+12,-7988,1973,827,-207,-27,-6,1,7,11
1.72313E+12,-7993,2001,815,-235,-12,-21,1,7,11
1.72313E+12,-7990,1997,827,-548,261,-29,1,7,11
1.72313E+12,-7980,1986,850,-585,279,-41,1,7,11
1.72313E+12,-7985,1975,875,-606,288,-59,1,7,11
1.72313E+12,-7983,1960,644,-599,286,-78,1,7,11
1.72313E+12,-7987,1960,649,-572,285,-97,1,7,11
1.72313E+12,-7992,1949,647,-547,281,-109,1,7,11
1.72313E+12,-7996,1945,894,-253,275,-111,1,7,11
1.72313E+12,-7982,1948,889,-212,267,-107,1,7,11
1.72313E+12,-7973,1955,872,-176,278,-115,1,7,11
1.72313E+12,-7975,1962,858,-154,288,124,1,7,11
1.72313E+12,-7990,1961,856,-143,298,107,1,7,11
1.72313E+12,-7993,1966,850,-129,295,104,1,7,11
1.72313E+12,-8002,1959,857,-384,285,105,1,7,11
1.72313E+12,-8004,1966,849,-365,271,113,1,7,11
1.72313E+12,-8015,1984,841,-340,270,123,1,7,11
1.72313E+12,-8032,1975,838,-337,-2,-120,1,7,11
1.72313E+12,-8022,1968,833,-323,-22,-117,1,7,11
1.72313E+12,-8022,1969,846,-306,-37,127,1,7,11
1.72313E+12,-8021,1968,843,-288,-71,120,1,7,11
1.72313E+12,-8007,1969,856,13,-107,114,1,7,11
1.72313E+12,-8006,1955,645,101,110,95,1,7,11
1.72313E+12,-8038,1948,665,302,56,120,1,7,11
1.72313E+12,-8044,1998,875,239,-283,-67,1,7,11
1.72313E+12,-8029,2017,819,567,-347,266,1,7,11
1.72313E+12,-7971,2046,500,541,-370,314,1,7,11
1.72313E+12,-7666,2309,454,139,-321,301,1,7,11
1.72313E+12,-7644,2316,453,-73,31,-39,1,7,11
1.72313E+12,-7672,2031,496,-265,-115,114,1,7,11
1.72313E+12,-7951,2041,782,-335,-58,77,1,7,11
1.72313E+12,-7982,2328,777,-164,-21,41,1,7,11
1.72313E+12,-7975,2318,785,-251,-13,50,1,7,11
1.72313E+12,-7959,2321,511,-569,274,44,1,7,11
1.72313E+12,-7977,2047,798,-388,310,17,1,7,11
1.72313E+12,-8012,2025,834,-606,311,18,1,7,11
1.72313E+12,-8008,2039,800,-549,262,31,1,7,11
1.72313E+12,-7991,2304,782,-534,-28,31,1,7,11
1.72313E+12,-7987,2032,795,-550,-45,6,1,7,11
1.72313E+12,-7981,2032,788,-529,-72,-269,1,7,11
1.72313E+12,-7985,2024,789,-521,-100,-298,1,7,11
1.72313E+12,-7982,2026,774,-234,-128,-308,1,7,11
1.72313E+12,-7972,2022,508,-231,113,-327,1,7,11
1.72313E+12,-7979,2009,778,-244,104,-346,1,7,11
1.72313E+12,-7991,2008,775,-240,96,-359,1,7,11
1.72313E+12,-8000,2002,776,-241,87,-363,1,7,11
1.72313E+12,-8014,1967,789,-255,77,-361,1,7,11
1.72313E+12,-8034,1949,803,-523,67,-354,1,7,11
1.72313E+12,-8061,1953,801,-517,56,-331,1,7,11
1.72313E+12,-7828,2164,843,-559,53,-280,1,7,11
1.72313E+12,-7831,2164,858,-535,41,-243,1,7,11
1.72313E+12,-7809,2165,861,-245,9,35,1,7,11
1.72313E+12,-8049,2173,863,-213,-266,49,1,7,11
1.72313E+12,-8031,2162,880,-179,-278,50,1,7,11
1.72313E+12,-8016,2168,890,-144,-301,31,1,7,11
1.72313E+12,-8006,1921,894,-365,-339,2,1,7,11
1.72313E+12,-7994,1927,894,-322,-129,-266,1,7,11
1.72313E+12,-7990,1922,886,-288,-180,-290,1,7,11
1.72313E+12,-7957,2157,894,13,-235,-318,1,7,11
1.72313E+12,-7959,2156,663,80,-517,-369,1,7,11
1.72313E+12,-7986,2156,704,-126,-546,-166,1,7,11
1.72313E+12,-8011,2126,1031,-68,-595,-194,1,7,11
1.72313E+12,-8018,2092,1091,260,-387,-218,1,7,11
1.72313E+12,-8041,2070,1150,374,-404,-241,1,7,11
1.72313E+12,-7814,2053,959,250,-398,-240,1,7,11
1.72313E+12,-7840,1791,1002,408,-626,-206,1,7,11
1.72313E+12,-7854,1781,1298,818,-588,-148,1,7,11
1.72313E+12,-7856,1765,1318,711,-542,-340,1,7,11
1.72313E+12,-7849,1767,1323,1149,-236,-269,1,7,11
1.72313E+12,-7818,1773,1304,1323,-193,47,1,7,11
1.72313E+12,-8042,1763,1014,1231,-134,79,1,7,11
1.72313E+12,-8002,1770,982,1634,-334,91,1,7,11
1.72313E+12,-8010,2052,937,1513,-266,68,1,7,11
1.72313E+12,-7986,2055,914,1870,8,56,1,7,11
1.72313E+12,-7973,2061,1133,1736,33,26,1,7,11
1.72313E+12,-7972,2062,1108,2110,37,-267,1,7,11
1.72313E+12,-7955,2062,1058,1968,20,-310,1,7,11
1.72313E+12,-7940,2056,1025,2321,13,-377,1,7,11
1.72313E+12,-7679,2059,727,2400,8,-192,1,7,11
1.72313E+12,-7675,2080,670,2206,3,-521,1,7,11
1.72313E+12,-7678,2113,860,2273,3,-576,1,7,11
1.72313E+12,-7663,2124,796,2303,22,-602,1,7,11
1.72313E+12,-7628,2158,443,2577,85,-603,1,7,11
1.72313E+12,-7609,2110,423,2246,-62,-604,1,7,11
1.72313E+12,-7645,1785,423,2337,351,-427,1,7,11
1.72313E+12,-7951,1729,420,1927,231,-503,1,7,11
1.72313E+12,-7989,1687,398,1772,574,-831,1,7,11
1.72313E+12,-8030,1881,396,1875,639,-652,1,7,11
1.72313E+12,-7820,1827,395,1490,639,-712,1,7,11
1.72313E+12,-7864,1534,398,1660,600,-759,1,7,11
1.72313E+12,-7912,1487,633,1640,534,-1045,1,7,11
1.72313E+12,-8194,1427,600,1638,186,-1042,1,7,11
1.72313E+12,-8211,1634,560,1646,367,-1037,1,7,11
1.72313E+12,-8240,1604,552,1655,308,-767,1,7,11
1.72313E+12,-8270,1562,542,1660,-13,-731,1,7,11
1.72313E+12,-8292,1272,541,1411,-100,-677,1,7,11
1.72313E+12,-8286,1234,528,1447,62,-867,1,7,11
1.72313E+12,-8277,1206,253,1487,-278,-814,1,7,11
1.72313E+12,-8276,1198,221,1798,-351,-507,1,7,11
1.72313E+12,-8251,1182,206,1838,-157,-455,1,7,11
1.72313E+12,-8238,1183,150,1919,-198,-400,1,7,11
1.72313E+12,-7929,1166,353,1685,-230,-601,1,7,11
1.72313E+12,-7888,1399,342,1697,-203,-582,1,7,11
1.72313E+12,-7891,1159,329,1712,-166,-594,1,7,11
1.72313E+12,-7895,1153,326,1694,-146,-603,1,7,11
1.72313E+12,-7887,1405,323,1904,-147,-610,1,7,11
1.72313E+12,-7896,1397,321,1831,-133,-638,1,7,11
1.72313E+12,-7904,1348,356,1485,-140,-403,1,7,11
1.72313E+12,-7903,1296,128,1449,-159,-418,1,7,11
1.72313E+12,-7917,997,190,1427,-177,-446,1,7,11
1.72313E+12,-8224,960,206,1516,-200,-434,1,7,11
1.72313E+12,-8244,904,514,1506,-545,-414,1,7,11
1.72313E+12,-8251,1097,564,1849,-392,-637,1,7,11
1.72313E+12,-8254,1101,515,1708,-490,-606,1,7,11
1.72313E+12,-8253,1067,239,1704,-783,-587,1,7,11
1.72313E+12,-8264,1044,197,1686,-771,-569,1,7,11
1.72313E+12,-8301,764,197,1873,-472,-570,1,7,11
1.72313E+12,-8079,737,204,1827,-452,-544,1,7,11
1.72313E+12,-8116,746,195,1801,-440,-514,1,7,11
1.72313E+12,-8140,753,182,1508,-456,-206,1,7,11
1.72313E+12,-8140,1033,159,1464,-464,-153,1,7,11
1.72313E+12,-8140,1043,145,1641,-451,-350,1,7,11
1.72313E+12,-8143,1044,149,1541,-410,-286,1,7,11
1.72313E+12,-8122,1040,154,1187,-628,50,1,7,11
1.72313E+12,-8090,1043,164,1355,-577,123,1,7,11
1.72313E+12,-8074,1025,181,994,-246,-90,1,7,11
1.72313E+12,-8071,1058,176,931,-174,-46,1,7,11
1.72313E+12,-8274,1044,175,1086,-135,274,1,7,11
1.72313E+12,-7935,1038,192,740,-310,331,1,7,11
1.72313E+12,-7892,1030,194,664,35,133,1,7,11
1.72313E+12,-7879,1027,196,817,-102,383,1,7,11
1.72313E+12,-7880,759,219,500,-45,354,1,7,11
1.72313E+12,-7900,760,221,456,-13,306,1,7,11
1.72313E+12,-8205,1030,227,430,-13,-3,1,7,11
1.72313E+12,-8245,1032,222,394,-49,-41,1,7,11
1.72313E+12,-8288,766,208,630,-81,-85,1,7,11
1.72313E+12,-8102,1025,181,630,-77,96,1,7,11
1.72313E+12,-8468,1042,146,395,-41,-259,1,7,11
1.72313E+12,-8419,1090,356,434,280,-139,1,7,11
1.72313E+12,-8811,1105,338,417,-23,-210,1,7,11
1.72313E+12,-8818,1083,355,391,-91,-236,1,7,11
1.72313E+12,-8772,1048,131,636,103,-233,1,7,11
1.72313E+12,-8382,756,145,628,46,-150,1,7,11
1.72313E+12,-8465,704,170,625,63,-274,1,7,11
1.72313E+12,-8319,680,193,397,-122,-113,1,7,11
1.72313E+12,-7917,648,220,393,-56,304,1,7,11
1.72313E+12,-7822,866,546,387,258,149,1,7,11
1.72313E+12,-7811,883,604,410,265,190,1,7,11
1.72313E+12,-8049,659,398,393,-77,198,1,7,11
1.72313E+12,-8027,698,400,622,55,200,1,7,11
1.72313E+12,-7920,1062,628,585,-307,233,1,7,11
1.72313E+12,-7631,1106,616,254,-335,522,1,7,11
1.72313E+12,-7638,899,601,180,-287,565,1,7,11
1.72313E+12,-7957,936,630,369,67,591,1,7,11
1.72313E+12,-8023,975,397,339,-94,626,1,7,11
1.72313E+12,-8058,1001,437,343,-12,398,1,7,11
1.72313E+12,-7827,1281,473,378,266,410,1,7,11
1.72313E+12,-7830,1289,508,180,292,435,1,7,11
1.72313E+12,-7822,1295,805,239,298,438,1,7,11
1.72313E+12,-8061,1311,818,585,283,444,1,7,11
1.72313E+12,-8035,1292,847,406,257,433,1,7,11
1.72313E+12,-8003,1280,872,538,-28,403,1,7,11
1.72313E+12,-8009,1303,867,641,-57,598,1,7,11
1.72313E+12,-8008,1333,866,711,-108,536,1,7,11
1.72313E+12,-8014,1377,840,1024,99,213,1,7,11
1.72313E+12,-8015,1170,800,1057,45,153,1,7,11
1.72313E+12,-7997,1227,499,1070,11,372,1,7,11
1.72313E+12,-7967,1536,448,1033,22,333,1,7,11
1.72313E+12,-7970,1563,437,686,83,280,1,7,11
1.72313E+12,-7990,1561,456,869,-116,-24,1,7,11
1.72313E+12,-7983,1541,466,874,-92,-62,1,7,11
1.72313E+12,-8026,1550,451,688,-55,86,1,7,11
1.72313E+12,-7827,1594,410,752,-56,-289,1,7,11
1.72313E+12,-7872,1623,387,1055,-89,-139,1,7,11
1.72313E+12,-7839,1659,573,1121,120,-223,1,7,11
1.72313E+12,-7842,1440,523,896,-116,-596,1,7,11
1.72313E+12,-7872,1480,220,933,-95,-422,1,7,11
1.72313E+12,-7884,1507,197,956,-64,-460,1,7,11
1.72313E+12,-7918,1508,181,977,-15,-475,1,7,11
1.72313E+12,-8194,1477,198,978,-5,-475,1,7,11
1.72313E+12,-8231,1443,233,994,-26,-484,1,7,11
1.72313E+12,-8269,1655,534,1022,-93,-501,1,7,11
1.72313E+12,-8297,1616,569,1330,61,-512,1,7,11
1.72313E+12,-8080,1587,600,1383,-304,-791,1,7,11
1.72313E+12,-8116,1557,637,1180,-165,-797,1,7,11
1.72313E+12,-8156,1553,385,1256,-541,-506,1,7,11
1.72313E+12,-8183,1547,408,1556,-394,-443,1,7,11
1.72313E+12,-8450,1268,424,1604,-488,-597,1,7,11
1.72313E+12,-8170,1246,443,1638,-821,-223,1,7,11
1.72313E+12,-8161,1203,491,1657,-869,-377,1,7,11
1.72313E+12,-8139,1183,781,1430,-661,-274,1,7,11
1.72313E+12,-8116,1168,809,1448,-704,79,1,7,11
1.72313E+12,-8071,1161,811,1432,-734,-80,1,7,11
1.72313E+12,-8309,1173,805,1628,-721,259,1,7,11
1.72313E+12,-8262,1182,799,1269,-702,370,1,7,11
1.72313E+12,-8215,1185,806,1384,-884,213,1,7,11
1.72313E+12,-7920,1198,811,971,-786,564,1,7,11
1.72313E+12,-7883,1208,828,1061,-402,389,1,7,11
1.72313E+12,-7862,1224,854,649,-522,469,1,7,11
1.72313E+12,-7820,1232,869,507,-144,791,1,7,11
1.72313E+12,-8052,1236,892,397,-271,816,1,7,11
1.72313E+12,-7812,1264,650,582,89,823,1,7,11
1.72313E+12,-8049,1276,648,523,-107,834,1,7,11
1.72313E+12,-8041,1542,640,235,-44,818,1,7,11
1.72313E+12,-8055,1571,882,231,260,789,1,7,11
1.72313E+12,-7821,1612,861,229,288,492,1,7,11
1.72313E+12,-7832,1438,801,222,303,454,1,7,11
1.72313E+12,-7860,1490,509,191,320,422,1,7,11
1.72313E+12,-7886,1524,486,381,329,390,1,7,11
1.72313E+12,-7915,1823,468,306,332,601,1,7,11
1.72313E+12,-7936,1864,448,-36,328,579,1,7,11
1.72313E+12,-8196,1885,426,120,301,571,1,7,11
1.72313E+12,-7898,1871,427,-259,274,580,1,7,11
1.72313E+12,-7860,1863,430,-374,282,569,1,7,11
1.72313E+12,-7849,1850,441,-242,302,545,1,7,11
1.72313E+12,-7830,1861,448,-541,309,530,1,7,11
1.72313E+12,-7814,1864,449,-579,323,519,1,7,11
1.72313E+12,-7815,1876,444,-599,347,522,1,7,11
1.72313E+12,-7809,1878,437,-620,371,534,1,7,11
1.72313E+12,-7826,1896,436,-609,152,546,1,7,11
1.72313E+12,-7826,1893,451,-593,164,562,1,7,11
1.72313E+12,-7832,1913,441,-528,174,571,1,7,11
1.72313E+12,-7839,1685,428,-223,159,571,1,7,11
1.72313E+12,-7818,1697,416,-188,130,569,1,7,11
1.72313E+12,-8053,1713,400,-138,361,554,1,7,11
1.72313E+12,-8047,1744,639,-363,338,521,1,7,11
1.72313E+12,-8051,1765,628,-342,305,234,1,7,11
1.72313E+12,-8040,1776,602,-353,260,206,1,7,11
1.72313E+12,-8014,1756,591,-382,-27,168,1,7,11
1.72313E+12,-8028,1750,588,-152,-37,364,1,7,11
1.72313E+12,-8051,1731,591,-197,-63,307,1,7,11
1.72313E+12,-7810,1728,591,-231,-95,262,1,7,11
1.72313E+12,-7827,1739,580,-535,-124,-16,1,7,11
1.72313E+12,-7838,1749,569,-603,127,-10,1,7,11
1.72313E+12,-7854,1759,568,-426,-117,277,1,7,11
1.72313E+12,-7852,1763,568,-771,-85,335,1,7,11
1.72313E+12,-7858,1766,581,-864,-38,136,1,7,11
1.72313E+12,-7859,1775,617,-705,258,193,1,7,11
1.72313E+12,-7858,1788,638,-1054,287,235,1,7,11
1.72313E+12,-7830,2066,401,-1144,304,551,1,7,11
1.72313E+12,-8049,2089,385,-959,350,601,1,7,11
1.72313E+12,-7972,2091,616,-1006,158,397,1,7,11
1.72313E+12,-7673,2090,617,-1301,547,412,1,7,11
1.72313E+12,-7956,2112,631,-1293,442,400,1,7,11
1.72313E+12,-7997,2127,635,-1013,789,401,1,7,11
1.72313E+12,-8035,2147,636,-976,823,411,1,7,11
1.72313E+12,-8053,2174,619,-943,811,426,1,7,11
1.72313E+12,-8047,1937,592,-922,776,436,1,7,11
1.72313E+12,-8047,1969,563,-1149,486,443,1,7,11
1.72313E+12,-8043,2005,536,-1132,453,457,1,7,11
1.72313E+12,-8029,2033,512,-1136,423,477,1,7,11
1.72313E+12,-8011,2046,246,-1144,401,496,1,7,11
1.72313E+12,-7992,2331,226,-1138,395,770,1,7,11
1.72313E+12,-7977,2364,212,-1151,407,778,1,7,11
1.72313E+12,-7970,2375,203,-927,422,790,1,7,11
1.72313E+12,-7947,2406,181,-962,443,807,1,7,11
1.72313E+12,-7669,2422,175,-1011,489,807,1,7,11
1.72313E+12,-7669,2421,228,-1357,804,795,1,7,11
1.72313E+12,-7674,2181,224,-1384,839,805,1,7,11
1.72313E+12,-7649,2204,236,-1170,851,811,1,7,11
1.72313E+12,-7638,2231,513,-1205,873,803,1,7,11
1.72313E+12,-7622,2233,534,-1204,874,792,1,7,11
1.72313E+12,-7585,2280,249,-1153,863,795,1,7,11
1.72313E+12,-7562,2288,247,-1356,858,768,1,7,11
1.72313E+12,-7555,2587,223,-1314,876,485,1,7,11
1.72313E+12,-7560,2617,196,-1323,886,454,1,7,11
1.72313E+12,-7787,2641,147,-1373,893,440,1,7,11
1.72313E+12,-7784,2654,149,-1186,697,412,1,7,11
1.72313E+12,-7792,2661,165,-1226,752,395,1,7,11
1.72313E+12,-7793,2645,220,-1212,1037,627,1,7,11
1.72313E+12,-7804,2657,234,-1319,760,618,1,7,11
1.72313E+12,-7576,2447,208,-923,710,610,1,7,11
1.72313E+12,-7576,2448,208,-1121,646,614,1,7,11
1.72313E+12,-7571,2465,167,-1051,860,594,1,7,11
1.72313E+12,-7555,2493,377,-1058,845,565,1,7,11
1.72313E+12,-7784,2502,371,-1096,858,535,1,7,11
1.72313E+12,-7767,2518,350,-1086,883,515,1,7,11
1.72313E+12,-7748,2554,325,-1102,655,228,1,7,11
1.72313E+12,-7738,2856,291,-1110,674,222,1,7,11
1.72313E+12,-7748,2879,267,-1117,712,201,1,7,11
1.72313E+12,-7700,2874,265,-916,709,203,1,7,11
1.72313E+12,-7423,2924,-41,-1121,725,191,1,7,11
1.72313E+12,-7407,2688,-65,-1144,736,174,1,7,11
1.72313E+12,-7408,2698,-80,-915,756,145,1,7,11
1.72313E+12,-7423,2706,-87,-946,755,363,1,7,11
1.72313E+12,-7685,2942,-83,-970,726,337,1,7,11
1.72313E+12,-7682,2939,-84,-947,671,316,1,7,11
1.72313E+12,-7422,2689,-86,-1152,859,288,1,7,11
1.72313E+12,-7689,2708,-90,-1096,782,264,1,7,11
1.72313E+12,-7691,2727,-115,-1044,437,264,1,7,11
1.72313E+12,-7424,2716,-111,-739,602,266,1,7,11
1.72313E+12,-7401,2709,-125,-643,519,272,1,7,11
1.72313E+12,-7379,2708,-121,-508,190,259,1,7,11
1.72313E+12,-7387,2775,80,-567,135,-23,1,7,11
1.72313E+12,-7366,3126,-284,-230,342,-32,1,7,11
1.72313E+12,-7329,3161,-317,-556,339,-56,1,7,11
1.72313E+12,-7325,3168,-311,-618,356,-89,1,7,11
1.72313E+12,-7326,3176,-307,-447,357,119,1,7,11
1.72313E+12,-7339,3146,-276,-785,355,64,1,7,11
1.72313E+12,-7333,3126,-268,-834,342,-12,1,7,11
1.72313E+12,-7355,3135,-269,-864,348,-296,1,7,11
1.72313E+12,-7365,3132,-265,-649,347,-340,1,7,11
1.72313E+12,-7387,3125,10,-715,336,-137,1,7,11
1.72313E+12,-7396,3096,22,-1029,312,-166,1,7,11
1.72313E+12,-7398,3081,34,-1064,274,-179,1,7,11
1.72313E+12,-7429,2805,76,-1090,-27,-214,1,7,11
1.72313E+12,-7695,2810,85,-1060,-85,-220,1,7,11
1.72313E+12,-7699,3073,80,-749,-127,-203,1,7,11
1.72313E+12,-7693,2793,106,-749,109,-152,1,7,11
1.72313E+12,-7700,2787,123,-720,114,-367,1,7,11
1.72313E+12,-7700,2792,-128,-680,-127,-333,1,7,11
1.72313E+12,-7684,2781,-98,-684,-108,-311,1,7,11
1.72313E+12,-7688,2771,-73,-677,-78,-314,1,7,11
1.72313E+12,-7686,2765,-57,-664,-57,-301,1,7,11
1.72313E+12,-7423,2748,-41,-642,-29,-283,1,7,11
1.72313E+12,-7418,2726,-19,-870,267,-271,1,7,11
1.72313E+12,-7422,2723,-14,-796,303,4,1,7,11
1.72313E+12,-7707,2714,-4,-474,325,16,1,7,11
1.72313E+12,-7687,2717,-13,-389,304,62,1,7,11
1.72313E+12,-7687,2723,-21,-566,297,69,1,7,11
1.72313E+12,-7690,2733,-42,-243,274,65,1,7,11
1.72313E+12,-7683,2751,-68,-190,-21,62,1,7,11
1.72313E+12,-7682,2770,-105,-167,-51,46,1,7,11
1.72313E+12,-7688,2779,-126,-154,-84,40,1,7,11
1.72313E+12,-7681,2792,113,-154,-120,41,1,7,11
1.72313E+12,-7691,2799,120,-170,115,47,1,7,11
1.72313E+12,-7696,2793,-107,-184,100,55,1,7,11
1.72313E+12,-7703,2783,-88,-190,86,58,1,7,11
1.72313E+12,-7698,2768,-64,-187,66,65,1,7,11
1.72313E+12,-7691,2755,-42,-161,49,67,1,7,11
1.72313E+12,-7424,2742,-22,-367,38,73,1,7,11
1.72313E+12,-7420,2749,-21,-299,32,72,1,7,11
1.72313E+12,-7407,2764,-35,17,25,81,1,7,11
1.72313E+12,-7387,2762,-27,67,24,81,1,7,11
1.72313E+12,-7385,2772,-33,124,28,71,1,7,11
1.72313E+12,-7374,2768,-47,-90,23,59,1,7,11
1.72313E+12,-7375,2783,-65,-50,31,35,1,7,11
1.72313E+12,-7379,2780,-64,-30,27,12,1,7,11
1.72313E+12,-7377,2784,-59,-8,16,-259,1,7,11
1.72313E+12,-7372,2787,-57,269,-264,-277,1,7,11
1.72313E+12,-7371,2794,-44,280,-278,-303,1,7,11
1.72313E+12,-7367,2782,-44,273,-304,-335,1,7,11
1.72313E+12,-7343,2757,-24,273,-325,-374,1,7,11
1.72313E+12,-7358,2758,-5,293,-333,-180,1,7,11
1.72313E+12,-7379,2761,263,319,-355,-228,1,7,11
1.72313E+12,-7379,2763,256,342,-377,-514,1,7,11
1.72313E+12,-7384,2748,266,348,-378,-546,1,7,11
1.72313E+12,-7403,2734,265,364,-370,-576,1,7,11
1.72313E+12,-7696,2719,271,367,-359,-605,1,7,11
1.72313E+12,-7740,2703,269,382,-373,-610,1,7,11
1.72313E+12,-7741,2942,262,373,-139,-600,1,7,11
1.72313E+12,-7738,2922,256,372,-151,-585,1,7,11
1.72313E+12,-7732,2917,-20,363,-143,-575,1,7,11
1.72313E+12,-7723,2882,-8,328,-370,-573,1,7,11
1.72313E+12,-7740,2863,268,321,-343,-570,1,7,11
1.72313E+12,-7767,2853,289,305,-323,-573,1,7,11
1.72313E+12,-7777,2559,292,298,-344,-546,1,7,11
1.72313E+12,-7748,2547,289,310,-343,-529,1,7,11
1.72313E+12,-7777,2543,289,318,-329,-521,1,7,11
1.72313E+12,-7779,2541,280,324,-317,-245,1,7,11
1.72313E+12,-7794,2545,279,337,-299,-224,1,7,11
1.72313E+12,-7555,2549,273,332,-293,-210,1,7,11
1.72313E+12,-7559,2555,262,322,-291,-208,1,7,11
1.72313E+12,-7566,2827,-6,297,-293,-206,1,7,11
1.72313E+12,-7579,2831,-2,274,-301,-209,1,7,11
1.72313E+12,-7557,2851,-22,-23,-312,-207,1,7,11
1.72313E+12,-7569,2835,-5,-92,-309,-226,1,7,11
1.72313E+12,-7554,2824,274,110,-316,-241,1,7,11
1.72313E+12,-7808,2549,300,67,-314,-521,1,7,11
1.72313E+12,-7795,2518,332,45,-319,-543,1,7,11
1.72313E+12,-7790,2473,133,33,-327,-580,1,7,11
1.72313E+12,-7790,2439,163,67,-362,-629,1,7,11
1.72313E+12,-7779,2658,181,116,-162,-428,1,7,11
1.72313E+12,-7772,2647,181,-58,-220,-492,1,7,11
1.72313E+12,-7771,2619,186,-12,-544,-813,1,7,11
1.72313E+12,-7768,2606,176,321,-622,-869,1,7,11
1.72313E+12,-7774,2610,179,134,-427,-678,1,7,11
1.72313E+12,-7787,2593,189,188,-482,-720,1,7,11
1.72313E+12,-7569,2301,233,230,-799,-754,1,7,11
1.72313E+12,-7600,2287,530,548,-875,-1049,1,7,11
1.72313E+12,-7631,2242,592,606,-744,-1073,1,7,11
1.72313E+12,-7643,2181,399,403,-1074,-1106,1,7,11
1.72313E+12,-7673,2392,459,499,-1129,-904,1,7,11
1.72313E+12,-7965,2347,781,846,-922,-964,1,7,11
1.72313E+12,-8008,2047,855,696,-960,-1016,1,7,11
1.72313E+12,-8018,2014,644,1080,-991,-1284,1,7,11
1.72313E+12,-8033,1972,680,949,-969,-1282,1,7,11
1.72313E+12,-8034,2147,739,1332,-920,-997,1,7,11
1.72313E+12,-8041,2088,767,1272,-1091,-950,1,7,11
1.72313E+12,-8055,2051,761,1463,-737,-909,1,7,11
1.72313E+12,-7824,1760,759,1891,-895,-1118,1,7,11
1.72313E+12,-7852,1750,723,2052,-815,-1031,1,7,11
1.72313E+12,-7856,1731,692,1947,-481,-705,1,7,11
1.72313E+12,-7852,1700,678,2002,-444,-652,1,7,11
1.72313E+12,-7852,1696,653,2329,-416,-872,1,7,11
1.72313E+12,-7845,1681,876,2369,-410,-844,1,7,11
1.72313E+12,-7841,1919,853,2392,-405,-833,1,7,11
1.72313E+12,-7837,1898,834,2402,-416,-828,1,7,11
1.72313E+12,-7815,1866,816,2408,-425,-832,1,7,11
1.72313E+12,-7812,1848,794,2176,-424,-847,1,7,11
1.72313E+12,-7818,1845,772,2200,-423,-861,1,7,11
1.72313E+12,-7840,1854,774,2214,-416,-880,1,7,11
1.72313E+12,-7867,1847,779,2195,-432,-886,1,7,11
1.72313E+12,-7871,1820,792,2182,-475,-874,1,7,11
1.72313E+12,-7870,1808,492,2195,-507,-864,1,7,11
1.72313E+12,-7863,1796,446,2181,-770,-835,1,7,11
1.72313E+12,-7849,1523,429,2342,-430,-848,1,7,11
1.72313E+12,-7862,1478,422,2125,-608,-860,1,7,11
1.72313E+12,-7870,1438,431,1738,-533,-867,1,7,11
1.72313E+12,-7891,1660,421,1894,-203,-861,1,7,11
1.72313E+12,-7904,1628,416,1793,-141,-842,1,7,11
1.72313E+12,-7922,1591,419,1437,-342,-814,1,7,11
1.72313E+12,-7916,1554,409,1599,-306,-784,1,7,11
1.72313E+12,-7920,1272,402,1252,-268,-770,1,7,11
1.72313E+12,-7935,1258,401,1167,12,-506,1,7,11
1.72313E+12,-8212,1260,395,1338,18,-498,1,7,11
1.72313E+12,-8229,1264,397,984,-258,-477,1,7,11
1.72313E+12,-8244,1253,404,1129,-287,-448,1,7,11
1.72313E+12,-8256,1238,432,752,-330,-408,1,7,11
1.72313E+12,-8257,1201,457,643,-131,-616,1,7,11
1.72313E+12,-8253,1178,470,824,-184,-582,1,7,11
1.72313E+12,-8247,1399,499,773,-239,-557,1,7,11
1.72313E+12,-8226,1378,770,504,-530,-533,1,7,11
1.72313E+12,-8232,1351,801,511,-545,-518,1,7,11
1.72313E+12,-8225,1354,811,807,-559,-239,1,7,11
1.72313E+12,-8223,1340,823,830,-569,-224,1,7,11
1.72313E+12,-8216,1328,836,862,-572,-213,1,7,11
1.72313E+12,-8218,1320,850,891,-572,-204,1,7,11
1.72313E+12,-8208,1321,863,673,-572,-188,1,7,11
1.72313E+12,-8212,1340,853,697,-563,-175,1,7,11
1.72313E+12,-8206,1360,857,703,-551,-146,1,7,11
1.72313E+12,-8197,1368,858,686,-536,-363,1,7,11
1.72313E+12,-7911,1374,844,649,-516,-321,1,7,11
1.72313E+12,-7894,1385,830,863,-219,-290,1,7,11
1.72313E+12,-7879,1397,814,803,-184,-264,1,7,11
1.72313E+12,-7862,1175,801,480,-141,13,1,7,11
1.72313E+12,-7890,1222,803,622,-354,10,1,7,11
1.72313E+12,-7928,1261,821,200,-350,8,1,7,11
1.72313E+12,-8231,1552,867,266,-384,7,1,7,11
1.72313E+12,-8262,1572,652,59,-192,9,1,7,11
1.72313E+12,-8293,1574,696,-150,-252,8,1,7,11
1.72313E+12,-8316,1568,747,-587,-558,8,1,7,11
1.72313E+12,-8101,1555,1071,-481,-587,-263,1,7,11
1.72313E+12,-8145,1546,1143,-848,-622,-269,1,7,11
1.72313E+12,-8175,1542,959,-669,-410,4,1,7,11
1.72313E+12,-8182,1550,1011,-708,-458,46,1,7,11
1.72313E+12,-8155,1575,1308,-748,-489,111,1,7,11
1.72313E+12,-8125,1586,1329,-1068,-478,-59,1,7,11
1.72313E+12,-8078,1588,1362,-1142,-445,297,1,7,11
1.72313E+12,-8258,1564,1401,-963,-388,140,1,7,11
1.72313E+12,-7924,1548,1158,-1007,-546,224,1,7,11
1.72313E+12,-7869,1552,1154,-1304,-165,544,1,7,11
1.72313E+12,-7821,1582,1390,-1353,-279,601,1,7,11
1.72313E+12,-8045,1600,1386,-1197,-30,430,1,7,11
1.72313E+12,-8030,1618,1373,-1250,131,494,1,7,11
1.72313E+12,-8050,1660,1342,-1537,544,794,1,7,11
1.72313E+12,-7843,1468,1311,-1570,414,820,1,7,11
1.72313E+12,-7894,1515,1281,-1606,498,838,1,7,11
1.72313E+12,-8208,1820,988,-1631,812,837,1,7,11
1.72313E+12,-8299,1882,959,-1644,835,815,1,7,11
1.72313E+12,-8134,1689,939,-1647,810,784,1,7,11
1.72313E+12,-8184,1721,929,-1652,481,495,1,7,11
1.72313E+12,-8486,1755,914,-1633,386,447,1,7,11
1.72313E+12,-8455,1745,910,-1606,251,413,1,7,11
1.72313E+12,-8143,1732,920,-1276,137,614,1,7,11
1.72313E+12,-8271,1684,938,-1192,267,560,1,7,11
1.72313E+12,-7881,1860,988,-1347,-71,215,1,7,11
1.72313E+12,-8022,1525,1283,-952,106,363,1,7,11
1.72313E+12,-7626,1442,1313,-1061,24,-11,1,7,11
1.72313E+12,-7763,1614,1351,-660,-294,112,1,7,11
1.72313E+12,-7422,1536,1372,-778,-322,-298,1,7,11
1.72313E+12,-7399,1221,1392,-636,-341,-211,1,7,11
1.72313E+12,-7683,1184,1404,-252,-373,-628,1,7,11
1.72313E+12,-7736,1176,1407,-152,-157,-506,1,7,11
1.72313E+12,-7566,1152,1155,-351,-195,-870,1,7,11
1.72313E+12,-7671,1405,1401,-302,-234,-678,1,7,11
1.72313E+12,-8016,1402,1399,-297,-525,-712,1,7,11
1.72313E+12,-7840,1379,1407,-326,-531,-722,1,7,11
1.72313E+12,-7909,1352,1176,-366,-520,-715,1,7,11
1.72313E+12,-8238,1340,1202,-157,-239,-699,1,7,11
1.72313E+12,-8253,1300,1238,-236,-228,-652,1,7,11
1.72313E+12,-8261,995,1552,-557,-186,-862,1,7,11
1.72313E+12,-8272,966,1566,-588,-137,-811,1,7,11
1.72313E+12,-8263,933,1597,-629,-343,-498,1,7,11
1.72313E+12,-8257,905,1619,-636,-268,-436,1,7,11
1.72313E+12,-8264,901,1637,-634,73,-629,1,7,11
1.72313E+12,-8269,902,1643,-610,-122,-555,1,7,11
1.72313E+12,-8238,910,1637,-586,-95,-219,1,7,11
1.72313E+12,-7934,897,1627,-568,-73,-159,1,7,11
1.72313E+12,-7863,1144,1617,-560,-56,-130,1,7,11
1.72313E+12,-8059,1127,1613,-542,-36,-143,1,7,11
1.72313E+12,-8001,1114,1601,-248,-19,-182,1,7,11
1.72313E+12,-7972,1108,1584,-214,258,-246,1,7,11
1.72313E+12,-7979,1095,1567,-202,284,-629,1,7,11
1.72313E+12,-7999,1081,1553,-208,295,-454,1,7,11
1.72313E+12,-8022,1061,1545,-230,304,-786,1,7,11
1.72313E+12,-8058,1030,1538,-254,321,-851,1,7,11
1.72313E+12,-7840,742,1275,-534,348,-643,1,7,11
1.72313E+12,-7891,697,1261,-546,131,-674,1,7,11
1.72313E+12,-8204,651,1236,-546,181,-692,1,7,11
1.72313E+12,-8241,859,1203,-530,236,-689,1,7,11
1.72313E+12,-8285,807,1171,-241,566,-669,1,7,11
1.72313E+12,-8073,775,1383,-200,637,-886,1,7,11
1.72313E+12,-8094,476,1333,-159,443,-821,1,7,11
1.72313E+12,-8097,444,1020,-365,773,-502,1,7,11
1.72313E+12,-8090,429,962,-313,827,-432,1,7,11
1.72313E+12,-8068,405,896,-282,863,-627,1,7,11
1.72313E+12,-8300,387,1104,-257,888,-591,1,7,11
1.72313E+12,-8285,627,1048,-262,887,-589,1,7,11
1.72313E+12,-8271,595,752,-284,860,-621,1,7,11
1.72313E+12,-8267,582,708,-305,804,-428,1,7,11
1.72313E+12,-8258,587,669,-339,462,-503,1,7,11
1.72313E+12,-8245,628,876,-374,388,-822,1,7,11
1.72313E+12,-8274,409,815,-193,599,-856,1,7,11
1.72313E+12,-8317,416,779,-560,565,-828,1,7,11
1.72313E+12,-8097,398,780,-410,533,-496,1,7,11
1.72313E+12,-8138,636,775,-489,251,-634,1,7,11
1.72313E+12,-8180,607,789,-812,229,-243,1,7,11
1.72313E+12,-8466,581,806,-845,200,-345,1,7,11
1.72313E+12,-8481,574,827,-850,174,61,1,7,11
1.72313E+12,-8500,596,842,-844,140,-50,1,7,11
1.72313E+12,-8486,621,858,-854,342,345,1,7,11
1.72313E+12,-8478,405,848,-869,309,193,1,7,11
1.72313E+12,-8158,436,865,-668,264,535,1,7,11
1.72313E+12,-8122,474,865,-721,-11,584,1,7,11
1.72313E+12,-8116,773,874,-1039,-17,573,1,7,11
1.72313E+12,-8107,805,886,-1124,-24,552,1,7,11
1.72313E+12,-8093,832,894,-959,-40,518,1,7,11
1.72313E+12,-8073,850,653,-1336,-49,205,1,7,11
1.72313E+12,-8312,847,678,-1218,-44,128,1,7,11
1.72313E+12,-8065,848,719,-1575,-44,303,1,7,11
1.72313E+12,-8316,858,739,-1636,-71,-8,1,7,11
1.72313E+12,-8286,857,757,-1439,-115,-45,1,7,11
1.72313E+12,-8262,844,764,-1488,117,-84,1,7,11
1.72313E+12,-8250,837,739,-1798,94,-125,1,7,11
1.72313E+12,-8252,835,726,-1866,68,98,1,7,11
1.72313E+12,-8259,843,694,-1915,46,76,1,7,11
1.72313E+12,-8276,865,680,-1727,42,61,1,7,11
1.72313E+12,-8285,873,678,-1791,36,86,1,7,11
1.72313E+12,-8281,881,705,-2097,45,106,1,7,11
1.72313E+12,-8271,874,733,-2120,50,-122,1,7,11
1.72313E+12,-8260,856,1028,-2104,67,-110,1,7,11
1.72313E+12,-8251,836,1079,-2054,92,-112,1,7,11
1.72313E+12,-8262,819,1125,-1714,124,122,1,7,11
1.72313E+12,-8293,813,909,-1875,-112,84,1,7,11
1.72313E+12,-8291,792,931,-1520,-119,60,1,7,11
1.72313E+12,-8288,797,927,-1652,-105,40,1,7,11
1.72313E+12,-8297,783,932,-1550,-80,25,1,7,11
1.72313E+12,-8298,769,931,-1185,-47,13,1,7,11
1.72313E+12,-8079,511,918,-1349,-17,0,1,7,11
1.72313E+12,-8132,508,1142,-1303,-32,3,1,7,11
1.72313E+12,-8177,498,1115,-1304,-98,32,1,7,11
1.72313E+12,-8491,509,1053,-1342,51,74,1,7,11
1.72313E+12,-8531,816,703,-1184,-365,-105,1,7,11
1.72313E+12,-8550,846,654,-1598,-527,270,1,7,11
1.72313E+12,-8528,851,654,-1812,-419,159,1,7,11
1.72313E+12,-8492,838,688,-1790,-832,404,1,7,11
1.72313E+12,-8173,829,745,-2093,-890,804,1,7,11
1.72313E+12,-8128,801,1123,-2248,-643,656,1,7,11
1.72313E+12,-8096,827,967,-2581,-890,740,1,7,11
1.72313E+12,-8073,847,1344,-2642,-893,1062,1,7,11
1.72313E+12,-8305,881,1402,-2645,-896,1121,1,7,11
1.72313E+12,-8260,670,1211,-2683,-876,910,1,7,11
1.72313E+12,-8199,656,1587,-2448,-808,941,1,7,11
1.72313E+12,-8209,686,1658,-2644,-465,943,1,7,11
1.72313E+12,-7898,693,1472,-2583,-388,944,1,7,11
1.72313E+12,-7894,696,1817,-2214,-520,908,1,7,11
1.72313E+12,-7884,738,1913,-1959,-369,1114,1,7,11
1.72313E+12,-7877,1040,1693,-1749,-278,1078,1,7,11
1.72313E+12,-7863,1068,1716,-1793,64,1050,1,7,11
1.72313E+12,-7844,1103,1731,-1577,-110,763,1,7,11
1.72313E+12,-7856,929,1724,-1354,-27,727,1,7,11
1.72313E+12,-7887,1019,1679,-928,290,705,1,7,11
1.72313E+12,-7883,1349,1878,-1081,324,703,1,7,11
1.72313E+12,-7869,1398,1827,-1036,352,692,1,7,11
1.72313E+12,-7851,1185,1530,-1035,132,658,1,7,11
1.72313E+12,-7839,1206,1490,-1054,172,855,1,7,11
1.72313E+12,-7826,1222,1465,-1076,220,795,1,7,11
1.72313E+12,-7815,1235,1454,-1097,524,483,1,7,11
1.72313E+12,-7817,1269,1451,-1104,574,433,1,7,11
1.72313E+12,-7828,1561,1451,-1119,621,389,1,7,11
1.72313E+12,-7832,1574,1460,-1129,398,610,1,7,11
1.72313E+12,-7832,1572,1488,-1105,422,579,1,7,11
1.72313E+12,-7835,1573,1498,-1042,441,545,1,7,11
1.72313E+12,-7819,1569,1501,-699,449,252,1,7,11
1.72313E+12,-7820,1564,1510,-847,462,198,1,7,11
1.72313E+12,-7825,1576,1497,-447,458,146,1,7,11
1.72313E+12,-7840,1614,1474,-542,461,356,1,7,11
1.72313E+12,-7864,1417,1444,-147,463,330,1,7,11
1.72313E+12,-7896,1470,1418,-313,451,330,1,7,11
1.72313E+12,-7906,1501,1650,2,417,368,1,7,11
1.72313E+12,-7908,1531,1604,48,399,154,1,7,11
1.72313E+12,-7898,1818,1568,67,397,186,1,7,11
1.72313E+12,-7894,1835,1543,65,412,211,1,7,11
1.72313E+12,-7886,1856,1263,43,425,234,1,7,11
1.72313E+12,-7871,1859,1249,5,446,512,1,7,11
1.72313E+12,-7844,1865,1224,-295,467,523,1,7,11
1.72313E+12,-7821,1874,1200,-333,768,524,1,7,11
1.72313E+12,-8061,1884,1175,-132,833,254,1,7,11
1.72313E+12,-8042,1858,1175,-186,889,238,1,7,11
1.72313E+12,-8035,1859,1161,-195,698,215,1,7,11
1.72313E+12,-8055,1883,1401,-198,766,193,1,7,11
1.72313E+12,-7826,1878,1375,-213,1076,195,1,7,11
1.72313E+12,-7829,1867,1351,-209,1121,217,1,7,11
1.72313E+12,-7837,1860,1328,-197,914,235,1,7,11
1.72313E+12,-7850,1876,1277,-175,947,518,1,7,11
1.72313E+12,-7886,1668,977,-146,985,550,1,7,11
1.72313E+12,-7917,1693,942,-170,985,610,1,7,11
1.72313E+12,-7914,1711,900,-196,971,426,1,7,11
1.72313E+12,-7909,1783,1106,-221,960,486,1,7,11
1.72313E+12,-7901,2058,1068,-533,942,804,1,7,11
1.72313E+12,-7858,2110,1026,-589,923,863,1,7,11
1.72313E+12,-7824,2141,737,-638,924,889,1,7,11
1.72313E+12,-8044,2164,713,-425,921,893,1,7,11
1.72313E+12,-8015,1934,684,-449,905,878,1,7,11
1.72313E+12,-7989,1965,649,-458,1135,847,1,7,11
1.72313E+12,-7952,2009,846,-434,1100,794,1,7,11
1.72313E+12,-7669,2039,812,-403,1080,496,1,7,11
1.72313E+12,-7646,2321,788,-625,1059,453,1,7,11
1.72313E+12,-7625,2359,476,-591,1038,402,1,7,11
1.72313E+12,-7590,2393,450,-571,767,593,1,7,11
1.72313E+12,-7593,2402,420,-524,752,523,1,7,11
1.72313E+12,-7582,2189,632,-250,703,178,1,7,11
1.72313E+12,-7590,2181,615,-530,646,325,1,7,11
1.72313E+12,-7572,2177,581,-580,816,-32,1,7,11
1.72313E+12,-7576,2431,563,-624,483,98,1,7,11
1.72313E+12,-7571,2187,547,-399,392,10,1,7,11
1.72313E+12,-7564,2214,522,-433,578,-324,1,7,11
1.72313E+12,-7563,2217,513,-498,530,-148,1,7,11
1.72313E+12,-7561,2188,523,-830,229,-224,1,7,11
1.72313E+12,-7577,2427,524,-893,201,-556,1,7,11
1.72313E+12,-7601,2416,526,-699,191,-628,1,7,11
1.72313E+12,-7599,2380,548,-768,184,-419,1,7,11
1.72313E+12,-7612,2340,560,-1061,198,-461,1,7,11
1.72313E+12,-7637,2310,581,-1104,228,-502,1,7,11
1.72313E+12,-7966,2017,613,-1136,516,-810,1,7,11
1.72313E+12,-8015,1984,627,-1142,250,-818,1,7,11
1.72313E+12,-8030,1943,392,-1149,229,-805,1,7,11
1.72313E+12,-8038,2168,637,-1142,216,-800,1,7,11
1.72313E+12,-7812,2140,638,-1141,207,-793,1,7,11
1.72313E+12,-7830,2121,385,-1124,178,-503,1,7,11
1.72313E+12,-7860,2122,637,-1109,151,-464,1,7,11
1.72313E+12,-7879,2107,400,-1117,355,-415,1,7,11
1.72313E+12,-7887,2090,402,-1115,292,-617,1,7,11
1.72313E+12,-7875,2061,414,-1110,-37,-561,1,7,11
1.72313E+12,-7856,2051,417,-1051,-94,-515,1,7,11
1.72313E+12,-7854,2092,407,-731,-120,-218,1,7,11
1.72313E+12,-7853,2108,428,-727,106,-163,1,7,11
1.72313E+12,-7839,2104,441,-721,79,-363,1,7,11
1.72313E+12,-7826,2109,458,-699,49,-322,1,7,11
1.72313E+12,-7810,2123,464,-672,23,-292,1,7,11
1.72313E+12,-8041,2131,475,-661,8,-281,1,7,11
1.72313E+12,-8023,2131,479,-642,0,-271,1,7,11
1.72313E+12,-7995,2149,471,-886,-259,-272,1,7,11
1.72313E+12,-7975,2158,463,-888,16,-279,1,7,11
1.72313E+12,-7968,2153,466,-645,51,-293,1,7,11
1.72313E+12,-7977,2137,488,-669,91,-308,1,7,11
1.72313E+12,-8000,2117,778,-696,-128,-334,1,7,11
1.72313E+12,-8030,2096,823,-702,-116,-345,1,7,11
1.72313E+12,-8040,2103,833,-672,-103,-347,1,7,11
1.72313E+12,-8063,2085,851,-657,-95,-338,1,7,11
1.72313E+12,-7811,2074,860,-877,-86,-311,1,7,11
1.72313E+12,-8064,2068,853,-844,-70,-288,1,7,11
1.72313E+12,-8059,2064,839,-819,-48,-266,1,7,11
1.72313E+12,-8042,2062,826,-797,-31,6,1,7,11
1.72313E+12,-8038,2072,808,-785,261,0,1,7,11
1.72313E+12,-8035,2072,781,-779,310,-261,1,7,11
1.72313E+12,-8039,2074,774,-792,339,-263,1,7,11
1.72313E+12,-8049,2070,775,-806,371,-267,1,7,11
1.72313E+12,-8058,2068,776,-837,140,-263,1,7,11
1.72313E+12,-7815,2066,783,-849,151,1,1,7,11
1.72313E+12,-7812,2057,780,-858,137,12,1,7,11
1.72313E+12,-7813,2053,777,-851,374,8,1,7,11
1.72313E+12,-8056,1779,772,-848,339,8,1,7,11
1.72313E+12,-8054,1771,783,-822,318,-269,1,7,11
1.72313E+12,-7809,1774,793,-786,287,-290,1,7,11
1.72313E+12,-7817,1773,813,-491,-19,-300,1,7,11
1.72313E+12,-7814,1781,805,-436,-73,-296,1,7,11
1.72313E+12,-8064,1783,781,-393,-112,-291,1,7,11
1.72313E+12,-8060,1789,775,-621,116,-283,1,7,11
1.72313E+12,-8059,2048,770,-598,94,-278,1,7,11
1.72313E+12,-8039,2055,500,-568,72,-259,1,7,11
1.72313E+12,-8035,2059,500,-553,64,4,1,7,11
1.72313E+12,-8048,2073,505,-552,85,6,1,7,11
1.72313E+12,-8042,2068,504,-568,87,21,1,7,11
1.72313E+12,-8037,2084,507,-588,94,28,1,7,11
1.72313E+12,-7812,2085,771,-605,-127,33,1,7,11
1.72313E+12,-8048,2059,794,-390,126,54,1,7,11
1.72313E+12,-8053,2056,800,-400,-107,64,1,7,11
1.72313E+12,-7813,2054,805,-401,-91,79,1,7,11
1.72313E+12,-7816,1790,825,-400,-85,95,1,7,11
1.72313E+12,-7824,1789,838,-391,-85,111,1,7,11
1.72313E+12,-7818,1780,853,-387,-100,119,1,7,11
1.72313E+12,-7818,1782,860,-625,-122,113,1,7,11
1.72313E+12,-8062,1782,868,-606,99,111,1,7,11
1.72313E+12,-8049,1791,861,-585,64,97,1,7,11
1.72313E+12,-8040,2051,861,-569,37,77,1,7,11
1.72313E+12,-8037,2055,872,-539,13,55,1,7,11
1.72313E+12,-8030,2055,893,-251,-270,27,1,7,11
1.72313E+12,-8034,2058,647,-203,-309,-263,1,7,11
1.72313E+12,-8043,2063,645,-152,-366,-300,1,7,11
1.72313E+12,-8046,2087,641,-384,-162,-336,1,7,11
1.72313E+12,-8035,2072,650,-363,-201,-355,1,7,11
1.72313E+12,-8027,2093,875,-342,-222,-368,1,7,11
1.72313E+12,-8024,2086,881,-362,-202,-375,1,7,11
1.72313E+12,-8055,2119,865,-372,-162,-372,1,7,11
1.72313E+12,-8062,2099,886,-183,-147,-354,1,7,11
1.72313E+12,-8062,2096,894,-230,-130,-343,1,7,11
1.72313E+12,-8051,2066,679,-534,-130,-342,1,7,11
1.72313E+12,-8054,2064,682,-530,-138,-359,1,7,11
1.72313E+12,-8033,2079,665,-530,-178,-377,1,7,11
1.72313E+12,-7997,2120,860,-555,-250,-211,1,7,11
1.72313E+12,-7967,2118,851,-388,-527,-534,1,7,11
1.72313E+12,-7994,2111,867,-450,-240,-637,1,7,11
1.72313E+12,-8031,2101,641,-804,-525,-470,1,7,11
1.72313E+12,-8038,2068,672,-870,-568,-806,1,7,11
1.72313E+12,-7829,2059,685,-666,-596,-891,1,7,11
1.72313E+12,-7851,1778,716,-746,-622,-660,1,7,11
1.72313E+12,-7873,1723,1043,-1096,-608,-680,1,7,11
1.72313E+12,-7925,1681,1127,-1144,-567,-697,1,7,11
1.72313E+12,-7929,1903,962,-920,-571,-684,1,7,11
1.72313E+12,-8196,1869,1287,-1095,-585,-667,1,7,11
1.72313E+12,-7927,1851,1318,-719,-397,-894,1,7,11
1.72313E+12,-7879,1860,1308,-803,-464,-866,1,7,11
1.72313E+12,-7898,1836,1353,-487,-792,-672,1,7,11
1.72313E+12,-7862,1834,1370,-387,-694,-700,1,7,11
1.72313E+12,-7871,1823,1407,-566,-1111,-1042,1,7,11
1.72313E+12,-7862,1797,1181,-236,-1331,-1095,1,7,11
1.72313E+12,-8058,1497,1160,-150,-1544,-1137,1,7,11
1.72313E+12,-7988,1448,1407,-372,-1433,-930,1,7,11
1.72313E+12,-7957,1632,1209,-153,-1499,-1017,1,7,11
1.72313E+12,-7961,1271,1570,-216,-1534,-1373,1,7,11
1.72313E+12,-7982,1360,1448,-541,-1823,-1231,1,7,11
1.72313E+12,-8017,924,1835,-528,-1835,-1612,1,7,11
1.72313E+12,-7855,761,1689,-174,-1814,-1487,1,7,11
1.72313E+12,-7904,847,1774,-268,-1528,-1813,1,7,11
1.72313E+12,-8207,430,1921,-30,-1417,-1853,1,7,11
1.72313E+12,-8279,587,2000,533,-1269,-1846,1,7,11
1.72313E+12,-8076,181,2337,809,-1405,-1535,1,7,11
1.72313E+12,-8280,356,2373,1099,-1335,-1427,1,7,11
1.72313E+12,-8247,310,2382,1396,-994,-1579,1,7,11
1.72313E+12,-8246,278,2382,1650,-898,-1231,1,7,11
1.72313E+12,-8308,289,2340,1896,-1056,-1359,1,7,11
1.72313E+12,-8114,339,2000,2133,-726,-1008,1,7,11
1.72313E+12,-8130,378,1955,2072,-692,-928,1,7,11
1.72313E+12,-8155,188,2159,2426,-651,-1137,1,7,11
1.72313E+12,-8157,215,2124,2199,-882,-1103,1,7,11
1.72313E+12,-8169,240,2107,2217,-834,-1097,1,7,11
1.72313E+12,-8159,523,2092,2197,-811,-1072,1,7,11
1.72313E+12,-8133,533,2110,2401,-776,-1052,1,7,11
1.72313E+12,-8106,556,2141,2352,-479,-767,1,7,11
1.72313E+12,-8110,606,2167,2036,-420,-725,1,7,11
1.72313E+12,-8132,401,2172,1941,-634,-651,1,7,11
1.72313E+12,-8100,415,1950,2059,-618,-790,1,7,11
1.72313E+12,-8073,426,2017,1676,-585,-413,1,7,11
1.72313E+12,-8300,433,2357,1796,-594,-545,1,7,11
1.72313E+12,-8260,440,2193,1420,-386,-167,1,7,11
1.72313E+12,-8214,449,2269,1582,-459,-307,1,7,11
1.72313E+12,-7901,462,2576,1271,-793,60,1,7,11
1.72313E+12,-7856,494,2599,1262,-838,-115,1,7,11
1.72313E+12,-7844,805,2632,1263,-852,-78,1,7,11
1.72313E+12,-7846,858,2670,1254,-872,-62,1,7,11
1.72313E+12,-7839,649,2447,1257,-653,-51,1,7,11
1.72313E+12,-7836,699,2459,1264,-691,-51,1,7,11
1.72313E+12,-8060,733,2484,1245,-739,-52,1,7,11
1.72313E+12,-8053,765,2549,1206,-756,-79,1,7,11
1.72313E+12,-8060,1058,2845,1157,-1045,-99,1,7,11
1.72313E+12,-7815,1078,2850,1379,-1085,-103,1,7,11
1.72313E+12,-8063,1047,2881,1291,-1144,-91,1,7,11
1.72313E+12,-8004,750,2898,968,-935,-55,1,7,11
1.72313E+12,-8003,710,2916,944,-944,-16,1,7,11
1.72313E+12,-8004,665,2730,922,-943,283,1,7,11
1.72313E+12,-8044,885,2805,945,-955,326,1,7,11
1.72313E+12,-7810,663,3106,1323,-1009,378,1,7,11
1.72313E+12,-8049,692,3133,1201,-1406,196,1,7,11
1.72313E+12,-7962,728,3159,1579,-1201,522,1,7,11
1.72313E+12,-7654,1033,3184,1421,-1168,539,1,7,11
1.72313E+12,-7586,1085,2944,1479,-1360,542,1,7,11
1.72313E+12,-7556,1146,2964,1463,-978,255,1,7,11
1.72313E+12,-7566,927,3019,1413,-1109,224,1,7,11
1.72313E+12,-7558,951,3055,1610,-751,207,1,7,11
1.72313E+12,-7567,992,3343,1571,-659,198,1,7,11
1.72313E+12,-7583,1327,3060,1539,-838,220,1,7,11
1.72313E+12,-7593,1385,3017,1178,-495,513,1,7,11
1.72313E+12,-7604,1161,2976,1280,-394,569,1,7,11
1.72313E+12,-7590,1186,2946,1081,-546,623,1,7,11
1.72313E+12,-7590,1179,2949,884,-171,403,1,7,11
1.72313E+12,-7591,1182,2969,470,-319,422,1,7,11
1.72313E+12,-7620,1200,2988,613,27,430,1,7,11
1.72313E+12,-7643,1257,3002,191,95,442,1,7,11
1.72313E+12,-7679,1539,3010,344,122,456,1,7,11
1.72313E+12,-7667,1563,3022,-4,120,478,1,7,11
1.72313E+12,-7672,1581,3039,-64,-125,479,1,7,11
1.72313E+12,-7664,1601,3028,-85,125,490,1,7,11
1.72313E+12,-7640,1635,2999,-78,-126,492,1,7,11
1.72313E+12,-7617,1425,2986,-72,-113,491,1,7,11
1.72313E+12,-7585,1448,2987,-84,-94,483,1,7,11
1.72313E+12,-7605,1481,2975,-71,-69,455,1,7,11
1.72313E+12,-7616,1512,2971,-64,-79,424,1,7,11
1.72313E+12,-7612,1802,2954,-52,-112,409,1,7,11
1.72313E+12,-7592,1841,3199,-50,102,406,1,7,11
1.72313E+12,-7597,1875,3189,-59,81,389,1,7,11
1.72313E+12,-7594,1909,3181,-74,58,628,1,7,11
1.72313E+12,-7579,1671,3189,-116,28,619,1,7,11
1.72313E+12,-7565,1696,2951,97,-10,589,1,7,11
1.72313E+12,-7560,1704,2971,34,-293,548,1,7,11
1.72313E+12,-7799,1719,2986,-268,-322,240,1,7,11
1.72313E+12,-7776,1717,3019,-139,-335,166,1,7,11
1.72313E+12,-7769,1701,3060,-219,-324,330,1,7,11
1.72313E+12,-7777,1707,3358,-535,-312,-10,1,7,11
1.72313E+12,-7789,1689,3394,-598,-306,-79,1,7,11
1.72313E+12,-7784,1910,3438,-637,-304,127,1,7,11
1.72313E+12,-7790,1895,3208,-395,-275,69,1,7,11
1.72313E+12,-7806,1876,3230,-398,16,24,1,7,11
1.72313E+12,-7553,1863,3244,-639,55,-270,1,7,11
1.72313E+12,-7564,1851,3237,-617,109,-304,1,7,11
1.72313E+12,-7560,1834,3248,-607,-106,-331,1,7,11
1.72313E+12,-7556,1825,3258,-591,-63,-358,1,7,11
1.72313E+12,-7573,1815,3269,-596,-12,-145,1,7,11
1.72313E+12,-7576,1807,3279,-603,273,-179,1,7,11
1.72313E+12,-7572,1804,3285,-608,304,-210,1,7,11
1.72313E+12,-7579,1797,3288,-627,333,-241,1,7,11
1.72313E+12,-7562,1511,3287,-386,358,-517,1,7,11
1.72313E+12,-7803,1501,3276,-394,154,-544,1,7,11
1.72313E+12,-7558,1482,3278,-413,214,-579,1,7,11
1.72313E+12,-7563,1459,3282,-417,519,-609,1,7,11
1.72313E+12,-7587,1460,3262,-410,566,-637,1,7,11
1.72313E+12,-7599,1455,3254,-420,598,-389,1,7,11
1.72313E+12,-7591,1433,3226,-423,627,-639,1,7,11
1.72313E+12,-7591,1422,3203,-412,424,-391,1,7,11
1.72313E+12,-7619,1418,3431,-398,472,-409,1,7,11
1.72313E+12,-7618,1654,3395,-388,489,-407,1,7,11
1.72313E+12,-7624,1643,3353,-624,503,-415,1,7,11
1.72313E+12,-7614,1594,3067,-611,500,-420,1,7,11
1.72313E+12,-7597,1562,3045,-585,510,-444,1,7,11
1.72313E+12,-7603,1268,3003,-544,783,-482,1,7,11
1.72313E+12,-7605,1230,2976,-514,784,-778,1,7,11
1.72313E+12,-7632,1196,3199,-235,802,-839,1,7,11
1.72313E+12,-7636,1152,3169,-218,795,-891,1,7,11
1.72313E+12,-7651,1373,3125,-196,806,-666,1,7,11
1.72313E+12,-7653,1318,3092,-191,819,-681,1,7,11
1.72313E+12,-7667,1015,2797,-170,859,-697,1,7,11
1.72313E+12,-7961,988,2741,-134,895,-706,1,7,11
1.72313E+12,-7981,929,2709,-364,649,-695,1,7,11
1.72313E+12,-8006,1136,2898,-295,657,-680,1,7,11
1.72313E+12,-8033,1082,2820,49,654,-658,1,7,11
1.72313E+12,-8048,1049,2491,-98,655,-895,1,7,11
1.72313E+12,-7829,1032,2658,276,647,-880,1,7,11
1.72313E+12,-7856,1035,2588,382,881,-861,1,7,11
1.72313E+12,-7882,1041,2259,199,836,-836,1,7,11
1.72313E+12,-7914,1046,2197,229,781,-808,1,7,11
1.72313E+12,-8205,1042,2408,207,461,-788,1,7,11
1.72313E+12,-8224,766,2369,158,632,-506,1,7,11
1.72313E+12,-8227,745,2358,354,547,-495,1,7,11
1.72313E+12,-8244,724,2363,272,219,-486,1,7,11
1.72313E+12,-8234,696,2388,-108,143,-478,1,7,11
1.72313E+12,-8211,882,2191,-270,335,-483,1,7,11
1.72313E+12,-8237,826,2269,-150,308,-774,1,7,11
1.72313E+12,-8304,817,2591,-530,256,-811,1,7,11
1.72313E+12,-8109,831,2659,-392,-64,-811,1,7,11
1.72313E+12,-8171,883,2683,-498,-110,-504,1,7,11
1.72313E+12,-8154,665,2449,-652,104,-632,1,7,11
1.72313E+12,-8084,656,2503,-1084,-128,-222,1,7,11
1.72313E+12,-8267,895,2544,-965,-52,-329,1,7,11
1.72313E+12,-7916,860,2836,-1316,307,55,1,7,11
1.72313E+12,-7857,856,2843,-1370,191,-122,1,7,11
1.72313E+12,-8035,791,2876,-1214,557,-77,1,7,11
1.72313E+12,-7986,787,2875,-1262,441,-78,1,7,11
1.72313E+12,-7977,787,2863,-1586,816,-109,1,7,11
1.72313E+12,-7963,502,2878,-1659,662,119,1,7,11
1.72313E+12,-7994,784,2836,-1660,1034,76,1,7,11
1.72313E+12,-8058,838,2843,-1416,1123,59,1,7,11
1.72313E+12,-7858,834,2833,-1418,909,89,1,7,11
1.72313E+12,-7872,834,2511,-1607,924,-117,1,7,11
1.72313E+12,-7871,871,2434,-1557,926,-86,1,7,11
1.72313E+12,-7853,863,2649,-1579,969,-106,1,7,11
1.72313E+12,-7853,840,2625,-1595,1293,107,1,7,11
1.72313E+12,-7848,810,2595,-1584,1340,39,1,7,11
1.72313E+12,-7874,799,2564,-1558,1385,-11,1,7,11
1.72313E+12,-7895,807,2258,-1244,1152,-287,1,7,11
1.72313E+12,-7896,840,2177,-1173,1407,-269,1,7,11
1.72313E+12,-7905,644,2363,-1373,1172,9,1,7,11
1.72313E+12,-7905,650,2322,-1398,1181,51,1,7,11
1.72313E+12,-7885,848,2364,-1248,1163,95,1,7,11
1.72313E+12,-7882,795,2404,-1205,1364,104,1,7,11
1.72313E+12,-7880,446,2234,-1360,1001,72,1,7,11
1.72313E+12,-7935,434,2267,-1129,1125,14,1,7,11
1.72313E+12,-8228,436,2271,-655,659,-281,1,7,11
1.72313E+12,-8231,448,2248,-426,474,-289,1,7,11
1.72313E+12,-8218,443,2211,-234,594,-272,1,7,11
1.72313E+12,-7907,417,2181,-311,535,22,1,7,11
1.72313E+12,-7901,408,2405,-98,570,30,1,7,11
1.72313E+12,-7898,417,2350,361,628,36,1,7,11
1.72313E+12,-7893,411,2315,547,448,40,1,7,11
1.72313E+12,-7907,400,2021,453,785,29,1,7,11
1.72313E+12,-7907,629,2002,868,838,11,1,7,11
1.72313E+12,-7919,639,1941,1047,876,-284,1,7,11
1.72313E+12,-7918,633,2139,916,884,-322,1,7,11
1.72313E+12,-7898,598,2095,1290,889,-367,1,7,11
1.72313E+12,-8196,614,1764,1202,652,-176,1,7,11
1.72313E+12,-8214,634,1684,1590,883,-212,1,7,11
1.72313E+12,-8219,390,1875,1451,866,-237,1,7,11
1.72313E+12,-8256,434,1535,1806,852,-522,1,7,11
1.72313E+12,-8248,400,1504,1822,809,-530,1,7,11
1.72313E+12,-8296,417,1462,1665,800,-553,1,7,11
1.72313E+12,-8095,472,1644,1748,487,-553,1,7,11
1.72313E+12,-8094,503,1612,2099,422,-515,1,7,11
1.72313E+12,-8068,823,1231,2147,617,-193,1,7,11
1.72313E+12,-8302,843,1161,2153,585,-374,1,7,11
1.72313E+12,-8319,768,992,1967,566,-278,1,7,11
1.72313E+12,-8289,1082,1145,1943,512,-118,1,7,11
1.72313E+12,-7878,1079,1062,2079,234,291,1,7,11
1.72313E+12,-7825,1092,719,1786,545,366,1,7,11
1.72313E+12,-8031,1089,672,1669,513,151,1,7,11
1.72313E+12,-8044,1101,880,1827,211,344,1,7,11
1.72313E+12,-7840,904,833,1490,132,267,1,7,11
1.72313E+12,-7890,963,804,1622,258,-56,1,7,11
1.72313E+12,-7879,1010,780,1208,-291,-90,1,7,11
1.72313E+12,-7839,1303,778,1197,-225,-128,1,7,11
1.72313E+12,-8028,1327,798,760,-394,87,1,7,11
1.72313E+12,-7972,1350,849,857,-510,14,1,7,11
1.72313E+12,-7960,1393,647,450,-867,-331,1,7,11
1.72313E+12,-7669,1164,712,555,-739,-143,1,7,11
1.72313E+12,-7575,1165,1060,143,-1129,-200,1,7,11
1.72313E+12,-7557,1195,910,260,-933,-575,1,7,11
1.72313E+12,-7803,1214,1289,85,-1312,-418,1,7,11
1.72313E+12,-7787,1219,1399,-302,-1162,-792,1,7,11
1.72313E+12,-7779,1243,1223,-176,-1275,-670,1,7,11
1.72313E+12,-7769,1382,1600,-393,-1599,-1107,1,7,11
1.72313E+12,-7564,951,1487,-791,-1651,-1348,1,7,11
1.72313E+12,-7560,691,1885,-863,-1468,-1608,1,7,11
1.72313E+12,-7605,420,1746,-808,-1495,-1910,1,7,11
1.72313E+12,-7619,210,2048,-608,-1503,-2168,1,7,11
1.72313E+12,-7938,365,1724,-363,-1425,-2371,1,7,11
1.72313E+12,-7993,338,1907,76,-1568,-2189,1,7,11
1.72313E+12,-8057,383,1894,110,-1391,-2421,1,7,11
1.72313E+12,-7827,368,1678,-276,-936,-1930,1,7,11
1.72313E+12,-7995,315,1724,-523,-1105,-1706,1,7,11
1.72313E+12,-7616,-44,1767,-427,-1026,-1517,1,7,11
1.72313E+12,-7777,92,2093,-807,-667,-1446,1,7,11
1.72313E+12,-7731,-270,2171,-892,-823,-1486,1,7,11
1.72313E+12,-7795,-381,1984,-687,-489,-1863,1,7,11
1.72313E+12,-7563,-217,2000,-664,-490,-1694,1,7,11
1.72313E+12,-7596,-524,2000,-883,-457,-1769,1,7,11
1.72313E+12,-7620,-573,2010,-891,-419,-2065,1,7,11
1.72313E+12,-7618,-413,2310,-696,-386,-2075,1,7,11
1.72313E+12,-7573,-895,2201,-745,-396,-1780,1,7,11
1.72313E+12,-7360,-1096,2573,-733,-465,-1917,1,7,11
1.72313E+12,-7538,-1005,2468,-646,-481,-1902,1,7,11
1.72313E+12,-7449,-1182,2868,-828,-845,-1894,1,7,11
1.72313E+12,-7293,-1648,2710,-461,-755,-1863,1,7,11
1.72313E+12,-6813,-1861,2735,-565,-897,-1810,1,7,11
1.72313E+12,-6618,-2100,2734,-165,-1148,-1806,1,7,11
1.72313E+12,-6631,-1967,2695,79,-688,-1896,1,7,11
1.72313E+12,-6977,-1926,2904,278,-771,-1686,1,7,11
1.72313E+12,-6957,-2003,2712,-58,-416,-1883,1,7,11
1.72313E+12,-6970,-2411,3083,36,-539,-1802,1,7,11
1.72313E+12,-6883,-2299,2957,-148,-169,-1507,1,7,11
1.72313E+12,-7101,-2436,3049,-571,-163,-1444,1,7,11
1.72313E+12,-7297,-2897,3416,-437,-182,-1614,1,7,11
1.72313E+12,-7723,-2763,3443,-603,-176,-1210,1,7,11
1.72313E+12,-7578,-2800,3363,-175,-339,-963,1,7,11
1.72313E+12,-7657,-3135,3019,-266,-122,-893,1,7,11
1.72313E+12,-7675,-3169,3167,-41,137,-217,1,7,11
1.72313E+12,-7961,-3081,2793,187,473,-80,1,7,11
1.72313E+12,-7995,-2919,2936,536,731,550,1,7,11
1.72313E+12,-7945,-2927,2921,145,1135,872,1,7,11
1.72313E+12,-7833,-2868,2940,298,1020,741,1,7,11
1.72313E+12,-8302,-2820,2772,78,972,1073,1,7,11
1.72313E+12,-8456,-2839,3152,-366,1080,943,1,7,11
1.72313E+12,-8521,-2545,3191,-161,889,1185,1,7,11
1.72313E+12,-8147,-2549,3160,-185,783,1535,1,7,11
1.72313E+12,-8124,-2436,3116,-134,666,2057,1,7,11
1.72313E+12,-8069,-2570,3100,-131,1044,2346,1,7,11
1.72313E+12,-8197,-2238,3111,-379,938,2613,1,7,11
1.72313E+12,-7896,-2377,3149,-373,1353,2517,1,7,11
1.72313E+12,-7920,-2033,2968,-147,1197,2843,1,7,11
1.72313E+12,-8307,-2104,2987,-357,1222,2847,1,7,11
1.72313E+12,-8172,-1898,3003,-366,1403,2857,1,7,11
1.72313E+12,-8533,-1418,2995,-146,1324,2892,1,7,11
1.72313E+12,-8378,-1174,3000,-240,991,2701,1,7,11
1.72313E+12,-8439,-955,3006,-615,920,3078,1,7,11
1.72313E+12,-8751,-718,2988,-428,910,2953,1,7,11
1.72313E+12,-8812,-489,2952,-476,931,3342,1,7,11
1.72313E+12,-8824,-541,3104,-450,987,3200,1,7,11
1.72313E+12,-8636,-224,2759,-588,1380,3223,1,7,11
1.72313E+12,-9004,267,2866,-374,1275,3436,1,7,11
1.72313E+12,-9028,575,2643,-56,1424,3338,1,7,11
1.72313E+12,-9494,647,2404,517,1517,2945,1,7,11
1.72313E+12,-9428,1004,2119,508,1817,2769,1,7,11
1.72313E+12,-9636,1610,1875,669,1844,2938,1,7,11
1.72313E+12,-9688,1824,1434,829,1483,2712,1,7,11
1.72313E+12,-9654,1732,1549,463,1662,2764,1,7,11
1.72313E+12,-9801,2112,1216,556,1567,3092,1,7,11
1.72313E+12,-9596,2164,1188,142,1221,3199,1,7,11
1.72313E+12,-9332,1961,1393,301,1159,3058,1,7,11
1.72313E+12,-9061,2016,1351,-43,1388,3424,1,7,11
1.72313E+12,-8737,2315,1023,-117,1376,3299,1,7,11
1.72313E+12,-8154,2366,926,96,1182,3668,1,7,11
1.72313E+12,-7850,2191,1052,80,1555,3503,1,7,11
1.72313E+12,-7563,2250,650,78,1476,3544,1,7,11
1.72313E+12,-7615,2504,444,-22,1771,3709,1,7,11
1.72313E+12,-7482,2816,546,-70,1710,3846,1,7,11
1.72313E+12,-7267,2899,137,283,1970,3524,1,7,11
1.72313E+12,-6882,2702,293,333,2369,3641,1,7,11
1.72313E+12,-7013,2799,-61,167,2216,3216,1,7,11
1.72313E+12,-6998,3138,-113,233,2253,2951,1,7,11
1.72313E+12,-7026,3022,60,571,2183,2698,1,7,11
1.72313E+12,-7002,3365,12,559,2019,2447,1,7,11
1.72313E+12,-6817,3227,-320,530,2131,2398,1,7,11
1.72313E+12,-7174,3604,-152,199,1919,2110,1,7,11
1.72313E+12,-7210,3676,-228,308,1416,1853,1,7,11
1.72313E+12,-7220,3686,-245,-111,1198,1610,1,7,11
1.72313E+12,-7228,3667,-232,-278,1280,1366,1,7,11
1.72313E+12,-7276,3640,-184,-200,897,998,1,7,11
1.72313E+12,-7072,3611,-130,-619,1050,805,1,7,11
1.72313E+12,-7060,3586,-367,-492,883,428,1,7,11
1.72313E+12,-7046,3315,-348,-846,852,587,1,7,11
1.72313E+12,-7050,3316,-346,-698,884,533,1,7,11
1.72313E+12,-7292,3307,-333,-777,696,514,1,7,11
1.72313E+12,-7076,3298,-305,-1100,1055,241,1,7,11
1.72313E+12,-7112,3283,-280,-1138,1105,523,1,7,11
1.72313E+12,-7102,3247,6,-905,1122,564,1,7,11
1.72313E+12,-7110,3455,36,-1136,1130,578,1,7,11
1.72313E+12,-7131,3429,24,-1051,1111,570,1,7,11
1.72313E+12,-7137,3412,15,-693,1051,546,1,7,11
1.72313E+12,-7152,3417,15,-807,731,248,1,7,11
1.72313E+12,-7149,3209,3,-419,892,210,1,7,11
1.72313E+12,-7144,3246,7,-601,793,160,1,7,11
1.72313E+12,-7151,3283,25,-539,429,368,1,7,11
1.72313E+12,-7138,3322,17,-229,572,334,1,7,11
1.72313E+12,-7112,3592,30,-199,226,292,1,7,11
1.72313E+12,-7071,3598,44,-164,176,-22,1,7,11
1.72313E+12,-7059,3612,53,-142,169,-121,1,7,11
1.72313E+12,-7075,3617,74,-135,175,19,1,7,11
1.72313E+12,-7094,3645,77,-376,170,-346,1,7,11
1.72313E+12,-7071,3650,80,-150,164,-180,1,7,11
1.72313E+12,-7049,3651,92,-186,204,-527,1,7,11
1.72313E+12,-7046,3666,95,-208,517,-593,1,7,11
1.72313E+12,-7243,3464,83,-195,621,-579,1,7,11
1.72313E+12,-7209,3866,42,-165,464,-234,1,7,11
1.72313E+12,-6874,3786,0,-216,819,-297,1,7,11
1.72313E+12,-6860,4002,-314,-577,713,-38,1,7,11
1.72313E+12,-6892,4446,-361,-820,1104,518,1,7,11
1.72313E+12,-7212,4276,-305,-928,929,804,1,7,11
1.72313E+12,-7061,4287,65,-1547,925,757,1,7,11
1.72313E+12,-7097,4450,-39,-1881,755,1136,1,7,11
1.72313E+12,-7268,4030,381,-2107,498,1130,1,7,11
1.72313E+12,-6852,4129,513,-1952,235,708,1,7,11
1.72313E+12,-6938,3780,601,-1964,291,392,1,7,11
1.72313E+12,-6581,3788,633,-1923,-76,-4,1,7,11
1.72313E+12,-6590,4147,607,-2131,-96,-141,1,7,11
1.72313E+12,-6931,4006,540,-2148,-65,-426,1,7,11
1.72313E+12,-6993,4015,526,-1996,-19,-806,1,7,11
1.72313E+12,-7001,4169,526,-2342,296,-792,1,7,11
1.72313E+12,-6972,3725,539,-2363,376,-428,1,7,11
1.72313E+12,-6980,3575,554,-1966,221,-549,1,7,11
1.72313E+12,-6975,3566,520,-1693,525,-358,1,7,11
1.72313E+12,-6922,3918,148,-1446,523,-128,1,7,11
1.72313E+12,-6600,3801,-64,-1578,249,356,1,7,11
1.72313E+12,-6705,4126,65,-1641,206,548,1,7,11
1.72313E+12,-6359,4141,-315,-1508,240,584,1,7,11
1.72313E+12,-6676,4096,-374,-1693,558,151,1,7,11
1.72313E+12,-6759,3966,-354,-1995,550,-362,1,7,11
1.72313E+12,-6599,3907,-333,-2046,567,-876,1,7,11
1.72313E+12,-6973,3843,-329,-2380,582,-1169,1,7,11
1.72313E+12,-6990,3706,-325,-2422,605,-1901,1,7,11
1.72313E+12,-6984,3612,-346,-2348,478,-2312,1,7,11
1.72313E+12,-6990,3251,-173,-1985,717,-2603,1,7,11
1.72313E+12,-6999,3365,-557,-2100,1315,-2514,1,7,11
1.72313E+12,-6813,2980,-432,-1701,1469,-2835,1,7,11
1.72313E+12,-6908,3104,-791,-1861,2105,-2525,1,7,11
1.72313E+12,-7113,2777,-893,-1529,2196,-2660,1,7,11
1.72313E+12,-7358,2923,-641,-1880,2628,-2220,1,7,11
1.72313E+12,-7613,2670,-790,-2100,2614,-2314,1,7,11
1.72313E+12,-8063,2021,-591,-2312,2353,-1984,1,7,11
1.72313E+12,-8229,1873,-161,-2334,1918,-2021,1,7,11
