timestamp,ax,ay,az,gx,gy,gz,Label1,Label2,Label3
1.72313E+12,-8200,-2169,986,-307,-431,-749,1,7,11
1.72313E+12,-7914,-1942,1008,-346,-487,-702,1,7,11
1.72313E+12,-7854,-1978,1296,-382,-781,-657,1,7,11
1.72313E+12,-7813,-2033,1327,-154,-787,-892,1,7,11
1.72313E+12,-8030,-2343,1367,-172,-785,-871,1,7,11
1.72313E+12,-8004,-2385,1396,-173,-511,-852,1,7,11
1.72313E+12,-7984,-2192,1183,-171,-490,-841,1,7,11
1.72313E+12,-7987,-2223,1230,-375,-445,-842,1,7,11
1.72313E+12,-7983,-2244,1255,-315,-407,-825,1,7,11
1.72313E+12,-7969,-2265,1264,-270,-639,-811,1,7,11
1.72313E+12,-7946,-2274,1271,31,-615,-810,1,7,11
1.72313E+12,-7959,-2271,1543,72,-571,-826,1,7,11
1.72313E+12,-7675,-2284,1603,-123,-231,-503,1,7,11
1.72313E+12,-7941,-2286,1614,115,-188,-471,1,7,11
1.72313E+12,-7962,-2293,1627,104,-140,-403,1,7,11
1.72313E+12,-7981,-2301,1626,91,-349,-560,1,7,11
1.72313E+12,-7995,-2566,1628,75,-307,-180,1,7,11
1.72313E+12,-7993,-2587,1644,48,-268,-297,1,7,11
1.72313E+12,-7994,-2625,1656,37,29,88,1,7,11
1.72313E+12,-7999,-2648,1426,48,53,-47,1,7,11
1.72313E+12,-7997,-2661,1430,63,53,324,1,7,11
1.72313E+12,-8041,-2643,1448,93,22,546,1,7,11
1.72313E+12,-8020,-2617,1456,113,-20,780,1,7,11
1.72313E+12,-8061,-2683,1796,-112,47,1046,1,7,11
1.72313E+12,-7965,-2654,1523,368,100,992,1,7,11
1.72313E+12,-7945,-2589,1515,577,275,1354,1,7,11
1.72313E+12,-7942,-2254,1483,781,168,1387,1,7,11
1.72313E+12,-7939,-2406,1441,680,533,1336,1,7,11
1.72313E+12,-7673,-2309,1660,1025,627,954,1,7,11
1.72313E+12,-7970,-1982,1423,1033,460,744,1,7,11
1.72313E+12,-8030,-2155,1430,1054,477,837,1,7,11
1.72313E+12,-8034,-2061,1635,1030,442,490,1,7,11
1.72313E+12,-8059,-1759,1615,660,448,617,1,7,11
1.72313E+12,-8046,-1680,1555,842,400,522,1,7,11
1.72313E+12,-7818,-1900,1538,401,639,375,1,7,11
1.72313E+12,-7910,-1894,1551,221,594,280,1,7,11
1.72313E+12,-7928,-1912,1544,343,523,-23,1,7,11
1.72313E+12,-7915,-1690,1274,-33,220,-88,1,7,11
1.72313E+12,-8195,-1729,1273,119,176,100,1,7,11
1.72313E+12,-7916,-1784,1547,48,349,53,1,7,11
1.72313E+12,-7916,-2068,1553,25,275,2,1,7,11
1.72313E+12,-7883,-2093,1538,4,-70,-294,1,7,11
1.72313E+12,-7860,-2127,1272,-267,-111,-320,1,7,11
1.72313E+12,-7865,-1929,1273,-263,-105,-315,1,7,11
1.72313E+12,-8058,-1966,1234,52,-114,-269,1,7,11
1.72313E+12,-8021,-2023,1215,119,-52,-259,1,7,11
1.72313E+12,-8003,-2326,1197,-27,272,-276,1,7,11
1.72313E+12,-8018,-2401,1218,372,361,-319,1,7,11
1.72313E+12,-8043,-2232,1255,574,187,-360,1,7,11
1.72313E+12,-8032,-2592,1236,879,250,-381,1,7,11
1.72313E+12,-7996,-2669,1210,1285,588,-152,1,7,11
1.72313E+12,-7977,-2489,1195,1487,448,-191,1,7,11
1.72313E+12,-7956,-2501,1173,1986,830,-219,1,7,11
1.72313E+12,-7666,-2506,1403,2498,703,-236,1,7,11
1.72313E+12,-7948,-2499,1393,2985,1123,-526,1,7,11
1.72313E+12,-8009,-2662,1347,3477,997,-238,1,7,11
1.72313E+12,-8003,-2562,1023,4170,1317,-350,1,7,11
1.72313E+12,-8019,-2255,997,4252,1154,-312,1,7,11
1.72313E+12,-7825,-2180,1012,4731,1226,31,1,7,11
1.72313E+12,-7928,-2177,1301,4914,1253,-109,1,7,11
1.72313E+12,-7890,-2193,1343,4851,1158,141,1,7,11
1.72313E+12,-7854,-2274,1167,5106,1363,224,1,7,11
1.72313E+12,-7883,-2285,1204,5677,1372,559,1,7,11
1.72313E+12,-7850,-2219,1204,5766,1366,421,1,7,11
1.72313E+12,-7845,-2362,1185,6082,1156,495,1,7,11
1.72313E+12,-8039,-1934,1378,6343,1204,843,1,7,11
1.72313E+12,-7997,-1762,1346,6699,1573,857,1,7,11
1.72313E+12,-8021,-1845,1346,6695,1456,861,1,7,11
1.72313E+12,-8016,-1612,1309,6359,1825,888,1,7,11
1.72313E+12,-7995,-1338,987,6123,1907,877,1,7,11
1.72313E+12,-7975,-1126,998,5890,1712,511,1,7,11
1.72313E+12,-7987,-742,1295,5040,1756,600,1,7,11
1.72313E+12,-7811,-643,1336,4673,2053,143,1,7,11
1.72313E+12,-7904,-816,1338,3779,1757,-17,1,7,11
1.72313E+12,-8263,-770,1306,3328,1900,56,1,7,11
1.72313E+12,-8179,-475,1008,2578,1465,-368,1,7,11
1.72313E+12,-8323,-482,956,1509,1168,-213,1,7,11
1.72313E+12,-8732,-803,945,663,1042,-529,1,7,11
1.72313E+12,-8645,-698,1280,63,579,-560,1,7,11
1.72313E+12,-9027,-1145,1401,-886,33,-229,1,7,11
1.72313E+12,-9056,-1305,1555,-1164,-798,-346,1,7,11
1.72313E+12,-9017,-1297,1623,-1803,-1344,83,1,7,11
1.72313E+12,-8717,-1647,1642,-1724,-1861,307,1,7,11
1.72313E+12,-8139,-1470,1652,-1781,-2315,240,1,7,11
1.72313E+12,-7920,-1804,1462,-1777,-2295,231,1,7,11
1.72313E+12,-8055,-1712,1875,-1740,-2455,200,1,7,11
1.72313E+12,-7722,-2128,1767,-1890,-2541,324,1,7,11
1.72313E+12,-7413,-1967,2143,-1600,-2624,18,1,7,11
1.72313E+12,-7541,-2010,1928,-981,-2265,-340,1,7,11
1.72313E+12,-7139,-2009,2162,-647,-2046,-217,1,7,11
1.72313E+12,-7446,-2001,1947,-575,-1891,-392,1,7,11
1.72313E+12,-7371,-1976,2317,-146,-1215,-435,1,7,11
1.72313E+12,-7718,-2144,2367,88,-923,-517,1,7,11
1.72313E+12,-7765,-1787,2393,287,-655,-296,1,7,11
1.72313E+12,-7799,-1692,2416,208,-403,-76,1,7,11
1.72313E+12,-7579,-1817,2417,399,-151,380,1,7,11
1.72313E+12,-7639,-1622,2357,874,120,563,1,7,11
1.72313E+12,-7971,-1355,1942,1024,379,485,1,7,11
1.72313E+12,-7822,-1122,1791,698,618,859,1,7,11
1.72313E+12,-8243,-656,1687,477,808,688,1,7,11
1.72313E+12,-8181,-507,1846,358,867,748,1,7,11
1.72313E+12,-8527,-506,1830,-329,839,759,1,7,11
1.72313E+12,-8570,-802,1528,-440,414,718,1,7,11
1.72313E+12,-8542,-864,1471,-918,513,882,1,7,11
1.72313E+12,-8480,-726,1459,-1241,367,435,1,7,11
1.72313E+12,-8190,-1131,1450,-1473,-3,195,1,7,11
1.72313E+12,-8140,-1293,1444,-1900,-105,-71,1,7,11
1.72313E+12,-8131,-1205,1490,-1735,62,-325,1,7,11
1.72313E+12,-8312,-1616,1807,-1731,-320,-253,1,7,11
1.72313E+12,-8208,-1477,1841,-1859,-143,-392,1,7,11
1.72313E+12,-7857,-1799,1851,-1420,-151,-486,1,7,11
1.72313E+12,-8040,-1858,1872,-1244,-130,-785,1,7,11
1.72313E+12,-7611,-1905,1458,-1317,-320,-822,1,7,11
1.72313E+12,-8277,-1761,1774,-1837,836,-1648,1,7,11
1.72313E+12,-8217,-1678,1747,-1321,18,-1082,1,7,11
1.72313E+12,-7599,-1909,1678,-974,92,-737,1,7,11
1.72313E+12,-7924,-1840,1715,-1104,133,-697,1,7,11
1.72313E+12,-8315,-1855,1683,-920,-333,-660,1,7,11
1.72313E+12,-7598,-1813,1839,-1100,-217,-636,1,7,11
1.72313E+12,-7858,-1892,1894,-986,-28,-845,1,7,11
1.72313E+12,-8055,-1918,1839,-1032,184,-544,1,7,11
1.72313E+12,-7850,-1883,1819,-820,920,-294,1,7,11
1.72313E+12,-7839,-1897,1533,-617,1441,515,1,7,11
1.72313E+12,-8222,-1846,1801,-154,2099,550,1,7,11
1.72313E+12,-7911,-1838,1505,-316,2204,739,1,7,11
1.72313E+12,-8114,-1862,1455,86,2853,709,1,7,11
1.72313E+12,-8390,-1718,1461,133,2579,807,1,7,11
1.72313E+12,-8534,-1493,1272,647,1535,1334,1,7,11
1.72313E+12,-8070,-1502,1173,1031,-364,1145,1,7,11
1.72313E+12,-8242,-1478,1210,734,-481,875,1,7,11
1.72313E+12,-7954,-1158,1241,-296,-815,336,1,7,11
1.72313E+12,-7353,-1389,1388,-781,307,-1111,1,7,11
1.72313E+12,-7388,-1225,1336,-1466,1104,-2716,1,7,11
1.72313E+12,-7421,-1576,1290,-2742,1654,-4751,1,7,11
1.72313E+12,-7577,-1848,1338,-4453,1835,-6888,1,7,11
1.72313E+12,-7841,-2084,1393,-5383,1890,-8087,1,7,11
1.72313E+12,-8234,-2412,1015,-5899,1815,-8245,1,7,11
1.72313E+12,-8102,-3151,705,-5320,837,163,1,7,11
1.72313E+12,-8258,-2726,647,-4844,254,2046,1,7,11
1.72313E+12,-7626,-2679,506,-4596,132,3524,1,7,11
1.72313E+12,-7726,-2629,407,-4482,495,4124,1,7,11
1.72313E+12,-7411,-2302,569,-4091,1398,3863,1,7,11
1.72313E+12,-7325,-2271,197,-3549,1945,3361,1,7,11
1.72313E+12,-7310,-2199,292,-3337,2969,2568,1,7,11
1.72313E+12,-7515,-2319,69,-3073,4078,1599,1,7,11
1.72313E+12,-7297,-1982,-166,-3139,5006,140,1,7,11
1.72313E+12,-7808,-1986,-410,-3319,5522,-684,1,7,11
1.72313E+12,-8285,-2343,-779,-4034,5463,-901,1,7,11
1.72313E+12,-8455,-2328,-750,-4752,4377,-209,1,7,11
1.72313E+12,-8307,-2170,-1120,-5583,3190,652,1,7,11
1.72313E+12,-8277,-2126,-939,-6741,2012,2149,1,7,11
1.72313E+12,-7865,-2052,-995,-7143,992,3064,1,7,11
1.72313E+12,-8040,-1707,-1012,-7305,-345,4256,1,7,11
1.72313E+12,-7648,-1835,-1021,-6740,-1091,4494,1,7,11
1.72313E+12,-7642,-1504,-969,-5326,-1622,4478,1,7,11
1.72313E+12,-7757,-1639,-915,-3746,-1733,3522,1,7,11
1.72313E+12,-7737,-1656,-1130,-2122,-2053,2561,1,7,11
1.72313E+12,-7421,-1558,-744,272,-1678,1052,1,7,11
1.72313E+12,-7709,-1229,-764,2325,-1421,-815,1,7,11
1.72313E+12,-7791,-1320,-720,3808,-1621,-2215,1,7,11
1.72313E+12,-7973,-1466,-772,5292,-2344,-3921,1,7,11
1.72313E+12,-8258,-1495,-409,6629,-3032,-4501,1,7,11
1.72313E+12,-9345,-1831,256,7696,-3878,-4886,1,7,11
1.72313E+12,-9240,-1631,-802,8157,-7282,-3853,1,7,11
1.72313E+12,-8219,-1623,-545,7583,-7640,-1972,1,7,11
1.72313E+12,-8211,-1182,-427,6099,-6497,-1281,1,7,11
1.72313E+12,-7707,-1217,88,4314,-4056,-514,1,7,11
1.72313E+12,-7664,-1821,244,2022,-2620,-237,1,7,11
1.72313E+12,-7864,-2081,670,506,-866,-579,1,7,11
1.72313E+12,-7828,-1980,1104,437,273,-228,1,7,11
1.72313E+12,-7883,-1968,1062,757,552,81,1,7,11
1.72313E+12,-8455,-2872,976,2322,-692,-719,1,7,11
1.72313E+12,-8560,-2351,772,3317,-2943,-1609,1,7,11
1.72313E+12,-7884,-1763,637,3131,-3259,-946,1,7,11
1.72313E+12,-7622,-1433,384,1635,-2491,-1109,1,7,11
1.72313E+12,-7712,-1592,433,-557,-937,-949,1,7,11
1.72313E+12,-7739,-1483,834,-2422,353,-1583,1,7,11
1.72313E+12,-7599,-2106,755,-3213,729,-1952,1,7,11
1.72313E+12,-7603,-1781,-80,-10423,4355,-226,1,7,11
1.72313E+12,-8298,-2053,262,-13009,3868,769,1,7,11
1.72313E+12,-8164,-1978,258,-14635,2919,2535,1,7,11
1.72313E+12,-8296,-1995,-86,-14376,2247,4752,1,7,11
1.72313E+12,-7919,-2012,102,-12591,2429,5771,1,7,11
1.72313E+12,-7845,-2160,-291,-9507,2473,5735,1,7,11
1.72313E+12,-7921,-1785,-165,-5730,2737,4425,1,7,11
1.72313E+12,-8269,-1866,-604,-1734,3017,2906,1,7,11
1.72313E+12,-8278,-1638,-799,1373,3685,1430,1,7,11
1.72313E+12,-8319,-1256,-649,3318,3681,282,1,7,11
1.72313E+12,-8132,-1224,-1083,4899,2982,-835,1,7,11
1.72313E+12,-8195,-1220,-913,5066,1516,-1294,1,7,11
1.72313E+12,-7954,-1219,-982,4973,227,-1198,1,7,11
1.72313E+12,-7658,-1614,-953,4203,-323,-1069,1,7,11
1.72313E+12,-7920,-1691,-701,3788,-1261,-616,1,7,11
1.72313E+12,-8449,-2143,-484,4400,-3245,-402,1,7,11
1.72313E+12,-7955,-2223,-522,5593,-6094,-1157,1,7,11
1.72313E+12,-7674,-1428,-1107,6424,-5599,-1498,1,7,11
1.72313E+12,-8042,-1468,-798,5072,-4695,-1247,1,7,11
1.72313E+12,-7896,-1451,-570,4467,-3553,-1376,1,7,11
1.72313E+12,-7920,-1478,-183,3625,-3151,-1289,1,7,11
1.72313E+12,-8218,-1793,-122,2890,-2644,-935,1,7,11
1.72313E+12,-8234,-1909,291,2306,-2308,-1114,1,7,11
1.72313E+12,-8228,-1708,146,1899,-2101,-1103,1,7,11
1.72313E+12,-8223,-1733,244,1587,-1736,-1097,1,7,11
1.72313E+12,-8204,-2057,562,1392,-1678,-1106,1,7,11
1.72313E+12,-7919,-2151,615,1281,-1884,-1123,1,7,11
1.72313E+12,-7881,-2103,600,1000,-1828,-1143,1,7,11
1.72313E+12,-7974,-2160,440,1007,-1421,-1117,1,7,11
1.72313E+12,-7871,-2066,610,1362,-1625,-743,1,7,11
1.72313E+12,-7918,-2050,612,1390,-1205,-671,1,7,11
1.72313E+12,-7910,-2052,625,1392,-989,-892,1,7,11
1.72313E+12,-8203,-2084,415,1397,-1127,-896,1,7,11
1.72313E+12,-8240,-2158,798,1393,-1093,-653,1,7,11
1.72313E+12,-8222,-2145,870,1241,-960,-733,1,7,11
1.72313E+12,-7922,-2092,668,1542,-1355,-1041,1,7,11
1.72313E+12,-7831,-2067,746,1198,-1195,-1045,1,7,11
1.72313E+12,-8005,-2156,953,990,-1242,-1041,1,7,11
1.72313E+12,-7623,-2414,1548,759,-1577,-1081,1,7,11
1.72313E+12,-7748,-2686,1891,684,-1455,-939,1,7,11
1.72313E+12,-7418,-2861,2087,1058,-1523,-1347,1,7,11
1.72313E+12,-7399,-2905,1942,987,-1529,-1214,1,7,11
1.72313E+12,-7397,-2867,1944,1388,-1489,-1259,1,7,11
1.72313E+12,-7406,-2488,2082,1168,-1622,-1178,1,7,11
1.72313E+12,-7682,-2657,1675,1005,-1172,-1016,1,7,11
1.72313E+12,-7405,-2687,1879,892,-947,-1097,1,7,11
1.72313E+12,-7356,-2827,1667,249,-733,-735,1,7,11
1.72313E+12,-7416,-2788,1786,-28,-772,-664,1,7,11
1.72313E+12,-7748,-2954,2136,-84,-410,-869,1,7,11
1.72313E+12,-7779,-3026,2175,267,-399,-867,1,7,11
1.72313E+12,-7776,-3022,2167,186,-415,-863,1,7,11
1.72313E+12,-7758,-2949,2121,597,-415,-849,1,7,11
1.72313E+12,-7784,-3148,2112,456,-396,-832,1,7,11
1.72313E+12,-7807,-2815,2089,499,-387,-512,1,7,11
1.72313E+12,-7558,-2791,2110,768,-636,-406,1,7,11
1.72313E+12,-7706,-2794,2079,501,-608,-218,1,7,11
1.72313E+12,-7699,-2799,2107,466,-560,-166,1,7,11
1.72313E+12,-7733,-3096,1925,422,-247,-354,1,7,11
1.72313E+12,-7721,-3083,1948,461,-222,-281,1,7,11
1.72313E+12,-7696,-2774,1964,491,-167,24,1,7,11
1.72313E+12,-7694,-2735,1989,483,-368,53,1,7,11
1.72313E+12,-7423,-2732,2045,465,-336,53,1,7,11
1.72313E+12,-7384,-2745,2328,464,-337,21,1,7,11
1.72313E+12,-7350,-2745,2353,511,-307,-336,1,7,11
1.72313E+12,-7387,-2703,2345,780,1,-137,1,7,11
1.72313E+12,-7417,-2921,2340,495,43,-154,1,7,11
1.72313E+12,-7719,-2887,2322,427,97,-137,1,7,11
1.72313E+12,-7787,-2894,2333,583,-124,-349,1,7,11
1.72313E+12,-7589,-2900,2347,234,127,-291,1,7,11
1.72313E+12,-7644,-2915,2367,157,82,30,1,7,11
1.72313E+12,-7650,-2918,2386,347,4,101,1,7,11
1.72313E+12,-7649,-2915,2427,304,-324,-92,1,7,11
1.72313E+12,-7624,-2919,2186,288,-161,-27,1,7,11
1.72313E+12,-7572,-2900,2178,292,-231,279,1,7,11
1.72313E+12,-7566,-2899,2189,277,-231,328,1,7,11
1.72313E+12,-7558,-2901,2225,263,-219,129,1,7,11
1.72313E+12,-7795,-2889,2269,280,-183,176,1,7,11
1.72313E+12,-7765,-2862,2566,314,-130,206,1,7,11
1.72313E+12,-7708,-2847,2588,328,-339,206,1,7,11
1.72313E+12,-7380,-2558,2584,333,-283,162,1,7,11
1.72313E+12,-7354,-2483,2292,319,71,335,1,7,11
1.72313E+12,-7363,-2647,2256,-29,-69,-6,1,7,11
1.72313E+12,-7394,-2602,2270,44,304,-98,1,7,11
1.72313E+12,-7414,-2587,2272,-162,130,73,1,7,11
1.72313E+12,-7721,-2624,2297,-620,209,6,1,7,11
1.72313E+12,-7758,-2437,2301,-773,245,-304,1,7,11
1.72313E+12,-7558,-2556,2562,-885,517,-348,1,7,11
1.72313E+12,-7589,-2921,2282,-654,223,-384,1,7,11
1.72313E+12,-7605,-2771,2258,-888,178,-148,1,7,11
1.72313E+12,-7612,-3091,2216,-790,378,-153,1,7,11
1.72313E+12,-7602,-3148,2179,-413,334,-383,1,7,11
1.72313E+12,-7596,-3190,2420,-519,306,-336,1,7,11
1.72313E+12,-7586,-2966,2423,-347,287,-276,1,7,11
1.72313E+12,-7571,-2952,2409,89,273,23,1,7,11
1.72313E+12,-7560,-3175,2401,-20,260,36,1,7,11
1.72313E+12,-7556,-3113,2403,351,-15,29,1,7,11
1.72313E+12,-7556,-2785,2400,168,-44,4,1,7,11
1.72313E+12,-7808,-2730,2397,195,-79,-274,1,7,11
1.72313E+12,-7801,-2935,2386,181,-114,-297,1,7,11
1.72313E+12,-7553,-2913,2390,140,111,-310,1,7,11
1.72313E+12,-7806,-2886,2398,351,83,-308,1,7,11
1.72313E+12,-7555,-2882,2427,287,61,-294,1,7,11
1.72313E+12,-7780,-2888,2182,-17,24,-257,1,7,11
1.72313E+12,-7736,-2908,2178,-72,15,31,1,7,11
1.72313E+12,-7712,-2921,2188,120,23,46,1,7,11
1.72313E+12,-7731,-2692,2227,54,38,61,1,7,11
1.72313E+12,-7733,-2699,2254,23,32,95,1,7,11
1.72313E+12,-7712,-2713,2224,-260,16,-120,1,7,11
1.72313E+12,-7423,-2708,2199,-294,13,-91,1,7,11
1.72313E+12,-7685,-2710,2190,-335,34,-86,1,7,11
1.72313E+12,-7728,-2715,2190,-381,64,-64,1,7,11
1.72313E+12,-7771,-2712,2204,-146,102,-23,1,7,11
1.72313E+12,-7555,-2714,2248,-154,121,302,1,7,11
1.72313E+12,-7765,-2726,2281,-373,108,374,1,7,11
1.72313E+12,-7750,-2733,2283,-331,109,152,1,7,11
1.72313E+12,-7761,-2710,2281,-284,126,381,1,7,11
1.72313E+12,-7761,-2919,2276,33,-115,343,1,7,11
1.72313E+12,-7768,-2875,2269,97,-94,306,1,7,11
1.72313E+12,-7780,-2832,2269,116,-64,284,1,7,11
1.72313E+12,-7778,-2542,2269,119,-50,266,1,7,11
1.72313E+12,-7782,-2519,2265,-128,-38,-13,1,7,11
1.72313E+12,-7784,-2505,2263,120,-42,-38,1,7,11
1.72313E+12,-7791,-2494,2267,106,-56,-63,1,7,11
1.72313E+12,-7797,-2493,2257,89,-68,-70,1,7,11
1.72313E+12,-7803,-2486,2243,76,-72,-64,1,7,11
1.72313E+12,-7799,-2489,2242,49,-65,-54,1,7,11
1.72313E+12,-7795,-2500,2246,25,-57,-49,1,7,11
1.72313E+12,-7803,-2509,2266,12,-33,-45,1,7,11
1.72313E+12,-7557,-2513,2276,35,-12,-40,1,7,11
1.72313E+12,-7574,-2500,2269,68,266,-38,1,7,11
1.72313E+12,-7571,-2488,2262,87,274,-32,1,7,11
1.72313E+12,-7597,-2490,2269,83,277,-34,1,7,11
1.72313E+12,-7606,-2492,2269,78,-2,-39,1,7,11
1.72313E+12,-7602,-2489,2260,60,-44,-56,1,7,11
1.72313E+12,-7579,-2473,2231,34,-89,-77,1,7,11
1.72313E+12,-7559,-2467,2203,-268,-117,-100,1,7,11
1.72313E+12,-7556,-2473,2199,-325,127,-118,1,7,11
1.72313E+12,-7801,-2475,2185,-356,108,-126,1,7,11
1.72313E+12,-7793,-2496,2429,-138,107,-127,1,7,11
1.72313E+12,-7794,-2518,2424,-141,109,-128,1,7,11
1.72313E+12,-7568,-2519,2181,-374,-120,-126,1,7,11
1.72313E+12,-7602,-2504,2196,-326,-103,-86,1,7,11
1.72313E+12,-7649,-2497,2227,4,-95,259,1,7,11
1.72313E+12,-7672,-2531,2253,103,-107,354,1,7,11
1.72313E+12,-7657,-2542,2256,-14,-123,372,1,7,11
1.72313E+12,-7637,-2522,2266,131,-128,320,1,7,11
1.72313E+12,-7620,-2510,2285,253,-113,-25,1,7,11
1.72313E+12,-7601,-2487,2568,606,-104,127,1,7,11
1.72313E+12,-7580,-2452,2582,411,-99,37,1,7,11
1.72313E+12,-7807,-2660,2579,442,-89,-291,1,7,11
1.72313E+12,-7784,-2616,2577,429,-53,-326,1,7,11
1.72313E+12,-7768,-2589,2560,628,-3,-334,1,7,11
1.72313E+12,-7766,-2578,2302,538,306,-325,1,7,11
1.72313E+12,-7774,-2572,2560,186,340,-327,1,7,11
1.72313E+12,-7774,-2301,2283,347,354,-318,1,7,11
1.72313E+12,-7782,-2571,2271,-34,364,-284,1,7,11
1.72313E+12,-7568,-2589,2249,-119,130,-258,1,7,11
1.72313E+12,-7572,-2598,2236,59,378,21,1,7,11
1.72313E+12,-7596,-2643,2242,-286,375,27,1,7,11
1.72313E+12,-7635,-2682,2260,-354,356,21,1,7,11
1.72313E+12,-7670,-2460,2280,-131,314,8,1,7,11
1.72313E+12,-7669,-2473,2286,-384,-7,3,1,7,11
1.72313E+12,-7665,-2502,2300,-357,-61,1,1,7,11
1.72313E+12,-7623,-2513,2565,-317,-105,-258,1,7,11
1.72313E+12,-7599,-2518,2564,-265,115,-278,1,7,11
1.72313E+12,-7579,-2516,2570,31,85,-319,1,7,11
1.72313E+12,-7558,-2501,2565,70,58,-343,1,7,11
1.72313E+12,-7792,-2484,2297,96,58,-357,1,7,11
1.72313E+12,-7791,-2472,2560,84,82,-363,1,7,11
1.72313E+12,-7790,-2462,2565,69,97,-368,1,7,11
1.72313E+12,-7801,-2455,2570,52,108,-365,1,7,11
1.72313E+12,-7554,-2457,2585,33,120,-352,1,7,11
1.72313E+12,-7793,-2453,2589,26,115,-340,1,7,11
1.72313E+12,-7803,-2451,2597,4,122,-324,1,7,11
1.72313E+12,-7553,-2469,2607,-280,125,-285,1,7,11
1.72313E+12,-7772,-2474,2583,-300,114,0,1,7,11
1.72313E+12,-7747,-2478,2566,-334,-117,27,1,7,11
1.72313E+12,-7754,-2479,2287,-367,-84,48,1,7,11
1.72313E+12,-7787,-2486,2293,-154,-48,73,1,7,11
1.72313E+12,-7572,-2482,2567,-168,-16,118,1,7,11
1.72313E+12,-7613,-2479,2588,-148,-4,-61,1,7,11
1.72313E+12,-7615,-2471,2583,-366,-1,285,1,7,11
1.72313E+12,-7607,-2458,2565,-322,263,365,1,7,11
1.72313E+12,-7595,-2448,2296,-297,278,159,1,7,11
1.72313E+12,-7590,-2454,2284,-276,294,171,1,7,11
1.72313E+12,-7779,-2444,2275,4,296,380,1,7,11
1.72313E+12,-7805,-2451,2286,16,303,291,1,7,11
1.72313E+12,-7802,-2441,2266,27,314,-38,1,7,11
1.72313E+12,-7804,-2688,2232,24,324,112,1,7,11
1.72313E+12,-7772,-2436,2193,18,327,74,1,7,11
1.72313E+12,-7770,-2468,2176,-262,362,31,1,7,11
1.72313E+12,-7775,-2491,2423,-281,134,4,1,7,11
1.72313E+12,-7790,-2519,2427,-261,167,-268,1,7,11
1.72313E+12,-7561,-2535,2189,62,213,-265,1,7,11
1.72313E+12,-7600,-2532,2201,-84,512,5,1,7,11
1.72313E+12,-7637,-2523,2220,280,542,34,1,7,11
1.72313E+12,-7661,-2496,2233,380,554,78,1,7,11
1.72313E+12,-7657,-2480,2248,200,553,117,1,7,11
1.72313E+12,-7651,-2448,2264,514,528,126,1,7,11
1.72313E+12,-7629,-2676,2264,543,224,117,1,7,11
1.72313E+12,-7607,-2633,2246,545,169,90,1,7,11
1.72313E+12,-7572,-2594,2181,248,366,46,1,7,11
1.72313E+12,-7782,-2301,2360,151,315,-261,1,7,11
1.72313E+12,-7769,-2285,2032,-12,298,-321,1,7,11
1.72313E+12,-7563,-2283,1979,63,302,-357,1,7,11
1.72313E+12,-7628,-2276,1967,-368,299,-352,1,7,11
1.72313E+12,-7968,-2299,2003,-243,287,-294,1,7,11
1.72313E+12,-8027,-2582,2029,-560,-2,57,1,7,11
1.72313E+12,-7811,-2627,2341,-577,-45,-87,1,7,11
1.72313E+12,-7822,-2662,2399,-527,-113,261,1,7,11
1.72313E+12,-7815,-2660,2408,-176,59,307,1,7,11
1.72313E+12,-8017,-2644,2430,-325,-341,299,1,7,11
1.72313E+12,-7679,-2625,2423,-288,-166,-11,1,7,11
1.72313E+12,-7615,-2606,2176,-306,-191,-100,1,7,11
1.72313E+12,-7592,-2595,2223,-355,-183,52,1,7,11
1.72313E+12,-7572,-2594,2256,-135,-171,-286,1,7,11
1.72313E+12,-7792,-2593,2279,-150,-136,-341,1,7,11
1.72313E+12,-7768,-2604,2295,-173,-334,-379,1,7,11
1.72313E+12,-7749,-2618,2560,-190,-270,-155,1,7,11
1.72313E+12,-7748,-2629,2295,-201,62,-180,1,7,11
1.72313E+12,-7746,-2632,2251,-213,127,-193,1,7,11
1.72313E+12,-7783,-2624,2204,-248,-56,-202,1,7,11
1.72313E+12,-7601,-2640,2201,-575,262,-184,1,7,11
1.72313E+12,-7657,-2676,2228,-638,269,-144,1,7,11
1.72313E+12,-7657,-2459,2245,-406,-31,-347,1,7,11
1.72313E+12,-7635,-2497,2247,-403,-93,-316,1,7,11
1.72313E+12,-7598,-2527,2247,-389,80,-312,1,7,11
1.72313E+12,-7575,-2553,2257,-633,7,-325,1,7,11
1.72313E+12,-7555,-2821,2261,-615,-310,-331,1,7,11
1.72313E+12,-7774,-2560,2248,-606,-355,-328,1,7,11
1.72313E+12,-7735,-2827,2230,-609,-364,-326,1,7,11
1.72313E+12,-7704,-2834,2208,-608,-354,-316,1,7,11
1.72313E+12,-7683,-2831,2185,-599,-316,-306,1,7,11
1.72313E+12,-7709,-2841,2426,-596,9,-287,1,7,11
1.72313E+12,-7752,-2859,2430,-572,77,12,1,7,11
1.72313E+12,-7803,-2872,2177,-521,-127,79,1,7,11
1.72313E+12,-7588,-2885,2181,-176,-88,-93,1,7,11
1.72313E+12,-7581,-2881,2426,-336,-73,-23,1,7,11
1.72313E+12,-7570,-2879,2420,2,-59,266,1,7,11
1.72313E+12,-7566,-2872,2428,64,-55,259,1,7,11
1.72313E+12,-7807,-2868,2195,116,-67,-43,1,7,11
1.72313E+12,-7555,-2863,2239,-104,-89,-106,1,7,11
1.72313E+12,-7800,-2831,2275,-57,-124,88,1,7,11
1.72313E+12,-7786,-2534,2299,-24,100,37,1,7,11
1.72313E+12,-7784,-2479,2579,259,84,8,1,7,11
1.72313E+12,-7800,-2687,2611,262,88,6,1,7,11
1.72313E+12,-7805,-2604,2598,270,96,29,1,7,11
1.72313E+12,-7805,-2291,2560,-1,121,64,1,7,11
1.72313E+12,-7800,-2228,2246,-59,-97,101,1,7,11
1.72313E+12,-7806,-2179,2211,90,-58,-124,1,7,11
1.72313E+12,-7604,-2190,2233,-349,281,-117,1,7,11
1.72313E+12,-7655,-2236,2250,-612,292,-99,1,7,11
1.72313E+12,-7948,-2287,2248,-468,269,-94,1,7,11
1.72313E+12,-7945,-2598,2212,-795,-40,-102,1,7,11
1.72313E+12,-7670,-2641,2412,-859,-100,119,1,7,11
1.72313E+12,-7633,-2434,2363,-667,93,63,1,7,11
1.72313E+12,-7603,-2500,2328,-718,47,0,1,7,11
1.72313E+12,-7581,-2841,2329,-739,18,-324,1,7,11
1.72313E+12,-7568,-2923,2352,-705,-257,-383,1,7,11
1.72313E+12,-7567,-2734,2388,-857,-277,-167,1,7,11
1.72313E+12,-7562,-2776,2426,-449,-294,-188,1,7,11
1.72313E+12,-7561,-2796,2212,-524,-301,-188,1,7,11
1.72313E+12,-7796,-2795,2246,-329,-307,-169,1,7,11
1.72313E+12,-7762,-2779,2274,123,-303,-140,1,7,11
1.72313E+12,-7706,-2742,2268,293,-285,-375,1,7,11
1.72313E+12,-7419,-2702,2265,161,21,-376,1,7,11
1.72313E+12,-7414,-2914,2275,231,84,-129,1,7,11
1.72313E+12,-7686,-2882,2283,513,-123,-136,1,7,11
1.72313E+12,-7704,-2843,2284,515,-81,-138,1,7,11
1.72313E+12,-7726,-2551,2288,236,-56,-384,1,7,11
1.72313E+12,-7746,-2520,2265,191,-43,-360,1,7,11
1.72313E+12,-7754,-2498,2262,369,-42,-321,1,7,11
1.72313E+12,-7759,-2481,2238,281,-33,-286,1,7,11
1.72313E+12,-7790,-2483,2224,-71,-25,8,1,7,11
1.72313E+12,-7555,-2494,2218,94,-37,46,1,7,11
1.72313E+12,-7575,-2517,2223,2,-51,80,1,7,11
1.72313E+12,-7593,-2558,2244,-316,-66,112,1,7,11
1.72313E+12,-7596,-2852,2269,-339,-86,-116,1,7,11
1.72313E+12,-7585,-2881,2277,-326,-110,-93,1,7,11
1.72313E+12,-7802,-2899,2274,-286,120,-87,1,7,11
1.72313E+12,-7779,-2907,2282,11,118,-113,1,7,11
1.72313E+12,-7774,-2913,2285,53,-127,106,1,7,11
1.72313E+12,-7771,-2892,2562,108,-112,73,1,7,11
1.72313E+12,-7762,-2882,2566,-88,-94,46,1,7,11
1.72313E+12,-7751,-2848,2301,-31,-59,28,1,7,11
1.72313E+12,-7747,-2823,2293,273,-18,22,1,7,11
1.72313E+12,-7745,-2549,2286,301,267,22,1,7,11
1.72313E+12,-7753,-2534,2280,307,282,25,1,7,11
1.72313E+12,-7787,-2514,2286,288,299,22,1,7,11
1.72313E+12,-7558,-2492,2300,257,296,35,1,7,11
1.72313E+12,-7561,-2489,2563,-58,-7,56,1,7,11
1.72313E+12,-7553,-2498,2578,-108,-43,83,1,7,11
1.72313E+12,-7803,-2508,2601,100,-69,92,1,7,11
1.72313E+12,-7802,-2525,2620,76,-99,89,1,7,11
1.72313E+12,-7795,-2532,2621,70,-119,79,1,7,11
1.72313E+12,-7794,-2535,2624,63,-122,67,1,7,11
1.72313E+12,-7799,-2530,2621,61,-111,60,1,7,11
1.72313E+12,-7801,-2522,2620,61,-81,56,1,7,11
1.72313E+12,-7802,-2514,2608,64,-53,60,1,7,11
1.72313E+12,-7560,-2503,2588,56,-18,53,1,7,11
1.72313E+12,-7589,-2500,2596,30,272,49,1,7,11
1.72313E+12,-7620,-2512,2617,12,281,48,1,7,11
1.72313E+12,-7612,-2521,2627,17,256,42,1,7,11
1.72313E+12,-7592,-2540,2632,8,-33,16,1,7,11
1.72313E+12,-7554,-2554,2629,4,-83,-285,1,7,11
1.72313E+12,-7763,-2826,2636,-268,-125,-342,1,7,11
1.72313E+12,-7724,-2832,2637,-278,105,-145,1,7,11
1.72313E+12,-7690,-2848,2643,-296,92,-184,1,7,11
1.72313E+12,-7401,-2865,2643,-310,90,-199,1,7,11
1.72313E+12,-7369,-2877,2626,-322,104,-201,1,7,11
1.72313E+12,-7357,-2877,2602,-329,-115,-190,1,7,11
1.72313E+12,-7369,-2883,2565,-340,-67,-159,1,7,11
1.72313E+12,-7398,-2887,2277,-365,-2,-370,1,7,11
1.72313E+12,-7703,-2909,2280,-381,320,-304,1,7,11
1.72313E+12,-7755,-2924,2270,-353,373,36,1,7,11
1.72313E+12,-7558,-2925,2261,-310,161,126,1,7,11
1.72313E+12,-7602,-2938,2266,-262,178,-44,1,7,11
1.72313E+12,-7617,-2695,2268,62,168,274,1,7,11
1.72313E+12,-7623,-2941,2270,-121,150,297,1,7,11
1.72313E+12,-7620,-2928,2273,-73,370,284,1,7,11
1.72313E+12,-7614,-2916,2301,-50,327,-12,1,7,11
1.72313E+12,-7589,-2897,2599,-29,275,-54,1,7,11
1.72313E+12,-7801,-2872,2614,-14,-29,-96,1,7,11
1.72313E+12,-7760,-2819,2617,-16,-67,120,1,7,11
1.72313E+12,-7724,-2535,2629,-48,-90,87,1,7,11
1.72313E+12,-7708,-2510,2620,-94,-104,77,1,7,11
1.72313E+12,-7679,-2495,2609,96,-101,94,1,7,11
1.72313E+12,-7374,-2483,2566,28,-66,-104,1,7,11
1.72313E+12,-7326,-2497,2250,-300,-38,-71,1,7,11
1.72313E+12,-7330,-2527,2201,-139,360,-51,1,7,11
1.72313E+12,-7376,-2552,2420,-243,224,-40,1,7,11
1.72313E+12,-7713,-2837,2406,-540,598,-11,1,7,11
1.72313E+12,-7777,-2879,2412,-514,429,298,1,7,11
1.72313E+12,-7796,-2932,2414,-177,470,360,1,7,11
1.72313E+12,-7807,-2699,2397,-296,495,135,1,7,11
1.72313E+12,-7573,-2705,2386,111,501,383,1,7,11
1.72313E+12,-7596,-2930,2316,274,485,359,1,7,11
1.72313E+12,-7625,-2861,2035,134,478,335,1,7,11
1.72313E+12,-7665,-2818,2030,244,471,340,1,7,11
1.72313E+12,-7672,-2535,2045,560,462,358,1,7,11
1.72313E+12,-7661,-2513,2311,625,444,364,1,7,11
1.72313E+12,-7648,-2473,2304,449,424,355,1,7,11
1.72313E+12,-7643,-2669,2023,506,424,341,1,7,11
1.72313E+12,-7653,-2604,1994,774,433,329,1,7,11
1.72313E+12,-7664,-2295,1973,487,448,323,1,7,11
1.72313E+12,-7937,-2255,1963,433,451,321,1,7,11
1.72313E+12,-7947,-2240,1972,617,435,319,1,7,11
1.72313E+12,-7943,-2228,1955,552,402,299,1,7,11
1.72313E+12,-7951,-2214,1946,223,613,261,1,7,11
1.72313E+12,-7961,-2204,1934,141,548,-45,1,7,11
1.72313E+12,-7975,-2199,2175,303,217,-87,1,7,11
1.72313E+12,-7986,-2190,2157,-53,140,-117,1,7,11
1.72313E+12,-8013,-2187,2146,94,325,-128,1,7,11
1.72313E+12,-8038,-2214,2167,-261,-12,-111,1,7,11
1.72313E+12,-8032,-2241,1929,-312,-105,-81,1,7,11
1.72313E+12,-8013,-2247,1945,-330,75,-38,1,7,11
1.72313E+12,-8016,-2257,1958,-322,43,263,1,7,11
1.72313E+12,-8010,-2249,1961,-293,23,298,1,7,11
1.72313E+12,-7994,-2243,1956,-260,18,315,1,7,11
1.72313E+12,-8003,-2232,1964,37,35,296,1,7,11
1.72313E+12,-8003,-2239,1972,70,44,268,1,7,11
1.72313E+12,-7993,-2235,1972,117,46,-22,1,7,11
1.72313E+12,-7971,-2220,1964,-95,50,-69,1,7,11
1.72313E+12,-7957,-2203,1960,-72,61,-121,1,7,11
1.72313E+12,-7977,-2204,1979,-64,81,85,1,7,11
1.72313E+12,-7976,-2196,2007,-59,73,42,1,7,11
1.72313E+12,-7946,-2188,2016,-43,56,1,1,7,11
1.72313E+12,-7948,-2182,2037,-36,60,-284,1,7,11
1.72313E+12,-7943,-2432,2305,-36,54,-296,1,7,11
1.72313E+12,-7677,-2430,2327,-62,47,-309,1,7,11
1.72313E+12,-7670,-2177,2342,-103,36,-320,1,7,11
1.72313E+12,-7680,-2192,2356,114,21,-333,1,7,11
1.72313E+12,-7954,-2189,2350,91,5,-347,1,7,11
1.72313E+12,-7972,-2428,2336,57,-279,-351,1,7,11
1.72313E+12,-7972,-2423,2322,-260,-314,-338,1,7,11
1.72313E+12,-7961,-2187,2322,-339,-348,-318,1,7,11
1.72313E+12,-7937,-2225,2338,-154,-376,-306,1,7,11
1.72313E+12,-7646,-2267,2350,-197,-137,-310,1,7,11
1.72313E+12,-7656,-2287,2363,-204,-369,-323,1,7,11
1.72313E+12,-7654,-2566,2377,-212,-376,-321,1,7,11
1.72313E+12,-7650,-2584,2379,-214,-382,-317,1,7,11
1.72313E+12,-7629,-2603,2376,-223,-375,-299,1,7,11
1.72313E+12,-7618,-2649,2400,-234,-356,-283,1,7,11
1.72313E+12,-7600,-2440,2407,-217,-346,-283,1,7,11
1.72313E+12,-7567,-2473,2411,-177,-332,-295,1,7,11
1.72313E+12,-7796,-2506,2426,-146,-300,-325,1,7,11
1.72313E+12,-7784,-2536,2208,-354,-258,-353,1,7,11
1.72313E+12,-7767,-2547,2230,-281,45,-380,1,7,11
1.72313E+12,-7742,-2542,2249,52,90,-152,1,7,11
1.72313E+12,-7706,-2819,2302,95,120,-184,1,7,11
1.72313E+12,-7406,-2832,2604,-104,-122,-226,1,7,11
1.72313E+12,-7384,-2556,2644,-45,-103,-526,1,7,11
1.72313E+12,-7392,-2499,2657,257,-73,-560,1,7,11
1.72313E+12,-7681,-2687,2641,263,-40,-560,1,7,11
1.72313E+12,-7706,-2596,2573,-40,-14,-517,1,7,11
1.72313E+12,-7758,-2262,2252,98,277,-187,1,7,11
1.72313E+12,-7562,-2206,2425,-329,314,-339,1,7,11
1.72313E+12,-7631,-2188,2396,-515,357,38,1,7,11
1.72313E+12,-7947,-2209,2387,-431,380,-81,1,7,11
1.72313E+12,-7990,-2241,2367,-791,383,306,1,7,11
1.72313E+12,-7996,-2297,2358,-878,369,180,1,7,11
1.72313E+12,-7992,-2610,2355,-877,338,194,1,7,11
1.72313E+12,-7964,-2657,2330,-850,285,142,1,7,11
1.72313E+12,-7678,-2458,2329,-813,-20,295,1,7,11
1.72313E+12,-7656,-2494,2330,-482,-61,-91,1,7,11
1.72313E+12,-7663,-2502,2330,-637,-77,42,1,7,11
1.72313E+12,-7665,-2500,2318,-533,-101,-294,1,7,11
1.72313E+12,-7659,-2486,2029,-178,-113,-339,1,7,11
1.72313E+12,-7640,-2471,2006,-363,-117,-346,1,7,11
1.72313E+12,-7617,-2467,2000,-324,-107,-345,1,7,11
1.72313E+12,-7627,-2503,2047,-297,-84,-347,1,7,11
1.72313E+12,-7636,-2520,2345,34,-89,-343,1,7,11
1.72313E+12,-7617,-2527,2389,-125,-108,-337,1,7,11
1.72313E+12,-7581,-2507,2390,-16,-127,-330,1,7,11
1.72313E+12,-7796,-2483,2379,313,-125,-335,1,7,11
1.72313E+12,-7764,-2463,2358,343,-110,-359,1,7,11
1.72313E+12,-7763,-2449,2351,330,-84,-146,1,7,11
1.72313E+12,-7796,-2688,2349,297,-58,-184,1,7,11
1.72313E+12,-7578,-2666,2338,263,-44,-181,1,7,11
1.72313E+12,-7591,-2655,2343,-43,-46,-138,1,7,11
1.72313E+12,-7609,-2657,2352,-86,-38,-328,1,7,11
1.72313E+12,-7610,-2649,2341,-114,-29,4,1,7,11
1.72313E+12,-7611,-2648,2353,95,-2,66,1,7,11
1.72313E+12,-7610,-2660,2363,54,265,114,1,7,11
1.72313E+12,-7669,-2678,2384,7,-16,79,1,7,11
1.72313E+12,-7942,-2663,2371,-274,-49,73,1,7,11
1.72313E+12,-7943,-2657,2390,-317,-91,76,1,7,11
1.72313E+12,-7946,-2671,2419,-360,124,89,1,7,11
1.72313E+12,-7656,-2685,2424,-383,65,103,1,7,11
1.72313E+12,-7611,-2434,2423,-142,13,100,1,7,11
1.72313E+12,-7583,-2441,2428,-170,-270,78,1,7,11
1.72313E+12,-7558,-2448,2421,-190,-283,52,1,7,11
1.72313E+12,-7787,-2448,2397,-204,-292,44,1,7,11
1.72313E+12,-7727,-2458,2366,-228,-282,37,1,7,11
1.72313E+12,-7720,-2487,2372,-256,34,32,1,7,11
1.72313E+12,-7733,-2523,2398,-248,106,39,1,7,11
1.72313E+12,-7769,-2548,2415,-196,-69,73,1,7,11
1.72313E+12,-7777,-2828,2428,-358,-8,-123,1,7,11
1.72313E+12,-7775,-2828,2398,17,295,-68,1,7,11
1.72313E+12,-7802,-2519,2368,-124,341,-47,1,7,11
1.72313E+12,-7590,-2470,2333,-50,368,-57,1,7,11
1.72313E+12,-7616,-2438,2311,-9,368,-77,1,7,11
1.72313E+12,-7660,-2631,2317,-22,342,-89,1,7,11
1.72313E+12,-7675,-2620,2339,-64,302,-93,1,7,11
1.72313E+12,-7654,-2622,2351,-101,233,-85,1,7,11
1.72313E+12,-7633,-2620,2360,-105,-41,-98,1,7,11
1.72313E+12,-7622,-2604,2352,-91,-32,-118,1,7,11
1.72313E+12,-7625,-2579,2322,-89,-7,117,1,7,11
1.72313E+12,-7634,-2303,2037,-128,284,101,1,7,11
1.72313E+12,-7656,-2296,2024,66,325,82,1,7,11
1.72313E+12,-7979,-2570,2040,-262,354,67,1,7,11
1.72313E+12,-7992,-2583,2316,-299,343,84,1,7,11
1.72313E+12,-8021,-2594,2345,-319,319,94,1,7,11
1.72313E+12,-8023,-2605,2382,-320,250,107,1,7,11
1.72313E+12,-8017,-2605,2394,-282,-73,120,1,7,11
1.72313E+12,-7955,-2600,2378,-264,100,120,1,7,11
1.72313E+12,-7634,-2603,2369,-290,39,73,1,7,11
1.72313E+12,-7590,-2617,2367,-348,-265,1,1,7,11
1.72313E+12,-7805,-2635,2348,-146,-306,-315,1,7,11
1.72313E+12,-7755,-2663,2329,-212,-328,-363,1,7,11
1.72313E+12,-7715,-2440,2043,-538,-318,-142,1,7,11
1.72313E+12,-7702,-2482,2036,-594,-267,-156,1,7,11
1.72313E+12,-7727,-2528,2314,-610,71,-145,1,7,11
1.72313E+12,-7772,-2827,2355,-555,-91,-353,1,7,11
1.72313E+12,-7559,-2856,2391,-191,-18,-275,1,7,11
1.72313E+12,-7600,-2877,2176,-288,297,54,1,7,11
1.72313E+12,-7637,-2869,2192,-102,331,105,1,7,11
1.72313E+12,-7659,-2822,2181,335,329,-119,1,7,11
1.72313E+12,-7937,-2499,2428,207,307,-118,1,7,11
1.72313E+12,-7941,-2684,2412,525,-4,-126,1,7,11
1.72313E+12,-7668,-2619,2388,523,-63,108,1,7,11
1.72313E+12,-7659,-2569,2376,197,-111,73,1,7,11
1.72313E+12,-7631,-2271,2370,347,95,50,1,7,11
1.72313E+12,-7595,-2247,2364,-36,67,29,1,7,11
1.72313E+12,-7574,-2247,2371,75,69,11,1,7,11
1.72313E+12,-7570,-2268,2379,-311,105,-257,1,7,11
1.72313E+12,-7577,-2292,2370,-155,-113,3,1,7,11
1.72313E+12,-7572,-2590,2354,-228,-85,14,1,7,11
1.72313E+12,-7561,-2637,2337,-537,-54,11,1,7,11
1.72313E+12,-7577,-2465,2352,-568,-7,-277,1,7,11
1.72313E+12,-7619,-2488,2359,-565,284,-314,1,7,11
1.72313E+12,-7659,-2526,2368,-516,284,-325,1,7,11
1.72313E+12,-7679,-2546,2395,-200,266,-328,1,7,11
1.72313E+12,-7960,-2554,2176,-365,-27,-309,1,7,11
1.72313E+12,-7679,-2541,2430,2,-90,-270,1,7,11
1.72313E+12,-7645,-2510,2431,85,125,3,1,7,11
1.72313E+12,-7624,-2457,2409,-121,102,9,1,7,11
1.72313E+12,-7594,-2663,2373,-91,89,22,1,7,11
1.72313E+12,-7568,-2628,2337,-110,92,40,1,7,11
1.72313E+12,-7557,-2628,2316,65,111,37,1,7,11
1.72313E+12,-7562,-2638,2318,-288,-116,20,1,7,11
1.72313E+12,-7579,-2662,2343,-139,-91,10,1,7,11
1.72313E+12,-7587,-2438,2349,-161,-91,24,1,7,11
1.72313E+12,-7572,-2468,2350,-169,-91,28,1,7,11
1.72313E+12,-7573,-2506,2359,-161,-81,16,1,7,11
1.72313E+12,-7577,-2546,2362,-140,-85,-259,1,7,11
1.72313E+12,-7578,-2559,2355,-346,-94,-275,1,7,11
1.72313E+12,-7577,-2554,2344,-309,-105,-295,1,7,11
1.72313E+12,-7592,-2556,2348,-282,-107,-312,1,7,11
1.72313E+12,-7596,-2553,2355,-257,-120,-308,1,7,11
1.72313E+12,-7602,-2557,2368,26,123,-290,1,7,11
1.72313E+12,-7590,-2550,2375,60,112,-263,1,7,11
1.72313E+12,-7580,-2545,2380,94,112,16,1,7,11
1.72313E+12,-7558,-2534,2373,120,116,35,1,7,11
1.72313E+12,-7799,-2514,2365,-121,-112,34,1,7,11
1.72313E+12,-7554,-2504,2373,-119,-76,18,1,7,11
1.72313E+12,-7567,-2497,2371,-120,-47,7,1,7,11
1.72313E+12,-7569,-2481,2345,-120,-26,-260,1,7,11
1.72313E+12,-7587,-2479,2340,111,-4,-278,1,7,11
1.72313E+12,-7614,-2475,2343,93,263,-285,1,7,11
1.72313E+12,-7637,-2473,2345,79,263,-279,1,7,11
1.72313E+12,-7668,-2472,2353,75,257,-261,1,7,11
1.72313E+12,-7941,-2473,2376,74,-27,20,1,7,11
1.72313E+12,-7674,-2468,2380,76,-71,40,1,7,11
1.72313E+12,-7651,-2468,2388,69,-122,35,1,7,11
1.72313E+12,-7635,-2465,2391,54,87,7,1,7,11
1.72313E+12,-7623,-2469,2405,24,38,-274,1,7,11
1.72313E+12,-7587,-2472,2409,-265,-273,-287,1,7,11
1.72313E+12,-7795,-2506,2424,-311,-312,-305,1,7,11
1.72313E+12,-7709,-2532,2431,-346,-334,-325,1,7,11
1.72313E+12,-7411,-2555,2422,-365,-326,-373,1,7,11
1.72313E+12,-7688,-2831,2425,-379,-275,-144,1,7,11
1.72313E+12,-7736,-2823,2417,-381,79,-144,1,7,11
1.72313E+12,-7556,-2826,2181,-140,-128,-356,1,7,11
1.72313E+12,-7609,-2556,2181,-366,-115,-269,1,7,11
1.72313E+12,-7644,-2550,2185,-337,-118,88,1,7,11
1.72313E+12,-7667,-2529,2184,-296,-120,-78,1,7,11
1.72313E+12,-7662,-2527,2194,-281,97,-2,1,7,11
1.72313E+12,-7629,-2529,2203,-272,54,281,1,7,11
1.72313E+12,-7612,-2550,2236,-269,31,260,1,7,11
1.72313E+12,-7585,-2819,2266,10,5,-37,1,7,11
1.72313E+12,-7805,-2817,2271,58,-265,-91,1,7,11
1.72313E+12,-7771,-2552,2249,99,7,104,1,7,11
1.72313E+12,-7745,-2535,2234,114,53,40,1,7,11
1.72313E+12,-7746,-2530,2245,113,107,-265,1,7,11
1.72313E+12,-7748,-2545,2286,108,-99,-300,1,7,11
1.72313E+12,-7758,-2548,2572,-107,-58,-313,1,7,11
1.72313E+12,-7775,-2530,2579,-51,-27,-308,1,7,11
1.72313E+12,-7778,-2490,2297,-3,-6,-280,1,7,11
1.72313E+12,-7774,-2460,2262,-4,268,4,1,7,11
1.72313E+12,-7775,-2436,2219,-44,297,19,1,7,11
1.72313E+12,-7777,-2683,2190,-114,327,22,1,7,11
1.72313E+12,-7806,-2686,2185,52,361,5,1,7,11
1.72313E+12,-7579,-2450,2186,-272,374,3,1,7,11
1.72313E+12,-7612,-2471,2206,-323,381,4,1,7,11
1.72313E+12,-7633,-2482,2214,-327,359,32,1,7,11
1.72313E+12,-7631,-2505,2212,-345,322,52,1,7,11
1.72313E+12,-7623,-2500,2194,-348,279,70,1,7,11
1.72313E+12,-7611,-2499,2184,-380,-33,69,1,7,11
1.72313E+12,-7593,-2500,2425,-152,-91,59,1,7,11
1.72313E+12,-7591,-2491,2393,-183,110,56,1,7,11
1.72313E+12,-7572,-2512,2362,-246,59,54,1,7,11
1.72313E+12,-7801,-2550,2358,-576,25,60,1,7,11
1.72313E+12,-7782,-2864,2392,-631,-258,47,1,7,11
1.72313E+12,-7778,-2926,2194,-626,10,24,1,7,11
1.72313E+12,-7782,-2706,2240,-536,37,11,1,7,11
1.72313E+12,-7786,-2721,2257,-148,71,3,1,7,11
1.72313E+12,-7772,-2705,2261,-263,106,3,1,7,11
1.72313E+12,-7756,-2934,2256,100,-107,-263,1,7,11
1.72313E+12,-7758,-2901,2253,-83,-55,-281,1,7,11
1.72313E+12,-7768,-2867,2252,-31,-11,-296,1,7,11
1.72313E+12,-7786,-2829,2248,263,279,-297,1,7,11
1.72313E+12,-7802,-2526,2233,280,298,-277,1,7,11
1.72313E+12,-7561,-2482,2206,262,310,5,1,7,11
1.72313E+12,-7569,-2439,2177,-49,306,34,1,7,11
1.72313E+12,-7589,-2685,2426,122,308,55,1,7,11
1.72313E+12,-7591,-2433,2411,41,289,84,1,7,11
1.72313E+12,-7599,-2687,2379,-290,282,95,1,7,11
1.72313E+12,-7617,-2444,2356,-371,278,100,1,7,11
1.72313E+12,-7611,-2471,2339,-197,257,110,1,7,11
1.72313E+12,-7602,-2517,2329,-514,-12,113,1,7,11
1.72313E+12,-7597,-2821,2319,-553,-21,107,1,7,11
1.72313E+12,-7582,-2869,2317,-573,-31,95,1,7,11
1.72313E+12,-7577,-2926,2336,-567,-41,79,1,7,11
1.72313E+12,-7801,-2718,2358,-533,-72,73,1,7,11
1.72313E+12,-7760,-2777,2426,-227,-111,50,1,7,11
1.72313E+12,-7721,-2810,2244,-366,107,30,1,7,11
1.72313E+12,-7421,-2799,2561,52,76,23,1,7,11
1.72313E+12,-7416,-2732,2573,-35,87,34,1,7,11
1.72313E+12,-7683,-2880,2286,347,121,93,1,7,11
1.72313E+12,-7417,-2519,2251,375,-95,-59,1,7,11
1.72313E+12,-7415,-2443,2200,347,270,287,1,7,11
1.72313E+12,-7736,-2636,2422,275,160,368,1,7,11
1.72313E+12,-7798,-2593,2408,-75,527,177,1,7,11
1.72313E+12,-7614,-2587,2392,93,591,216,1,7,11
1.72313E+12,-7652,-2577,2334,9,605,236,1,7,11
1.72313E+12,-7676,-2597,2039,-362,577,204,1,7,11
1.72313E+12,-7959,-2624,1996,-200,524,137,1,7,11
1.72313E+12,-8007,-2658,1958,-538,212,304,1,7,11
1.72313E+12,-8055,-2439,1962,-602,375,-11,1,7,11
1.72313E+12,-8064,-2465,1949,-602,-1,-30,1,7,11
1.72313E+12,-8029,-2488,1933,-570,-125,-23,1,7,11
1.72313E+12,-7969,-2502,2169,-519,45,-21,1,7,11
1.72313E+12,-7941,-2518,1923,-217,14,-44,1,7,11
1.72313E+12,-7673,-2546,1973,-152,3,-61,1,7,11
1.72313E+12,-7665,-2819,2025,-312,-258,-79,1,7,11
1.72313E+12,-7615,-2832,2308,71,-275,-87,1,7,11
1.72313E+12,-7587,-2841,2363,-65,-280,105,1,7,11
1.72313E+12,-7563,-2833,2425,312,-270,41,1,7,11
1.72313E+12,-7802,-2554,2217,176,11,-266,1,7,11
1.72313E+12,-7788,-2510,2257,540,35,-300,1,7,11
1.72313E+12,-7770,-2456,2271,391,59,-309,1,7,11
1.72313E+12,-7756,-2650,2274,408,77,-309,1,7,11
1.72313E+12,-7728,-2613,2267,392,105,-297,1,7,11
1.72313E+12,-7719,-2565,2246,590,-94,-272,1,7,11
1.72313E+12,-7743,-2261,2221,236,-38,-262,1,7,11
1.72313E+12,-7769,-2225,2200,286,258,14,1,7,11
1.72313E+12,-7801,-2211,2429,118,286,38,1,7,11
1.72313E+12,-7587,-2206,2390,-305,311,65,1,7,11
1.72313E+12,-7617,-2225,2346,-226,308,100,1,7,11
1.72313E+12,-7626,-2274,2308,-406,297,115,1,7,11
1.72313E+12,-7624,-2611,2307,-817,287,103,1,7,11
1.72313E+12,-7630,-2442,2320,-886,286,68,1,7,11
1.72313E+12,-7660,-2513,2330,-867,298,29,1,7,11
1.72313E+12,-7666,-2828,2350,-791,282,2,1,7,11
1.72313E+12,-7667,-2881,2371,-424,263,-286,1,7,11
1.72313E+12,-7665,-2916,2380,-523,-8,-319,1,7,11
1.72313E+12,-7657,-2932,2401,-335,-35,-350,1,7,11
1.72313E+12,-7652,-2930,2420,121,-55,-382,1,7,11
1.72313E+12,-7637,-2887,2408,296,-81,-140,1,7,11
1.72313E+12,-7616,-2832,2394,153,-102,-148,1,7,11
1.72313E+12,-7596,-2530,2384,209,-118,-156,1,7,11
1.72313E+12,-7587,-2489,2375,221,121,-157,1,7,11
1.72313E+12,-7560,-2450,2378,150,96,-147,1,7,11
1.72313E+12,-7560,-2433,2386,333,97,-136,1,7,11
1.72313E+12,-7560,-2683,2412,258,102,-365,1,7,11
1.72313E+12,-7556,-2684,2191,-72,103,-330,1,7,11
1.72313E+12,-7577,-2440,2223,124,110,-294,1,7,11
1.72313E+12,-7579,-2682,2229,85,97,19,1,7,11
1.72313E+12,-7567,-2658,2211,36,86,77,1,7,11
1.72313E+12,-7553,-2638,2429,-297,83,124,1,7,11
1.72313E+12,-7785,-2637,2400,-143,74,-98,1,7,11
1.72313E+12,-7771,-2662,2383,-521,83,-97,1,7,11
1.72313E+12,-7773,-2460,2384,-622,92,-105,1,7,11
1.72313E+12,-7780,-2513,2403,-407,102,-120,1,7,11
1.72313E+12,-7774,-2552,2415,-393,120,-127,1,7,11
1.72313E+12,-7775,-2843,2184,-605,-96,111,1,7,11
1.72313E+12,-7786,-2873,2203,-513,-46,96,1,7,11
1.72313E+12,-7795,-2873,2198,-375,263,86,1,7,11
1.72313E+12,-7568,-2849,2189,23,330,66,1,7,11
1.72313E+12,-7590,-2556,2427,-108,382,54,1,7,11
1.72313E+12,-7619,-2508,2406,-13,156,45,1,7,11
1.72313E+12,-7621,-2463,2374,291,162,26,1,7,11
1.72313E+12,-7616,-2680,2354,296,150,-263,1,7,11
1.72313E+12,-7623,-2669,2347,-3,371,-310,1,7,11
1.72313E+12,-7611,-2672,2321,-80,310,-352,1,7,11
1.72313E+12,-7585,-2468,2042,18,-45,-152,1,7,11
1.72313E+12,-7563,-2524,2311,-341,-92,-182,1,7,11
1.72313E+12,-7786,-2820,2320,-164,-120,-205,1,7,11
1.72313E+12,-7800,-2875,2349,-206,-112,-215,1,7,11
1.72313E+12,-7565,-2873,2343,-183,-95,-180,1,7,11
1.72313E+12,-7610,-2870,2351,-151,-68,-378,1,7,11
1.72313E+12,-7650,-2846,2344,-368,-42,-291,1,7,11
1.72313E+12,-7679,-2833,2359,-340,-37,63,1,7,11
1.72313E+12,-7679,-2824,2376,-302,-47,-114,1,7,11
1.72313E+12,-7677,-2542,2373,6,-55,-72,1,7,11
1.72313E+12,-7679,-2506,2373,37,-69,-69,1,7,11
1.72313E+12,-7943,-2472,2384,45,-106,-87,1,7,11
1.72313E+12,-7664,-2450,2405,13,83,-120,1,7,11
1.72313E+12,-7646,-2446,2193,-288,13,84,1,7,11
1.72313E+12,-7634,-2443,2234,-328,-312,37,1,7,11
1.72313E+12,-7607,-2447,2237,-371,-143,17,1,7,11
1.72313E+12,-7791,-2441,2207,-178,-226,9,1,7,11
1.72313E+12,-7729,-2457,2183,-543,-256,-275,1,7,11
1.72313E+12,-7708,-2491,2193,-404,-237,-305,1,7,11
1.72313E+12,-7420,-2540,2196,-476,-202,-290,1,7,11
1.72313E+12,-7386,-2845,2212,-511,-379,-275,1,7,11
1.72313E+12,-7374,-2907,2233,-501,-274,2,1,7,11
1.72313E+12,-7350,-2699,2230,-425,83,23,1,7,11
1.72313E+12,-7352,-2742,2212,-578,-71,11,1,7,11
1.72313E+12,-7372,-2761,2178,-208,274,-275,1,7,11
1.72313E+12,-7409,-2764,2386,-353,349,-305,1,7,11
1.72313E+12,-7713,-2745,2367,8,158,-318,1,7,11
1.72313E+12,-7801,-2713,2356,110,207,-299,1,7,11
1.72313E+12,-7562,-2703,2362,-59,220,4,1,7,11
1.72313E+12,-7620,-2908,2356,294,231,59,1,7,11
1.72313E+12,-7647,-2881,2347,381,225,123,1,7,11
1.72313E+12,-7940,-2823,2321,181,198,-69,1,7,11
1.72313E+12,-7945,-2514,2038,196,154,-16,1,7,11
1.72313E+12,-7958,-2452,2032,170,369,259,1,7,11
1.72313E+12,-7970,-2683,2035,374,326,-7,1,7,11
1.72313E+12,-7945,-2652,2022,273,-28,-30,1,7,11
1.72313E+12,-7668,-2650,2019,-81,-83,-86,1,7,11
1.72313E+12,-7668,-2660,2025,68,-127,104,1,7,11
1.72313E+12,-7645,-2681,2037,-283,77,49,1,7,11
1.72313E+12,-7632,-2446,2046,-350,43,5,1,7,11
1.72313E+12,-7605,-2460,2317,-146,28,-282,1,7,11
1.72313E+12,-7620,-2486,2354,-173,49,-308,1,7,11
1.72313E+12,-7637,-2505,2391,-150,60,-286,1,7,11
1.72313E+12,-7629,-2528,2400,-345,64,9,1,7,11
1.72313E+12,-7583,-2524,2367,-277,63,38,1,7,11
1.72313E+12,-7801,-2517,2335,11,74,16,1,7,11
1.72313E+12,-7805,-2522,2337,-263,99,-310,1,7,11
1.72313E+12,-7585,-2539,2365,-281,107,-362,1,7,11
1.72313E+12,-7572,-2547,2394,-274,69,-372,1,7,11
1.72313E+12,-7791,-2827,2430,-266,42,-136,1,7,11
1.72313E+12,-7770,-2846,2220,-259,34,-165,1,7,11
1.72313E+12,-7757,-2844,2244,17,37,-191,1,7,11
1.72313E+12,-7779,-2829,2273,21,54,-208,1,7,11
1.72313E+12,-7602,-2507,2293,-316,66,-340,1,7,11
1.72313E+12,-7602,-2468,2268,-357,53,24,1,7,11
1.72313E+12,-7579,-2688,2234,-177,60,-123,1,7,11
1.72313E+12,-7806,-2670,2197,-530,82,20,1,7,11
1.72313E+12,-7792,-2675,2426,-637,-112,320,1,7,11
1.72313E+12,-7803,-2457,2425,-771,-69,312,1,7,11
1.72313E+12,-7555,-2501,2415,-812,-58,273,1,7,11
1.72313E+12,-7781,-2549,2393,-821,-86,-51,1,7,11
1.72313E+12,-7765,-2865,2384,-809,-105,92,1,7,11
1.72313E+12,-7741,-2927,2364,-510,124,-285,1,7,11
1.72313E+12,-7712,-2730,2358,-445,108,-155,1,7,11
1.72313E+12,-7423,-2777,2383,-626,111,-521,1,7,11
1.72313E+12,-7692,-3078,2192,-529,-106,-610,1,7,11
1.72313E+12,-7722,-3104,2268,-373,-69,-631,1,7,11
1.72313E+12,-7711,-3097,2293,74,-60,-581,1,7,11
1.72313E+12,-7423,-2791,2251,-23,-43,-523,1,7,11
1.72313E+12,-7424,-2727,2209,301,260,-226,1,7,11
1.72313E+12,-7728,-2923,2420,288,309,-175,1,7,11
1.72313E+12,-7758,-2887,2378,-25,324,-326,1,7,11
1.72313E+12,-7771,-2860,2346,-124,351,31,1,7,11
1.72313E+12,-7788,-2877,2336,28,367,120,1,7,11
1.72313E+12,-7781,-2911,2315,-321,356,-75,1,7,11
1.72313E+12,-7771,-2701,2035,-138,333,-57,1,7,11
1.72313E+12,-7759,-2749,2013,-179,313,-74,1,7,11
1.72313E+12,-7780,-2790,2009,-188,315,-111,1,7,11
1.72313E+12,-7807,-3084,2039,-163,318,115,1,7,11
1.72313E+12,-7589,-3121,2320,-320,318,108,1,7,11
1.72313E+12,-7582,-3122,2325,80,295,122,1,7,11
1.72313E+12,-7587,-3107,2326,-30,292,101,1,7,11
1.72313E+12,-7593,-2807,2318,356,272,84,1,7,11
1.72313E+12,-7591,-2751,2340,175,-23,71,1,7,11
1.72313E+12,-7569,-2700,2357,223,-68,68,1,7,11
1.72313E+12,-7577,-2912,2383,230,-94,72,1,7,11
1.72313E+12,-7565,-2876,2399,212,-123,90,1,7,11
1.72313E+12,-7804,-2847,2412,177,101,110,1,7,11
1.72313E+12,-7750,-2548,2366,130,76,-113,1,7,11
1.72313E+12,-7702,-2505,2327,285,92,-121,1,7,11
1.72313E+12,-7687,-2513,2313,-108,-121,112,1,7,11
1.72313E+12,-7713,-2551,2338,14,-59,63,1,7,11
1.72313E+12,-7736,-2851,2361,-332,260,61,1,7,11
1.72313E+12,-7759,-2892,2382,-349,322,63,1,7,11
1.72313E+12,-7780,-2920,2381,-297,352,77,1,7,11
1.72313E+12,-7807,-2928,2366,36,376,93,1,7,11
1.72313E+12,-7581,-2939,2361,87,382,93,1,7,11
1.72313E+12,-7599,-2694,2357,-118,367,87,1,7,11
1.72313E+12,-7605,-2699,2372,-75,311,70,1,7,11
1.72313E+12,-7592,-2692,2375,-31,269,63,1,7,11
1.72313E+12,-7583,-2690,2393,274,-3,46,1,7,11
1.72313E+12,-7570,-2937,2399,342,-17,45,1,7,11
1.72313E+12,-7804,-2920,2416,377,-18,35,1,7,11
1.72313E+12,-7561,-2888,2422,138,-6,24,1,7,11
1.72313E+12,-7561,-2831,2393,187,256,32,1,7,11
1.72313E+12,-7577,-2505,2358,165,260,44,1,7,11
1.72313E+12,-7577,-2470,2360,325,-16,62,1,7,11
1.72313E+12,-7582,-2466,2389,-45,-45,72,1,7,11
1.72313E+12,-7585,-2469,2426,-116,-68,83,1,7,11
1.72313E+12,-7611,-2490,2200,78,-97,85,1,7,11
1.72313E+12,-7599,-2467,2176,64,115,106,1,7,11
1.72313E+12,-7617,-2462,2410,0,89,101,1,7,11
1.72313E+12,-7605,-2467,2370,-144,48,115,1,7,11
1.72313E+12,-7593,-2493,2354,-518,28,108,1,7,11
1.72313E+12,-7568,-2543,2345,-615,4,104,1,7,11
1.72313E+12,-7795,-2872,2364,-425,-267,86,1,7,11
1.72313E+12,-7754,-2936,2387,-431,-272,58,1,7,11
1.72313E+12,-7723,-2739,2407,-636,6,11,1,7,11
1.72313E+12,-7715,-2766,2417,-528,48,-294,1,7,11
1.72313E+12,-7720,-2773,2176,-151,92,-330,1,7,11
1.72313E+12,-7721,-2780,2184,-293,-128,-354,1,7,11
1.72313E+12,-7714,-2775,2180,74,-93,-368,1,7,11
1.72313E+12,-7702,-2780,2186,-89,-47,-134,1,7,11
1.72313E+12,-7712,-2774,2193,258,271,-159,1,7,11
1.72313E+12,-7736,-2750,2191,329,326,-167,1,7,11
1.72313E+12,-7764,-2735,2191,370,358,-154,1,7,11
1.72313E+12,-7773,-2713,2202,139,362,-376,1,7,11
1.72313E+12,-7766,-2938,2207,143,345,-349,1,7,11
1.72313E+12,-7749,-2895,2196,130,318,-322,1,7,11
1.72313E+12,-7740,-2864,2183,320,288,-309,1,7,11
1.72313E+12,-7724,-2843,2428,-32,-10,-288,1,7,11
1.72313E+12,-7708,-2542,2401,117,-29,-267,1,7,11
1.72313E+12,-7718,-2522,2379,-282,-36,14,1,7,11
1.72313E+12,-7720,-2503,2348,-176,-49,52,1,7,11
1.72313E+12,-7745,-2527,2343,-599,-56,88,1,7,11
1.72313E+12,-7764,-2558,2334,-460,-62,-117,1,7,11
1.72313E+12,-7782,-2846,2306,-793,-59,-74,1,7,11
1.72313E+12,-7560,-2862,2000,-846,-37,-30,1,7,11
1.72313E+12,-7580,-2901,1968,-648,-20,270,1,7,11
1.72313E+12,-7590,-2701,1963,-678,261,284,1,7,11
1.72313E+12,-7612,-2769,2003,-667,271,264,1,7,11
1.72313E+12,-7613,-3089,2044,-831,264,-44,1,7,11
1.72313E+12,-7613,-3132,2337,-421,-24,-106,1,7,11
1.72313E+12,-7591,-3126,2336,-234,-45,81,1,7,11
1.72313E+12,-7566,-3091,2340,-320,-52,18,1,7,11
1.72313E+12,-7804,-2791,2375,69,-44,-297,1,7,11
1.72313E+12,-7590,-2730,2419,-77,-21,-348,1,7,11
1.72313E+12,-7609,-2899,2430,301,-37,-319,1,7,11
1.72313E+12,-7597,-2818,2412,138,-87,-269,1,7,11
1.72313E+12,-7800,-2492,2359,373,122,37,1,7,11
1.72313E+12,-7761,-2442,2306,264,102,46,1,7,11
1.72313E+12,-7762,-2436,2016,85,96,20,1,7,11
1.72313E+12,-7769,-2509,2002,-129,67,-280,1,7,11
1.72313E+12,-7765,-2549,2013,-596,22,-295,1,7,11
1.72313E+12,-7749,-2876,2001,-503,-285,-314,1,7,11
1.72313E+12,-7730,-2705,2003,-891,-318,-334,1,7,11
1.72313E+12,-7710,-2789,2016,-719,-328,-343,1,7,11
1.72313E+12,-7720,-3124,2045,-732,-311,-339,1,7,11
1.72313E+12,-7726,-3171,2046,-661,-276,-303,1,7,11
1.72313E+12,-7745,-3186,2035,-809,34,5,1,7,11
1.72313E+12,-7782,-3190,2318,-442,98,57,1,7,11
1.72313E+12,-7805,-3191,2369,-542,-114,-127,1,7,11
1.72313E+12,-7807,-3181,2401,-341,-87,-65,1,7,11
1.72313E+12,-7788,-3127,2420,-121,-64,-21,1,7,11
1.72313E+12,-7787,-2788,2416,325,-24,-13,1,7,11
1.72313E+12,-7799,-2691,2403,204,278,-24,1,7,11
1.72313E+12,-7566,-2856,2388,525,313,-42,1,7,11
1.72313E+12,-7580,-2529,2371,526,326,-59,1,7,11
1.72313E+12,-7566,-2473,2350,216,313,-84,1,7,11
1.72313E+12,-7785,-2454,2352,349,282,113,1,7,11
1.72313E+12,-7757,-2459,2356,-47,259,27,1,7,11
1.72313E+12,-7735,-2480,2346,66,-35,-305,1,7,11
1.72313E+12,-7696,-2510,2314,-322,-80,-361,1,7,11
1.72313E+12,-7376,-2560,2007,-216,-110,-156,1,7,11
1.72313E+12,-7353,-2889,1991,-631,-85,-222,1,7,11
1.72313E+12,-7392,-2720,2006,-477,-24,-256,1,7,11
1.72313E+12,-7716,-2801,2023,-502,285,-215,1,7,11
1.72313E+12,-7740,-3144,2032,-456,302,-375,1,7,11
1.72313E+12,-7754,-2948,2039,-613,322,-283,1,7,11
1.72313E+12,-7781,-3008,2046,-219,343,46,1,7,11
1.72313E+12,-7559,-3019,2036,-277,362,114,1,7,11
1.72313E+12,-7593,-2998,2017,-84,350,-71,1,7,11
1.72313E+12,-7603,-2960,2008,191,317,-6,1,7,11
1.72313E+12,-7614,-3187,2027,619,311,256,1,7,11
1.72313E+12,-7652,-3113,2017,792,309,256,1,7,11
1.72313E+12,-7674,-2777,2014,674,282,263,1,7,11
1.72313E+12,-7666,-2700,2021,1032,-21,270,1,7,11
1.72313E+12,-7632,-2887,2019,1087,-70,-4,1,7,11
1.72313E+12,-7604,-2819,2007,1111,-97,-53,1,7,11
1.72313E+12,-7561,-2507,2007,1077,123,-122,1,7,11
1.72313E+12,-7780,-2481,2039,746,95,40,1,7,11
1.72313E+12,-7752,-2476,2323,658,71,-319,1,7,11
1.72313E+12,-7746,-2500,2362,831,65,-177,1,7,11
1.72313E+12,-7753,-2522,2395,511,55,-518,1,7,11
1.72313E+12,-7740,-2547,2184,453,29,-568,1,7,11
1.72313E+12,-7735,-2847,2226,398,31,-610,1,7,11
1.72313E+12,-7717,-2881,2251,633,10,-603,1,7,11
1.72313E+12,-7400,-2922,2271,615,-257,-606,1,7,11
1.72313E+12,-7391,-2699,2282,615,34,-625,1,7,11
1.72313E+12,-7374,-2708,2278,626,71,-626,1,7,11
1.72313E+12,-7387,-2724,2283,624,126,-624,1,7,11
1.72313E+12,-7397,-2716,2267,629,-87,-593,1,7,11
1.72313E+12,-7688,-2702,2248,617,-27,-568,1,7,11
1.72313E+12,-7738,-2694,2223,607,282,-493,1,7,11
1.72313E+12,-7767,-2933,2201,571,326,-215,1,7,11
1.72313E+12,-7784,-2919,2423,530,358,-163,1,7,11
1.72313E+12,-7801,-2893,2392,153,141,-353,1,7,11
1.72313E+12,-7566,-2906,2398,280,145,-329,1,7,11
1.72313E+12,-7579,-2922,2410,-87,374,-312,1,7,11
1.72313E+12,-7604,-2944,2415,77,326,-298,1,7,11
1.72313E+12,-7598,-2697,2412,0,-1,-274,1,7,11
1.72313E+12,-7584,-2716,2417,-340,-78,1,1,7,11
1.72313E+12,-7801,-2744,2426,-163,102,9,1,7,11
1.72313E+12,-7778,-2772,2186,-223,61,-260,1,7,11
1.72313E+12,-7763,-2803,2207,-520,27,-273,1,7,11
1.72313E+12,-7746,-3079,2226,-534,2,-287,1,7,11
1.72313E+12,-7727,-3114,2246,-536,-270,-298,1,7,11
1.72313E+12,-7702,-3106,2243,-515,-271,-297,1,7,11
1.72313E+12,-7685,-3120,2245,-238,-265,-309,1,7,11
1.72313E+12,-7686,-3136,2262,-228,7,-317,1,7,11
1.72313E+12,-7690,-3142,2272,-199,17,-318,1,7,11
1.72313E+12,-7706,-3137,2283,-138,23,-300,1,7,11
1.72313E+12,-7702,-3151,2563,-363,11,-263,1,7,11
1.72313E+12,-7704,-3115,2290,-303,23,37,1,7,11
1.72313E+12,-7704,-3129,2567,-300,24,84,1,7,11
1.72313E+12,-7693,-3154,2571,-274,44,112,1,7,11
1.72313E+12,-7707,-3148,2584,64,78,125,1,7,11
1.72313E+12,-7688,-3090,2571,109,114,123,1,7,11
1.72313E+12,-7755,-3116,2607,127,-96,115,1,7,11
1.72313E+12,-7774,-2812,2580,-74,-92,121,1,7,11
1.72313E+12,-7795,-2784,2570,-58,-94,118,1,7,11
1.72313E+12,-7553,-2760,2576,-68,-108,102,1,7,11
1.72313E+12,-7793,-2744,2581,-77,114,93,1,7,11
1.72313E+12,-7776,-2718,2575,-85,94,81,1,7,11
1.72313E+12,-7747,-2703,2574,-117,77,67,1,7,11
1.72313E+12,-7751,-2713,2593,98,80,48,1,7,11
1.72313E+12,-7733,-2727,2608,73,61,57,1,7,11
1.72313E+12,-7717,-2737,2611,56,56,43,1,7,11
1.72313E+12,-7713,-2743,2610,51,40,32,1,7,11
1.72313E+12,-7724,-2771,2628,37,36,8,1,7,11
1.72313E+12,-7722,-2771,2632,62,10,22,1,7,11
1.72313E+12,-7705,-2785,2647,71,-260,24,1,7,11
1.72313E+12,-7690,-2809,2651,93,-284,30,1,7,11
1.72313E+12,-7701,-3095,2439,109,-285,11,1,7,11
1.72313E+12,-7700,-3095,2459,-105,-293,-251,1,7,11
1.72313E+12,-7420,-3079,2440,-33,-323,22,1,7,11
1.72313E+12,-7404,-2807,2687,272,-329,39,1,7,11
1.72313E+12,-7376,-2782,2432,296,-323,64,1,7,11
1.72313E+12,-7346,-2755,2435,304,-297,87,1,7,11
1.72313E+12,-7342,-2748,2459,272,3,105,1,7,11
1.72313E+12,-7322,-2733,2464,-8,33,-116,1,7,11
1.72313E+12,-7340,-2722,2460,-54,68,-115,1,7,11
1.72313E+12,-7379,-2691,2440,-113,80,-110,1,7,11
1.72313E+12,-7409,-2913,2673,67,55,-90,1,7,11
1.72313E+12,-7713,-2877,2649,-294,36,-70,1,7,11
1.72313E+12,-7783,-2844,2634,-172,-274,-19,1,7,11
1.72313E+12,-7583,-2556,2623,-586,-373,325,1,7,11
1.72313E+12,-7608,-2518,2593,-478,-230,181,1,7,11
1.72313E+12,-7642,-2519,2614,-691,-611,548,1,7,11
1.72313E+12,-7634,-2534,2657,-1127,-493,417,1,7,11
1.72313E+12,-7613,-2547,2684,-1005,-865,787,1,7,11
1.72313E+12,-7601,-2525,2438,-1360,-687,892,1,7,11
1.72313E+12,-7595,-2475,2677,-1187,-748,750,1,7,11
1.72313E+12,-7554,-2674,2663,-1568,-1049,1094,1,7,11
1.72313E+12,-7781,-2670,2443,-1502,-1083,1143,1,7,11
1.72313E+12,-7705,-2478,2519,-1681,-1129,910,1,7,11
1.72313E+12,-7370,-2843,2907,-2058,-1141,1126,1,7,11
1.72313E+12,-7498,-2760,2783,-2052,-1126,1039,1,7,11
1.72313E+12,-7139,-3166,3140,-1866,-717,872,1,7,11
1.72313E+12,-7054,-3004,3190,-1270,-478,438,1,7,11
1.72313E+12,-7235,-3039,3186,-1114,-153,230,1,7,11
1.72313E+12,-7233,-3041,3165,-448,-30,261,1,7,11
1.72313E+12,-7264,-3042,3151,-320,575,51,1,7,11
1.72313E+12,-7062,-3000,3093,328,878,-384,1,7,11
1.72313E+12,-7143,-2945,2761,413,1138,-541,1,7,11
1.72313E+12,-7484,-3112,2911,701,1336,-390,1,7,11
1.72313E+12,-7333,-2762,2817,1143,1240,-476,1,7,11
1.72313E+12,-7696,-2927,2687,992,1590,-506,1,7,11
1.72313E+12,-7625,-2550,2626,1014,1611,-486,1,7,11
1.72313E+12,-7966,-2498,2578,961,1267,-423,1,7,11
1.72313E+12,-8053,-2474,2301,1029,1394,-621,1,7,11
1.72313E+12,-7853,-2471,2285,868,945,-537,1,7,11
1.72313E+12,-7841,-2454,2239,423,722,-205,1,7,11
1.72313E+12,-8218,-2467,2240,176,839,-183,1,7,11
1.72313E+12,-8227,-2638,2252,-19,550,-277,1,7,11
1.72313E+12,-7645,-2303,2226,0,121,117,1,7,11
1.72313E+12,-7775,-2578,2262,-222,-292,51,1,7,11
1.72313E+12,-7421,-2561,2220,-617,-169,53,1,7,11
1.72313E+12,-7373,-2577,2412,-805,-237,38,1,7,11
1.72313E+12,-7303,-2610,2398,-1044,-545,39,1,7,11
1.72313E+12,-7352,-2500,2245,-1023,-213,0,1,7,11
1.72313E+12,-7709,-2836,2562,-1316,-370,78,1,7,11
1.72313E+12,-7773,-2887,2560,-999,-291,261,1,7,11
1.72313E+12,-7750,-2916,2576,-931,65,183,1,7,11
1.72313E+12,-7794,-2698,2621,-1049,-44,572,1,7,11
1.72313E+12,-7776,-2919,2588,-848,306,441,1,7,11
1.72313E+12,-7767,-2886,2276,-428,158,488,1,7,11
1.72313E+12,-7774,-2833,2239,-576,542,450,1,7,11
1.72313E+12,-7577,-2851,2261,-526,389,608,1,7,11
1.72313E+12,-7603,-2845,2276,-175,428,517,1,7,11
1.72313E+12,-7568,-2823,2269,-261,627,345,1,7,11
1.72313E+12,-7555,-2515,2232,80,583,-47,1,7,11
1.72313E+12,-7556,-2510,2226,101,537,65,1,7,11
1.72313E+12,-7598,-2534,2215,116,236,-301,1,7,11
1.72313E+12,-7596,-2547,2428,124,168,-347,1,7,11
1.72313E+12,-7592,-2831,2396,74,136,-131,1,7,11
1.72313E+12,-7590,-2844,2368,23,371,-144,1,7,11
1.72313E+12,-7605,-2839,2343,-290,383,-165,1,7,11
1.72313E+12,-7655,-2830,2350,-338,380,-136,1,7,11
1.72313E+12,-7633,-2556,2364,-366,333,-316,1,7,11
1.72313E+12,-7614,-2539,2345,-339,308,24,1,7,11
1.72313E+12,-7597,-2526,2327,-330,297,90,1,7,11
1.72313E+12,-7595,-2542,2349,-327,273,-111,1,7,11
1.72313E+12,-7567,-2828,2390,-299,-27,-74,1,7,11
1.72313E+12,-7793,-2828,2396,46,-79,-36,1,7,11
1.72313E+12,-7750,-2559,2396,113,-106,-36,1,7,11
1.72313E+12,-7765,-2539,2396,-91,-97,-49,1,7,11
1.72313E+12,-7764,-2477,2365,-54,-91,-44,1,7,11
1.72313E+12,-7796,-2665,2329,-86,-57,-47,1,7,11
1.72313E+12,-7562,-2625,2320,65,-38,-43,1,7,11
1.72313E+12,-7593,-2623,2357,-309,-2,-50,1,7,11
1.72313E+12,-7644,-2644,2388,-143,290,-54,1,7,11
1.72313E+12,-7678,-2662,2407,-179,307,-36,1,7,11
1.72313E+12,-7957,-2435,2422,-182,310,-20,1,7,11
1.72313E+12,-7945,-2456,2411,-154,285,-10,1,7,11
1.72313E+12,-7672,-2487,2411,-376,260,-31,1,7,11
1.72313E+12,-7657,-2495,2396,-335,-30,-66,1,7,11
1.72313E+12,-7665,-2506,2403,-296,-56,-125,1,7,11
1.72313E+12,-7666,-2530,2403,-266,-93,66,1,7,11
1.72313E+12,-7640,-2533,2388,40,88,43,1,7,11
1.72313E+12,-7625,-2541,2395,85,64,17,1,7,11
1.72313E+12,-7614,-2546,2408,118,39,-257,1,7,11
1.72313E+12,-7602,-2527,2424,-91,10,-258,1,7,11
1.72313E+12,-7580,-2489,2180,-61,-275,8,1,7,11
1.72313E+12,-7807,-2452,2192,-56,-307,26,1,7,11
1.72313E+12,-7768,-2680,2196,-74,-325,42,1,7,11
1.72313E+12,-7745,-2660,2211,-113,-323,40,1,7,11
1.72313E+12,-7734,-2645,2223,102,-306,38,1,7,11
1.72313E+12,-7728,-2643,2231,40,-289,40,1,7,11
1.72313E+12,-7725,-2648,2227,-285,-262,42,1,7,11
1.72313E+12,-7738,-2662,2231,-354,40,34,1,7,11
1.72313E+12,-7774,-2434,2234,-148,88,47,1,7,11
1.72313E+12,-7779,-2447,2228,-170,124,88,1,7,11
1.72313E+12,-7780,-2457,2227,-171,-78,124,1,7,11
1.72313E+12,-7778,-2456,2202,-152,-25,-88,1,7,11
1.72313E+12,-7786,-2465,2178,-141,291,-63,1,7,11
1.72313E+12,-7559,-2463,2427,-369,356,-44,1,7,11
1.72313E+12,-7604,-2467,2429,-335,157,-39,1,7,11
1.72313E+12,-7646,-2456,2420,-278,182,-19,1,7,11
1.72313E+12,-7675,-2436,2414,27,190,-12,1,7,11
1.72313E+12,-7966,-2670,2418,81,182,-10,1,7,11
1.72313E+12,-7971,-2643,2398,-123,149,-11,1,7,11
1.72313E+12,-7983,-2620,2392,-97,374,-39,1,7,11
1.72313E+12,-7971,-2600,2382,-91,321,-69,1,7,11
1.72313E+12,-7950,-2588,2367,-103,272,-112,1,7,11
1.72313E+12,-7662,-2573,2347,122,-21,90,1,7,11
1.72313E+12,-7657,-2592,2364,61,-44,26,1,7,11
1.72313E+12,-7642,-2610,2380,18,-76,-275,1,7,11
1.72313E+12,-7613,-2615,2378,-270,-108,-297,1,7,11
1.72313E+12,-7570,-2631,2372,-318,-118,-311,1,7,11
1.72313E+12,-7572,-2644,2364,-342,-99,-308,1,7,11
1.72313E+12,-7580,-2653,2356,-355,-78,-281,1,7,11
1.72313E+12,-7577,-2672,2349,-380,-65,11,1,7,11
1.72313E+12,-7600,-2440,2356,-136,-48,38,1,7,11
1.72313E+12,-7603,-2447,2361,-141,-54,63,1,7,11
1.72313E+12,-7617,-2469,2378,-145,-71,75,1,7,11
1.72313E+12,-7598,-2481,2389,-381,-115,96,1,7,11
1.72313E+12,-7579,-2491,2399,-367,124,87,1,7,11
1.72313E+12,-7573,-2494,2419,-347,115,81,1,7,11
1.72313E+12,-7556,-2485,2413,-311,123,85,1,7,11
1.72313E+12,-7808,-2460,2393,-278,-98,100,1,7,11
1.72313E+12,-7794,-2434,2371,-259,-55,-127,1,7,11
1.72313E+12,-7800,-2687,2362,-263,268,-110,1,7,11
1.72313E+12,-7602,-2675,2355,-251,383,-87,1,7,11
1.72313E+12,-7655,-2655,2353,30,173,-51,1,7,11
1.72313E+12,-7666,-2633,2340,56,178,-4,1,7,11
1.72313E+12,-7656,-2621,2332,63,173,265,1,7,11
1.72313E+12,-7666,-2615,2331,68,170,-19,1,7,11
1.72313E+12,-7940,-2608,2331,63,145,-73,1,7,11
1.72313E+12,-7956,-2602,2336,68,353,-128,1,7,11
1.72313E+12,-7946,-2579,2318,69,290,86,1,7,11
1.72313E+12,-7676,-2298,2042,54,-10,39,1,7,11
1.72313E+12,-7660,-2283,2030,15,-54,5,1,7,11
1.72313E+12,-7666,-2284,2022,-284,-82,-282,1,7,11
1.72313E+12,-7661,-2289,2017,-324,-120,-288,1,7,11
1.72313E+12,-7666,-2289,1996,-355,107,-282,1,7,11
1.72313E+12,-7669,-2290,1969,-135,84,-259,1,7,11
1.72313E+12,-7670,-2564,1961,-187,67,23,1,7,11
1.72313E+12,-7656,-2606,1985,-235,46,49,1,7,11
1.72313E+12,-7626,-2672,2035,-250,49,53,1,7,11
1.72313E+12,-7623,-2445,2312,-186,86,46,1,7,11
1.72313E+12,-7612,-2480,2334,-379,96,45,1,7,11
1.72313E+12,-7601,-2486,2337,-299,-125,20,1,7,11
1.72313E+12,-7614,-2490,2346,31,-82,-266,1,7,11
1.72313E+12,-7619,-2491,2354,96,-50,-294,1,7,11
1.72313E+12,-7623,-2484,2354,-101,-25,-318,1,7,11
1.72313E+12,-7634,-2475,2362,-50,257,-338,1,7,11
1.72313E+12,-7661,-2451,2348,260,288,-352,1,7,11
1.72313E+12,-7953,-2662,2330,297,305,-344,1,7,11
1.72313E+12,-7959,-2620,2046,305,304,-319,1,7,11
1.72313E+12,-7973,-2606,2310,269,311,-313,1,7,11
1.72313E+12,-7945,-2613,2324,-25,276,-301,1,7,11
1.72313E+12,-7658,-2630,2357,-63,-11,-334,1,7,11
1.72313E+12,-7643,-2648,2395,-84,-42,-142,1,7,11
1.72313E+12,-7651,-2664,2425,-83,-72,-200,1,7,11
1.72313E+12,-7647,-2642,2424,-84,-111,-229,1,7,11
1.72313E+12,-7655,-2619,2413,-101,110,-224,1,7,11
1.72313E+12,-7603,-2590,2339,21,52,-152,1,7,11
1.72313E+12,-7586,-2599,2327,-348,30,-365,1,7,11
1.72313E+12,-7570,-2638,2326,-223,26,-341,1,7,11
1.72313E+12,-7803,-2436,2345,-589,12,-312,1,7,11
1.72313E+12,-7760,-2512,2359,-420,-257,-303,1,7,11
1.72313E+12,-7728,-2871,2368,-469,3,-319,1,7,11
1.72313E+12,-7698,-2927,2382,-499,18,-355,1,7,11
1.72313E+12,-7681,-2716,2398,-480,60,-148,1,7,11
1.72313E+12,-7713,-2753,2184,-441,121,-200,1,7,11
1.72313E+12,-7720,-2774,2212,-607,-90,-211,1,7,11
1.72313E+12,-7735,-2765,2230,-230,-51,-188,1,7,11
1.72313E+12,-7746,-2723,2209,-339,-25,-152,1,7,11
1.72313E+12,-7778,-2909,2417,54,299,-369,1,7,11
1.72313E+12,-7568,-2833,2371,-118,341,-308,1,7,11
1.72313E+12,-7594,-2520,2351,-120,363,14,1,7,11
1.72313E+12,-7618,-2484,2346,77,376,63,1,7,11
1.72313E+12,-7623,-2456,2346,12,360,99,1,7,11
1.72313E+12,-7620,-2437,2328,-317,335,101,1,7,11
1.72313E+12,-7654,-2684,2309,-148,302,81,1,7,11
1.72313E+12,-7637,-2686,2019,-252,-28,67,1,7,11
1.72313E+12,-7610,-2459,1993,-389,-100,21,1,7,11
1.72313E+12,-7579,-2517,1997,-512,87,-290,1,7,11
1.72313E+12,-7777,-2838,1993,-837,28,-336,1,7,11
1.72313E+12,-7705,-2895,1966,-868,10,-131,1,7,11
1.72313E+12,-7401,-2703,1939,-884,24,-184,1,7,11
1.72313E+12,-7358,-2776,1932,-881,68,-233,1,7,11
1.72313E+12,-7373,-3085,1941,-826,-98,-530,1,7,11
1.72313E+12,-7688,-3123,1949,-465,-20,-513,1,7,11
1.72313E+12,-7719,-3145,1973,-584,275,-190,1,7,11
1.72313E+12,-7772,-3159,2010,-178,318,-370,1,7,11
1.72313E+12,-7584,-3163,2317,-278,337,-288,1,7,11
1.72313E+12,-7656,-3125,2342,-98,309,73,1,7,11
1.72313E+12,-7657,-2810,2360,300,-21,-72,1,7,11
1.72313E+12,-7651,-2748,2382,138,-84,-6,1,7,11
1.72313E+12,-7645,-2938,2389,198,111,291,1,7,11
1.72313E+12,-7604,-2861,2363,232,46,324,1,7,11
1.72313E+12,-7589,-2532,2320,197,20,314,1,7,11
1.72313E+12,-7572,-2467,2020,374,-258,306,1,7,11
1.72313E+12,-7799,-2675,1989,-11,-259,292,1,7,11
1.72313E+12,-7793,-2656,1983,76,36,257,1,7,11
1.72313E+12,-7806,-2684,2001,-338,86,-19,1,7,11
1.72313E+12,-7795,-2466,2012,-183,-121,-38,1,7,11
1.72313E+12,-7559,-2511,2021,-231,-56,-71,1,7,11
1.72313E+12,-7562,-2533,2012,-235,-7,-100,1,7,11
1.72313E+12,-7577,-2828,2012,-227,288,109,1,7,11
1.72313E+12,-7560,-2870,2017,-207,284,61,1,7,11
1.72313E+12,-7555,-2917,2045,-164,294,-284,1,7,11
1.72313E+12,-7563,-2937,2309,-326,280,-347,1,7,11
1.72313E+12,-7560,-2925,2315,31,-3,-134,1,7,11
1.72313E+12,-7804,-2900,2316,113,-32,-149,1,7,11
1.72313E+12,-7798,-2847,2306,-77,-49,-129,1,7,11
1.72313E+12,-7791,-2514,2040,-46,-49,-341,1,7,11
1.72313E+12,-7794,-2476,2308,-73,-41,-289,1,7,11
1.72313E+12,-7799,-2440,2337,-102,-32,30,1,7,11
1.72313E+12,-7555,-2670,2339,96,-25,76,1,7,11
1.72313E+12,-7570,-2659,2328,24,-19,108,1,7,11
1.72313E+12,-7586,-2650,2031,-337,-27,-118,1,7,11
1.72313E+12,-7601,-2648,1948,-201,-30,-106,1,7,11
1.72313E+12,-7594,-2674,2124,-605,-40,-109,1,7,11
1.72313E+12,-7582,-2486,2076,-790,-43,121,1,7,11
1.72313E+12,-7578,-2847,2064,-713,-29,67,1,7,11
1.72313E+12,-7597,-2694,2060,-1092,260,5,1,7,11
1.72313E+12,-7648,-2803,2085,-1062,285,-308,1,7,11
1.72313E+12,-7970,-3119,2108,-693,260,-308,1,7,11
1.72313E+12,-7959,-3197,2170,-796,-89,-280,1,7,11
1.72313E+12,-7938,-2992,1989,-587,72,-259,1,7,11
1.72313E+12,-7620,-3005,2304,-313,-272,30,1,7,11
1.72313E+12,-7559,-2960,2342,-17,-313,42,1,7,11
1.72313E+12,-7771,-3149,2372,243,-317,49,1,7,11
1.72313E+12,-7740,-2813,2402,448,-285,56,1,7,11
1.72313E+12,-7724,-2712,2409,858,24,65,1,7,11
1.72313E+12,-7696,-2859,2375,688,84,67,1,7,11
1.72313E+12,-7687,-2504,2343,669,-113,48,1,7,11
1.72313E+12,-7413,-2435,2045,811,-59,9,1,7,11
1.72313E+12,-7703,-2652,2032,631,262,-301,1,7,11
1.72313E+12,-7719,-2642,2030,162,291,-338,1,7,11
1.72313E+12,-7767,-2655,2047,-63,318,-377,1,7,11
1.72313E+12,-7557,-2682,2307,-257,313,-378,1,7,11
1.72313E+12,-7602,-2457,2307,-151,296,-346,1,7,11
1.72313E+12,-7632,-2487,2031,-530,261,-276,1,7,11
1.72313E+12,-7653,-2532,2022,-631,-22,52,1,7,11
1.72313E+12,-7652,-2847,2014,-437,-47,-123,1,7,11
1.72313E+12,-7634,-2903,2010,-444,-69,-52,1,7,11
1.72313E+12,-7593,-2708,2017,-406,-71,-14,1,7,11
1.72313E+12,-7574,-2761,2029,-581,-47,-25,1,7,11
1.72313E+12,-7568,-2792,2041,-204,-25,-60,1,7,11
1.72313E+12,-7564,-2791,2037,-312,-9,-103,1,7,11
1.72313E+12,-7567,-2775,2025,82,258,102,1,7,11
1.72313E+12,-7565,-2747,2040,-69,-6,60,1,7,11
1.72313E+12,-7792,-2728,2319,264,-46,12,1,7,11
1.72313E+12,-7759,-2699,2325,360,-66,-273,1,7,11
1.72313E+12,-7724,-2938,2331,145,-86,-291,1,7,11
1.72313E+12,-7688,-2911,2318,171,-77,-303,1,7,11
1.72313E+12,-7415,-2896,2304,162,-36,-305,1,7,11
1.72313E+12,-7416,-2890,2034,146,280,-283,1,7,11
1.72313E+12,-7417,-2881,2025,378,332,30,1,7,11
1.72313E+12,-7419,-2883,2013,338,137,91,1,7,11
1.72313E+12,-7702,-2883,2002,315,204,-100,1,7,11
1.72313E+12,-7748,-2888,1992,309,526,-28,1,7,11
1.72313E+12,-7790,-2886,1975,310,572,303,1,7,11
1.72313E+12,-7581,-2872,1968,326,607,370,1,7,11
1.72313E+12,-7630,-2852,1958,352,612,177,1,7,11
1.72313E+12,-7639,-2827,1943,362,584,212,1,7,11
1.72313E+12,-7645,-2547,1929,364,550,200,1,7,11
1.72313E+12,-7660,-2516,2175,350,519,143,1,7,11
1.72313E+12,-7674,-2483,2167,338,223,332,1,7,11
1.72313E+12,-7956,-2444,2154,308,187,272,1,7,11
1.72313E+12,-7967,-2680,2148,265,139,-25,1,7,11
1.72313E+12,-7975,-2665,2136,-30,359,-54,1,7,11
1.72313E+12,-7973,-2662,2125,-91,317,-78,1,7,11
1.72313E+12,-7965,-2669,2121,105,274,-106,1,7,11
1.72313E+12,-7959,-2681,2116,52,-26,124,1,7,11
1.72313E+12,-7940,-2452,2136,8,-76,101,1,7,11
1.72313E+12,-7658,-2463,2146,-274,-124,80,1,7,11
1.72313E+12,-7634,-2486,2173,-292,90,64,1,7,11
1.72313E+12,-7583,-2504,1932,-284,53,55,1,7,11
1.72313E+12,-7797,-2515,1949,-263,46,42,1,7,11
1.72313E+12,-7763,-2526,1959,16,61,24,1,7,11
1.72313E+12,-7766,-2516,1956,45,95,8,1,7,11
1.72313E+12,-7755,-2500,1930,67,126,15,1,7,11
1.72313E+12,-7765,-2492,2173,67,-84,22,1,7,11
1.72313E+12,-7558,-2487,2172,54,-32,32,1,7,11
1.72313E+12,-7596,-2486,2175,52,-19,79,1,7,11
1.72313E+12,-7639,-2505,1936,38,258,93,1,7,11
1.72313E+12,-7960,-2520,1947,60,-5,-124,1,7,11
1.72313E+12,-7955,-2527,1954,78,-55,-85,1,7,11
1.72313E+12,-7947,-2524,1956,107,-80,-81,1,7,11
1.72313E+12,-7678,-2514,1953,-128,-100,-88,1,7,11
1.72313E+12,-7948,-2503,1956,-119,-102,-105,1,7,11
1.72313E+12,-7939,-2491,1961,-106,-117,-91,1,7,11
1.72313E+12,-7665,-2487,1973,-106,-107,-84,1,7,11
1.72313E+12,-7666,-2477,1992,-103,-87,-75,1,7,11
1.72313E+12,-7663,-2466,1997,-91,-73,-51,1,7,11
1.72313E+12,-7639,-2442,2004,-86,-75,-22,1,7,11
1.72313E+12,-7621,-2677,1999,-107,-66,-35,1,7,11
1.72313E+12,-7636,-2650,1985,118,-64,-61,1,7,11
1.72313E+12,-7627,-2637,1972,78,-81,-95,1,7,11
1.72313E+12,-7627,-2619,1956,30,-93,111,1,7,11
1.72313E+12,-7616,-2639,1970,-288,-110,54,1,7,11
1.72313E+12,-7625,-2672,1984,-337,116,-284,1,7,11
1.72313E+12,-7613,-2681,1982,-353,83,-317,1,7,11
1.72313E+12,-7608,-2683,1980,-351,64,-342,1,7,11
1.72313E+12,-7601,-2438,1969,-355,54,-344,1,7,11
1.72313E+12,-7581,-2436,1956,-355,66,-322,1,7,11
1.72313E+12,-7587,-2456,1977,-367,104,-291,1,7,11
1.72313E+12,-7596,-2465,2003,-346,-107,20,1,7,11
1.72313E+12,-7617,-2470,2027,-308,-55,78,1,7,11
1.72313E+12,-7622,-2458,2032,10,-9,-112,1,7,11
1.72313E+12,-7629,-2441,2032,56,282,-66,1,7,11
1.72313E+12,-7639,-2686,2040,83,294,-38,1,7,11
1.72313E+12,-7652,-2673,2039,84,276,-33,1,7,11
1.72313E+12,-7659,-2655,2022,78,-24,-31,1,7,11
1.72313E+12,-7646,-2621,1975,60,-83,-21,1,7,11
1.72313E+12,-7606,-2599,2164,-259,-128,-29,1,7,11
1.72313E+12,-7590,-2589,2130,-368,125,-62,1,7,11
1.72313E+12,-7609,-2627,2151,-229,-106,-108,1,7,11
1.72313E+12,-7630,-2664,2174,-536,-81,-117,1,7,11
1.72313E+12,-7647,-2458,1967,-542,-57,-127,1,7,11
1.72313E+12,-7665,-2501,2005,-213,-36,124,1,7,11
1.72313E+12,-7666,-2519,2026,-353,-36,118,1,7,11
1.72313E+12,-7658,-2503,2016,43,-40,105,1,7,11
1.72313E+12,-7647,-2481,2001,127,-48,69,1,7,11
1.72313E+12,-7655,-2465,1986,-78,-61,37,1,7,11
1.72313E+12,-7646,-2435,1972,-55,-93,25,1,7,11
1.72313E+12,-7611,-2653,1947,-51,-120,32,1,7,11
1.72313E+12,-7605,-2618,1922,-80,-105,20,1,7,11
1.72313E+12,-7629,-2598,2168,121,-83,31,1,7,11
1.72313E+12,-7653,-2602,1920,62,-62,73,1,7,11
1.72313E+12,-7660,-2619,1940,22,-48,-117,1,7,11
1.72313E+12,-7657,-2658,1963,13,-27,-51,1,7,11
1.72313E+12,-7634,-2684,1978,45,-6,-7,1,7,11
1.72313E+12,-7622,-2461,1995,91,282,-11,1,7,11
1.72313E+12,-7617,-2481,2003,-93,301,-48,1,7,11
1.72313E+12,-7623,-2483,2000,-5,311,-94,1,7,11
1.72313E+12,-7628,-2465,1978,321,315,104,1,7,11
1.72313E+12,-7646,-2437,1955,371,307,49,1,7,11
1.72313E+12,-7653,-2653,1930,130,287,13,1,7,11
1.72313E+12,-7663,-2634,1939,380,271,-259,1,7,11
1.72313E+12,-7655,-2606,1937,383,266,13,1,7,11
1.72313E+12,-7940,-2599,1947,365,271,29,1,7,11
1.72313E+12,-7939,-2577,1942,355,257,61,1,7,11
1.72313E+12,-7954,-2580,1978,313,-13,68,1,7,11
1.72313E+12,-7679,-2586,2018,288,-52,81,1,7,11
1.72313E+12,-7653,-2575,2018,277,-108,61,1,7,11
1.72313E+12,-7642,-2297,2011,276,-123,35,1,7,11
1.72313E+12,-7645,-2261,1983,259,122,26,1,7,11
1.72313E+12,-7629,-2238,1961,-86,122,26,1,7,11
1.72313E+12,-7627,-2224,1939,73,-113,25,1,7,11
1.72313E+12,-7643,-2229,1938,-281,-81,29,1,7,11
1.72313E+12,-7644,-2257,1941,-372,-71,46,1,7,11
1.72313E+12,-7643,-2282,1939,-174,-67,62,1,7,11
1.72313E+12,-7639,-2570,1939,-217,-75,58,1,7,11
1.72313E+12,-7645,-2621,1960,-240,-81,36,1,7,11
1.72313E+12,-7650,-2655,1969,-222,-97,10,1,7,11
1.72313E+12,-7656,-2662,1965,-177,-115,-266,1,7,11
1.72313E+12,-7651,-2657,1933,-139,-126,-281,1,7,11
1.72313E+12,-7649,-2658,2167,-372,-124,-304,1,7,11
1.72313E+12,-7676,-2663,2158,-354,-101,-322,1,7,11
1.72313E+12,-7964,-2650,2149,-328,-85,-316,1,7,11
1.72313E+12,-8006,-2651,2167,-316,-72,-303,1,7,11
1.72313E+12,-8039,-2641,1938,-301,-96,-271,1,7,11
1.72313E+12,-8049,-2640,1963,-273,115,18,1,7,11
1.72313E+12,-8040,-2648,1996,0,41,41,1,7,11
1.72313E+12,-7995,-2649,2019,7,-307,39,1,7,11
1.72313E+12,-7957,-2641,2043,3,-380,2,1,7,11
1.72313E+12,-7662,-2636,2307,-268,-194,-293,1,7,11
1.72313E+12,-7613,-2626,2043,-302,-241,-330,1,7,11
1.72313E+12,-7564,-2619,2035,-352,-513,-354,1,7,11
1.72313E+12,-7786,-2630,2040,-171,-226,-135,1,7,11
1.72313E+12,-7783,-2658,2312,-216,-164,-160,1,7,11
1.72313E+12,-7801,-2686,2335,-216,-338,-162,1,7,11
1.72313E+12,-7566,-2450,2358,-173,2,-137,1,7,11
1.72313E+12,-7585,-2491,2366,-359,73,-355,1,7,11
1.72313E+12,-7572,-2504,2352,-267,118,-306,1,7,11
1.72313E+12,-7554,-2520,2350,54,-92,-309,1,7,11
1.72313E+12,-7572,-2539,2373,109,-54,-341,1,7,11
1.72313E+12,-7577,-2548,2401,-77,-50,-361,1,7,11
1.72313E+12,-7565,-2530,2408,-12,-64,-377,1,7,11
1.72313E+12,-7795,-2496,2386,315,-88,-382,1,7,11
1.72313E+12,-7764,-2477,2366,315,-88,-129,1,7,11
1.72313E+12,-7734,-2456,2344,293,-68,-375,1,7,11
1.72313E+12,-7723,-2450,2326,-10,-11,-370,1,7,11
1.72313E+12,-7738,-2446,2323,-77,316,-353,1,7,11
1.72313E+12,-7758,-2466,2338,105,368,-322,1,7,11
1.72313E+12,-7781,-2488,2370,45,141,-293,1,7,11
1.72313E+12,-7553,-2504,2403,10,157,-270,1,7,11
1.72313E+12,-7579,-2485,2406,11,156,32,1,7,11
1.72313E+12,-7614,-2435,2371,-259,151,78,1,7,11
1.72313E+12,-7651,-2635,2330,-322,133,-115,1,7,11
1.72313E+12,-7672,-2597,2025,-167,350,-40,1,7,11
1.72313E+12,-7672,-2581,1991,-552,292,286,1,7,11
1.72313E+12,-7636,-2589,1966,-428,-15,324,1,7,11
1.72313E+12,-7623,-2615,1957,-784,-33,321,1,7,11
1.72313E+12,-7610,-2629,1948,-833,-29,310,1,7,11
1.72313E+12,-7618,-2655,1955,-850,261,277,1,7,11
1.72313E+12,-7647,-2677,1958,-810,311,-5,1,7,11
1.72313E+12,-7672,-2438,1939,-477,352,-27,1,7,11
1.72313E+12,-7942,-2456,1923,-389,380,-61,1,7,11
1.72313E+12,-7985,-2478,2171,-558,135,-124,1,7,11
1.72313E+12,-8042,-2489,2152,-211,356,37,1,7,11
1.72313E+12,-8061,-2476,2124,-377,289,4,1,7,11
1.72313E+12,-8057,-2482,2137,-318,-61,-353,1,7,11
1.72313E+12,-7820,-2515,1925,-304,104,-154,1,7,11
1.72313E+12,-8019,-2509,1939,14,-331,-153,1,7,11
1.72313E+12,-7945,-2503,1958,80,-154,-171,1,7,11
1.72313E+12,-7648,-2490,1971,-116,-183,-178,1,7,11
1.72313E+12,-7606,-2478,1990,-94,-174,-175,1,7,11
1.72313E+12,-7580,-2475,2007,-88,-157,-152,1,7,11
1.72313E+12,-7793,-2483,2026,-100,-136,-382,1,7,11
1.72313E+12,-7791,-2487,2047,-109,-342,-380,1,7,11
1.72313E+12,-7784,-2488,2332,-106,-301,-372,1,7,11
1.72313E+12,-7762,-2481,2341,-104,-276,-369,1,7,11
1.72313E+12,-7737,-2485,2347,-120,10,-139,1,7,11
1.72313E+12,-7708,-2489,2341,113,34,-183,1,7,11
1.72313E+12,-7725,-2495,2341,76,73,-248,1,7,11
1.72313E+12,-7746,-2508,2343,34,91,-534,1,7,11
1.72313E+12,-7757,-2516,2337,-269,98,-534,1,7,11
1.72313E+12,-7764,-2544,2340,-319,107,-521,1,7,11
1.72313E+12,-7779,-2838,2346,-367,119,-240,1,7,11
1.72313E+12,-7774,-2864,2327,-141,121,-198,1,7,11
1.72313E+12,-7782,-2900,2324,-176,-116,-168,1,7,11
1.72313E+12,-7793,-2931,2310,-197,-90,-132,1,7,11
1.72313E+12,-7801,-2706,2044,-217,-66,-350,1,7,11
1.72313E+12,-7562,-2735,2304,-232,-47,-317,1,7,11
1.72313E+12,-7556,-2766,2309,-223,-50,-283,1,7,11
1.72313E+12,-7807,-2793,2047,-191,-50,-273,1,7,11
1.72313E+12,-7561,-2798,2305,-149,-41,-278,1,7,11
1.72313E+12,-7567,-2800,2306,-365,-38,-280,1,7,11
1.72313E+12,-7560,-2805,2320,-307,-45,-269,1,7,11
1.72313E+12,-7808,-2796,2334,16,-52,0,1,7,11
1.72313E+12,-7806,-2782,2348,95,-47,10,1,7,11
1.72313E+12,-7808,-2748,2354,-74,-35,28,1,7,11
1.72313E+12,-7554,-2716,2348,-1,-26,64,1,7,11
1.72313E+12,-7801,-2933,2344,292,-13,99,1,7,11
1.72313E+12,-7802,-2902,2354,309,-3,-115,1,7,11
1.72313E+12,-7794,-2891,2361,306,257,-89,1,7,11
1.72313E+12,-7771,-2874,2351,314,-9,-67,1,7,11
1.72313E+12,-7750,-2868,2348,295,-31,-67,1,7,11
1.72313E+12,-7701,-2866,2336,-14,-63,-90,1,7,11
1.72313E+12,-7396,-2855,2309,-55,-60,125,1,7,11
1.72313E+12,-7408,-2831,2027,126,-5,57,1,7,11
1.72313E+12,-7702,-2554,2003,38,293,37,1,7,11
1.72313E+12,-7762,-2543,1985,-321,333,39,1,7,11
1.72313E+12,-7808,-2551,1985,-152,349,89,1,7,11
1.72313E+12,-7558,-2831,1997,-209,358,-109,1,7,11
1.72313E+12,-7571,-2851,1997,-223,128,-77,1,7,11
1.72313E+12,-7602,-2870,1995,-204,151,-56,1,7,11
1.72313E+12,-7616,-2881,1993,-159,160,-56,1,7,11
1.72313E+12,-7647,-2896,2002,-345,165,-86,1,7,11
1.72313E+12,-7666,-2896,2012,-264,139,-122,1,7,11
1.72313E+12,-7676,-2875,2011,82,354,71,1,7,11
1.72313E+12,-7943,-2842,2002,-87,298,37,1,7,11
1.72313E+12,-7942,-2557,1998,-29,-15,20,1,7,11
1.72313E+12,-7656,-2524,1995,-8,-113,15,1,7,11
1.72313E+12,-7641,-2507,2004,-16,97,8,1,7,11
1.72313E+12,-7598,-2480,2001,-63,58,11,1,7,11
1.72313E+12,-7574,-2467,2005,125,46,-258,1,7,11
1.72313E+12,-7808,-2481,2022,45,48,-276,1,7,11
1.72313E+12,-7777,-2490,2022,-271,57,-293,1,7,11
1.72313E+12,-7771,-2509,2024,-332,91,-321,1,7,11
1.72313E+12,-7766,-2540,2037,-133,115,-341,1,7,11
1.72313E+12,-7786,-2825,2041,-167,-116,-352,1,7,11
1.72313E+12,-7802,-2851,2021,-194,-107,-345,1,7,11
1.72313E+12,-7558,-2875,2012,-217,-113,-329,1,7,11
1.72313E+12,-7557,-2897,1990,-238,-126,-308,1,7,11
1.72313E+12,-7793,-2925,1982,-519,118,-290,1,7,11
1.72313E+12,-7785,-2700,1992,-533,114,-286,1,7,11
1.72313E+12,-7774,-2733,2009,-520,121,-281,1,7,11
1.72313E+12,-7792,-2741,2030,-238,-109,-284,1,7,11
1.72313E+12,-7570,-2741,2310,-183,-84,-270,1,7,11
1.72313E+12,-7588,-2734,2313,-368,-86,27,1,7,11
1.72313E+12,-7808,-2702,2025,-260,-109,99,1,7,11
1.72313E+12,-7795,-2915,1987,27,-85,95,1,7,11
1.72313E+12,-7567,-2876,1964,25,-49,84,1,7,11
1.72313E+12,-7578,-2851,1937,-262,-44,108,1,7,11
1.72313E+12,-7578,-2854,1930,-329,-43,123,1,7,11
1.72313E+12,-7585,-2879,1955,-140,-58,120,1,7,11
1.72313E+12,-7592,-2906,1984,-173,-85,115,1,7,11
1.72313E+12,-7588,-2927,2021,-188,127,107,1,7,11
1.72313E+12,-7578,-2691,2311,-185,79,101,1,7,11
1.72313E+12,-7556,-2700,2352,-178,35,99,1,7,11
1.72313E+12,-7788,-2707,2380,-173,1,104,1,7,11
1.72313E+12,-7755,-2711,2410,-165,-283,120,1,7,11
1.72313E+12,-7742,-2696,2422,-172,-291,-112,1,7,11
1.72313E+12,-7737,-2938,2425,-186,-285,-63,1,7,11
1.72313E+12,-7697,-2917,2410,-199,-283,279,1,7,11
1.72313E+12,-7383,-2903,2363,-229,11,350,1,7,11
1.72313E+12,-7319,-2901,2317,-537,65,141,1,7,11
1.72313E+12,-7547,-2912,2017,-592,-86,128,1,7,11
1.72313E+12,-7343,-2932,1997,-635,307,343,1,7,11
1.72313E+12,-7400,-2943,1975,-613,163,353,1,7,11
1.72313E+12,-7693,-2690,1942,-554,249,380,1,7,11
1.72313E+12,-7765,-2722,1950,-248,586,370,1,7,11
1.72313E+12,-7581,-2728,1942,-373,621,379,1,7,11
1.72313E+12,-7649,-2723,2172,41,628,128,1,7,11
1.72313E+12,-7658,-2929,2146,-44,586,156,1,7,11
1.72313E+12,-7678,-2886,2140,349,564,137,1,7,11
1.72313E+12,-7990,-2827,2163,195,574,351,1,7,11
1.72313E+12,-8061,-2497,1934,558,589,350,1,7,11
1.72313E+12,-7842,-2671,1957,392,564,149,1,7,11
1.72313E+12,-7840,-2585,1957,471,255,206,1,7,11
1.72313E+12,-8064,-2242,1932,446,176,235,1,7,11
1.72313E+12,-8036,-2415,2159,582,348,204,1,7,11
1.72313E+12,-7965,-2407,2151,144,-11,139,1,7,11
1.72313E+12,-7971,-2354,2122,-46,-50,304,1,7,11
1.72313E+12,-7656,-2356,2084,-272,120,257,1,7,11
1.72313E+12,-7588,-2362,1774,-531,71,-76,1,7,11
1.72313E+12,-7561,-2412,1745,-793,55,96,1,7,11
1.72313E+12,-7562,-2227,1750,-1029,68,19,1,7,11
1.72313E+12,-7586,-2573,1777,-925,96,-262,1,7,11
1.72313E+12,-7600,-2655,2067,-996,122,11,1,7,11
1.72313E+12,-7603,-2493,2100,-999,-109,31,1,7,11
1.72313E+12,-7635,-2819,2139,-924,-74,39,1,7,11
1.72313E+12,-7651,-2869,2169,-1035,-66,54,1,7,11
1.72313E+12,-7647,-2898,1931,-859,-74,63,1,7,11
1.72313E+12,-7646,-2905,1947,-415,-89,67,1,7,11
1.72313E+12,-7621,-2902,1961,-226,-109,69,1,7,11
1.72313E+12,-7611,-2879,1955,-294,-105,65,1,7,11
1.72313E+12,-7601,-2828,1921,122,-85,67,1,7,11
1.72313E+12,-7611,-2504,2140,-17,-48,72,1,7,11
1.72313E+12,-7631,-2442,2100,294,256,85,1,7,11
1.72313E+12,-7658,-2649,2063,306,290,115,1,7,11
1.72313E+12,-7940,-2612,2051,284,320,-111,1,7,11
1.72313E+12,-7970,-2589,1789,-1,335,-90,1,7,11
1.72313E+12,-7984,-2576,1785,-32,333,-72,1,7,11
1.72313E+12,-7987,-2301,1781,-63,329,-80,1,7,11
1.72313E+12,-8015,-2297,1782,-103,322,-121,1,7,11
1.72313E+12,-8022,-2571,2053,-128,293,91,1,7,11
1.72313E+12,-8007,-2573,2059,112,-9,41,1,7,11
1.72313E+12,-8001,-2572,2063,99,-56,-277,1,7,11
1.72313E+12,-8004,-2302,2072,71,-117,-326,1,7,11
1.72313E+12,-7989,-2561,2091,24,55,-356,1,7,11
1.72313E+12,-7956,-2293,2101,-262,-270,-368,1,7,11
1.72313E+12,-7653,-2281,2128,-316,-325,-378,1,7,11
1.72313E+12,-7646,-2286,2172,-374,-348,-382,1,7,11
1.72313E+12,-7630,-2297,1934,-168,-377,-350,1,7,11
1.72313E+12,-7606,-2291,1923,-215,-135,-306,1,7,11
1.72313E+12,-7578,-2290,2157,-563,-381,-272,1,7,11
1.72313E+12,-7567,-2564,2147,-411,-342,5,1,7,11
1.72313E+12,-7561,-2597,2137,-773,-290,22,1,7,11
1.72313E+12,-7583,-2667,2136,-864,29,27,1,7,11
1.72313E+12,-7607,-2487,2144,-665,76,39,1,7,11
1.72313E+12,-7598,-2837,2171,-675,97,44,1,7,11
1.72313E+12,-7591,-2925,1947,-864,-126,24,1,7,11
1.72313E+12,-7583,-2736,1963,-459,-89,-258,1,7,11
1.72313E+12,-7598,-2759,1949,-252,-33,-283,1,7,11
1.72313E+12,-7601,-2757,1939,-301,267,-285,1,7,11
1.72313E+12,-7601,-2748,1925,-105,305,-286,1,7,11
1.72313E+12,-7588,-2730,1922,334,324,-280,1,7,11
1.72313E+12,-7558,-2703,1927,232,337,-285,1,7,11
1.72313E+12,-7555,-2920,1941,621,355,-307,1,7,11
1.72313E+12,-7808,-2864,1976,482,369,-317,1,7,11
1.72313E+12,-7554,-2545,1976,838,382,-304,1,7,11
1.72313E+12,-7802,-2471,1964,891,143,-282,1,7,11
1.72313E+12,-7797,-2652,1950,893,175,-264,1,7,11
1.72313E+12,-7555,-2590,1924,836,220,-260,1,7,11
1.72313E+12,-7591,-2261,2162,495,515,8,1,7,11
1.72313E+12,-7601,-2203,2121,607,522,20,1,7,11
1.72313E+12,-7666,-2415,2087,182,553,9,1,7,11
1.72313E+12,-7949,-2399,2056,-18,531,29,1,7,11
1.72313E+12,-7957,-2422,1766,29,243,38,1,7,11
1.72313E+12,-7951,-2218,1742,-182,197,22,1,7,11
1.72313E+12,-7937,-2301,1715,-637,134,-284,1,7,11
1.72313E+12,-7680,-2642,1683,-800,330,-352,1,7,11
1.72313E+12,-7939,-2474,1909,-691,264,-165,1,7,11
1.72313E+12,-7957,-2542,1895,-1055,-54,-213,1,7,11
1.72313E+12,-7970,-2872,1903,-1142,-123,-221,1,7,11
1.72313E+12,-7979,-2707,1690,-921,65,-194,1,7,11
1.72313E+12,-7988,-2808,1759,-1143,8,-140,1,7,11
1.72313E+12,-7958,-3139,2069,-746,-308,-302,1,7,11
1.72313E+12,-7637,-3165,2085,-796,-341,46,1,7,11
1.72313E+12,-7564,-3152,2086,-582,-312,90,1,7,11
1.72313E+12,-7804,-3128,2110,-131,24,104,1,7,11
1.72313E+12,-7750,-3090,2117,54,94,126,1,7,11
1.72313E+12,-7702,-2796,2100,-32,-69,119,1,7,11
1.72313E+12,-7685,-2709,2084,368,336,49,1,7,11
1.72313E+12,-7696,-2893,1782,221,154,5,1,7,11
1.72313E+12,-7712,-2554,1715,551,216,-290,1,7,11
1.72313E+12,-7768,-2484,1665,249,530,-321,1,7,11
1.72313E+12,-7579,-2448,1893,164,562,-304,1,7,11
1.72313E+12,-7630,-2687,1871,327,555,11,1,7,11
1.72313E+12,-7657,-2662,1851,-17,533,85,1,7,11
1.72313E+12,-7673,-2644,1846,-123,252,-115,1,7,11
1.72313E+12,-7972,-2633,1859,46,233,-71,1,7,11
1.72313E+12,-8014,-2614,1869,-286,215,-28,1,7,11
1.72313E+12,-7820,-2598,1889,-362,181,265,1,7,11
1.72313E+12,-7834,-2581,1872,-182,360,318,1,7,11
1.72313E+12,-7836,-2561,1834,-524,296,326,1,7,11
1.72313E+12,-7828,-2302,1811,-387,-49,320,1,7,11
1.72313E+12,-8051,-2582,1524,-774,114,298,1,7,11
1.72313E+12,-8051,-2613,1534,-896,52,-12,1,7,11
1.72313E+12,-8063,-2683,1839,-743,-289,-57,1,7,11
1.72313E+12,-7813,-2483,1873,-752,-384,-60,1,7,11
1.72313E+12,-8013,-2515,1883,-717,-222,-44,1,7,11
1.72313E+12,-7948,-2553,1890,-668,-544,-60,1,7,11
1.72313E+12,-7630,-2831,1896,-873,-582,-104,1,7,11
1.72313E+12,-7602,-2858,1676,-809,-576,88,1,7,11
1.72313E+12,-7612,-2877,1724,-454,-543,34,1,7,11
1.72313E+12,-7618,-2861,1765,-582,-249,17,1,7,11
1.72313E+12,-7612,-2842,2071,-204,-214,16,1,7,11
1.72313E+12,-7574,-2820,2098,-343,-194,29,1,7,11
1.72313E+12,-7757,-2538,2125,-263,-163,4,1,7,11
1.72313E+12,-7766,-2541,1921,51,-330,-338,1,7,11
1.72313E+12,-7794,-2533,1931,-111,-258,-378,1,7,11
1.72313E+12,-7787,-2489,2147,-39,43,-382,1,7,11
1.72313E+12,-7788,-2450,2112,-44,102,-151,1,7,11
1.72313E+12,-7585,-2685,2096,-88,-97,-162,1,7,11
1.72313E+12,-7634,-2664,2077,117,-81,-380,1,7,11
1.72313E+12,-7636,-2656,2055,35,-105,-324,1,7,11
1.72313E+12,-7660,-2674,2050,-310,-116,-295,1,7,11
1.72313E+12,-7956,-2436,2055,-383,-123,-257,1,7,11
1.72313E+12,-8001,-2462,2071,-181,116,56,1,7,11
1.72313E+12,-8004,-2493,2079,-193,85,-125,1,7,11
1.72313E+12,-7969,-2523,2092,-186,47,-74,1,7,11
1.72313E+12,-7653,-2821,2108,-183,4,-84,1,7,11
1.72313E+12,-7582,-2865,2149,-154,-298,107,1,7,11
1.72313E+12,-7790,-2890,2168,-367,-319,-275,1,7,11
1.72313E+12,-7786,-2897,1954,-308,-325,-141,1,7,11
1.72313E+12,-7557,-2894,1999,-258,-315,-233,1,7,11
1.72313E+12,-7559,-2854,2024,54,-318,-245,1,7,11
1.72313E+12,-7768,-2838,2004,74,-320,-228,1,7,11
1.72313E+12,-7753,-2554,1963,73,-281,-221,1,7,11
1.72313E+12,-7735,-2536,1921,46,34,-212,1,7,11
1.72313E+12,-7770,-2544,2153,-286,117,-220,1,7,11
1.72313E+12,-7788,-2556,2145,-359,-58,-191,1,7,11
1.72313E+12,-7566,-2850,2142,-163,300,-161,1,7,11
1.72313E+12,-7586,-2878,2119,-188,348,-370,1,7,11
1.72313E+12,-7601,-2912,2099,-201,131,-338,1,7,11
1.72313E+12,-7608,-2938,2084,-191,146,-320,1,7,11
1.72313E+12,-7621,-2710,2074,-164,148,-325,1,7,11
1.72313E+12,-7607,-2716,1789,-374,370,-319,1,7,11
1.72313E+12,-7577,-2724,1774,-340,326,-333,1,7,11
1.72313E+12,-7568,-2737,1775,-302,297,-358,1,7,11
1.72313E+12,-7577,-2743,2062,-261,280,-381,1,7,11
1.72313E+12,-7588,-2750,2093,51,-10,-366,1,7,11
1.72313E+12,-7799,-2733,2097,120,-61,-325,1,7,11
1.72313E+12,-7767,-2695,2102,-92,-63,-318,1,7,11
1.72313E+12,-7783,-2912,2118,-70,-43,-322,1,7,11
1.72313E+12,-7798,-2871,2124,-59,-37,-294,1,7,11
1.72313E+12,-7808,-2829,2100,-52,-25,6,1,7,11
1.72313E+12,-7555,-2531,2066,-84,-8,49,1,7,11
1.72313E+12,-7785,-2499,1756,106,260,87,1,7,11
1.72313E+12,-7779,-2501,1710,-274,287,76,1,7,11
1.72313E+12,-7787,-2538,1686,-162,309,37,1,7,11
1.72313E+12,-7805,-2847,1673,-537,330,-269,1,7,11
1.72313E+12,-7572,-2934,1680,-405,336,-306,1,7,11
1.72313E+12,-7600,-2742,1716,-430,352,-325,1,7,11
1.72313E+12,-7626,-2811,1755,-640,347,-315,1,7,11
1.72313E+12,-7663,-3111,1777,-521,356,-291,1,7,11
1.72313E+12,-7955,-3104,1767,-361,361,10,1,7,11
1.72313E+12,-7974,-3076,1740,54,351,75,1,7,11
1.72313E+12,-7974,-2773,1702,-92,341,-127,1,7,11
1.72313E+12,-7977,-2750,1714,-33,317,-88,1,7,11
1.72313E+12,-7937,-2749,1741,280,259,-58,1,7,11
1.72313E+12,-7620,-2740,1759,360,-48,-65,1,7,11
1.72313E+12,-7580,-2708,1762,174,-69,-117,1,7,11
1.72313E+12,-7558,-2927,1750,217,-76,78,1,7,11
1.72313E+12,-7779,-2881,1732,228,-71,32,1,7,11
1.72313E+12,-7770,-2859,1720,177,-46,-281,1,7,11
1.72313E+12,-7757,-2862,1712,348,-34,-329,1,7,11
1.72313E+12,-7735,-2869,1700,263,-22,-374,1,7,11
1.72313E+12,-7736,-2898,1708,-83,265,-176,1,7,11
1.72313E+12,-7741,-2924,1714,96,287,-209,1,7,11
1.72313E+12,-7764,-2701,1738,30,313,-225,1,7,11
1.72313E+12,-7773,-2734,1769,-264,323,-205,1,7,11
1.72313E+12,-7791,-2763,2053,-269,332,-178,1,7,11
1.72313E+12,-7804,-2775,2062,16,318,-133,1,7,11
1.72313E+12,-7774,-2763,2062,43,285,-344,1,7,11
1.72313E+12,-7760,-2741,2058,59,271,-322,1,7,11
1.72313E+12,-7772,-2711,1786,41,271,-312,1,7,11
1.72313E+12,-7795,-2696,1783,5,267,-286,1,7,11
1.72313E+12,-7779,-2924,1739,-287,-3,33,1,7,11
1.72313E+12,-7753,-2900,1685,-352,270,78,1,7,11
1.72313E+12,-7747,-2892,1888,-186,319,98,1,7,11
1.72313E+12,-7783,-2914,1848,-534,132,110,1,7,11
1.72313E+12,-7554,-2941,1815,-620,234,-117,1,7,11
1.72313E+12,-7579,-2720,1532,-398,543,-100,1,7,11
1.72313E+12,-7609,-2783,1514,-409,576,-106,1,7,11
1.72313E+12,-7623,-3108,1510,-636,558,125,1,7,11
1.72313E+12,-7629,-3168,1497,-549,522,69,1,7,11
1.72313E+12,-7668,-2955,1488,-169,219,-263,1,7,11
1.72313E+12,-7942,-2977,1481,-287,149,-319,1,7,11
1.72313E+12,-7974,-2984,1496,102,337,-355,1,7,11
1.72313E+12,-7981,-2967,1528,-13,-3,-330,1,7,11
1.72313E+12,-7976,-3191,1811,381,-71,-273,1,7,11
1.72313E+12,-7965,-3131,1837,245,127,64,1,7,11
1.72313E+12,-7672,-3084,1882,580,64,-111,1,7,11
1.72313E+12,-7621,-2764,1897,633,-259,-43,1,7,11
1.72313E+12,-7573,-2713,1900,614,-316,-22,1,7,11
1.72313E+12,-7786,-2940,1671,546,-364,-40,1,7,11
1.72313E+12,-7735,-2923,1680,204,-153,-69,1,7,11
1.72313E+12,-7421,-2910,1675,361,-175,-106,1,7,11
1.72313E+12,-7366,-2914,1671,-5,-161,97,1,7,11
1.72313E+12,-7330,-2929,1664,-121,-359,29,1,7,11
1.72313E+12,-7352,-2710,1682,37,5,-291,1,7,11
1.72313E+12,-7404,-2745,1700,0,124,-306,1,7,11
1.72313E+12,-7707,-2762,1707,16,-11,-273,1,7,11
1.72313E+12,-7760,-2774,1713,59,358,36,1,7,11
1.72313E+12,-7807,-2785,1716,-123,193,102,1,7,11
1.72313E+12,-7560,-2801,1709,-44,235,-97,1,7,11
1.72313E+12,-7591,-2785,1681,315,539,-80,1,7,11
1.72313E+12,-7612,-2782,1674,365,520,-88,1,7,11
1.72313E+12,-7641,-2758,1914,162,235,-117,1,7,11
1.72313E+12,-7648,-2737,1894,178,164,118,1,7,11
1.72313E+12,-7644,-2701,1886,149,301,82,1,7,11
1.72313E+12,-7612,-2691,1894,341,-61,82,1,7,11
1.72313E+12,-7572,-2694,1893,263,103,79,1,7,11
1.72313E+12,-7784,-2719,1916,-78,31,66,1,7,11
1.72313E+12,-7755,-2753,1687,98,-275,49,1,7,11
1.72313E+12,-7730,-2798,1724,42,-314,47,1,7,11
1.72313E+12,-7684,-3091,1745,16,-349,56,1,7,11
1.72313E+12,-7685,-3124,1790,-268,-330,14,1,7,11
1.72313E+12,-7729,-3158,2086,7,-300,20,1,7,11
1.72313E+12,-7740,-3177,2122,37,-273,52,1,7,11
1.72313E+12,-7754,-3196,2153,89,9,88,1,7,11
1.72313E+12,-7759,-2950,1925,-93,36,115,1,7,11
1.72313E+12,-7768,-3197,1941,266,70,118,1,7,11
1.72313E+12,-7779,-3161,1943,128,106,115,1,7,11
1.72313E+12,-7565,-3114,1939,246,-95,110,1,7,11
1.72313E+12,-7617,-2799,2171,627,-39,-121,1,7,11
1.72313E+12,-7937,-2746,2138,481,267,-83,1,7,11
1.72313E+12,-7953,-2934,2090,839,301,-18,1,7,11
1.72313E+12,-7944,-2861,1745,652,340,290,1,7,11
1.72313E+12,-7677,-2833,1730,670,129,280,1,7,11
1.72313E+12,-7679,-2823,1727,657,155,-9,1,7,11
1.72313E+12,-7951,-2531,1726,681,182,-33,1,7,11
1.72313E+12,-7942,-2486,1701,711,166,-47,1,7,11
1.72313E+12,-7967,-2450,1695,690,141,-87,1,7,11
1.72313E+12,-7968,-2669,1680,672,334,-81,1,7,11
1.72313E+12,-7958,-2624,1664,640,287,-87,1,7,11
1.72313E+12,-7960,-2593,1668,822,-34,-86,1,7,11
1.72313E+12,-7673,-2579,1687,505,-89,-58,1,7,11
1.72313E+12,-7634,-2582,1712,453,116,-38,1,7,11
1.72313E+12,-7583,-2594,1723,416,95,-28,1,7,11
1.72313E+12,-7569,-2610,1729,393,-118,-64,1,7,11
1.72313E+12,-7622,-2621,1720,411,-5,-116,1,7,11
1.72313E+12,-7680,-2626,1697,445,355,120,1,7,11
1.72313E+12,-8014,-2649,1695,474,202,82,1,7,11
1.72313E+12,-7839,-2680,1694,811,566,71,1,7,11
1.72313E+12,-7864,-2442,1918,705,423,92,1,7,11
1.72313E+12,-7816,-2488,1665,1124,825,4,1,7,11
1.72313E+12,-7972,-2850,1698,1403,929,-224,1,7,11
1.72313E+12,-7685,-2744,1761,1683,1753,-886,1,7,11
1.72313E+12,-6815,-2960,2156,2794,4063,-1852,1,7,11
1.72313E+12,-6284,-3324,2342,4822,8611,-3462,1,7,11
1.72313E+12,-6033,-3947,1938,7920,13417,-5618,1,7,11
1.72313E+12,-5960,-4006,1971,10729,18670,-7468,1,7,11
1.72313E+12,-4752,-4104,1850,14354,24891,-11649,1,7,11
1.72313E+12,-3495,-3334,496,11521,31925,-21512,1,7,11
1.72313E+12,-2270,-2817,-881,3148,32511,-31774,1,7,11
1.72313E+12,-1793,-2439,-1106,-6243,32511,-32768,1,7,11
1.72313E+12,-1277,-2607,-974,-12785,32511,-32768,1,7,11
1.72313E+12,-1381,-2271,-1333,-16997,32511,-32768,1,7,11
1.72313E+12,-1281,-2224,-1175,-18907,32511,-32768,1,7,11
1.72313E+12,-943,-2177,-1256,-19882,32511,-32768,1,7,11
1.72313E+12,-940,-2386,-1542,-20338,32511,-32768,1,7,11
1.72313E+12,-958,-2339,-1548,-20034,32511,-32768,1,7,11
1.72313E+12,-992,-2038,-1550,-18609,32511,-32768,1,7,11
1.72313E+12,-25362,14424,14531,-17717,32511,-32768,1,7,11
1.72313E+12,-18970,2676,2657,-28968,-20591,32511,1,7,11
1.72313E+12,-14047,-2774,-2797,-32768,-32768,32511,1,7,11
1.72313E+12,-10870,-6536,-7424,-32768,-32768,32511,1,7,11
1.72313E+12,-17302,-23427,-32768,-32768,9273,32511,1,7,11
1.72313E+12,-19267,-20757,-32768,-32768,32511,20756,1,7,11
1.72313E+12,-18117,-18901,-32768,-32768,32511,-24687,1,7,11
1.72313E+12,-16975,-15042,-32691,-32663,32511,-32768,1,7,11
1.72313E+12,-14466,-12891,-30457,-9546,32511,-32768,1,7,11
1.72313E+12,-12350,-10440,-28894,20874,32511,-32768,1,7,11
1.72313E+12,-9788,-8634,-27905,32511,32511,-32768,1,7,11
1.72313E+12,-6891,-7195,-26936,32511,32511,-32768,1,7,11
1.72313E+12,-4445,-7034,-26012,32511,32511,-32768,1,7,11
1.72313E+12,-1342,-7515,-25509,32511,32511,-27344,1,7,11
1.72313E+12,520,-8459,-25369,32511,32511,-21172,1,7,11
1.72313E+12,1610,-9436,-25096,32511,32511,-16577,1,7,11
1.72313E+12,1945,-10645,-24900,32511,32511,-13786,1,7,11
1.72313E+12,2514,21840,6565,32511,32511,-27122,1,7,11
1.72313E+12,-20742,11997,-6295,32511,32511,-32768,1,7,11
1.72313E+12,-14473,-17706,-8647,32511,32511,-32768,1,7,11
1.72313E+12,-11473,-9498,-2602,32511,32511,-32768,1,7,11
1.72313E+12,-9845,-7728,-303,31818,23582,-32768,1,7,11
1.72313E+12,-8787,-6462,833,19061,14782,-21219,1,7,11
1.72313E+12,-7846,-5957,641,10963,9398,-12019,1,7,11
1.72313E+12,-7548,-5970,605,6046,6484,-6720,1,7,11
1.72313E+12,-6967,-5583,157,3203,4888,-3646,1,7,11
1.72313E+12,-6674,-5336,196,1167,4140,-1422,1,7,11
1.72313E+12,-6286,-5155,511,-291,3942,70,1,7,11
1.72313E+12,-6661,-4654,658,-163,3338,530,1,7,11
1.72313E+12,-6779,-4615,462,-3,2526,518,1,7,11
1.72313E+12,-6819,-4946,-8,377,1799,169,1,7,11
1.72313E+12,-7515,-4840,-164,-100,410,-15,1,7,11
1.72313E+12,-7490,-4988,-363,-124,-490,-610,1,7,11
1.72313E+12,-7266,-4637,65,23,-1108,-835,1,7,11
1.72313E+12,-6632,-4353,117,-386,-689,-604,1,7,11
1.72313E+12,-6723,-4084,-102,-936,-1374,-328,1,7,11
1.72313E+12,-6664,-4026,-79,-1647,-664,534,1,7,11
1.72313E+12,-6584,-4470,59,-1624,33,657,1,7,11
1.72313E+12,-6873,-4245,-301,-1422,394,1305,1,7,11
1.72313E+12,-6786,-4699,-124,-1207,880,1353,1,7,11
1.72313E+12,-7273,-4073,88,-1269,817,1347,1,7,11
1.72313E+12,-7114,-4002,-91,-1072,527,760,1,7,11
1.72313E+12,-7496,-3999,-94,-406,830,957,1,7,11
1.72313E+12,-7097,-4644,57,-1004,1206,1470,1,7,11
1.72313E+12,-6559,-4604,263,-1568,678,2167,1,7,11
1.72313E+12,-6773,-4423,125,-2094,494,1169,1,7,11
1.72313E+12,-6928,-4445,197,-2654,126,-264,1,7,11
1.72313E+12,-6535,-3719,1161,-1792,-749,8,1,7,11
1.72313E+12,-6181,-4172,2418,2053,-4352,77,1,7,11
1.72313E+12,-7084,-3481,806,4009,-4830,-329,1,7,11
1.72313E+12,-7843,-4666,-229,3075,-3509,-318,1,7,11
1.72313E+12,-8136,-4921,-311,1347,-1323,-1057,1,7,11
1.72313E+12,-8482,-5490,-88,-1299,1593,-2861,1,7,11
1.72313E+12,-8303,-5665,-314,-1508,2233,-5411,1,7,11
1.72313E+12,-7899,-5258,-557,-2568,1380,-7858,1,7,11
1.72313E+12,-7314,-6325,819,-4212,-2123,-10533,1,7,11
1.72313E+12,-9062,-7101,1408,-2615,-3951,-9200,1,7,11
1.72313E+12,-8263,-6883,1267,1538,-4951,-4560,1,7,11
1.72313E+12,-7706,-6505,1631,2253,-7869,-3059,1,7,11
1.72313E+12,-7126,-5466,1657,431,-11072,-3088,1,7,11
1.72313E+12,-7356,-4906,1660,-2956,-10550,-3520,1,7,11
1.72313E+12,-7414,-5093,1594,-6184,-8868,-6146,1,7,11
1.72313E+12,-7474,-5827,393,-4441,-6907,-9106,1,7,11
1.72313E+12,-6555,-7024,-127,-2234,-4447,-11814,1,7,11
1.72313E+12,-5940,-7943,236,-1636,-2667,-13964,1,7,11
1.72313E+12,-5924,-8187,-361,-980,-678,-15600,1,7,11
1.72313E+12,-5639,-7848,-176,-3274,-804,-14301,1,7,11
1.72313E+12,-4806,-7593,-326,-6243,-137,-12340,1,7,11
1.72313E+12,-4284,-7297,69,-7748,1050,-10835,1,7,11
1.72313E+12,-4019,-6897,-124,-8894,1508,-10142,1,7,11
1.72313E+12,-3085,-7011,558,-10757,961,-11384,1,7,11
1.72313E+12,-2825,-6691,161,-12022,-373,-14818,1,7,11
1.72313E+12,-2835,-6041,-528,-13576,-2140,-16450,1,7,11
1.72313E+12,-2340,-5906,-731,-12546,-3162,-14144,1,7,11
1.72313E+12,-1237,-5951,-827,-9956,-2910,-10242,1,7,11
1.72313E+12,-827,-5936,-466,-7626,-2332,-7221,1,7,11
1.72313E+12,-456,-5349,-1173,-6474,-2082,-4262,1,7,11
1.72313E+12,-1095,-4947,-2177,-7105,-2905,707,1,7,11
1.72313E+12,-633,-5148,-2818,-11898,-4502,7592,1,7,11
1.72313E+12,318,-5089,-2832,-15700,-5361,8656,1,7,11
1.72313E+12,-627,-4965,-2193,-16297,-4812,7863,1,7,11
1.72313E+12,-698,-4582,-2502,-14879,-4955,8784,1,7,11
1.72313E+12,-912,-5233,-3257,-13389,-4901,9062,1,7,11
1.72313E+12,-1715,-5473,-4441,-15093,-6316,7131,1,7,11
1.72313E+12,-2142,-6159,-4309,-15880,-8735,6867,1,7,11
1.72313E+12,-2215,-6472,-4792,-13864,-9880,6724,1,7,11
1.72313E+12,-2491,-7268,-5083,-9956,-10653,5182,1,7,11
1.72313E+12,-2501,-7236,-5206,-5687,-10323,2765,1,7,11
1.72313E+12,-2440,-7269,-4504,-2654,-7057,201,1,7,11
1.72313E+12,-2606,-6638,-4732,1113,-2067,-2753,1,7,11
1.72313E+12,-3430,-6168,-5256,4439,3273,-6467,1,7,11
1.72313E+12,-4126,-5825,-5319,6477,5191,-7222,1,7,11
1.72313E+12,-3294,-6114,-5261,7847,5048,-7272,1,7,11
1.72313E+12,-2771,-6495,-5744,9133,6237,-8285,1,7,11
1.72313E+12,-1331,-6539,-5250,7620,7571,-13381,1,7,11
1.72313E+12,-1108,-6742,-5366,6835,9386,-19953,1,7,11
1.72313E+12,-409,-6597,-5533,7047,12424,-24817,1,7,11
1.72313E+12,-502,-6595,-5266,7156,15283,-28151,1,7,11
1.72313E+12,84,-7227,-4569,4862,15730,-30589,1,7,11
1.72313E+12,916,-7400,-3949,1725,14032,-31697,1,7,11
1.72313E+12,2583,-7924,-3499,3866,16559,-30085,1,7,11
1.72313E+12,3024,-8025,-2620,16852,28652,-24472,1,7,11
1.72313E+12,2561,-7098,1615,23347,32511,-23320,1,7,11
1.72313E+12,3630,-7600,1725,8763,31317,-30224,1,7,11
1.72313E+12,3765,-7038,1925,1360,30176,-32768,1,7,11
1.72313E+12,4625,-5071,3413,-1325,32568,-32768,1,7,11
1.72313E+12,5372,-4284,4361,-9,30951,-32768,1,7,11
1.72313E+12,5632,-3409,4848,3150,27870,-32768,1,7,11
1.72313E+12,5056,-1453,6215,3397,23695,32742,1,7,11
1.72313E+12,4683,802,7287,3834,16676,-27734,1,7,11
1.72313E+12,4006,1331,7150,7012,10687,-20188,1,7,11
1.72313E+12,4167,1896,7427,7666,9375,-14719,1,7,11
1.72313E+12,5463,1724,9095,5357,10961,-12466,1,7,11
1.72313E+12,5349,1534,12840,2809,12254,-13443,1,7,11
1.72313E+12,6082,2890,15490,2841,12719,-12426,1,7,11
1.72313E+12,7035,4105,17144,3421,13261,-11535,1,7,11
1.72313E+12,7718,5341,17739,3261,14038,-10494,1,7,11
1.72313E+12,7437,6557,18225,1007,17146,-10117,1,7,11
1.72313E+12,6950,8014,18294,285,20040,-10728,1,7,11
1.72313E+12,6043,9180,16366,-1665,22841,-11824,1,7,11
1.72313E+12,5318,11405,14817,-4268,25345,-12213,1,7,11
1.72313E+12,4721,12743,13338,-4815,26611,-11169,1,7,11
1.72313E+12,4518,13913,9049,-2339,27413,-8845,1,7,11
1.72313E+12,4078,14002,4487,-857,28274,-9353,1,7,11
1.72313E+12,3841,12780,2424,-1848,28181,-11879,1,7,11
1.72313E+12,3200,10652,592,334,26634,-13303,1,7,11
1.72313E+12,2711,8315,-1281,4532,23470,-14353,1,7,11
1.72313E+12,2239,5734,-1979,6612,20549,-15427,1,7,11
1.72313E+12,1913,3491,-3144,5683,17650,-15411,1,7,11
1.72313E+12,1143,1235,-3279,2363,14708,-14506,1,7,11
1.72313E+12,-15,-1198,-2920,-2496,13219,-12956,1,7,11
1.72313E+12,-1088,-2177,-1758,-6310,13006,-12181,1,7,11
1.72313E+12,-1712,-2986,-1564,-5345,12372,-10105,1,7,11
1.72313E+12,-2473,-3696,-1573,-2781,10232,-6286,1,7,11
1.72313E+12,-3586,-3889,-1057,-3676,10033,-4515,1,7,11
1.72313E+12,-4149,-4394,-863,-5493,8703,-5186,1,7,11
1.72313E+12,-4388,-4361,-703,-5894,6952,-7304,1,7,11
1.72313E+12,-5023,-5184,-305,-5142,5497,-5414,1,7,11
1.72313E+12,-6168,-5343,879,-3004,4538,-3060,1,7,11
1.72313E+12,-6750,-4670,2205,-3150,5119,-1396,1,7,11
1.72313E+12,-7093,-4279,2537,-4094,5377,1625,1,7,11
1.72313E+12,-7406,-3005,3596,-3279,3045,3873,1,7,11
1.72313E+12,-7704,-1802,3510,-2357,1480,3470,1,7,11
1.72313E+12,-7517,-547,3123,-752,816,1839,1,7,11
1.72313E+12,-6648,1157,2430,1388,-609,207,1,7,11
1.72313E+12,-6805,1628,1726,2729,-2734,813,1,7,11
1.72313E+12,-7710,808,2024,5278,-5852,523,1,7,11
1.72313E+12,-8071,156,2296,9997,-8802,-1735,1,7,11
1.72313E+12,-8514,-1074,2779,9412,-11831,-8570,1,7,11
1.72313E+12,-8737,-1718,3321,8165,-11290,-11098,1,7,11
1.72313E+12,-8548,-2027,4162,8996,-10181,-12218,1,7,11
1.72313E+12,-8463,-2063,3989,10767,-9067,-10644,1,7,11
1.72313E+12,-8300,-1804,4094,11363,-7526,-8162,1,7,11
1.72313E+12,-7879,-1566,4886,10601,-4862,-5874,1,7,11
1.72313E+12,-7971,-1087,4736,10142,-1530,-5651,1,7,11
1.72313E+12,-7677,-991,4354,9952,1375,-6563,1,7,11
1.72313E+12,-7779,-1511,3294,10794,5237,-9491,1,7,11
1.72313E+12,-7716,-1650,2902,11973,9166,-11584,1,7,11
1.72313E+12,-7383,-1156,2066,12758,8785,-11156,1,7,11
1.72313E+12,-7448,-1703,1409,12450,2255,-9250,1,7,11
1.72313E+12,-6608,-2485,2051,11910,-3972,-5342,1,7,11
1.72313E+12,-5852,-4208,1815,6282,-2933,-4860,1,7,11
1.72313E+12,-6691,-3062,2545,-544,9227,-10331,1,7,11
1.72313E+12,-7975,-1655,4913,-5418,9149,-9298,1,7,11
1.72313E+12,-7340,-2264,4419,-6529,7327,-7063,1,7,11
1.72313E+12,-7154,-2971,3701,-7531,6343,-5608,1,7,11
1.72313E+12,-7060,-3721,3125,-8381,5608,-5144,1,7,11
1.72313E+12,-7330,-4148,2435,-8766,5121,-4096,1,7,11
1.72313E+12,-7695,-3473,1762,-7427,4545,-2190,1,7,11
1.72313E+12,-7886,-3669,2052,-6564,4611,503,1,7,11
1.72313E+12,-8149,-3563,2130,-5868,3514,3622,1,7,11
1.72313E+12,-8068,-3490,1685,-5214,2558,6338,1,7,11
1.72313E+12,-7887,-2698,1365,-4726,2099,8925,1,7,11
1.72313E+12,-7668,-2483,826,-6090,504,8947,1,7,11
1.72313E+12,-7983,-2741,766,-7332,-685,8205,1,7,11
1.72313E+12,-8055,-3334,959,-7130,-1824,7544,1,7,11
1.72313E+12,-7850,-3142,1328,-6009,-1921,6967,1,7,11
1.72313E+12,-8038,-2290,1149,-4614,-1733,6465,1,7,11
1.72313E+12,-7904,-2326,1036,-3746,-1435,5619,1,7,11
1.72313E+12,-7932,-2098,1105,-3383,-1542,5650,1,7,11
1.72313E+12,-7810,-1495,973,-2495,-738,5253,1,7,11
1.72313E+12,-8011,-1538,1288,-2071,17,4686,1,7,11
1.72313E+12,-7665,-1192,1395,-1118,207,3091,1,7,11
1.72313E+12,-7632,-1202,1313,291,465,-128,1,7,11
1.72313E+12,-7667,-1182,1353,1233,180,-2094,1,7,11
1.72313E+12,-7653,-1002,1296,2063,-326,-4368,1,7,11
1.72313E+12,-8718,-1284,1018,1338,-1465,-6414,1,7,11
1.72313E+12,-9408,-1518,830,-453,-4904,-5170,1,7,11
1.72313E+12,-8813,-2163,1091,-2162,-6554,-2917,1,7,11
1.72313E+12,-7675,-1973,1020,-2627,-6160,-1382,1,7,11
1.72313E+12,-7541,-2437,1479,-2566,-2888,591,1,7,11
1.72313E+12,-7506,-3131,1781,-671,337,1006,1,7,11
1.72313E+12,-7295,-2880,1809,1383,2389,733,1,7,11
1.72313E+12,-7280,-2605,1493,2831,3492,-196,1,7,11
1.72313E+12,-7840,-2420,1561,3555,4903,-2522,1,7,11
1.72313E+12,-8808,-1471,1321,2753,4486,-1467,1,7,11
1.72313E+12,-8984,-1547,667,799,3747,1178,1,7,11
1.72313E+12,-8412,-1197,445,-1526,2527,3666,1,7,11
1.72313E+12,-8084,-1020,775,-3612,1606,3516,1,7,11
1.72313E+12,-8047,-1311,851,-5183,1551,2873,1,7,11
1.72313E+12,-7962,-1583,439,-5850,2470,1775,1,7,11
1.72313E+12,-7946,-1683,140,-6450,4518,1313,1,7,11
1.72313E+12,-7869,-1601,190,-6047,6489,593,1,7,11
1.72313E+12,-8125,-1040,238,-6513,6991,253,1,7,11
1.72313E+12,-8390,-851,280,-6835,5834,1275,1,7,11
1.72313E+12,-8766,-784,95,-7743,4135,2738,1,7,11
1.72313E+12,-8475,-544,-377,-8486,1784,3771,1,7,11
1.72313E+12,-7917,-535,-200,-9307,812,4036,1,7,11
1.72313E+12,-7847,-626,-171,-9105,522,4189,1,7,11
1.72313E+12,-7651,-592,-253,-8364,444,3960,1,7,11
1.72313E+12,-7762,-592,-599,-7700,1294,2997,1,7,11
1.72313E+12,-7582,-604,-433,-6541,2143,2280,1,7,11
1.72313E+12,-8026,-411,-809,-5632,2373,1712,1,7,11
1.72313E+12,-7886,-401,-869,-4821,1908,1442,1,7,11
1.72313E+12,-7878,-597,-685,-4467,1111,1647,1,7,11
1.72313E+12,-8030,-234,-718,-3722,251,1579,1,7,11
1.72313E+12,-8005,-239,-707,-3057,-86,1214,1,7,11
1.72313E+12,-7676,-193,-860,-2118,-525,1060,1,7,11
1.72313E+12,-7726,-132,-476,-130,-893,68,1,7,11
1.72313E+12,-7674,-515,-186,2163,-422,-1277,1,7,11
1.72313E+12,-7826,-613,-377,5048,-626,-2458,1,7,11
1.72313E+12,-9762,-1211,-74,10917,-3035,-4458,1,7,11
1.72313E+12,-8931,-185,-1272,12013,-5563,-3839,1,7,11
1.72313E+12,-8395,-108,-1359,9919,-5552,-2781,1,7,11
1.72313E+12,-8464,-366,-697,7323,-4777,-1962,1,7,11
1.72313E+12,-8067,-532,-573,5544,-3770,-1592,1,7,11
1.72313E+12,-8291,-197,-134,4178,-2962,-898,1,7,11
1.72313E+12,-8294,-449,-66,2684,-2271,-781,1,7,11
1.72313E+12,-8119,-1042,536,1980,-1768,-513,1,7,11
1.72313E+12,-8314,-885,614,2673,-1759,-201,1,7,11
1.72313E+12,-8282,-784,390,2199,-1720,-158,1,7,11
1.72313E+12,-8233,-393,423,2112,-1904,-348,1,7,11
1.72313E+12,-8195,-866,823,1566,-1437,111,1,7,11
1.72313E+12,-8210,-864,889,1389,-1599,46,1,7,11
1.72313E+12,-7928,-687,724,937,-1547,-278,1,7,11
1.72313E+12,-7917,-707,765,1078,-1190,-356,1,7,11
1.72313E+12,-7898,-744,1096,704,-1317,-149,1,7,11
1.72313E+12,-7883,-739,1122,893,-909,-174,1,7,11
1.72313E+12,-7879,-461,680,537,-834,11,1,7,11
1.72313E+12,-7894,-641,1106,-349,-860,73,1,7,11
1.72313E+12,-7875,-721,934,-562,-873,-271,1,7,11
1.72313E+12,-7895,-1072,1009,-232,-497,-372,1,7,11
1.72313E+12,-8277,-1091,1292,118,-195,-145,1,7,11
1.72313E+12,-8318,-1059,1006,212,-297,-135,1,7,11
1.72313E+12,-8066,-742,957,447,-51,-365,1,7,11
1.72313E+12,-8163,-727,943,818,203,-312,1,7,11
1.72313E+12,-8327,-662,934,708,149,-286,1,7,11
1.72313E+12,-8162,-687,1119,462,-372,-133,1,7,11
1.72313E+12,-8184,-744,1133,410,-173,-199,1,7,11
1.72313E+12,-8191,-744,1135,623,-247,-515,1,7,11
1.72313E+12,-8481,-726,1130,632,-576,-613,1,7,11
1.72313E+12,-8552,-662,1072,406,-546,-870,1,7,11
1.72313E+12,-8347,-832,740,439,-868,-700,1,7,11
1.72313E+12,-8388,-499,667,632,-682,-763,1,7,11
1.72313E+12,-8392,-486,660,217,-1035,-1085,1,7,11
1.72313E+12,-8362,-794,708,269,-1138,-912,1,7,11
1.72313E+12,-8544,-892,1055,113,-1011,-1011,1,7,11
1.72313E+12,-8179,-714,1140,42,-1400,-1388,1,7,11
1.72313E+12,-8309,-1047,989,0,-1246,-1259,1,7,11
1.72313E+12,-7926,-911,1235,-293,-1583,-1633,1,7,11
1.72313E+12,-8033,-1179,1523,-320,-1414,-1478,1,7,11
1.72313E+12,-7673,-1462,1736,104,-1464,-1815,1,7,11
1.72313E+12,-7603,-1817,2094,134,-1458,-1672,1,7,11
1.72313E+12,-7623,-1827,1932,425,-1478,-2063,1,7,11
1.72313E+12,-7658,-1821,1980,861,-1503,-2089,1,7,11
1.72313E+12,-7945,-1799,1969,667,-1462,-1706,1,7,11
1.72313E+12,-8001,-1832,1959,870,-1620,-1484,1,7,11
1.72313E+12,-7959,-1712,2316,461,-1554,-1256,1,7,11
1.72313E+12,-7609,-2166,2210,595,-1244,-1391,1,7,11
1.72313E+12,-7795,-2354,2615,606,-1180,-1344,1,7,11
1.72313E+12,-7795,-2402,2438,498,-1338,-1352,1,7,11
1.72313E+12,-7669,-2015,2679,672,-953,-1308,1,7,11
1.72313E+12,-7994,-2107,2597,1107,-1040,-923,1,7,11
1.72313E+12,-8052,-1690,2258,1110,-714,-739,1,7,11
1.72313E+12,-8063,-1534,2178,1082,-754,-790,1,7,11
1.72313E+12,-7830,-1461,2403,880,-599,-601,1,7,11
1.72313E+12,-7847,-1489,2424,448,-233,-177,1,7,11
1.72313E+12,-7824,-1814,2184,559,-166,-335,1,7,11
1.72313E+12,-8045,-1904,2193,201,-142,-341,1,7,11
1.72313E+12,-8007,-1775,2208,368,-189,-195,1,7,11
1.72313E+12,-7676,-2164,2218,310,-527,-635,1,7,11
1.72313E+12,-7595,-2043,2218,266,-565,-849,1,7,11
1.72313E+12,-7800,-2427,2235,-16,-553,-1045,1,7,11
1.72313E+12,-7780,-2292,2283,260,-520,-932,1,7,11
1.72313E+12,-7759,-2621,2574,358,-239,-1006,1,7,11
1.72313E+12,-7739,-2648,2585,254,-229,-1005,1,7,11
1.72313E+12,-7718,-2627,2563,387,-206,-931,1,7,11
1.72313E+12,-7748,-2599,2568,479,-175,-1080,1,7,11
1.72313E+12,-7795,-2604,2598,793,-198,-693,1,7,11
1.72313E+12,-7557,-2641,2650,827,-521,-809,1,7,11
1.72313E+12,-7766,-2476,2464,857,-389,-444,1,7,11
1.72313E+12,-7388,-2909,2865,858,-809,-396,1,7,11
1.72313E+12,-7476,-3180,3113,893,-740,-436,1,7,11
1.72313E+12,-7049,-3410,3384,1090,-943,-825,1,7,11
1.72313E+12,-6899,-3267,3608,1212,-1357,-727,1,7,11
1.72313E+12,-7022,-3232,3538,1711,-1177,-1060,1,7,11
1.72313E+12,-7001,-3007,3957,2252,-1333,-722,1,7,11
1.72313E+12,-6885,-2911,3811,2815,-1077,-625,1,7,11
1.72313E+12,-7164,-2016,3895,3466,-454,-49,1,7,11
1.72313E+12,-7767,-1239,3220,3826,24,709,1,7,11
1.72313E+12,-7860,-836,2940,3911,514,1478,1,7,11
1.72313E+12,-8074,-543,2861,3168,875,2012,1,7,11
1.72313E+12,-8497,-193,2504,2304,1067,2431,1,7,11
1.72313E+12,-8532,-524,2436,1211,1091,2304,1,7,11
1.72313E+12,-8535,-389,2603,495,1041,1903,1,7,11
1.72313E+12,-8555,-777,2286,107,694,1375,1,7,11
1.72313E+12,-8554,-887,2245,-491,798,865,1,7,11
1.72313E+12,-8501,-744,2215,-1305,610,223,1,7,11
1.72313E+12,-8134,-922,2235,-1864,166,-9,1,7,11
1.72313E+12,-8289,-1239,2579,-2047,293,-103,1,7,11
1.72313E+12,-8219,-1612,2634,-2603,-62,-73,1,7,11
1.72313E+12,-8022,-1739,2845,-2487,90,315,1,7,11
1.72313E+12,-7587,-2003,2721,-2466,-264,222,1,7,11
1.72313E+12,-7786,-2184,2809,-2212,-317,568,1,7,11
1.72313E+12,-7691,-2225,3082,-1735,-298,618,1,7,11
1.72313E+12,-7681,-2177,3097,-1186,33,610,1,7,11
1.72313E+12,-7697,-2379,3111,-696,123,582,1,7,11
1.72313E+12,-7764,-2035,3116,-236,-21,544,1,7,11
1.72313E+12,-7587,-2167,3108,-39,159,553,1,7,11
1.72313E+12,-7612,-1281,2007,587,-54,358,1,7,11
1.72313E+12,-8204,-1262,2662,-916,-674,141,1,7,11
1.72313E+12,-8214,-1780,3044,-3925,-1440,238,1,7,11
1.72313E+12,-7845,-1832,3256,-3555,-1405,1220,1,7,11
1.72313E+12,-7390,-1826,3017,-3061,-1078,1980,1,7,11
1.72313E+12,-7498,-1923,3106,-2277,514,2033,1,7,11
1.72313E+12,-7350,-2143,2767,-1342,1413,2113,1,7,11
1.72313E+12,-7717,-1698,2523,-83,2451,2077,1,7,11
1.72313E+12,-7746,-1228,2352,617,3597,1820,1,7,11
1.72313E+12,-7941,-1096,2052,-125,4438,675,1,7,11
1.72313E+12,-8182,-647,2134,-1802,4526,638,1,7,11
1.72313E+12,-8746,-793,1981,-3645,4219,905,1,7,11
1.72313E+12,-8586,-833,2104,-5107,3289,2415,1,7,11
1.72313E+12,-8541,-462,1481,-6807,3589,3942,1,7,11
1.72313E+12,-8492,-795,1615,-8811,3976,4564,1,7,11
1.72313E+12,-8452,-851,1428,-9367,4399,4547,1,7,11
1.72313E+12,-8515,-682,1490,-9091,4177,4476,1,7,11
1.72313E+12,-8151,-667,1555,-8265,3512,3933,1,7,11
1.72313E+12,-8120,-893,1259,-6987,3035,3148,1,7,11
1.72313E+12,-8122,-865,1165,-5306,2249,2428,1,7,11
1.72313E+12,-8155,-798,1308,-4091,1638,1665,1,7,11
1.72313E+12,-8460,-509,988,-3251,451,1478,1,7,11
1.72313E+12,-8146,-455,962,-2837,-243,1914,1,7,11
1.72313E+12,-8255,-399,945,-2305,-905,2116,1,7,11
1.72313E+12,-7870,-621,945,-1446,-1571,1765,1,7,11
1.72313E+12,-7998,-432,964,-880,-1552,1611,1,7,11
1.72313E+12,-7994,-471,1395,620,-647,735,1,7,11
1.72313E+12,-7820,-793,1167,2202,-302,-102,1,7,11
1.72313E+12,-8147,-1180,1808,4540,-818,-1767,1,7,11
1.72313E+12,-8651,-2610,2352,10114,-3821,-5950,1,7,11
1.72313E+12,-8633,899,-234,12396,-5458,-7046,1,7,11
1.72313E+12,-8752,0,456,7337,-3919,-4340,1,7,11
1.72313E+12,-8436,-354,727,5284,-2876,-3450,1,7,11
1.72313E+12,-8384,-596,1302,3878,-1988,-2280,1,7,11
1.72313E+12,-8338,-634,1222,2925,-1881,-2050,1,7,11
1.72313E+12,-8554,-438,1647,1980,-1431,-1455,1,7,11
1.72313E+12,-8509,-436,1516,1815,-1612,-1275,1,7,11
1.72313E+12,-8455,-446,1891,1231,-1589,-1162,1,7,11
1.72313E+12,-8130,-468,1749,953,-1595,-1370,1,7,11
1.72313E+12,-8320,-806,2160,672,-1595,-1384,1,7,11
1.72313E+12,-8235,-686,2363,407,-1595,-1179,1,7,11
1.72313E+12,-7867,-1093,2293,515,-1641,-1271,1,7,11
1.72313E+12,-7978,-972,2480,381,-1656,-1634,1,7,11
1.72313E+12,-7578,-1368,2935,290,-1650,-1501,1,7,11
1.72313E+12,-7751,-1239,3121,280,-1607,-1864,1,7,11
1.72313E+12,-7735,-1277,2990,166,-1271,-1899,1,7,11
1.72313E+12,-7755,-1199,2973,613,-1395,-1809,1,7,11
1.72313E+12,-7781,-1331,3152,454,-935,-1599,1,7,11
1.72313E+12,-7576,-951,2814,413,-673,-1325,1,7,11
1.72313E+12,-7587,-923,2696,565,-402,-1038,1,7,11
1.72313E+12,-7576,-934,2850,357,-140,-785,1,7,11
1.72313E+12,-7786,-1245,2832,36,108,-629,1,7,11
1.72313E+12,-7772,-1808,2882,-535,295,-618,1,7,11
1.72313E+12,-7788,-1826,2715,-478,158,-501,1,7,11
1.72313E+12,-7656,-1992,2800,-500,206,-723,1,7,11
1.72313E+12,-8027,-2006,3088,-625,188,-978,1,7,11
1.72313E+12,-7868,-1935,2815,-345,349,-980,1,7,11
1.72313E+12,-7932,-2071,2767,94,276,-1114,1,7,11
1.72313E+12,-7618,-1494,2892,-243,-20,-106,1,7,11
1.72313E+12,-7798,-1479,2851,-530,-9,57,1,7,11
1.72313E+12,-7777,-1683,2474,-369,573,-364,1,7,11
1.72313E+12,-7574,-1709,2683,-302,448,-278,1,7,11
1.72313E+12,-7845,-1818,2271,578,763,310,1,7,11
1.72313E+12,-8071,-1604,2305,167,690,82,1,7,11
1.72313E+12,-7911,-1499,2008,85,-62,-221,1,7,11
1.72313E+12,-7871,-1795,2304,79,-106,-186,1,7,11
1.72313E+12,-7980,-1829,2331,-65,50,13,1,7,11
1.72313E+12,-7987,-1823,2351,-81,94,66,1,7,11
1.72313E+12,-7999,-1799,2371,-98,-128,121,1,7,11
1.72313E+12,-8014,-1521,2381,-124,-101,-86,1,7,11
1.72313E+12,-8053,-1510,2397,99,-77,-52,1,7,11
1.72313E+12,-7840,-1508,2431,91,-91,-37,1,7,11
1.72313E+12,-7847,-1473,2403,-126,103,-56,1,7,11
1.72313E+12,-7863,-1463,2394,73,105,-63,1,7,11
1.72313E+12,-7893,-1458,2405,-376,-96,-102,1,7,11
1.72313E+12,-7893,-1478,2412,-143,-83,-119,1,7,11
1.72313E+12,-7850,-1534,2381,-159,-56,-274,1,7,11
1.72313E+12,-7851,-1824,2379,-164,-51,-305,1,7,11
1.72313E+12,-7828,-1834,2364,-148,-60,-340,1,7,11
1.72313E+12,-7824,-1835,2356,-377,-71,-352,1,7,11
1.72313E+12,-7820,-1847,2355,-364,-77,-348,1,7,11
1.72313E+12,-7837,-1888,2412,-328,-97,-340,1,7,11
1.72313E+12,-7828,-1889,2404,-270,94,-332,1,7,11
1.72313E+12,-7815,-1897,2415,54,108,-291,1,7,11
1.72313E+12,-8042,-1839,2404,54,-111,48,1,7,11
1.72313E+12,-8051,-1826,2408,-262,-108,43,1,7,11
1.72313E+12,-8029,-1821,2376,-344,72,83,1,7,11
1.72313E+12,-8039,-1818,2356,-315,61,85,1,7,11
1.72313E+12,-7878,-1874,2223,-2,-102,-74,1,7,11
1.72313E+12,-7852,-1860,2222,331,-127,-77,1,7,11
1.72313E+12,-7994,-1505,2404,241,91,103,1,7,11
1.72313E+12,-7990,-1499,2412,175,-95,84,1,7,11
1.72313E+12,-7861,-1409,2198,284,-10,63,1,7,11
1.72313E+12,-7871,-1636,2188,-19,-23,83,1,7,11
1.72313E+12,-7899,-1449,2228,-276,99,26,1,7,11
1.72313E+12,-7887,-1460,2235,10,2,-293,1,7,11
1.72313E+12,-8039,-1484,2577,-301,73,-333,1,7,11
1.72313E+12,-8032,-1496,2588,-276,120,-322,1,7,11
1.72313E+12,-7849,-1452,2238,-522,316,-280,1,7,11
1.72313E+12,-7862,-1502,2254,-606,312,28,1,7,11
1.72313E+12,-8062,-1856,2294,-157,-50,20,1,7,11
1.72313E+12,-7831,-1902,2417,-604,265,-318,1,7,11
1.72313E+12,-8034,-1879,2394,-52,-91,-257,1,7,11
1.72313E+12,-8033,-1844,2376,-77,-54,-295,1,7,11
1.72313E+12,-7856,-1823,2231,-91,-100,64,1,7,11
1.72313E+12,-7835,-1805,2218,-85,108,90,1,7,11
1.72313E+12,-7809,-1812,2217,100,104,115,1,7,11
1.72313E+12,-8035,-1804,2209,25,116,120,1,7,11
1.72313E+12,-8009,-1800,2185,-319,-113,118,1,7,11
1.72313E+12,-7988,-1810,2425,-157,-73,112,1,7,11
1.72313E+12,-7987,-1824,2410,-231,-22,103,1,7,11
1.72313E+12,-7999,-1841,2406,-538,284,101,1,7,11
1.72313E+12,-7887,-1871,2180,-372,136,-119,1,7,11
1.72313E+12,-7872,-1862,2413,-269,337,101,1,7,11
1.72313E+12,-7990,-1891,2383,-268,288,-230,1,7,11
1.72313E+12,-7973,-1858,2342,-324,316,-231,1,7,11
1.72313E+12,-7853,-1876,1962,-638,149,-320,1,7,11
1.72313E+12,-7903,-1911,1957,-422,372,-259,1,7,11
1.72313E+12,-8052,-2086,2331,-363,56,30,1,7,11
1.72313E+12,-8011,-2081,2316,-302,63,-272,1,7,11
1.72313E+12,-8056,-1693,2317,-307,116,70,1,7,11
1.72313E+12,-8060,-1695,2045,-328,115,53,1,7,11
1.72313E+12,-8215,-1859,1985,-163,-26,6,1,7,11
1.72313E+12,-8244,-1857,2008,-192,-353,28,1,7,11
1.72313E+12,-8050,-1746,2255,-205,-429,-158,1,7,11
1.72313E+12,-7979,-1785,2283,-177,-451,-602,1,7,11
1.72313E+12,-7608,-2106,2249,-273,-231,-827,1,7,11
1.72313E+12,-7622,-2122,2224,-320,-144,-511,1,7,11
1.72313E+12,-7966,-1966,2268,-199,61,-348,1,7,11
1.72313E+12,-7992,-1952,2300,-137,76,17,1,7,11
1.72313E+12,-7937,-2173,2620,-126,-97,-79,1,7,11
1.72313E+12,-7949,-2142,2638,-96,-60,-114,1,7,11
1.72313E+12,-7950,-2056,2564,20,119,0,1,7,11
1.72313E+12,-7636,-2064,2243,-312,110,-267,1,7,11
1.72313E+12,-8048,-2174,2618,-40,109,265,1,7,11
1.72313E+12,-8052,-2141,2635,-13,102,318,1,7,11
1.72313E+12,-8007,-1725,2585,268,-92,282,1,7,11
1.72313E+12,-7993,-1739,2577,-44,-56,-43,1,7,11
1.72313E+12,-7671,-2138,2613,59,-55,-197,1,7,11
1.72313E+12,-7660,-2157,2632,97,-63,-246,1,7,11
1.72313E+12,-7955,-1774,2652,103,-45,43,1,7,11
1.72313E+12,-7986,-1744,2639,41,-51,124,1,7,11
1.72313E+12,-7822,-1752,2574,-522,-125,170,1,7,11
1.72313E+12,-7830,-1788,2587,-533,113,179,1,7,11
1.72313E+12,-7995,-1996,2632,19,79,-106,1,7,11
1.72313E+12,-7960,-1998,2653,-124,75,67,1,7,11
1.72313E+12,-7585,-2092,2448,188,-91,-291,1,7,11
1.72313E+12,-7588,-1772,2442,184,-39,-258,1,7,11
1.72313E+12,-8007,-1904,2641,39,165,-86,1,7,11
1.72313E+12,-8037,-1896,2615,-311,161,-65,1,7,11
1.72313E+12,-7826,-1690,2244,-616,314,-86,1,7,11
1.72313E+12,-7826,-1709,2235,-386,291,-105,1,7,11
1.72313E+12,-8052,-2077,2243,-143,-73,-304,1,7,11
1.72313E+12,-8027,-2075,2238,-306,99,-362,1,7,11
1.72313E+12,-7640,-2093,2214,36,88,-178,1,7,11
1.72313E+12,-7940,-2077,2228,-274,126,-155,1,7,11
1.72313E+12,-8053,-2059,2569,23,-46,-67,1,7,11
1.72313E+12,-8040,-2058,2587,64,-27,-13,1,7,11
1.72313E+12,-7818,-1719,2301,-320,109,2,1,7,11
1.72313E+12,-8045,-1714,2258,-156,49,-276,1,7,11
1.72313E+12,-7668,-2168,2415,-467,-310,-301,1,7,11
1.72313E+12,-7942,-1976,2179,-443,-291,-296,1,7,11
1.72313E+12,-7968,-2001,2493,299,-307,65,1,7,11
1.72313E+12,-7952,-1923,2518,198,-297,48,1,7,11
1.72313E+12,-7967,-1832,2515,364,57,-276,1,7,11
1.72313E+12,-7969,-1817,2478,-73,82,-260,1,7,11
1.72313E+12,-8007,-2107,2591,-700,-66,11,1,7,11
1.72313E+12,-8027,-1933,2595,-652,-63,18,1,7,11
1.72313E+12,-7946,-2415,2664,-278,-114,-298,1,7,11
1.72313E+12,-7944,-2408,2465,-77,-101,-331,1,7,11
1.72313E+12,-7570,-2078,2516,632,-45,53,1,7,11
1.72313E+12,-7558,-1731,2469,543,260,100,1,7,11
1.72313E+12,-7577,-1915,2677,136,330,-99,1,7,11
1.72313E+12,-7618,-1874,2631,-53,147,-37,1,7,11
1.72313E+12,-7674,-1872,2602,1,202,282,1,7,11
1.72313E+12,-7974,-1900,2582,-167,220,333,1,7,11
1.72313E+12,-8018,-1700,2583,-544,203,357,1,7,11
1.72313E+12,-8054,-1786,2586,-613,180,363,1,7,11
1.72313E+12,-7822,-2082,2581,-612,158,356,1,7,11
1.72313E+12,-7832,-2109,2576,-564,131,338,1,7,11
1.72313E+12,-7822,-2127,2582,-231,354,299,1,7,11
1.72313E+12,-7815,-2128,2583,-330,315,-37,1,7,11
1.72313E+12,-8052,-2117,2586,34,286,-99,1,7,11
1.72313E+12,-8036,-2086,2587,121,264,85,1,7,11
1.72313E+12,-8010,-1694,2277,62,-84,-342,1,7,11
1.72313E+12,-8001,-1681,2254,-296,-94,-352,1,7,11
1.72313E+12,-8049,-2089,2281,-590,-41,-262,1,7,11
1.72313E+12,-8058,-2140,2564,-550,-48,20,1,7,11
1.72313E+12,-7968,-1922,2566,21,19,-171,1,7,11
1.72313E+12,-7939,-2159,2286,67,0,-160,1,7,11
1.72313E+12,-7678,-2143,2280,71,29,-380,1,7,11
1.72313E+12,-7943,-2130,2283,37,66,-322,1,7,11
1.72313E+12,-7971,-2135,2567,25,101,7,1,7,11
1.72313E+12,-7980,-2136,2584,31,121,82,1,7,11
1.72313E+12,-7966,-2140,2585,74,-128,-114,1,7,11
1.72313E+12,-7942,-2148,2580,89,-125,-97,1,7,11
1.72313E+12,-7964,-1943,2652,50,126,-259,1,7,11
1.72313E+12,-7955,-2156,2624,36,112,-271,1,7,11
1.72313E+12,-8035,-2123,2600,-526,121,119,1,7,11
1.72313E+12,-8024,-2155,2599,-558,115,-62,1,7,11
1.72313E+12,-8022,-1921,2611,-573,112,-55,1,7,11
1.72313E+12,-8035,-1943,2620,-571,100,-80,1,7,11
1.72313E+12,-8028,-1944,2619,-528,79,-120,1,7,11
1.72313E+12,-8008,-1931,2603,-192,58,94,1,7,11
1.72313E+12,-7974,-2167,2573,-154,40,52,1,7,11
1.72313E+12,-7939,-2154,2562,-146,29,7,1,7,11
1.72313E+12,-7647,-2169,2636,-329,96,27,1,7,11
1.72313E+12,-7652,-1927,2432,-261,-121,65,1,7,11
1.72313E+12,-7941,-1934,2478,82,-87,87,1,7,11
1.72313E+12,-7974,-2143,2471,-59,-75,104,1,7,11
1.72313E+12,-8013,-2054,2446,281,-70,124,1,7,11
1.72313E+12,-8057,-1719,2673,286,-80,-93,1,7,11
1.72313E+12,-7824,-1680,2649,-19,-112,-50,1,7,11
1.72313E+12,-7833,-1679,2644,-75,93,-30,1,7,11
1.72313E+12,-8020,-2108,2670,-317,57,72,1,7,11
1.72313E+12,-7581,-1939,2464,-83,-83,-209,1,7,11
1.72313E+12,-7557,-1944,2505,-49,-65,-197,1,7,11
1.72313E+12,-7644,-1761,2515,107,-121,-321,1,7,11
1.72313E+12,-7655,-1697,2454,-286,-119,21,1,7,11
1.72313E+12,-7820,-2094,2295,-733,163,152,1,7,11
1.72313E+12,-7861,-1926,2292,-671,189,163,1,7,11
1.72313E+12,-7860,-2361,2564,-298,-33,2,1,7,11
1.72313E+12,-7826,-2362,2608,-100,-121,-132,1,7,11
1.72313E+12,-7621,-2095,2681,478,-310,-189,1,7,11
1.72313E+12,-7593,-2050,2656,430,-275,-371,1,7,11
1.72313E+12,-7605,-2119,2471,123,-46,57,1,7,11
1.72313E+12,-7660,-2132,2494,15,-32,56,1,7,11
1.72313E+12,-7987,-2138,2680,-579,-94,-6,1,7,11
1.72313E+12,-7973,-1921,2686,-595,-91,-30,1,7,11
1.72313E+12,-7972,-1966,2455,-135,-79,-272,1,7,11
1.72313E+12,-7973,-1955,2460,-302,-70,-301,1,7,11
1.72313E+12,-7946,-2091,2469,101,261,-326,1,7,11
1.72313E+12,-7660,-2093,2444,54,-14,-344,1,7,11
1.72313E+12,-7939,-1932,2615,-516,364,-148,1,7,11
1.72313E+12,-7960,-1947,2610,-245,153,-331,1,7,11
1.72313E+12,-8057,-1964,2604,39,364,59,1,7,11
1.72313E+12,-8049,-1936,2565,68,301,39,1,7,11
1.72313E+12,-7674,-1962,2248,-368,-63,-369,1,7,11
1.72313E+12,-7938,-1980,2245,-371,-25,-367,1,7,11
1.72313E+12,-7999,-2033,2290,37,312,-268,1,7,11
1.72313E+12,-7984,-2034,2281,80,292,-270,1,7,11
1.72313E+12,-7645,-2347,2228,-145,-127,-150,1,7,11
1.72313E+12,-7631,-2382,2233,-202,-125,-373,1,7,11
1.72313E+12,-7652,-2218,2256,-211,-42,90,1,7,11
1.72313E+12,-7658,-2236,2268,-183,-34,-127,1,7,11
1.72313E+12,-7664,-2381,2264,-265,117,-64,1,7,11
1.72313E+12,-7648,-2365,2250,-257,118,-37,1,7,11
1.72313E+12,-7679,-2044,2205,81,-3,304,1,7,11
1.72313E+12,-7976,-2040,2222,124,286,322,1,7,11
1.72313E+12,-8022,-2038,2274,-70,300,339,1,7,11
1.72313E+12,-8048,-2015,2561,278,281,352,1,7,11
1.72313E+12,-8041,-1979,2568,369,-16,350,1,7,11
1.72313E+12,-8018,-1936,2561,167,-63,319,1,7,11
1.72313E+12,-8022,-2152,2585,162,-112,266,1,7,11
1.72313E+12,-8028,-2112,2610,378,80,-42,1,7,11
1.72313E+12,-7651,-2110,2262,-256,22,-93,1,7,11
1.72313E+12,-7944,-2173,2294,-556,75,-59,1,7,11
1.72313E+12,-8026,-1998,2615,-108,114,-20,1,7,11
1.72313E+12,-8034,-1962,2608,-28,73,-59,1,7,11
1.72313E+12,-7657,-2081,2648,-75,-308,76,1,7,11
1.72313E+12,-7643,-2056,2643,-108,-260,91,1,7,11
1.72313E+12,-7647,-1788,2646,113,103,-125,1,7,11
1.72313E+12,-7672,-1775,2646,78,-76,-91,1,7,11
1.72313E+12,-7956,-1762,2632,55,-20,-62,1,7,11
1.72313E+12,-7992,-1759,2621,21,276,-52,1,7,11
1.72313E+12,-8039,-1764,2642,-17,291,-65,1,7,11
1.72313E+12,-7814,-1783,2657,-305,263,-92,1,7,11
1.72313E+12,-7825,-2065,2432,-377,-260,-257,1,7,11
1.72313E+12,-7813,-2082,2448,-372,-335,-284,1,7,11
1.72313E+12,-7953,-1742,2620,-212,-183,-305,1,7,11
1.72313E+12,-7948,-1769,2645,-247,-138,-267,1,7,11
1.72313E+12,-7959,-2133,2502,-79,74,-330,1,7,11
1.72313E+12,-7957,-2134,2517,-70,44,-150,1,7,11
1.72313E+12,-7585,-2168,2535,-115,6,-219,1,7,11
1.72313E+12,-7559,-1929,2542,105,66,-195,1,7,11
1.72313E+12,-7771,-1986,2928,81,317,-286,1,7,11
1.72313E+12,-7774,-1944,2908,73,331,-266,1,7,11
1.72313E+12,-7615,-2051,2510,-601,239,-56,1,7,11
1.72313E+12,-7645,-1788,2463,-449,548,-2,1,7,11
1.72313E+12,-8035,-1990,2191,-1046,485,-47,1,7,11
1.72313E+12,-7809,-2305,2413,-744,445,97,1,7,11
1.72313E+12,-7899,-2179,2405,-568,336,-179,1,7,11
1.72313E+12,-7897,-2194,2427,-173,-58,-173,1,7,11
1.72313E+12,-7938,-2357,2288,285,-631,33,1,7,11
1.72313E+12,-7611,-2309,2275,288,-401,73,1,7,11
1.72313E+12,-7565,-1991,2436,-100,-337,261,1,7,11
1.72313E+12,-7978,-2067,2640,-291,262,316,1,7,11
1.72313E+12,-7975,-2080,2610,-130,-26,306,1,7,11
1.72313E+12,-7977,-1955,2571,-595,-57,-25,1,7,11
1.72313E+12,-7984,-1990,2579,-559,-40,-32,1,7,11
