timestamp,ax,ay,az,gx,gy,gz,Label1,Label2,Label3
1.72313E+12,-6995,-3272,3984,-246,313,159,1,7,11
1.72313E+12,-7002,-3317,3982,-568,320,204,1,7,11
1.72313E+12,-6998,-3614,3969,-585,318,208,1,7,11
1.72313E+12,-6987,-3646,3971,-567,304,189,1,7,11
1.72313E+12,-6960,-3672,3969,-527,283,140,1,7,11
1.72313E+12,-6934,-3688,3972,-217,267,314,1,7,11
1.72313E+12,-6920,-3688,4212,-146,265,-42,1,7,11
1.72313E+12,-6645,-3669,4182,-329,271,113,1,7,11
1.72313E+12,-6643,-3681,4178,-292,302,19,1,7,11
1.72313E+12,-6925,-3699,4185,-279,348,-312,1,7,11
1.72313E+12,-6978,-3693,4168,3,382,-375,1,7,11
1.72313E+12,-7016,-3687,4135,29,155,-166,1,7,11
1.72313E+12,-7034,-3681,4109,15,151,-155,1,7,11
1.72313E+12,-7034,-3688,3821,-275,382,-132,1,7,11
1.72313E+12,-6789,-3702,3808,-327,346,-359,1,7,11
1.72313E+12,-6802,-3477,3823,-371,283,-321,1,7,11
1.72313E+12,-7032,-3521,3824,-383,-69,-282,1,7,11
1.72313E+12,-6974,-3564,3813,-377,98,5,1,7,11
1.72313E+12,-6647,-3871,3808,-371,41,19,1,7,11
1.72313E+12,-6589,-3906,3799,-342,24,5,1,7,11
1.72313E+12,-6559,-3901,3800,-293,47,-269,1,7,11
1.72313E+12,-6573,-3869,3811,16,100,-268,1,7,11
1.72313E+12,-6604,-3575,4102,57,-106,31,1,7,11
1.72313E+12,-6611,-3539,4130,103,-84,94,1,7,11
1.72313E+12,-6618,-3509,4169,-124,-62,-98,1,7,11
1.72313E+12,-6634,-3467,4199,-105,-51,-46,1,7,11
1.72313E+12,-6922,-3675,4219,-97,-44,265,1,7,11
1.72313E+12,-6963,-3604,4207,-110,-29,329,1,7,11
1.72313E+12,-7018,-3288,4188,82,-2,161,1,7,11
1.72313E+12,-6804,-3241,4159,-262,274,526,1,7,11
1.72313E+12,-6817,-3241,4138,-371,287,630,1,7,11
1.72313E+12,-6805,-3265,4125,-217,300,449,1,7,11
1.72313E+12,-7037,-3304,4123,-542,309,476,1,7,11
1.72313E+12,-6999,-3593,4129,-565,312,463,1,7,11
1.72313E+12,-6966,-3612,4121,-550,314,424,1,7,11
1.72313E+12,-6933,-3634,3836,-252,330,631,1,7,11
1.72313E+12,-6946,-3642,3814,-206,375,596,1,7,11
1.72313E+12,-6997,-3649,3791,-154,167,596,1,7,11
1.72313E+12,-6791,-3625,3760,-362,195,636,1,7,11
1.72313E+12,-6839,-3289,3712,-314,208,445,1,7,11
1.72313E+12,-6925,-3271,3718,-296,212,816,1,7,11
1.72313E+12,-6910,-3212,3727,-368,-31,752,1,7,11
1.72313E+12,-6901,-3438,3751,-144,-69,695,1,7,11
1.72313E+12,-6912,-3405,3769,-135,-88,894,1,7,11
1.72313E+12,-6902,-3376,3793,-366,-103,844,1,7,11
1.72313E+12,-6884,-3354,3811,-343,-102,784,1,7,11
1.72313E+12,-6886,-3071,3825,-326,-80,454,1,7,11
1.72313E+12,-6897,-3036,3839,-278,-50,630,1,7,11
1.72313E+12,-7173,-2991,3823,8,-25,566,1,7,11
1.72313E+12,-7207,-2945,3805,20,278,536,1,7,11
1.72313E+12,-7255,-3172,3796,7,321,548,1,7,11
1.72313E+12,-7269,-3164,3788,-258,336,590,1,7,11
1.72313E+12,-7282,-3174,3767,-261,348,635,1,7,11
1.72313E+12,-7284,-3153,3759,19,354,421,1,7,11
1.72313E+12,-7069,-3136,3772,28,370,456,1,7,11
1.72313E+12,-7104,-3106,3798,65,362,506,1,7,11
1.72313E+12,-7096,-2801,3794,105,335,805,1,7,11
1.72313E+12,-7078,-2755,3783,123,324,834,1,7,11
1.72313E+12,-7071,-2730,3776,106,326,855,1,7,11
1.72313E+12,-7295,-2698,3723,83,324,872,1,7,11
1.72313E+12,-7252,-2696,3915,44,344,895,1,7,11
1.72313E+12,-7213,-2905,3564,-262,146,679,1,7,11
1.72313E+12,-7275,-2870,3525,-306,519,738,1,7,11
1.72313E+12,-7096,-2874,3517,-364,387,1124,1,7,11
1.72313E+12,-7119,-2864,3503,-342,478,1407,1,7,11
1.72313E+12,-7150,-2829,3501,-295,774,1585,1,7,11
1.72313E+12,-7465,-2530,3514,51,797,1476,1,7,11
1.72313E+12,-7469,-2442,3497,-120,769,1848,1,7,11
1.72313E+12,-7503,-2599,3510,-84,485,1891,1,7,11
1.72313E+12,-7503,-2260,3549,-104,408,1866,1,7,11
1.72313E+12,-7496,-2223,3865,95,558,1486,1,7,11
1.72313E+12,-7494,-2184,3911,58,188,1274,1,7,11
1.72313E+12,-7496,-2384,3952,4,337,1008,1,7,11
1.72313E+12,-7508,-2357,3762,-335,-11,727,1,7,11
1.72313E+12,-7530,-2335,3838,-134,-82,464,1,7,11
1.72313E+12,-7514,-2312,4134,-155,109,221,1,7,11
1.72313E+12,-7451,-2036,4116,-166,62,258,1,7,11
1.72313E+12,-7145,-2026,3823,-208,90,45,1,7,11
1.72313E+12,-7166,-2001,3790,-519,-81,-137,1,7,11
1.72313E+12,-7459,-1986,3731,-594,257,-256,1,7,11
1.72313E+12,-7493,-2018,3719,-439,334,-570,1,7,11
1.72313E+12,-7541,-2348,3738,-781,141,-596,1,7,11
1.72313E+12,-7542,-2413,3715,-785,137,-609,1,7,11
1.72313E+12,-7538,-2179,3896,-508,382,-390,1,7,11
1.72313E+12,-7323,-2221,3861,-793,139,-423,1,7,11
1.72313E+12,-7360,-2269,3924,-825,372,-441,1,7,11
1.72313E+12,-7318,-2622,3963,-815,282,-447,1,7,11
1.72313E+12,-7538,-2446,3965,-467,-37,-471,1,7,11
1.72313E+12,-7487,-2472,3906,-603,-61,-773,1,7,11
1.72313E+12,-7502,-2491,3901,-542,-26,-831,1,7,11
1.72313E+12,-7503,-2521,3900,-232,-9,-872,1,7,11
1.72313E+12,-7490,-2546,3895,-170,275,-891,1,7,11
1.72313E+12,-7471,-2859,3900,-379,305,-642,1,7,11
1.72313E+12,-7160,-2937,3893,-324,308,-654,1,7,11
1.72313E+12,-7093,-2716,3574,9,323,-714,1,7,11
1.72313E+12,-7067,-2722,3509,55,376,-1041,1,7,11
1.72313E+12,-7086,-2720,3460,58,192,-1093,1,7,11
1.72313E+12,-7110,-2721,3673,54,519,-1100,1,7,11
1.72313E+12,-7112,-2712,3617,59,592,-1068,1,7,11
1.72313E+12,-7119,-2706,3297,72,419,-765,1,7,11
1.72313E+12,-7136,-2930,3449,103,770,-706,1,7,11
1.72313E+12,-7442,-2874,3347,99,882,-885,1,7,11
1.72313E+12,-7543,-2833,3014,43,735,-771,1,7,11
1.72313E+12,-7389,-2533,3199,-285,1039,-621,1,7,11
1.72313E+12,-7722,-2519,3130,-375,1035,-203,1,7,11
1.72313E+12,-7762,-2534,3076,-215,724,-312,1,7,11
1.72313E+12,-7791,-2839,2796,-567,895,48,1,7,11
1.72313E+12,-7571,-2919,3109,-636,786,125,1,7,11
1.72313E+12,-7601,-2740,3193,-633,398,-73,1,7,11
1.72313E+12,-7574,-3085,3026,-556,249,-11,1,7,11
1.72313E+12,-7403,-2813,2986,-365,302,312,1,7,11
1.72313E+12,-7309,-2769,2960,76,-71,313,1,7,11
1.72313E+12,-7545,-2750,3012,-108,-83,280,1,7,11
1.72313E+12,-7541,-2762,3377,-101,-77,261,1,7,11
1.72313E+12,-7535,-2745,3212,-52,-81,266,1,7,11
1.72313E+12,-7522,-2694,3280,300,-51,316,1,7,11
1.72313E+12,-7461,-2854,3266,240,-23,149,1,7,11
1.72313E+12,-7144,-2492,3455,572,315,250,1,7,11
1.72313E+12,-7125,-2651,3378,566,189,611,1,7,11
1.72313E+12,-7165,-2576,3368,210,618,451,1,7,11
1.72313E+12,-7521,-2275,3425,359,781,824,1,7,11
1.72313E+12,-7377,-2210,3450,344,640,718,1,7,11
1.72313E+12,-7734,-2368,3421,136,702,1145,1,7,11
1.72313E+12,-7749,-1981,3034,183,711,1303,1,7,11
1.72313E+12,-7792,-2134,3164,378,742,1373,1,7,11
1.72313E+12,-7633,-2066,3077,-14,746,1356,1,7,11
1.72313E+12,-7962,-1762,2738,92,678,999,1,7,11
1.72313E+12,-8030,-1742,2922,-333,831,1086,1,7,11
1.72313E+12,-7826,-1781,2883,-249,434,885,1,7,11
1.72313E+12,-7837,-2092,2840,-628,247,398,1,7,11
1.72313E+12,-7821,-2148,2537,-458,315,140,1,7,11
1.72313E+12,-7815,-1955,2504,-772,-93,-116,1,7,11
1.72313E+12,-7809,-2023,2493,-794,44,-344,1,7,11
1.72313E+12,-8048,-2375,2493,-781,-299,-536,1,7,11
1.72313E+12,-8023,-2244,2529,-477,-366,-452,1,7,11
1.72313E+12,-7974,-2618,2554,-618,-172,-882,1,7,11
1.72313E+12,-7655,-2459,2846,-218,-230,-1064,1,7,11
1.72313E+12,-7589,-2534,2876,-327,-531,-1005,1,7,11
1.72313E+12,-7805,-2845,2922,62,-568,-1209,1,7,11
1.72313E+12,-7798,-2877,2717,-70,-597,-1657,1,7,11
1.72313E+12,-7557,-2875,2762,318,-621,-1814,1,7,11
1.72313E+12,-7575,-2851,2814,175,-634,-1914,1,7,11
1.72313E+12,-7590,-2560,3124,522,-400,-1704,1,7,11
1.72313E+12,-7571,-2545,3167,589,-429,-1708,1,7,11
1.72313E+12,-7768,-2819,2958,621,-469,-1717,1,7,11
1.72313E+12,-7705,-2857,3044,629,-771,-1769,1,7,11
1.72313E+12,-7366,-2705,3372,614,-831,-2137,1,7,11
1.72313E+12,-7520,-2774,3447,589,-650,-2139,1,7,11
1.72313E+12,-7463,-3091,3281,552,-740,-2237,1,7,11
1.72313E+12,-7123,-3191,3638,224,-1104,-2435,1,7,11
1.72313E+12,-7047,-3042,3492,131,-981,-2753,1,7,11
1.72313E+12,-7247,-3379,3563,309,-1364,-2961,1,7,11
1.72313E+12,-7170,-3444,3862,-8,-1244,-3382,1,7,11
1.72313E+12,-6840,-3268,3924,-112,-1419,-3253,1,7,11
1.72313E+12,-7033,-3593,3745,28,-1525,-3617,1,7,11
1.72313E+12,-6965,-3685,3837,-173,-1889,-3692,1,7,11
1.72313E+12,-6605,-3514,4148,-524,-1742,-3493,1,7,11
1.72313E+12,-6761,-3858,4171,-605,-2078,-3543,1,7,11
1.72313E+12,-6712,-3915,4185,-438,-2118,-3846,1,7,11
1.72313E+12,-6678,-3720,3974,-823,-2159,-3861,1,7,11
1.72313E+12,-6374,-3790,4022,-703,-1948,-3860,1,7,11
1.72313E+12,-6353,-4137,4083,-1083,-1962,-3578,1,7,11
1.72313E+12,-6307,-4205,4397,-900,-1972,-3511,1,7,11
1.72313E+12,-6502,-4017,4448,-955,-1981,-3683,1,7,11
1.72313E+12,-6431,-4372,4479,-999,-1979,-3595,1,7,11
1.72313E+12,-6120,-4426,4239,-1003,-1948,-3264,1,7,11
1.72313E+12,-6058,-4243,4254,-1016,-2164,-3436,1,7,11
1.72313E+12,-6201,-4613,4253,-1282,-2137,-3332,1,7,11
1.72313E+12,-5781,-4484,4237,-1304,-2101,-2996,1,7,11
1.72313E+12,-5606,-4869,4463,-1337,-2054,-2973,1,7,11
1.72313E+12,-5682,-4767,4459,-1402,-1743,-2999,1,7,11
1.72313E+12,-5264,-5215,4231,-1208,-1699,-3067,1,7,11
1.72313E+12,-5120,-5399,4282,-1220,-1673,-3434,1,7,11
1.72313E+12,-5237,-5305,4301,-1182,-1675,-3308,1,7,11
1.72313E+12,-4848,-5686,4313,-1382,-1684,-3700,1,7,11
1.72313E+12,-4967,-5567,4338,-1360,-1707,-3562,1,7,11
1.72313E+12,-4592,-5929,4609,-1324,-1735,-3939,1,7,11
1.72313E+12,-4484,-5989,4343,-1288,-1750,-3784,1,7,11
1.72313E+12,-4652,-5814,4618,-1020,-1730,-3840,1,7,11
1.72313E+12,-4333,-5863,4642,-997,-1692,-4116,1,7,11
1.72313E+12,-4297,-6160,4650,-956,-1894,-3810,1,7,11
1.72313E+12,-4251,-6197,4665,-923,-1826,-3941,1,7,11
1.72313E+12,-4479,-6246,4694,-1147,-1471,-3508,1,7,11
1.72313E+12,-4441,-6029,4695,-1096,-1628,-3281,1,7,11
1.72313E+12,-4095,-6085,4680,-1067,-1260,-3019,1,7,11
1.72313E+12,-4223,-6421,4661,-1062,-1153,-2778,1,7,11
1.72313E+12,-3824,-6515,4647,-1054,-1308,-2873,1,7,11
1.72313E+12,-3911,-6378,4618,-1084,-979,-2525,1,7,11
1.72313E+12,-3503,-6722,4305,-1076,-926,-2556,1,7,11
1.72313E+12,-3613,-6531,4262,-1117,-1149,-2913,1,7,11
1.72313E+12,-3237,-6624,4247,-928,-1136,-2811,1,7,11
1.72313E+12,-3382,-7000,4247,-1000,-912,-2977,1,7,11
1.72313E+12,-3042,-6811,4235,-1024,-971,-3415,1,7,11
1.72313E+12,-3191,-6852,4232,-1311,-1327,-3316,1,7,11
1.72313E+12,-2809,-7205,4254,-1392,-1209,-3457,1,7,11
1.72313E+12,-2832,-7046,4472,-1361,-1655,-3845,1,7,11
1.72313E+12,-2679,-7101,4455,-1305,-1450,-3890,1,7,11
1.72313E+12,-2262,-7152,4426,-987,-1447,-3904,1,7,11
1.72313E+12,-2389,-7433,4408,-926,-1415,-3901,1,7,11
1.72313E+12,-2310,-7454,4418,-1125,-1614,-3858,1,7,11
1.72313E+12,-1962,-7507,4432,-1078,-1572,-3483,1,7,11
1.72313E+12,-2127,-7522,4437,-745,-1277,-3599,1,7,11
1.72313E+12,-1791,-7523,4437,-695,-1257,-3432,1,7,11
1.72313E+12,-1680,-7328,4460,-681,-1247,-2977,1,7,11
1.72313E+12,-1832,-7340,4433,-871,-1212,-2800,1,7,11
1.72313E+12,-1504,-7354,4410,-855,-1408,-2878,1,7,11
1.72313E+12,-1410,-7391,4387,-850,-1374,-2454,1,7,11
1.72313E+12,-1564,-7687,4365,-850,-1333,-2297,1,7,11
1.72313E+12,-1159,-7760,4089,-849,-1322,-2409,1,7,11
1.72313E+12,-1018,-7772,4045,-819,-1304,-2345,1,7,11
1.72313E+12,-921,-7805,4029,-819,-1016,-2308,1,7,11
1.72313E+12,-1074,-7591,4031,-818,-1003,-2027,1,7,11
1.72313E+12,-721,-7568,3993,-770,-989,-2023,1,7,11
1.72313E+12,-660,-7795,4220,-483,-953,-1987,1,7,11
1.72313E+12,-826,-7584,3988,-491,-920,-2165,1,7,11
1.72313E+12,-477,-7605,4006,-456,-913,-2114,1,7,11
1.72313E+12,-435,-7595,4015,-416,-1145,-2070,1,7,11
1.72313E+12,-390,-7612,4046,-621,-1111,-1723,1,7,11
1.72313E+12,-583,-7621,4032,-520,-1084,-1873,1,7,11
1.72313E+12,-515,-7612,3994,-179,-764,-1500,1,7,11
1.72313E+12,-221,-7583,3978,-371,-672,-1632,1,7,11
1.72313E+12,-189,-7557,3991,-352,-859,-1259,1,7,11
1.72313E+12,-134,-7798,3996,-356,-818,-1401,1,7,11
1.72313E+12,-347,-7564,4008,-378,-789,-1294,1,7,11
1.72313E+12,-296,-7558,3998,-372,-780,-947,1,7,11
1.72313E+12,24,-7563,3968,-380,-502,-1123,1,7,11
1.72313E+12,73,-7614,3969,-138,-454,-1068,1,7,11
1.72313E+12,89,-7650,3979,-130,-391,-1035,1,7,11
1.72313E+12,112,-7983,4011,-379,-597,-756,1,7,11
1.72313E+12,126,-7983,3988,-289,-550,-766,1,7,11
1.72313E+12,-124,-7945,4220,49,-244,-761,1,7,11
1.72313E+12,114,-7620,4191,90,-187,-748,1,7,11
1.72313E+12,113,-7581,4215,69,-149,-708,1,7,11
1.72313E+12,125,-7572,3973,32,-141,-667,1,7,11
1.72313E+12,-97,-7805,3975,-258,-146,-644,1,7,11
1.72313E+12,-50,-7553,4217,-311,-163,-892,1,7,11
1.72313E+12,-40,-7799,3970,-348,-173,-650,1,7,11
1.72313E+12,-25,-7601,3988,-155,-201,-650,1,7,11
1.72313E+12,260,-7630,3993,-159,-232,-652,1,7,11
1.72313E+12,279,-7621,3976,-133,-243,-645,1,7,11
1.72313E+12,284,-7605,3979,-351,-239,-879,1,7,11
1.72313E+12,324,-7593,3986,-321,-253,-832,1,7,11
1.72313E+12,372,-7588,3993,-300,-535,-775,1,7,11
1.72313E+12,143,-7557,3975,14,-538,-489,1,7,11
1.72313E+12,161,-7792,3983,36,-528,-455,1,7,11
1.72313E+12,174,-7799,4003,28,-535,-428,1,7,11
1.72313E+12,191,-7798,4023,12,-546,-399,1,7,11
1.72313E+12,239,-7792,4011,13,-559,-626,1,7,11
1.72313E+12,548,-7776,3977,-262,-548,-616,1,7,11
1.72313E+12,577,-7798,3974,-300,-513,-610,1,7,11
1.72313E+12,620,-7596,3995,-331,-223,-609,1,7,11
1.72313E+12,407,-7628,3997,-306,-187,-619,1,7,11
1.72313E+12,425,-7643,3994,0,-132,-628,1,7,11
1.72313E+12,438,-7656,4017,48,-344,-624,1,7,11
1.72313E+12,460,-7650,4034,101,-323,-623,1,7,11
1.72313E+12,487,-7630,4029,-86,-304,-622,1,7,11
1.72313E+12,489,-7580,4010,-49,-267,-618,1,7,11
1.72313E+12,478,-7798,4010,-71,38,-601,1,7,11
1.72313E+12,493,-7793,4035,-98,71,-575,1,7,11
1.72313E+12,787,-7781,4052,-112,93,-576,1,7,11
1.72313E+12,819,-7760,4049,-117,118,-603,1,7,11
1.72313E+12,798,-7714,4039,115,-93,-640,1,7,11
1.72313E+12,511,-7698,4056,56,-84,-390,1,7,11
1.72313E+12,485,-7705,4105,-271,-111,-640,1,7,11
1.72313E+12,768,-7772,4362,-319,80,-622,1,7,11
1.72313E+12,785,-7783,4083,-336,36,-613,1,7,11
1.72313E+12,828,-7571,4067,-373,2,-594,1,7,11
1.72313E+12,885,-7588,4043,-362,-264,-588,1,7,11
1.72313E+12,675,-7590,4019,-352,16,-592,1,7,11
1.72313E+12,699,-7579,4014,-333,55,-601,1,7,11
1.72313E+12,703,-7591,4032,-317,80,-605,1,7,11
1.72313E+12,703,-7579,4037,-281,94,-604,1,7,11
1.72313E+12,672,-7803,4069,10,96,-587,1,7,11
1.72313E+12,876,-7769,4073,19,73,-540,1,7,11
1.72313E+12,866,-7723,4064,23,4,-214,1,7,11
1.72313E+12,894,-7704,4034,-263,-319,-143,1,7,11
1.72313E+12,694,-7705,3998,-314,-360,-342,1,7,11
1.72313E+12,748,-7726,3971,-136,-363,-291,1,7,11
1.72313E+12,1040,-7760,3968,-199,-334,-281,1,7,11
1.72313E+12,1062,-7566,3980,-235,-292,-295,1,7,11
1.72313E+12,1081,-7604,3984,-229,-264,-325,1,7,11
1.72313E+12,1071,-7625,3998,-179,52,-351,1,7,11
1.72313E+12,1071,-7637,4005,-371,73,-352,1,7,11
1.72313E+12,1035,-7588,3998,-289,-126,-342,1,7,11
1.72313E+12,746,-7800,4003,48,-93,-298,1,7,11
1.72313E+12,714,-7789,4030,67,-102,-259,1,7,11
1.72313E+12,711,-7798,4059,72,115,30,1,7,11
1.72313E+12,712,-7782,4066,83,63,40,1,7,11
1.72313E+12,704,-7776,4076,65,23,50,1,7,11
1.72313E+12,705,-7743,4065,44,-264,61,1,7,11
1.72313E+12,751,-7754,4065,4,-291,71,1,7,11
1.72313E+12,1055,-7759,4039,-274,-287,35,1,7,11
1.72313E+12,1065,-7749,4015,-307,20,-264,1,7,11
1.72313E+12,1025,-7757,4025,-353,90,-297,1,7,11
1.72313E+12,734,-7758,4048,-379,123,-308,1,7,11
1.72313E+12,758,-7780,4047,-134,110,-317,1,7,11
1.72313E+12,1033,-7769,4019,-384,100,-353,1,7,11
1.72313E+12,1029,-7776,4008,-135,118,-377,1,7,11
1.72313E+12,1031,-7795,4006,-130,119,-136,1,7,11
1.72313E+12,1027,-7797,4011,-374,114,-146,1,7,11
1.72313E+12,767,-7772,3985,-348,101,-138,1,7,11
1.72313E+12,764,-7761,4220,-352,88,-356,1,7,11
1.72313E+12,1035,-7770,3986,-370,63,-313,1,7,11
1.72313E+12,1052,-7791,4007,-365,29,-279,1,7,11
1.72313E+12,1058,-7795,3993,-337,5,7,1,7,11
1.72313E+12,1066,-7782,4218,-329,-266,35,1,7,11
1.72313E+12,1073,-7782,4195,-348,2,59,1,7,11
1.72313E+12,1103,-7801,4179,-363,17,63,1,7,11
1.72313E+12,1131,-7579,4184,-373,47,41,1,7,11
1.72313E+12,1134,-7613,4180,-369,85,10,1,7,11
1.72313E+12,1128,-7632,4186,-336,126,-276,1,7,11
1.72313E+12,1097,-7627,4212,-296,-98,-294,1,7,11
1.72313E+12,1085,-7612,4222,16,-92,-301,1,7,11
1.72313E+12,1077,-7564,4203,73,-98,-304,1,7,11
1.72313E+12,1077,-7790,4196,82,-108,-298,1,7,11
1.72313E+12,1081,-7757,3969,75,-117,-295,1,7,11
1.72313E+12,1104,-7753,3980,64,121,-277,1,7,11
1.72313E+12,908,-7749,3972,68,99,-269,1,7,11
1.72313E+12,932,-7746,4223,59,107,-274,1,7,11
1.72313E+12,936,-7750,3972,39,123,-259,1,7,11
1.72313E+12,964,-7748,4204,22,-121,31,1,7,11
1.72313E+12,974,-7764,4194,-260,-96,47,1,7,11
1.72313E+12,976,-7803,3968,-302,-62,77,1,7,11
1.72313E+12,957,-7563,3985,-324,-28,110,1,7,11
1.72313E+12,952,-7575,3989,-322,-17,-123,1,7,11
1.72313E+12,935,-7605,4002,-309,-28,-113,1,7,11
1.72313E+12,909,-7591,3996,13,-35,-106,1,7,11
1.72313E+12,896,-7581,3980,39,-49,-96,1,7,11
1.72313E+12,1126,-7567,4000,37,-61,-97,1,7,11
1.72313E+12,1109,-7554,4010,50,-93,-96,1,7,11
1.72313E+12,1109,-7800,4016,69,-119,-87,1,7,11
1.72313E+12,1120,-7766,4009,90,118,-82,1,7,11
1.72313E+12,1143,-7747,4003,92,112,-83,1,7,11
1.72313E+12,903,-7724,4002,89,-127,-89,1,7,11
1.72313E+12,927,-7714,4011,76,-108,-85,1,7,11
1.72313E+12,963,-7721,4010,54,-79,-89,1,7,11
1.72313E+12,977,-7735,4016,35,-39,-100,1,7,11
1.72313E+12,961,-7746,4017,12,272,-109,1,7,11
1.72313E+12,902,-7748,4033,-273,312,-95,1,7,11
1.72313E+12,1099,-7751,4050,-296,329,-59,1,7,11
1.72313E+12,1049,-7748,4068,-315,303,-4,1,7,11
1.72313E+12,1041,-7746,4075,-320,-7,310,1,7,11
1.72313E+12,1051,-7734,4056,-334,-64,364,1,7,11
1.72313E+12,1050,-7747,4061,-351,-105,142,1,7,11
1.72313E+12,1080,-7745,4023,-354,97,151,1,7,11
1.72313E+12,1077,-7775,4029,-130,97,149,1,7,11
1.72313E+12,1086,-7566,4038,-170,98,137,1,7,11
1.72313E+12,1089,-7603,4032,-170,125,374,1,7,11
1.72313E+12,1057,-7602,4034,-156,-87,352,1,7,11
1.72313E+12,1047,-7619,4046,-150,-58,335,1,7,11
1.72313E+12,1049,-7619,4026,-328,-21,323,1,7,11
1.72313E+12,1043,-7584,3988,-274,296,305,1,7,11
1.72313E+12,762,-7555,3999,6,128,307,1,7,11
1.72313E+12,749,-7786,3984,19,210,320,1,7,11
1.72313E+12,718,-7759,3969,1,549,343,1,7,11
1.72313E+12,652,-7748,3976,-299,621,135,1,7,11
1.72313E+12,816,-7754,3995,-344,396,531,1,7,11
1.72313E+12,824,-7789,3984,-350,392,401,1,7,11
1.72313E+12,831,-7805,4203,-316,405,768,1,7,11
1.72313E+12,838,-7565,4204,-303,430,883,1,7,11
1.72313E+12,840,-7593,4190,-272,453,737,1,7,11
1.72313E+12,827,-7648,4208,10,501,1084,1,7,11
1.72313E+12,792,-7654,4214,93,797,1144,1,7,11
1.72313E+12,502,-7638,4200,-61,838,944,1,7,11
1.72313E+12,473,-7643,4211,259,878,1020,1,7,11
1.72313E+12,396,-7635,3979,340,659,1329,1,7,11
1.72313E+12,596,-7598,3978,172,659,1157,1,7,11
1.72313E+12,537,-7573,3985,241,649,1542,1,7,11
1.72313E+12,219,-7559,3998,548,656,1456,1,7,11
1.72313E+12,191,-7604,4010,582,675,1876,1,7,11
1.72313E+12,130,-7633,4032,616,708,1715,1,7,11
1.72313E+12,291,-7621,4036,419,754,2053,1,7,11
1.72313E+12,-39,-7615,4039,460,1075,2169,1,7,11
1.72313E+12,-116,-7665,4087,494,907,2005,1,7,11
1.72313E+12,29,-7680,4387,835,985,2313,1,7,11
1.72313E+12,-319,-7671,4409,689,1294,2370,1,7,11
1.72313E+12,-156,-7612,4405,1053,1348,2430,1,7,11
1.72313E+12,-251,-7582,4425,1109,1394,2238,1,7,11
1.72313E+12,-595,-7803,4466,896,1183,2564,1,7,11
1.72313E+12,-439,-7731,4248,919,1221,2620,1,7,11
1.72313E+12,-789,-7414,4280,912,1257,2441,1,7,11
1.72313E+12,-885,-7419,4635,1111,1552,2550,1,7,11
1.72313E+12,-718,-7688,4719,1118,1595,2930,1,7,11
1.72313E+12,-1071,-7390,4497,915,1411,2808,1,7,11
1.72313E+12,-923,-7319,4537,959,1528,2962,1,7,11
1.72313E+12,-1016,-7537,4594,989,1670,3394,1,7,11
1.72313E+12,-1393,-7485,4892,1293,2125,3594,1,7,11
1.72313E+12,-1564,-7167,4919,1354,2392,3867,1,7,11
1.72313E+12,-1461,-7098,4916,1157,2666,4214,1,7,11
1.72313E+12,-1895,-7180,4876,1218,2728,4616,1,7,11
1.72313E+12,-2079,-6834,4881,1184,3335,5128,1,7,11
1.72313E+12,-2311,-6788,4911,1159,3708,5697,1,7,11
1.72313E+12,-2571,-6827,4976,1158,3769,6063,1,7,11
1.72313E+12,-2548,-7010,4946,1239,4211,6641,1,7,11
1.72313E+12,-2769,-6610,4915,1625,4405,7117,1,7,11
1.72313E+12,-3022,-6740,4898,1491,4332,7776,1,7,11
1.72313E+12,-3303,-6524,4599,1881,4543,8186,1,7,11
1.72313E+12,-3875,-6160,4507,2092,4745,8820,1,7,11
1.72313E+12,-4188,-5561,4665,2027,5093,9224,1,7,11
1.72313E+12,-4439,-5278,4295,2397,5300,9353,1,7,11
1.72313E+12,-4511,-5210,4414,2248,5527,9644,1,7,11
1.72313E+12,-5188,-4604,4063,2223,5976,9878,1,7,11
1.72313E+12,-5742,-4245,3992,2177,6253,10262,1,7,11
1.72313E+12,-6085,-4111,4175,2365,6139,10347,1,7,11
1.72313E+12,-6690,-3518,3807,1948,6201,10496,1,7,11
1.72313E+12,-6568,-3250,3718,1739,5615,10525,1,7,11
1.72313E+12,-6936,-3000,3867,1509,5298,10263,1,7,11
1.72313E+12,-7214,-2896,3488,1581,5071,9775,1,7,11
1.72313E+12,-7297,-2277,3645,1383,4859,9217,1,7,11
1.72313E+12,-7615,-1955,3321,929,4571,8765,1,7,11
1.72313E+12,-7644,-1765,3211,680,4071,8117,1,7,11
1.72313E+12,-8009,-1880,3447,398,3733,7560,1,7,11
1.72313E+12,-8222,-1424,3407,522,3696,7182,1,7,11
1.72313E+12,-8176,-1191,3331,240,3332,6385,1,7,11
1.72313E+12,-8575,-898,3174,254,2940,6251,1,7,11
1.72313E+12,-8485,-1098,3087,350,2251,5997,1,7,11
1.72313E+12,-8079,-1063,2759,-53,2171,5642,1,7,11
1.72313E+12,-8193,-750,2708,90,1699,5193,1,7,11
1.72313E+12,-7867,-892,2693,45,1831,4658,1,7,11
1.72313E+12,-7892,-769,2690,22,1479,4120,1,7,11
1.72313E+12,-7936,-637,2916,50,1628,3629,1,7,11
1.72313E+12,-8207,-539,2861,57,1256,2971,1,7,11
1.72313E+12,-8208,-198,2543,51,1397,2860,1,7,11
1.72313E+12,-8214,-344,2445,36,1016,2253,1,7,11
1.72313E+12,-8218,13,2598,-274,1149,1924,1,7,11
1.72313E+12,-8208,93,2259,-363,1030,1887,1,7,11
1.72313E+12,-8225,104,2262,-246,678,1652,1,7,11
1.72313E+12,-8274,-107,2239,-554,837,1197,1,7,11
1.72313E+12,-8077,-47,2205,-577,469,1313,1,7,11
1.72313E+12,-8102,-1,2223,-630,589,936,1,7,11
1.72313E+12,-8112,-26,2275,-440,180,1090,1,7,11
1.72313E+12,-8097,-57,2591,-476,287,681,1,7,11
1.72313E+12,-8068,-50,2594,-441,-117,877,1,7,11
1.72313E+12,-8282,-14,2583,-398,-261,501,1,7,11
1.72313E+12,-8272,292,2592,-623,-324,560,1,7,11
1.72313E+12,-7928,282,2604,-614,-366,212,1,7,11
1.72313E+12,-7896,282,2611,-618,-322,363,1,7,11
1.72313E+12,-7893,310,2599,-599,14,275,1,7,11
1.72313E+12,-7890,313,2603,-616,108,-32,1,7,11
1.72313E+12,-7927,317,2614,-639,-48,-67,1,7,11
1.72313E+12,-8209,301,2618,-419,266,-65,1,7,11
1.72313E+12,-8231,293,2616,-443,303,-54,1,7,11
1.72313E+12,-8246,269,2622,-468,318,-30,1,7,11
1.72313E+12,-8248,274,2578,-461,303,-16,1,7,11
1.72313E+12,-8240,294,2285,-496,286,-19,1,7,11
1.72313E+12,-8256,278,2560,-825,267,-31,1,7,11
1.72313E+12,-8258,-7,2584,-848,-29,-39,1,7,11
1.72313E+12,-8240,-18,2578,-813,-93,-43,1,7,11
1.72313E+12,-7933,-19,2563,-505,101,-56,1,7,11
1.72313E+12,-7901,-30,2294,-459,71,-66,1,7,11
1.72313E+12,-7880,-52,2566,-414,61,-58,1,7,11
1.72313E+12,-7863,-66,2598,-574,67,-61,1,7,11
1.72313E+12,-7844,-64,2616,-193,78,-55,1,7,11
1.72313E+12,-7819,-34,2616,-307,105,-55,1,7,11
1.72313E+12,-7829,257,2622,60,-91,-66,1,7,11
1.72313E+12,-7851,286,2635,125,-30,-88,1,7,11
1.72313E+12,-7855,322,2628,-88,261,-99,1,7,11
1.72313E+12,-7883,358,2637,-85,316,-116,1,7,11
1.72313E+12,-7917,372,2638,-106,349,-120,1,7,11
1.72313E+12,-7925,160,2558,-115,349,-117,1,7,11
1.72313E+12,-8200,181,2318,65,371,-102,1,7,11
1.72313E+12,-8228,143,2595,-289,380,-95,1,7,11
1.72313E+12,-8256,170,2303,-303,348,-121,1,7,11
1.72313E+12,-8271,191,2262,-330,296,107,1,7,11
1.72313E+12,-8269,205,2221,-346,-7,92,1,7,11
1.72313E+12,-8256,144,2242,-138,-42,118,1,7,11
1.72313E+12,-8242,321,2262,-144,-49,-86,1,7,11
1.72313E+12,-7923,-20,2270,-326,-85,-34,1,7,11
1.72313E+12,-7875,-68,2265,62,-102,-71,1,7,11
1.72313E+12,-7814,-110,2241,-26,-88,127,1,7,11
1.72313E+12,-8022,105,2205,155,-28,56,1,7,11
1.72313E+12,-7975,56,2190,583,263,-270,1,7,11
1.72313E+12,-7980,0,2202,487,168,-346,1,7,11
1.72313E+12,-8029,-296,2216,676,540,-382,1,7,11
1.72313E+12,-7834,-299,2206,1071,638,-371,1,7,11
1.72313E+12,-7880,-275,2418,1361,457,-315,1,7,11
1.72313E+12,-7918,35,2357,1897,776,27,1,7,11
1.72313E+12,-8239,-112,2038,2138,829,123,1,7,11
1.72313E+12,-8288,291,1945,2311,844,-31,1,7,11
1.72313E+12,-8311,175,2093,2374,829,298,1,7,11
1.72313E+12,-8073,558,1756,2316,786,313,1,7,11
1.72313E+12,-8110,407,1722,2153,459,279,1,7,11
1.72313E+12,-8184,493,1729,1705,606,-29,1,7,11
1.72313E+12,-8450,830,1711,1497,188,-56,1,7,11
1.72313E+12,-8168,864,1716,1261,303,-74,1,7,11
1.72313E+12,-8128,874,1736,1295,-74,-80,1,7,11
1.72313E+12,-8078,858,1783,1063,90,-56,1,7,11
1.72313E+12,-8319,825,2109,865,22,-3,1,7,11
1.72313E+12,-8066,814,2162,440,-316,338,1,7,11
1.72313E+12,-8310,818,1953,535,-141,203,1,7,11
1.72313E+12,-8068,862,1993,377,-199,594,1,7,11
1.72313E+12,-8320,892,2017,-41,-232,495,1,7,11
1.72313E+12,-8278,881,2046,35,-255,642,1,7,11
1.72313E+12,-8239,865,2342,-130,-245,729,1,7,11
1.72313E+12,-8210,855,2403,-525,-229,752,1,7,11
1.72313E+12,-7926,860,2184,-625,-206,714,1,7,11
1.72313E+12,-7931,640,2215,-448,-167,883,1,7,11
1.72313E+12,-7925,646,2254,-783,-380,808,1,7,11
1.72313E+12,-7910,648,2285,-853,-326,478,1,7,11
1.72313E+12,-7918,869,2591,-652,-257,399,1,7,11
1.72313E+12,-7913,874,2605,-658,34,572,1,7,11
1.72313E+12,-7896,879,2597,-682,71,230,1,7,11
1.72313E+12,-7903,852,2617,-720,117,153,1,7,11
1.72313E+12,-7926,843,2642,-722,-111,357,1,7,11
1.72313E+12,-8196,852,2624,-696,-106,341,1,7,11
1.72313E+12,-7913,857,2589,-682,-115,362,1,7,11
1.72313E+12,-7877,859,2296,-665,122,134,1,7,11
1.72313E+12,-7847,835,2286,-660,121,137,1,7,11
1.72313E+12,-7818,822,2283,-883,101,377,1,7,11
1.72313E+12,-7814,846,2255,-842,91,360,1,7,11
1.72313E+12,-8044,871,2214,-795,86,359,1,7,11
1.72313E+12,-8039,887,2186,-770,116,356,1,7,11
1.72313E+12,-8039,652,2418,-472,-104,348,1,7,11
1.72313E+12,-8044,660,2413,-431,-64,335,1,7,11
1.72313E+12,-7811,668,2419,-628,-28,314,1,7,11
1.72313E+12,-7823,703,2400,-544,259,297,1,7,11
1.72313E+12,-7854,756,2387,-206,307,289,1,7,11
1.72313E+12,-7866,751,2386,-167,335,315,1,7,11
1.72313E+12,-7899,1062,2348,-328,381,318,1,7,11
1.72313E+12,-7916,1123,2313,-279,170,329,1,7,11
1.72313E+12,-8201,1130,2332,-313,215,326,1,7,11
1.72313E+12,-8240,1146,2335,-318,209,267,1,7,11
1.72313E+12,-8263,948,2038,-324,165,-52,1,7,11
1.72313E+12,-8276,958,2008,-382,383,-106,1,7,11
1.72313E+12,-8285,946,2030,-181,360,69,1,7,11
1.72313E+12,-8296,928,2307,-241,313,2,1,7,11
1.72313E+12,-8291,918,2044,-539,-2,-300,1,7,11
1.72313E+12,-8253,903,2021,-582,-78,-335,1,7,11
1.72313E+12,-8244,1131,2029,-388,127,-383,1,7,11
1.72313E+12,-8221,1087,2032,-450,86,-155,1,7,11
1.72313E+12,-8208,1046,2037,-484,64,-161,1,7,11
1.72313E+12,-8198,760,2044,-478,57,-141,1,7,11
1.72313E+12,-8194,741,2304,-466,59,-378,1,7,11
1.72313E+12,-8204,712,2333,-461,70,-349,1,7,11
1.72313E+12,-8194,654,2377,-441,61,-313,1,7,11
1.72313E+12,-7928,883,2400,-385,47,-298,1,7,11
1.72313E+12,-7922,872,2422,-584,22,-293,1,7,11
1.72313E+12,-7894,860,2431,-522,-262,-298,1,7,11
1.72313E+12,-7892,857,2188,-220,-265,-306,1,7,11
1.72313E+12,-7877,869,2198,-165,-260,-300,1,7,11
1.72313E+12,-7849,871,2194,-378,7,-291,1,7,11
1.72313E+12,-7833,880,2180,-360,39,-287,1,7,11
1.72313E+12,-7814,648,2400,-352,81,-272,1,7,11
1.72313E+12,-7812,657,2373,-374,-110,0,1,7,11
1.72313E+12,-7842,646,2399,-156,-34,16,1,7,11
1.72313E+12,-7894,646,2426,-154,276,24,1,7,11
1.72313E+12,-7929,891,2181,-370,301,42,1,7,11
1.72313E+12,-8225,680,2404,-303,318,60,1,7,11
1.72313E+12,-8228,718,2367,-287,324,76,1,7,11
1.72313E+12,-8243,728,2357,-320,334,94,1,7,11
1.72313E+12,-8228,709,2355,-350,322,112,1,7,11
1.72313E+12,-8213,669,2379,-373,293,98,1,7,11
1.72313E+12,-8222,666,2384,-364,257,61,1,7,11
1.72313E+12,-8216,658,2381,-358,-38,39,1,7,11
1.72313E+12,-8215,651,2381,-369,-62,21,1,7,11
1.72313E+12,-8213,645,2391,-366,-75,15,1,7,11
1.72313E+12,-8208,887,2394,-359,-87,10,1,7,11
1.72313E+12,-8193,879,2395,-339,-106,7,1,7,11
1.72313E+12,-7924,874,2407,-321,-114,6,1,7,11
1.72313E+12,-7927,881,2406,-304,-114,12,1,7,11
1.72313E+12,-7911,877,2402,-303,-119,19,1,7,11
1.72313E+12,-7897,878,2399,-305,-123,14,1,7,11
1.72313E+12,-7900,886,2400,-300,-120,2,1,7,11
1.72313E+12,-7916,647,2394,-298,-112,-269,1,7,11
1.72313E+12,-8196,661,2392,-305,-104,-276,1,7,11
1.72313E+12,-8197,659,2402,-316,-106,4,1,7,11
1.72313E+12,-7933,648,2399,-330,-116,12,1,7,11
1.72313E+12,-7922,888,2407,-331,126,33,1,7,11
1.72313E+12,-7933,887,2423,-331,122,44,1,7,11
1.72313E+12,-7929,871,2178,-327,103,67,1,7,11
1.72313E+12,-7916,868,2194,-311,94,84,1,7,11
1.72313E+12,-7923,873,2202,-303,92,88,1,7,11
1.72313E+12,-7924,890,2194,-255,86,91,1,7,11
1.72313E+12,-7913,657,2181,19,83,90,1,7,11
1.72313E+12,-7917,672,2178,19,92,84,1,7,11
1.72313E+12,-7925,678,2431,10,105,76,1,7,11
1.72313E+12,-7916,681,2176,-257,114,61,1,7,11
1.72313E+12,-7920,674,2190,-259,124,34,1,7,11
1.72313E+12,-7908,663,2194,5,121,7,1,7,11
1.72313E+12,-7905,668,2185,18,121,-279,1,7,11
1.72313E+12,-7895,665,2184,15,127,-299,1,7,11
1.72313E+12,-7889,664,2195,-262,-110,-311,1,7,11
1.72313E+12,-7893,645,2200,-281,-104,-321,1,7,11
1.72313E+12,-7891,880,2220,-286,-106,-326,1,7,11
1.72313E+12,-7883,877,2221,-283,-112,-321,1,7,11
1.72313E+12,-7890,887,2213,-292,-100,-303,1,7,11
1.72313E+12,-7905,894,2206,-316,-85,-269,1,7,11
1.72313E+12,-7924,888,2219,-348,-71,36,1,7,11
1.72313E+12,-7922,885,2217,-367,-63,89,1,7,11
1.72313E+12,-7912,885,2197,-380,-60,-112,1,7,11
1.72313E+12,-7901,883,2182,-145,-52,-71,1,7,11
1.72313E+12,-7918,887,2177,-150,-37,-42,1,7,11
1.72313E+12,-7925,890,2430,-155,-42,-10,1,7,11
1.72313E+12,-7921,887,2182,-153,-55,263,1,7,11
1.72313E+12,-7919,650,2182,-383,-69,266,1,7,11
1.72313E+12,-7934,660,2189,-359,-74,262,1,7,11
1.72313E+12,-8193,691,2183,-323,-84,258,1,7,11
1.72313E+12,-8193,708,2187,-300,-89,257,1,7,11
1.72313E+12,-7926,714,2188,-292,-84,-11,1,7,11
1.72313E+12,-7918,722,2177,-279,-81,-37,1,7,11
1.72313E+12,-7915,725,2429,-273,-74,-90,1,7,11
1.72313E+12,-7918,720,2177,-293,-57,124,1,7,11
1.72313E+12,-7920,704,2187,-324,-38,90,1,7,11
1.72313E+12,-7917,684,2194,-346,-37,57,1,7,11
1.72313E+12,-7894,645,2210,-352,-41,29,1,7,11
1.72313E+12,-7893,892,2220,-354,-53,11,1,7,11
1.72313E+12,-7898,879,2222,-340,-70,4,1,7,11
1.72313E+12,-7900,876,2224,-303,-91,13,1,7,11
1.72313E+12,-7905,892,2231,-274,-109,27,1,7,11
1.72313E+12,-7889,886,2229,-269,-124,48,1,7,11
1.72313E+12,-7879,883,2233,-262,-117,53,1,7,11
1.72313E+12,-7865,886,2228,-262,-114,52,1,7,11
1.72313E+12,-7867,644,2216,-265,-100,33,1,7,11
1.72313E+12,-7863,660,2204,-280,-89,8,1,7,11
1.72313E+12,-7867,659,2199,-314,-60,-277,1,7,11
1.72313E+12,-7864,655,2183,-341,-35,-303,1,7,11
1.72313E+12,-7889,653,2177,-372,-4,-329,1,7,11
1.72313E+12,-7916,660,2426,-129,266,-337,1,7,11
1.72313E+12,-7927,669,2413,-143,270,-339,1,7,11
1.72313E+12,-8201,661,2415,-177,277,-330,1,7,11
1.72313E+12,-8234,652,2421,-200,281,-324,1,7,11
1.72313E+12,-8248,650,2194,-198,270,-305,1,7,11
1.72313E+12,-8251,869,2252,-189,-7,-295,1,7,11
1.72313E+12,-8217,870,2237,-135,-45,-286,1,7,11
1.72313E+12,-7926,882,2217,-383,-46,-293,1,7,11
1.72313E+12,-7916,886,2210,-161,-33,-309,1,7,11
1.72313E+12,-7909,871,2210,-214,-33,-322,1,7,11
1.72313E+12,-7918,857,2214,-514,-30,-338,1,7,11
1.72313E+12,-7921,862,2194,-534,-41,-338,1,7,11
1.72313E+12,-7920,885,2416,-552,-42,-328,1,7,11
1.72313E+12,-7935,884,2390,-584,-30,-310,1,7,11
1.72313E+12,-8208,877,2373,-598,-29,-287,1,7,11
1.72313E+12,-8212,870,2364,-587,-35,-268,1,7,11
1.72313E+12,-8217,858,2352,-575,-41,-273,1,7,11
1.72313E+12,-8219,840,2360,-552,-54,-307,1,7,11
1.72313E+12,-8206,819,2358,-516,-85,-356,1,7,11
1.72313E+12,-8198,792,2364,-212,-106,-170,1,7,11
1.72313E+12,-7932,505,2365,-149,-128,-530,1,7,11
1.72313E+12,-7933,491,2365,-345,109,-564,1,7,11
1.72313E+12,-7931,433,2373,-302,89,-627,1,7,11
1.72313E+12,-8202,415,2370,-261,73,-441,1,7,11
1.72313E+12,-8231,390,2365,25,44,-770,1,7,11
1.72313E+12,-8242,638,2352,52,14,-842,1,7,11
1.72313E+12,-8240,617,2343,60,-298,-692,1,7,11
1.72313E+12,-8242,605,2344,52,-326,-745,1,7,11
1.72313E+12,-8255,580,2362,43,-337,-1025,1,7,11
1.72313E+12,-8282,548,2381,40,-345,-759,1,7,11
1.72313E+12,-8292,523,2388,78,-360,-718,1,7,11
1.72313E+12,-8297,245,2391,109,-373,-666,1,7,11
1.72313E+12,-8303,218,2401,-110,-380,-870,1,7,11
1.72313E+12,-8308,193,2419,-46,-134,-830,1,7,11
1.72313E+12,-8279,177,2419,283,-164,-818,1,7,11
1.72313E+12,-8271,177,2408,342,-184,-859,1,7,11
1.72313E+12,-8260,179,2396,128,-210,-678,1,7,11
1.72313E+12,-8257,172,2392,143,-240,-1048,1,7,11
1.72313E+12,-8255,135,2422,149,-539,-944,1,7,11
1.72313E+12,-8270,351,2188,171,-595,-1391,1,7,11
1.72313E+12,-8249,318,2211,197,-419,-1608,1,7,11
1.72313E+12,-8226,285,2249,213,-473,-1841,1,7,11
1.72313E+12,-8203,-37,2562,222,-771,-2063,1,7,11
1.72313E+12,-8203,-107,2609,235,-793,-1998,1,7,11
1.72313E+12,-8211,85,2645,516,-795,-2398,1,7,11
1.72313E+12,-8222,21,2667,533,-787,-2216,1,7,11
1.72313E+12,-8216,-311,2441,525,-779,-2239,1,7,11
1.72313E+12,-8193,-149,2474,241,-791,-2253,1,7,11
1.72313E+12,-7916,-249,2520,197,-815,-2270,1,7,11
1.72313E+12,-7912,-577,2816,157,-851,-2291,1,7,11
1.72313E+12,-7906,-395,2847,370,-643,-2562,1,7,11
1.72313E+12,-7899,-461,2879,310,-691,-2575,1,7,11
1.72313E+12,-7869,-798,2918,-24,-733,-2585,1,7,11
1.72313E+12,-7824,-894,2702,-95,-765,-2610,1,7,11
1.72313E+12,-7818,-732,2756,119,-1028,-2677,1,7,11
1.72313E+12,-7815,-1091,2812,117,-1042,-2501,1,7,11
1.72313E+12,-8015,-897,3096,-100,-1084,-2853,1,7,11
1.72313E+12,-7999,-968,3130,-89,-1084,-2931,1,7,11
1.72313E+12,-7980,-1292,3151,-92,-1097,-2711,1,7,11
1.72313E+12,-7983,-1372,3192,-110,-1089,-2720,1,7,11
1.72313E+12,-7973,-1182,2965,126,-1090,-2709,1,7,11
1.72313E+12,-7940,-1262,3010,91,-1099,-2923,1,7,11
1.72313E+12,-7654,-1616,3056,69,-1093,-2854,1,7,11
1.72313E+12,-7637,-1447,3345,75,-1075,-2519,1,7,11
1.72313E+12,-7590,-1802,3372,75,-1060,-2446,1,7,11
1.72313E+12,-7558,-1903,3418,92,-763,-2655,1,7,11
1.72313E+12,-7771,-1748,3211,104,-732,-2643,1,7,11
1.72313E+12,-7747,-2100,3261,118,-714,-2686,1,7,11
1.72313E+12,-7741,-2164,3286,-126,-720,-2478,1,7,11
1.72313E+12,-7718,-1946,3280,114,-723,-2477,1,7,11
1.72313E+12,-7698,-2011,3307,40,-693,-2686,1,7,11
1.72313E+12,-7693,-2331,3601,-257,-660,-2594,1,7,11
1.72313E+12,-7403,-2400,3628,-272,-896,-2186,1,7,11
1.72313E+12,-7333,-2283,3643,-292,-893,-2007,1,7,11
1.72313E+12,-7504,-2595,3654,-292,-644,-2122,1,7,11
1.72313E+12,-7476,-2652,3673,-316,-875,-1740,1,7,11
1.72313E+12,-7430,-2433,3684,-325,-869,-1862,1,7,11
1.72313E+12,-7152,-2461,3686,-352,-862,-1489,1,7,11
1.72313E+12,-7121,-2525,3461,-168,-876,-1613,1,7,11
1.72313E+12,-7096,-2832,3486,-255,-896,-1574,1,7,11
1.72313E+12,-7067,-2902,3518,-406,-697,-1578,1,7,11
1.72313E+12,-7050,-2694,3536,-484,-733,-1611,1,7,11
1.72313E+12,-7286,-2751,3552,-814,-751,-1644,1,7,11
1.72313E+12,-7261,-2815,3563,-866,-748,-1653,1,7,11
1.72313E+12,-7223,-3129,3557,-659,-723,-1648,1,7,11
1.72313E+12,-7215,-2949,3852,-714,-650,-1612,1,7,11
1.72313E+12,-7201,-3015,3892,-744,-827,-1543,1,7,11
1.72313E+12,-7180,-3335,3946,-754,-476,-1209,1,7,11
1.72313E+12,-6893,-3406,3747,-729,-396,-1374,1,7,11
1.72313E+12,-6858,-3437,3772,-674,-568,-1022,1,7,11
1.72313E+12,-6842,-3219,3770,-894,-221,-902,1,7,11
1.72313E+12,-6859,-3233,3732,-832,-130,-1043,1,7,11
1.72313E+12,-6865,-3218,3903,-790,-321,-668,1,7,11
1.72313E+12,-6880,-3230,3582,-821,15,-809,1,7,11
1.72313E+12,-6900,-3235,3506,-852,91,-447,1,7,11
1.72313E+12,-6897,-3267,3676,-647,-93,-597,1,7,11
1.72313E+12,-6905,-3619,3664,-700,-15,-586,1,7,11
1.72313E+12,-6906,-3622,3606,-714,-20,-589,1,7,11
1.72313E+12,-6870,-3688,3322,-749,-29,-567,1,7,11
1.72313E+12,-6820,-3699,3296,-744,-30,-563,1,7,11
1.72313E+12,-6794,-3497,3621,-762,-35,-548,1,7,11
1.72313E+12,-6796,-3552,3467,-703,-63,-532,1,7,11
1.72313E+12,-7038,-3548,3515,-829,-122,-514,1,7,11
1.72313E+12,-6808,-3477,3552,-458,95,-243,1,7,11
1.72313E+12,-6872,-3673,3893,-420,43,-186,1,7,11
1.72313E+12,-7181,-3592,3966,-385,-289,-333,1,7,11
1.72313E+12,-7237,-3264,3760,-632,-375,62,1,7,11
1.72313E+12,-7277,-3439,3798,-393,-228,-20,1,7,11
1.72313E+12,-7041,-3369,3811,-444,-598,160,1,7,11
1.72313E+12,-7049,-3018,3804,-783,-450,583,1,7,11
1.72313E+12,-7070,-2970,3803,-713,-852,803,1,7,11
1.72313E+12,-7065,-3197,3787,-1104,-680,699,1,7,11
1.72313E+12,-7069,-2962,3798,-1004,-760,1085,1,7,11
1.72313E+12,-7056,-2987,3785,-1380,-1108,914,1,7,11
1.72313E+12,-7275,-3020,3766,-1210,-920,957,1,7,11
1.72313E+12,-7242,-3057,3737,-1541,-948,940,1,7,11
1.72313E+12,-7198,-3350,3946,-1606,-946,1127,1,7,11
1.72313E+12,-6865,-3397,3898,-1416,-924,747,1,7,11
1.72313E+12,-7023,-3450,3854,-1501,-1118,795,1,7,11
1.72313E+12,-6966,-3247,3572,-1820,-741,518,1,7,11
1.72313E+12,-6956,-3319,3855,-1853,-836,-37,1,7,11
1.72313E+12,-6950,-3681,3887,-1825,-430,-315,1,7,11
1.72313E+12,-6942,-3533,3895,-1461,-559,-566,1,7,11
1.72313E+12,-6915,-3883,3874,-1553,-189,-500,1,7,11
1.72313E+12,-6615,-3746,3890,-1374,-332,-650,1,7,11
1.72313E+12,-6582,-4111,3911,-1136,10,-1066,1,7,11
1.72313E+12,-6773,-4213,3912,-854,74,-919,1,7,11
1.72313E+12,-6719,-4031,3931,-551,-79,-989,1,7,11
1.72313E+12,-6720,-4036,3714,44,282,-1013,1,7,11
1.72313E+12,-6770,-4026,3768,383,379,-972,1,7,11
1.72313E+12,-6585,-4212,3789,473,199,-904,1,7,11
1.72313E+12,-6620,-4101,3757,1032,250,-1083,1,7,11
1.72313E+12,-6647,-3719,3962,984,588,-749,1,7,11
1.72313E+12,-6987,-3843,3896,1344,425,-673,1,7,11
1.72313E+12,-6785,-3700,3552,1323,455,-834,1,7,11
1.72313E+12,-6871,-3593,3523,906,484,-496,1,7,11
1.72313E+12,-7230,-3274,3533,676,466,-411,1,7,11
1.72313E+12,-7077,-3258,3565,420,395,-569,1,7,11
1.72313E+12,-7119,-3282,3845,176,253,-214,1,7,11
1.72313E+12,-7110,-3323,3849,-23,337,-137,1,7,11
1.72313E+12,-7083,-3636,3859,74,-86,-341,1,7,11
1.72313E+12,-7057,-3684,3869,-291,25,-301,1,7,11
1.72313E+12,-7255,-3483,3874,-338,-356,6,1,7,11
1.72313E+12,-7186,-3566,3919,-352,-174,32,1,7,11
1.72313E+12,-6795,-3909,3930,-325,-516,8,1,7,11
1.72313E+12,-6968,-3942,3948,8,-559,-359,1,7,11
1.72313E+12,-6641,-3967,3955,60,-574,-249,1,7,11
1.72313E+12,-6622,-3748,3759,115,-561,-399,1,7,11
1.72313E+12,-6578,-3745,3798,-47,-574,-781,1,7,11
1.72313E+12,-6760,-3730,3814,279,-568,-874,1,7,11
1.72313E+12,-6727,-3967,3822,356,-532,-662,1,7,11
1.72313E+12,-6686,-3964,4108,140,-227,-680,1,7,11
1.72313E+12,-6667,-3943,4104,173,-160,-684,1,7,11
1.72313E+12,-6661,-3916,3828,170,-330,-661,1,7,11
1.72313E+12,-6664,-3884,3809,381,-259,-867,1,7,11
1.72313E+12,-6691,-3893,3813,295,103,-483,1,7,11
1.72313E+12,-6697,-3941,3812,-50,-111,-626,1,7,11
1.72313E+12,-6678,-3738,3819,119,-84,-517,1,7,11
1.72313E+12,-6665,-3788,3831,56,-76,-184,1,7,11
1.72313E+12,-6671,-3822,3827,70,-89,-165,1,7,11
1.72313E+12,-6733,-3804,3814,104,-107,-188,1,7,11
1.72313E+12,-6751,-3814,3820,107,109,-192,1,7,11
1.72313E+12,-6540,-3810,3835,114,97,-202,1,7,11
1.72313E+12,-6555,-3822,4126,99,78,-192,1,7,11
1.72313E+12,-6586,-3823,4183,99,60,-198,1,7,11
1.72313E+12,-6588,-3816,3978,107,12,-216,1,7,11
1.72313E+12,-6576,-3805,4020,120,-294,-255,1,7,11
1.72313E+12,-6536,-3773,4014,124,-356,-547,1,7,11
1.72313E+12,-6758,-3746,4000,72,-134,-558,1,7,11
1.72313E+12,-6730,-3757,4015,-264,-137,-562,1,7,11
1.72313E+12,-6680,-3800,4052,-338,-139,-570,1,7,11
1.72313E+12,-6394,-3814,4069,-369,-140,-601,1,7,11
1.72313E+12,-6353,-3806,4057,-156,-132,-589,1,7,11
1.72313E+12,-6304,-3810,4042,-205,-344,-560,1,7,11
1.72313E+12,-6292,-4108,4055,-530,-292,-525,1,7,11
1.72313E+12,-6522,-4149,4052,-554,-263,-516,1,7,11
1.72313E+12,-6498,-4184,4027,-582,16,-256,1,7,11
1.72313E+12,-6484,-3970,4006,-606,38,-527,1,7,11
1.72313E+12,-6482,-4009,3978,-619,70,-542,1,7,11
1.72313E+12,-6478,-4058,4199,-613,109,-559,1,7,11
1.72313E+12,-6486,-4360,4196,-592,-97,-570,1,7,11
1.72313E+12,-6481,-4453,4209,-580,-56,-569,1,7,11
1.72313E+12,-6465,-4254,3992,-550,-20,-577,1,7,11
1.72313E+12,-6436,-4283,4007,-237,258,-587,1,7,11
1.72313E+12,-6135,-4289,4011,-153,263,-613,1,7,11
1.72313E+12,-6111,-4284,4022,-327,281,-624,1,7,11
1.72313E+12,-6131,-4280,4060,14,354,-613,1,7,11
1.72313E+12,-6421,-4253,4069,90,134,-575,1,7,11
1.72313E+12,-6460,-4474,4081,-110,167,-518,1,7,11
1.72313E+12,-6483,-4427,4061,-75,187,-185,1,7,11
1.72313E+12,-6510,-4393,4031,-80,194,-360,1,7,11
1.72313E+12,-6279,-4381,4003,-122,193,-285,1,7,11
1.72313E+12,-6334,-4355,3971,83,184,29,1,7,11
1.72313E+12,-6371,-4069,4191,22,149,99,1,7,11
1.72313E+12,-6387,-4081,4160,-306,369,-68,1,7,11
1.72313E+12,-6660,-4094,4185,-347,335,-15,1,7,11
1.72313E+12,-6661,-4362,4208,-347,259,270,1,7,11
1.72313E+12,-6385,-4090,4220,-327,-96,287,1,7,11
1.72313E+12,-6342,-4079,3981,-318,64,290,1,7,11
1.72313E+12,-6317,-4061,4007,-315,-261,273,1,7,11
1.72313E+12,-6296,-4058,4042,-308,-297,-10,1,7,11
1.72313E+12,-6304,-4025,4077,-284,-306,-39,1,7,11
1.72313E+12,-6298,-3985,4087,-272,-319,-51,1,7,11
1.72313E+12,-6526,-4207,4078,-297,-323,-54,1,7,11
1.72313E+12,-6523,-4187,4077,-370,-293,-55,1,7,11
1.72313E+12,-6297,-4168,4069,-187,1,-52,1,7,11
1.72313E+12,-6312,-4163,4043,-529,37,-36,1,7,11
1.72313E+12,-6354,-4162,4016,-598,106,-14,1,7,11
1.72313E+12,-6379,-4179,4006,-401,-85,290,1,7,11
1.72313E+12,-6375,-4220,3993,-423,-32,336,1,7,11
1.72313E+12,-6350,-4012,4184,-638,275,361,1,7,11
1.72313E+12,-6308,-4041,4146,-560,335,348,1,7,11
1.72313E+12,-6281,-4066,4142,-223,148,300,1,7,11
1.72313E+12,-6274,-4091,4163,-150,211,-27,1,7,11
1.72313E+12,-6506,-4380,4186,-319,246,-111,1,7,11
1.72313E+12,-6456,-4395,4149,62,238,50,1,7,11
1.72313E+12,-6422,-4438,4123,-32,238,-355,1,7,11
1.72313E+12,-6126,-4244,3832,306,236,-180,1,7,11
1.72313E+12,-6108,-4273,3774,134,245,-517,1,7,11
1.72313E+12,-6142,-4334,3770,188,561,-560,1,7,11
1.72313E+12,-6479,-4646,3783,554,635,-546,1,7,11
1.72313E+12,-6274,-4686,3769,461,441,-214,1,7,11
1.72313E+12,-6345,-4685,3740,664,794,-365,1,7,11
1.72313E+12,-6685,-4676,3740,1127,655,29,1,7,11
1.72313E+12,-6747,-4658,3768,1365,754,-63,1,7,11
1.72313E+12,-6750,-4641,3780,1652,1087,357,1,7,11
1.72313E+12,-6733,-4312,3757,1725,923,235,1,7,11
1.72313E+12,-6710,-4450,3724,2018,1280,576,1,7,11
1.72313E+12,-6708,-4069,3712,2223,1398,618,1,7,11
1.72313E+12,-6743,-4202,3742,2619,1266,630,1,7,11
1.72313E+12,-6536,-3776,3751,2510,1641,635,1,7,11
1.72313E+12,-6627,-3577,3775,2837,1517,411,1,7,11
1.72313E+12,-6965,-3697,4110,2522,1883,474,1,7,11
1.72313E+12,-6785,-3589,4215,2658,1684,793,1,7,11
1.72313E+12,-6808,-3231,4039,2261,1914,846,1,7,11
1.72313E+12,-6789,-3370,4033,2356,1846,874,1,7,11
1.72313E+12,-6820,-3008,4038,2079,1522,843,1,7,11
1.72313E+12,-6859,-3176,4044,1454,1634,768,1,7,11
1.72313E+12,-6851,-3113,4028,1286,1385,399,1,7,11
1.72313E+12,-6837,-2793,3969,823,1089,250,1,7,11
1.72313E+12,-6993,-2606,3914,199,-322,-611,1,7,11
1.72313E+12,-7255,-3133,4042,-659,-314,-349,1,7,11
1.72313E+12,-6809,-2700,3758,-940,-436,-159,1,7,11
1.72313E+12,-6992,-2963,3805,-1915,-737,-150,1,7,11
1.72313E+12,-6599,-3208,3809,-2035,-970,-220,1,7,11
1.72313E+12,-6680,-3634,3752,-2266,-1387,-532,1,7,11
1.72313E+12,-6672,-3854,3793,-2628,-1336,-559,1,7,11
1.72313E+12,-6700,-3747,3795,-2596,-1345,-569,1,7,11
1.72313E+12,-5828,-3838,3868,-2403,-1307,-131,1,7,11
1.72313E+12,-6491,-4041,3752,-1906,-170,221,1,7,11
1.72313E+12,-6446,-4470,3887,-1743,-505,-112,1,7,11
1.72313E+12,-6277,-4317,3928,-1395,60,181,1,7,11
1.72313E+12,-6726,-4267,3943,-724,161,626,1,7,11
1.72313E+12,-6548,-4245,3932,-170,475,657,1,7,11
1.72313E+12,-6589,-4429,3915,-1,708,902,1,7,11
1.72313E+12,-6976,-4066,3952,396,904,972,1,7,11
1.72313E+12,-7187,-4101,3778,713,925,1151,1,7,11
1.72313E+12,-7145,-3571,3794,918,1041,731,1,7,11
1.72313E+12,-7550,-3269,3788,969,792,787,1,7,11
1.72313E+12,-7517,-2983,3964,907,216,585,1,7,11
1.72313E+12,-7228,-3178,3893,742,-47,351,1,7,11
1.72313E+12,-7017,-2957,3851,656,124,-266,1,7,11
1.72313E+12,-6576,-3052,3576,194,-5,-195,1,7,11
1.72313E+12,-6727,-3447,3860,305,229,-588,1,7,11
1.72313E+12,-6724,-3272,3859,-10,493,-409,1,7,11
1.72313E+12,-6543,-3585,3853,-55,726,-402,1,7,11
1.72313E+12,-6916,-3631,3862,-119,1136,-595,1,7,11
1.72313E+12,-6806,-3651,3866,73,921,-228,1,7,11
1.72313E+12,-6880,-3625,3529,30,1074,-346,1,7,11
1.72313E+12,-7190,-3326,3668,-337,670,53,1,7,11
1.72313E+12,-7262,-3317,3628,-549,770,-71,1,7,11
1.72313E+12,-7045,-3610,3648,-510,564,313,1,7,11
1.72313E+12,-7049,-3629,3662,-647,362,165,1,7,11
1.72313E+12,-7266,-3664,3695,-717,-29,518,1,7,11
1.72313E+12,-7265,-3662,3497,-689,-77,581,1,7,11
1.72313E+12,-7284,-3325,3505,-843,-92,635,1,7,11
1.72313E+12,-7071,-3388,3509,-775,122,601,1,7,11
1.72313E+12,-7282,-3370,3555,-814,103,561,1,7,11
1.72313E+12,-7198,-3431,3902,-808,-106,521,1,7,11
1.72313E+12,-7198,-3433,3720,-448,-37,175,1,7,11
1.72313E+12,-7252,-3051,3943,-606,-41,344,1,7,11
1.72313E+12,-7045,-3165,3580,-389,123,-15,1,7,11
1.72313E+12,-7089,-2756,3660,-837,-290,97,1,7,11
1.72313E+12,-7067,-2742,3236,-922,-199,-261,1,7,11
1.72313E+12,-7279,-2784,3071,-1270,-554,-356,1,7,11
1.72313E+12,-7290,-3176,3004,-1858,-523,-152,1,7,11
1.72313E+12,-7087,-3369,3017,-2073,-170,-174,1,7,11
1.72313E+12,-7158,-3307,3039,-2089,-326,-178,1,7,11
1.72313E+12,-7479,-3613,3093,-1715,27,-156,1,7,11
1.72313E+12,-7323,-3705,3221,-1533,-120,-359,1,7,11
1.72313E+12,-7376,-3552,3316,-1552,-103,-297,1,7,11
1.72313E+12,-7533,-3567,3595,-1097,14,-260,1,7,11
1.72313E+12,-7132,-3549,3325,-866,-353,-339,1,7,11
1.72313E+12,-7276,-3521,3584,-774,-194,-253,1,7,11
1.72313E+12,-7177,-3502,3608,-780,-571,-457,1,7,11
1.72313E+12,-6804,-3501,3588,-868,-450,-662,1,7,11
1.72313E+12,-6954,-3553,3597,-1060,-805,-1099,1,7,11
1.72313E+12,-6647,-3904,3653,-1314,-867,-997,1,7,11
1.72313E+12,-6609,-3755,3701,-1265,-674,-1365,1,7,11
1.72313E+12,-6570,-3808,3711,-1636,-717,-1205,1,7,11
1.72313E+12,-6534,-3821,3686,-1523,-734,-1211,1,7,11
1.72313E+12,-6751,-4139,3706,-1685,-720,-1406,1,7,11
1.72313E+12,-6714,-4199,3456,-1777,-695,-1320,1,7,11
1.72313E+12,-6682,-3991,3701,-2066,-676,-976,1,7,11
1.72313E+12,-6677,-4052,3691,-2082,-647,-897,1,7,11
1.72313E+12,-6689,-4372,3709,-2071,-885,-1087,1,7,11
1.72313E+12,-6683,-4442,3705,-1748,-888,-1032,1,7,11
1.72313E+12,-6372,-4228,3619,-1883,-646,-728,1,7,11
1.72313E+12,-6358,-4306,3327,-1795,-840,-710,1,7,11
1.72313E+12,-6326,-4690,3303,-1664,-803,-717,1,7,11
1.72313E+12,-6310,-4484,3242,-1405,-769,-1083,1,7,11
1.72313E+12,-6520,-4485,3420,-910,-474,-911,1,7,11
1.72313E+12,-6510,-4543,3417,-724,-385,-957,1,7,11
1.72313E+12,-6525,-4882,3453,-509,-551,-960,1,7,11
1.72313E+12,-6523,-4921,3225,-230,-211,-959,1,7,11
1.72313E+12,-6323,-4925,3306,65,-351,-970,1,7,11
1.72313E+12,-6392,-4598,3641,380,3,-935,1,7,11
1.72313E+12,-6657,-4497,3654,402,83,-1096,1,7,11
1.72313E+12,-6388,-4674,3698,811,-72,-722,1,7,11
1.72313E+12,-6379,-4625,3516,875,275,-891,1,7,11
1.72313E+12,-6360,-4314,3564,650,343,-843,1,7,11
1.72313E+12,-6354,-4255,3573,642,151,-816,1,7,11
1.72313E+12,-6317,-4427,3498,840,195,-808,1,7,11
1.72313E+12,-6318,-4385,3706,415,255,-806,1,7,11
1.72313E+12,-6316,-4382,3660,179,549,-807,1,7,11
1.72313E+12,-6321,-4426,3608,-78,560,-809,1,7,11
1.72313E+12,-6326,-4252,3309,-324,560,-800,1,7,11
1.72313E+12,-6331,-4612,3260,-532,538,-781,1,7,11
1.72313E+12,-6332,-4731,3230,-433,241,-491,1,7,11
1.72313E+12,-6309,-4599,3453,-774,184,-460,1,7,11
1.72313E+12,-6290,-4985,3425,-803,128,-426,1,7,11
1.72313E+12,-6508,-4820,3409,-501,323,-395,1,7,11
1.72313E+12,-6484,-5175,3400,-426,281,-623,1,7,11
1.72313E+12,-6462,-5225,3403,-581,-15,-586,1,7,11
1.72313E+12,-6389,-5225,3386,-198,-64,-544,1,7,11
1.72313E+12,-6111,-5195,3395,-319,-85,-254,1,7,11
1.72313E+12,-6109,-5176,3430,42,-88,-208,1,7,11
1.72313E+12,-6079,-5151,3205,126,-98,-372,1,7,11
1.72313E+12,-6063,-4839,3237,-30,-100,-293,1,7,11
1.72313E+12,-6087,-4773,3272,311,-67,75,1,7,11
1.72313E+12,-6141,-4963,3309,364,-13,-42,1,7,11
1.72313E+12,-6434,-4890,3324,150,287,333,1,7,11
1.72313E+12,-6452,-4562,3318,170,287,195,1,7,11
1.72313E+12,-6475,-4731,3250,135,303,531,1,7,11
1.72313E+12,-6524,-4666,3206,277,337,581,1,7,11
1.72313E+12,-6362,-4621,3213,104,364,609,1,7,11
1.72313E+12,-6693,-4653,3275,-328,331,401,1,7,11
1.72313E+12,-6694,-4729,3612,-169,-26,455,1,7,11
1.72313E+12,-6665,-4586,3465,-185,112,469,1,7,11
1.72313E+12,-6309,-4890,3524,-323,-306,422,1,7,11
1.72313E+12,-6448,-4920,3540,75,-181,573,1,7,11
1.72313E+12,-6114,-4886,3519,-52,-241,166,1,7,11
1.72313E+12,-6101,-4557,3483,280,-221,285,1,7,11
1.72313E+12,-6123,-4494,3709,283,-144,-62,1,7,11
1.72313E+12,-6431,-4700,3456,-20,-270,-103,1,7,11
1.72313E+12,-6491,-4692,3479,-63,127,-121,1,7,11
1.72313E+12,-6280,-4641,3467,-76,-31,-106,1,7,11
1.72313E+12,-6301,-4642,3695,-113,292,-67,1,7,11
1.72313E+12,-6332,-4658,3664,124,326,-48,1,7,11
1.72313E+12,-6353,-4675,3613,116,310,-28,1,7,11
1.72313E+12,-6390,-4719,3585,113,258,-3,1,7,11
1.72313E+12,-6667,-4504,3307,117,-98,-27,1,7,11
1.72313E+12,-6703,-4537,3324,-119,41,-87,1,7,11
1.72313E+12,-6719,-4546,3601,-44,-340,107,1,7,11
1.72313E+12,-6683,-4541,3626,313,-208,44,1,7,11
1.72313E+12,-6361,-4517,3669,150,-566,-293,1,7,11
1.72313E+12,-6303,-4493,3480,235,-388,-371,1,7,11
1.72313E+12,-6502,-4679,3507,580,-445,-168,1,7,11
1.72313E+12,-6466,-4617,3545,605,-459,-193,1,7,11
1.72313E+12,-6433,-4309,3846,558,-451,-185,1,7,11
1.72313E+12,-6412,-4295,3918,202,-420,-154,1,7,11
1.72313E+12,-6416,-4278,3965,380,-626,-363,1,7,11
1.72313E+12,-6403,-4265,3730,297,-578,-292,1,7,11
1.72313E+12,-6103,-4293,3736,-54,-520,8,1,7,11
1.72313E+12,-6101,-4288,3739,123,-209,-290,1,7,11
1.72313E+12,-6101,-4285,3728,13,-196,-319,1,7,11
1.72313E+12,-6401,-4284,3731,-359,-182,-343,1,7,11
1.72313E+12,-6475,-4342,3772,-207,-172,-324,1,7,11
1.72313E+12,-6498,-4685,4111,-541,-179,-297,1,7,11
1.72313E+12,-6471,-4490,4182,-546,-226,-276,1,7,11
1.72313E+12,-6421,-4490,4194,-194,-555,-303,1,7,11
1.72313E+12,-6120,-4696,4176,-325,-605,-332,1,7,11
1.72313E+12,-6110,-4631,4174,17,-609,-352,1,7,11
1.72313E+12,-6092,-4343,4197,-266,-617,-360,1,7,11
1.72313E+12,-6061,-4316,4199,-298,-616,-364,1,7,11
1.72313E+12,-6049,-4307,4210,-343,-579,-365,1,7,11
1.72313E+12,-6056,-4316,4216,-142,-536,-363,1,7,11
1.72313E+12,-6039,-4315,4179,-204,-251,-345,1,7,11
1.72313E+12,-6026,-4334,4139,-555,-183,-313,1,7,11
1.72313E+12,-6024,-4637,3839,-394,-347,-265,1,7,11
1.72313E+12,-6263,-4703,3794,-474,-261,45,1,7,11
1.72313E+12,-6231,-4537,3746,-784,81,87,1,7,11
1.72313E+12,-6216,-4890,3944,-793,-87,104,1,7,11
1.72313E+12,-6210,-4960,3871,-490,259,109,1,7,11
1.72313E+12,-6216,-4751,3552,-413,358,105,1,7,11
1.72313E+12,-6229,-4811,3540,-590,188,110,1,7,11
1.72313E+12,-6248,-5131,3557,-211,514,104,1,7,11
1.72313E+12,-6238,-5169,3860,-293,544,96,1,7,11
1.72313E+12,-6212,-5155,3892,-93,551,65,1,7,11
1.72313E+12,-6216,-4834,3942,351,553,26,1,7,11
1.72313E+12,-6221,-4981,3965,250,535,-257,1,7,11
1.72313E+12,-6241,-4875,3748,584,251,5,1,7,11
1.72313E+12,-6034,-4533,3813,591,221,39,1,7,11
1.72313E+12,-6069,-4711,4118,557,162,95,1,7,11
1.72313E+12,-6100,-4636,4155,239,373,-87,1,7,11
1.72313E+12,-6408,-4319,4147,143,348,-2,1,7,11
1.72313E+12,-6461,-4275,4124,287,337,370,1,7,11
1.72313E+12,-6463,-4236,3789,-113,327,239,1,7,11
1.72313E+12,-6475,-4480,3712,-281,357,614,1,7,11
1.72313E+12,-6477,-4261,3902,-204,131,447,1,7,11
1.72313E+12,-6523,-4336,3894,-603,172,492,1,7,11
1.72313E+12,-6319,-4657,3894,-389,172,510,1,7,11
1.72313E+12,-6375,-4673,3890,-583,144,784,1,7,11
1.72313E+12,-6674,-4676,3879,-217,356,825,1,7,11
1.72313E+12,-6673,-4663,3871,-344,285,863,1,7,11
1.72313E+12,-6397,-4644,3869,38,-40,881,1,7,11
1.72313E+12,-6354,-4621,3863,-122,-119,871,1,7,11
1.72313E+12,-6327,-4348,3886,-46,75,815,1,7,11
1.72313E+12,-6277,-4327,3901,273,10,462,1,7,11
1.72313E+12,-6493,-4283,3898,328,-276,590,1,7,11
1.72313E+12,-6477,-4258,3931,320,-270,206,1,7,11
1.72313E+12,-6505,-4227,3769,304,3,323,1,7,11
1.72313E+12,-6283,-4460,3783,309,-258,-58,1,7,11
1.72313E+12,-6342,-4422,3828,320,19,94,1,7,11
1.72313E+12,-6696,-4365,4100,350,63,38,1,7,11
1.72313E+12,-6530,-4046,3824,346,91,49,1,7,11
1.72313E+12,-6621,-3970,3767,304,99,85,1,7,11
1.72313E+12,-6926,-4186,3714,-65,92,-116,1,7,11
1.72313E+12,-6979,-4141,3933,81,88,-102,1,7,11
1.72313E+12,-7001,-4140,3924,-331,56,-72,1,7,11
1.72313E+12,-6977,-4177,3925,-206,-274,-54,1,7,11
1.72313E+12,-6918,-3971,3933,-551,-360,-62,1,7,11
1.72313E+12,-6555,-4012,3947,-583,-212,-85,1,7,11
1.72313E+12,-6691,-4068,3718,-584,-557,123,1,7,11
1.72313E+12,-6334,-4373,3744,-517,-608,50,1,7,11
1.72313E+12,-6276,-4355,3745,-135,-620,-280,1,7,11
1.72313E+12,-6458,-4084,3761,-288,-614,-338,1,7,11
1.72313E+12,-6433,-4084,3818,54,-565,-149,1,7,11
1.72313E+12,-6439,-4078,4132,-106,-515,-186,1,7,11
1.72313E+12,-6476,-4087,4195,-6,-195,-218,1,7,11
1.72313E+12,-6322,-4073,3998,349,-373,-240,1,7,11
1.72313E+12,-6704,-4034,4041,169,-294,-206,1,7,11
1.72313E+12,-6581,-4008,4095,200,40,-382,1,7,11
1.72313E+12,-6916,-3977,4378,221,77,-264,1,7,11
1.72313E+12,-6921,-4183,4092,223,94,105,1,7,11
1.72313E+12,-6637,-4130,4045,169,122,-84,1,7,11
1.72313E+12,-6612,-4097,4019,320,-96,-63,1,7,11
1.72313E+12,-6568,-4115,4059,-39,-88,-75,1,7,11
1.72313E+12,-6694,-4198,4389,-92,108,-116,1,7,11
1.72313E+12,-6505,-4041,4420,-48,27,25,1,7,11
1.72313E+12,-6083,-4363,4395,304,-264,-157,1,7,11
1.72313E+12,-6251,-4391,4334,139,20,-623,1,7,11
1.72313E+12,-6238,-4370,4017,206,116,-852,1,7,11
1.72313E+12,-6018,-4356,3971,231,-40,-653,1,7,11
1.72313E+12,-6083,-4362,3974,166,331,-894,1,7,11
1.72313E+12,-6130,-4385,4006,368,172,-824,1,7,11
1.72313E+12,-6111,-4400,4021,347,227,-492,1,7,11
1.72313E+12,-6090,-4436,4048,331,532,-442,1,7,11
1.72313E+12,-6095,-4462,4061,346,573,-408,1,7,11
1.72313E+12,-6134,-4228,4091,379,599,-639,1,7,11
1.72313E+12,-6412,-4466,4091,190,593,-614,1,7,11
1.72313E+12,-6128,-4425,4040,254,559,-589,1,7,11
1.72313E+12,-6123,-4426,4024,250,558,-574,1,7,11
1.72313E+12,-6138,-4460,4028,232,562,-554,1,7,11
1.72313E+12,-6416,-4271,4040,201,571,-529,1,7,11
1.72313E+12,-6402,-4328,4034,194,577,-248,1,7,11
1.72313E+12,-6109,-4629,4012,189,594,-230,1,7,11
1.72313E+12,-6045,-4687,4000,168,615,-215,1,7,11
1.72313E+12,-6214,-4506,3992,128,384,-217,1,7,11
1.72313E+12,-5873,-4872,4018,330,393,-254,1,7,11
1.72313E+12,-5804,-4975,4054,290,384,-589,1,7,11
1.72313E+12,-5763,-4824,4356,277,616,-443,1,7,11
1.72313E+12,-5992,-5148,4385,314,561,-809,1,7,11
1.72313E+12,-5993,-5166,4385,132,517,-645,1,7,11
1.72313E+12,-5991,-4840,4080,250,239,-673,1,7,11
1.72313E+12,-5989,-4975,4026,600,517,-871,1,7,11
1.72313E+12,-6000,-4933,4016,634,578,-467,1,7,11
1.72313E+12,-5981,-4954,4060,414,615,-543,1,7,11
1.72313E+12,-5948,-4740,4075,505,612,-149,1,7,11
1.72313E+12,-5951,-4991,4041,876,615,-326,1,7,11
1.72313E+12,-5968,-4945,4042,699,618,-293,1,7,11
1.72313E+12,-5990,-4913,4392,756,586,-268,1,7,11
1.72313E+12,-5945,-4894,4461,1097,493,50,1,7,11
1.72313E+12,-5931,-4866,4227,979,216,66,1,7,11
1.72313E+12,-5951,-4535,4456,1157,214,92,1,7,11
1.72313E+12,-5965,-4660,4428,1597,515,-114,1,7,11
1.72313E+12,-5988,-4318,4459,1427,602,292,1,7,11
1.72313E+12,-5953,-4471,4447,1527,475,186,1,7,11
1.72313E+12,-5952,-4388,4437,1890,870,585,1,7,11
1.72313E+12,-6005,-4049,4457,1730,1036,462,1,7,11
1.72313E+12,-5867,-3980,4260,2116,970,841,1,7,11
1.72313E+12,-6036,-3832,4224,2039,1163,720,1,7,11
1.72313E+12,-6485,-3875,4379,2204,1655,1151,1,7,11
1.72313E+12,-6400,-3675,4009,2261,1664,1384,1,7,11
1.72313E+12,-6574,-3290,3977,2210,1963,1633,1,7,11
1.72313E+12,-7031,-3394,4177,2182,2252,1864,1,7,11
1.72313E+12,-7244,-3149,3761,2204,2520,2086,1,7,11
1.72313E+12,-7132,-2874,3528,2327,2721,2029,1,7,11
1.72313E+12,-7495,-2499,3641,1672,3108,2396,1,7,11
1.72313E+12,-7693,-2588,3205,1585,2984,2359,1,7,11
1.72313E+12,-7840,-2408,3353,912,3384,1991,1,7,11
1.72313E+12,-8114,-2414,3360,458,3039,1938,1,7,11
1.72313E+12,-8458,-2213,3357,378,2772,2130,1,7,11
1.72313E+12,-8132,-2566,3389,119,2683,2051,1,7,11
1.72313E+12,-8225,-2607,3389,-263,2322,1894,1,7,11
1.72313E+12,-7889,-2588,3373,-361,1756,1628,1,7,11
1.72313E+12,-7833,-2640,3405,-252,1652,1329,1,7,11
1.72313E+12,-8002,-2445,3429,-613,994,730,1,7,11
1.72313E+12,-7651,-2538,3203,-439,862,639,1,7,11
1.72313E+12,-7554,-2928,3255,-490,246,317,1,7,11
1.72313E+12,-7697,-3086,3598,-495,-70,48,1,7,11
1.72313E+12,-7322,-2999,3682,-433,-320,-149,1,7,11
1.72313E+12,-7137,-3268,3841,-242,-554,-570,1,7,11
1.72313E+12,-7211,-3644,3914,-291,-640,-616,1,7,11
1.72313E+12,-6978,-3502,3752,-97,-409,-640,1,7,11
1.72313E+12,-6747,-3868,4188,381,-604,-403,1,7,11
1.72313E+12,-6287,-3885,4213,428,-221,-412,1,7,11
1.72313E+12,-6438,-3551,3974,738,0,-423,1,7,11
1.72313E+12,-6437,-3659,3975,1002,277,-389,1,7,11
1.72313E+12,-6478,-3220,4148,1177,582,-537,1,7,11
1.72313E+12,-6284,-2991,3748,1547,664,-367,1,7,11
1.72313E+12,-6657,-2842,3535,1567,1305,86,1,7,11
1.72313E+12,-6953,-2617,3622,1171,1664,175,1,7,11
1.72313E+12,-7170,-2270,3283,856,2001,398,1,7,11
1.72313E+12,-7116,-2256,3218,179,2215,820,1,7,11
1.72313E+12,-7334,-2289,3387,68,2579,645,1,7,11
1.72313E+12,-7786,-2619,3029,-242,2588,668,1,7,11
1.72313E+12,-7945,-2475,2952,-492,2244,640,1,7,11
1.72313E+12,-7827,-2833,3131,-642,2350,816,1,7,11
1.72313E+12,-7909,-2709,3091,-718,2133,495,1,7,11
1.72313E+12,-7896,-2788,2745,-667,1868,426,1,7,11
1.72313E+12,-7897,-3086,2933,-840,1628,602,1,7,11
1.72313E+12,-7853,-3139,2912,-483,1366,551,1,7,11
1.72313E+12,-7815,-2812,2861,-607,1089,253,1,7,11
1.72313E+12,-7971,-2789,2823,-536,895,592,1,7,11
1.72313E+12,-7653,-2796,2818,-184,786,629,1,7,11
1.72313E+12,-7612,-2736,2554,-296,389,588,1,7,11
1.72313E+12,-7793,-2770,2862,103,516,234,1,7,11
1.72313E+12,-7108,-2337,2313,-95,542,375,1,7,11
1.72313E+12,-7737,-2556,2827,-961,888,-513,1,7,11
1.72313E+12,-7489,-3075,2866,-1328,303,-1129,1,7,11
1.72313E+12,-7093,-3097,2895,-800,-202,-2869,1,7,11
1.72313E+12,-7409,-2766,2732,-241,-442,-3508,1,7,11
1.72313E+12,-7319,-2969,2809,321,-165,-2460,1,7,11
1.72313E+12,-7716,-2870,2875,823,-219,-2137,1,7,11
1.72313E+12,-7803,-2354,2604,-344,-581,-850,1,7,11
1.72313E+12,-7358,-2909,2524,-1781,-322,647,1,7,11
1.72313E+12,-7307,-3410,2755,-1904,-289,765,1,7,11
1.72313E+12,-7511,-3037,2688,-1060,43,782,1,7,11
1.72313E+12,-7074,-2763,2483,-1069,528,773,1,7,11
1.72313E+12,-6080,-3461,2522,-1181,1692,850,1,7,11
1.72313E+12,-7551,-3451,2284,-1034,2971,-3146,1,7,11
1.72313E+12,-7954,-3200,2264,-1549,2653,-3818,1,7,11
1.72313E+12,-7714,-2743,1933,-2529,2116,-4129,1,7,11
1.72313E+12,-7549,-3410,1769,-4341,2424,-3864,1,7,11
1.72313E+12,-7429,-3510,1833,-5887,3294,-3159,1,7,11
1.72313E+12,-7378,-3558,1524,-6891,4980,-2070,1,7,11
1.72313E+12,-7770,-4162,1600,-7044,5254,-1071,1,7,11
1.72313E+12,-7559,-4024,1400,-6637,5223,-1028,1,7,11
1.72313E+12,-7678,-4075,928,-5973,4392,-845,1,7,11
1.72313E+12,-8030,-4025,1052,-5080,3276,292,1,7,11
1.72313E+12,-7837,-4003,701,-4559,2626,1863,1,7,11
1.72313E+12,-7633,-3545,477,-4330,1673,2943,1,7,11
1.72313E+12,-7354,-3053,515,-4871,1318,2717,1,7,11
1.72313E+12,-7502,-2949,374,-5490,956,2318,1,7,11
1.72313E+12,-7096,-2801,308,-5979,997,1742,1,7,11
1.72313E+12,-7119,-2729,-56,-6353,1735,1738,1,7,11
1.72313E+12,-7351,-3104,-40,-6826,2354,2407,1,7,11
1.72313E+12,-7421,-3111,-122,-6807,2325,3146,1,7,11
1.72313E+12,-7533,-2727,-261,-6709,2060,3442,1,7,11
1.72313E+12,-7546,-2727,-153,-6197,1506,2856,1,7,11
1.72313E+12,-7314,-2934,-531,-5499,1379,1470,1,7,11
1.72313E+12,-7333,-2860,-608,-4891,770,489,1,7,11
1.72313E+12,-7762,-2746,-207,-4377,-168,-123,1,7,11
1.72313E+12,-7963,-2952,-270,-3022,-729,342,1,7,11
1.72313E+12,-7993,-3016,-84,-902,-1745,969,1,7,11
1.72313E+12,-7958,-3046,282,3120,-2833,1813,1,7,11
1.72313E+12,-8348,-3858,582,5785,-3889,1752,1,7,11
1.72313E+12,-8832,-3145,-1145,10923,-9836,-1092,1,7,11
1.72313E+12,-7428,-2167,-1246,8388,-8426,-761,1,7,11
1.72313E+12,-7678,-2651,-519,5665,-5926,-751,1,7,11
1.72313E+12,-8046,-2454,-119,3845,-4021,-643,1,7,11
1.72313E+12,-7883,-2897,554,2454,-3003,-847,1,7,11
1.72313E+12,-7934,-2893,504,2135,-2478,-882,1,7,11
1.72313E+12,-8196,-2876,652,1487,-2186,-660,1,7,11
1.72313E+12,-7927,-2845,1039,1214,-2048,-687,1,7,11
1.72313E+12,-7905,-2528,1143,1018,-1977,-703,1,7,11
1.72313E+12,-7882,-2486,1012,1104,-1975,-725,1,7,11
1.72313E+12,-7819,-2504,1400,680,-2042,-752,1,7,11
1.72313E+12,-7982,-2837,1570,775,-2377,-1079,1,7,11
1.72313E+12,-7650,-2694,1801,393,-2200,-941,1,7,11
1.72313E+12,-7794,-2772,1779,634,-2564,-1340,1,7,11
1.72313E+12,-7416,-3093,1989,424,-2666,-1234,1,7,11
1.72313E+12,-7338,-3118,2388,778,-2445,-1588,1,7,11
1.72313E+12,-7312,-2803,2424,868,-2667,-1630,1,7,11
1.72313E+12,-7346,-2713,2179,847,-2568,-1598,1,7,11
1.72313E+12,-7386,-2889,2428,453,-2189,-1247,1,7,11
1.72313E+12,-7689,-2868,2176,235,-2038,-1371,1,7,11
1.72313E+12,-7706,-2923,2212,-30,-2151,-948,1,7,11
1.72313E+12,-7691,-3076,2294,-286,-1773,-1055,1,7,11
1.72313E+12,-7390,-3021,2637,-188,-1700,-697,1,7,11
1.72313E+12,-7323,-3221,2436,-253,-1668,-676,1,7,11
1.72313E+12,-7500,-3697,2453,-522,-1685,-729,1,7,11
1.72313E+12,-7093,-3719,2472,-567,-1756,-1097,1,7,11
1.72313E+12,-6893,-4093,2854,-617,-2085,-1288,1,7,11
1.72313E+12,-6938,-4518,3194,-577,-2144,-1582,1,7,11
1.72313E+12,-6771,-4809,3601,112,-1946,-1677,1,7,11
1.72313E+12,-6673,-4765,3881,707,-1955,-2164,1,7,11
1.72313E+12,-6352,-4715,3787,1907,-2114,-2085,1,7,11
1.72313E+12,-6514,-4018,4097,2657,-1681,-1413,1,7,11
1.72313E+12,-6482,-3528,3791,3108,-1573,-1033,1,7,11
1.72313E+12,-6524,-3369,3955,2961,-1070,-292,1,7,11
1.72313E+12,-6397,-2726,3570,3097,-240,393,1,7,11
1.72313E+12,-6567,-2620,3612,2823,321,976,1,7,11
1.72313E+12,-7028,-2317,3370,2339,845,1443,1,7,11
1.72313E+12,-7257,-1925,3184,1615,1018,1734,1,7,11
1.72313E+12,-7533,-1946,3152,837,1540,2048,1,7,11
1.72313E+12,-7771,-2311,3102,-107,1582,1901,1,7,11
1.72313E+12,-7668,-2214,2724,-634,1189,1604,1,7,11
1.72313E+12,-8020,-2437,2911,-748,973,965,1,7,11
1.72313E+12,-7852,-2864,2871,-1012,720,831,1,7,11
1.72313E+12,-7891,-2776,2874,-1168,439,307,1,7,11
1.72313E+12,-7893,-3181,2902,-1192,266,60,1,7,11
1.72313E+12,-7813,-3043,2695,-1271,-284,-373,1,7,11
1.72313E+12,-7959,-3385,2777,-1061,-538,-514,1,7,11
1.72313E+12,-7574,-3433,3156,-817,-506,-631,1,7,11
1.72313E+12,-7684,-3441,3032,-541,-714,-487,1,7,11
1.72313E+12,-7550,-3398,3412,3,-1129,-852,1,7,11
1.72313E+12,-7463,-3035,3245,263,-973,-677,1,7,11
1.72313E+12,-7155,-3187,3595,143,-1287,-710,1,7,11
1.72313E+12,-7098,-3106,3672,182,-1321,-700,1,7,11
1.72313E+12,-7269,-2805,3477,142,-1324,-669,1,7,11
1.72313E+12,-7213,-2794,3531,303,-1014,-887,1,7,11
1.72313E+12,-7176,-2789,3509,-55,-922,-843,1,7,11
1.72313E+12,-7197,-3092,3495,31,-1046,-784,1,7,11
1.72313E+12,-7214,-2963,3477,-525,-871,-453,1,7,11
1.72313E+12,-7244,-3360,3483,-459,-776,-432,1,7,11
1.72313E+12,-7246,-3253,3711,-848,-466,-433,1,7,11
1.72313E+12,-7218,-3670,3456,-684,-434,-471,1,7,11
1.72313E+12,-6908,-3582,3491,-716,-433,-812,1,7,11
1.72313E+12,-6873,-3713,3500,-889,-441,-677,1,7,11
1.72313E+12,-6867,-3803,3503,-475,-445,-1048,1,7,11
1.72313E+12,-6862,-4110,3540,-547,-477,-1148,1,7,11
1.72313E+12,-6817,-4145,3843,-335,-817,-978,1,7,11
1.72313E+12,-7009,-4145,3572,-81,-661,-1314,1,7,11
1.72313E+12,-6971,-4117,3542,144,-718,-1387,1,7,11
1.72313E+12,-6960,-4101,3559,568,-1040,-1175,1,7,11
1.72313E+12,-6929,-3833,3567,459,-1143,-1212,1,7,11
1.72313E+12,-6644,-3833,3851,840,-1008,-1235,1,7,11
1.72313E+12,-6618,-4106,3887,692,-1400,-1277,1,7,11
1.72313E+12,-6642,-4169,3749,763,-1236,-1542,1,7,11
1.72313E+12,-6915,-4212,4135,1125,-1610,-1270,1,7,11
1.72313E+12,-6634,-4209,3986,1310,-1488,-1223,1,7,11
1.72313E+12,-6587,-4130,4037,1545,-1838,-1318,1,7,11
1.72313E+12,-6771,-3726,4068,1529,-1898,-914,1,7,11
1.72313E+12,-6727,-3847,4388,1908,-1834,-736,1,7,11
1.72313E+12,-6663,-3687,4427,1699,-1490,-792,1,7,11
1.72313E+12,-6376,-3302,4225,1862,-1597,-587,1,7,11
1.72313E+12,-6340,-3450,4291,1435,-1176,-129,1,7,11
1.72313E+12,-6344,-3409,4652,1180,-1007,41,1,7,11
1.72313E+12,-6349,-3381,4486,914,-1135,-86,1,7,11
1.72313E+12,-6363,-3364,4566,640,-1035,259,1,7,11
1.72313E+12,-6329,-3368,4607,614,-724,324,1,7,11
1.72313E+12,-6307,-3426,4906,305,-654,345,1,7,11
1.72313E+12,-6505,-3597,4758,-237,-778,291,1,7,11
1.72313E+12,-6436,-3652,4769,-411,-496,-18,1,7,11
1.72313E+12,-6089,-3708,4775,-836,-454,-99,1,7,11
1.72313E+12,-6036,-3514,4807,-729,-392,69,1,7,11
1.72313E+12,-6022,-3575,5145,-1091,-586,-272,1,7,11
1.72313E+12,-6214,-3873,5193,-1127,-587,-332,1,7,11
1.72313E+12,-5869,-3874,5190,-1124,-584,-145,1,7,11
1.72313E+12,-5828,-3894,5233,-899,-549,-221,1,7,11
1.72313E+12,-5842,-3909,5068,-934,-253,-544,1,7,11
1.72313E+12,-5845,-3901,5408,-929,-524,-578,1,7,11
1.72313E+12,-5822,-3883,5457,-928,-556,-597,1,7,11
1.72313E+12,-5814,-3880,5485,-933,-569,-593,1,7,11
1.72313E+12,-5804,-3868,5500,-938,-579,-567,1,7,11
1.72313E+12,-5791,-3869,5476,-974,-561,-522,1,7,11
1.72313E+12,-6007,-3853,5416,-1023,-525,-217,1,7,11
1.72313E+12,-5955,-3576,5064,-1321,-215,-139,1,7,11
1.72313E+12,-5952,-3856,5237,-1393,-369,-370,1,7,11
1.72313E+12,-5972,-3900,5159,-1231,86,-306,1,7,11
1.72313E+12,-5992,-3926,4792,-1551,-46,-267,1,7,11
1.72313E+12,-5781,-3935,4920,-1546,356,32,1,7,11
1.72313E+12,-5878,-3749,4581,-1275,526,99,1,7,11
1.72313E+12,-6221,-4113,4550,-1202,415,-66,1,7,11
1.72313E+12,-6035,-3971,4554,-1017,786,275,1,7,11
1.72313E+12,-6075,-4037,4530,-720,868,331,1,7,11
1.72313E+12,-6091,-4068,4722,-393,683,345,1,7,11
1.72313E+12,-6133,-4056,4683,-359,762,298,1,7,11
1.72313E+12,-6445,-4017,4672,124,1069,-46,1,7,11
1.72313E+12,-6501,-4211,4684,298,1084,107,1,7,11
1.72313E+12,-6312,-4173,4494,143,1074,10,1,7,11
1.72313E+12,-6363,-4125,4560,241,760,-326,1,7,11
1.72313E+12,-6359,-3780,4540,597,666,-382,1,7,11
1.72313E+12,-6359,-3934,4496,607,865,-169,1,7,11
1.72313E+12,-6378,-3859,4720,514,836,-183,1,7,11
1.72313E+12,-6360,-3564,4696,342,801,-178,1,7,11
1.72313E+12,-6337,-3568,4651,121,777,-171,1,7,11
1.72313E+12,-6321,-3863,4347,-359,769,-161,1,7,11
1.72313E+12,-6307,-3908,4296,-558,770,-153,1,7,11
1.72313E+12,-6308,-3721,4238,-483,506,-150,1,7,11
1.72313E+12,-6317,-3799,4400,-885,495,-151,1,7,11
1.72313E+12,-6314,-4153,4077,-1028,478,-155,1,7,11
1.72313E+12,-6318,-4022,4058,-898,459,-173,1,7,11
1.72313E+12,-6318,-4408,4081,-935,399,-200,1,7,11
1.72313E+12,-6294,-4247,4083,-1123,567,-239,1,7,11
1.72313E+12,-6288,-4266,4024,-712,229,-525,1,7,11
1.72313E+12,-6284,-4254,4180,-825,158,-520,1,7,11
1.72313E+12,-6527,-4230,4161,-487,354,-228,1,7,11
1.72313E+12,-6284,-4265,3997,-201,-95,43,1,7,11
1.72313E+12,-6526,-4232,3988,-146,-118,81,1,7,11
1.72313E+12,-6276,-4448,3984,-372,-77,122,1,7,11
1.72313E+12,-6525,-4399,3979,-382,-33,-81,1,7,11
1.72313E+12,-6280,-4392,3997,-177,282,-25,1,7,11
1.72313E+12,-6279,-4404,4016,-215,314,288,1,7,11
1.72313E+12,-6509,-4436,4024,-226,326,323,1,7,11
1.72313E+12,-6481,-4440,3990,-217,339,311,1,7,11
1.72313E+12,-6488,-4424,4217,-206,373,271,1,7,11
1.72313E+12,-6482,-4375,4189,-194,135,-26,1,7,11
1.72313E+12,-6490,-4095,4173,-212,148,-60,1,7,11
1.72313E+12,-6492,-4358,4169,-254,132,-85,1,7,11
1.72313E+12,-6491,-4368,4150,-530,349,-114,1,7,11
1.72313E+12,-6500,-4380,4135,-551,308,106,1,7,11
1.72313E+12,-6275,-4387,4127,-571,263,76,1,7,11
1.72313E+12,-6288,-4369,4110,-586,-50,60,1,7,11
1.72313E+12,-6311,-4367,4123,-623,-89,70,1,7,11
1.72313E+12,-6315,-4366,4120,-395,-128,104,1,7,11
1.72313E+12,-6315,-4368,4117,-420,116,-107,1,7,11
1.72313E+12,-6334,-4354,4113,-434,-122,-54,1,7,11
1.72313E+12,-6372,-4090,4156,-451,-92,272,1,7,11
1.72313E+12,-6685,-4053,4203,-427,-73,352,1,7,11
1.72313E+12,-6708,-3986,4218,-396,-88,185,1,7,11
1.72313E+12,-6398,-4145,4159,-399,-123,522,1,7,11
1.72313E+12,-6367,-4127,4147,-783,-107,565,1,7,11
1.72313E+12,-6377,-4165,4198,-679,-93,589,1,7,11
1.72313E+12,-6384,-4217,4215,-747,-98,572,1,7,11
1.72313E+12,-6378,-3984,4199,-756,-102,538,1,7,11
1.72313E+12,-6384,-4028,4200,-731,-91,244,1,7,11
1.72313E+12,-6367,-4093,4187,-675,-87,194,1,7,11
1.72313E+12,-6694,-4045,3960,-204,356,-57,1,7,11
1.72313E+12,-6673,-4037,3944,-163,363,-47,1,7,11
1.72313E+12,-6359,-4048,3941,-267,-73,-78,1,7,11
1.72313E+12,-6389,-4067,3740,-282,-92,-61,1,7,11
1.72313E+12,-6773,-4024,3803,125,-126,-44,1,7,11
1.72313E+12,-6583,-4210,3801,113,-101,-7,1,7,11
1.72313E+12,-6690,-4221,4100,-348,-169,-283,1,7,11
1.72313E+12,-6665,-3976,4134,-316,-184,-329,1,7,11
1.72313E+12,-6523,-4174,4131,-258,-157,-251,1,7,11
1.72313E+12,-6491,-4164,4120,-300,-383,-242,1,7,11
1.72313E+12,-6856,-3880,4100,-298,-63,-52,1,7,11
1.72313E+12,-6671,-3962,3816,-341,91,519,1,7,11
1.72313E+12,-6095,-4300,3897,-501,-351,-378,1,7,11
1.72313E+12,-6526,-4678,3946,-847,14,-605,1,7,11
1.72313E+12,-6393,-4608,4017,577,126,-1051,1,7,11
1.72313E+12,-6304,-4667,4046,872,50,-709,1,7,11
1.72313E+12,-6272,-4462,4430,-449,-216,-167,1,7,11
1.72313E+12,-6064,-4262,4460,-490,-172,-155,1,7,11
1.72313E+12,-6454,-4261,4364,-244,55,-32,1,7,11
1.72313E+12,-6445,-4275,4355,-199,119,317,1,7,11
1.72313E+12,-6088,-4283,4379,116,-64,-63,1,7,11
1.72313E+12,-6070,-4296,4413,-116,-77,95,1,7,11
1.72313E+12,-6068,-4449,4415,-74,-65,-237,1,7,11
1.72313E+12,-6141,-4430,4424,-128,-26,-226,1,7,11
1.72313E+12,-6285,-4033,4128,-611,315,327,1,7,11
1.72313E+12,-6512,-4389,4158,-776,-7,183,1,7,11
1.72313E+12,-6449,-4269,4180,-840,-109,238,1,7,11
1.72313E+12,-6108,-4653,4185,-802,42,219,1,7,11
1.72313E+12,-6055,-4496,4210,-458,-294,366,1,7,11
1.72313E+12,-6034,-4535,3975,-573,-360,-46,1,7,11
1.72313E+12,-6048,-4532,4066,-167,-158,66,1,7,11
1.72313E+12,-6088,-4511,4408,-263,-204,-302,1,7,11
1.72313E+12,-6471,-4441,4314,628,-485,9,1,7,11
1.72313E+12,-6463,-4058,4610,384,-509,108,1,7,11
1.72313E+12,-6239,-4439,4660,-374,-277,-243,1,7,11
1.72313E+12,-6218,-4462,4674,-382,12,-241,1,7,11
1.72313E+12,-6205,-4291,4273,-198,265,-208,1,7,11
1.72313E+12,-6225,-4337,4252,-227,300,-186,1,7,11
1.72313E+12,-6027,-4731,4313,12,309,-327,1,7,11
1.72313E+12,-6272,-4717,4336,-126,276,-315,1,7,11
1.72313E+12,-6255,-4231,4317,257,-42,27,1,7,11
1.72313E+12,-6051,-4372,4620,-259,-34,279,1,7,11
1.72313E+12,-6251,-4445,4652,-137,-61,-43,1,7,11
1.72313E+12,-6265,-4462,4678,-381,-56,-86,1,7,11
1.72313E+12,-6178,-4459,4322,25,133,-57,1,7,11
1.72313E+12,-6166,-4476,4347,7,219,-27,1,7,11
1.72313E+12,-6195,-4420,4481,-13,557,-34,1,7,11
1.72313E+12,-6204,-4057,4677,282,570,-34,1,7,11
1.72313E+12,-6084,-4029,4413,-534,810,174,1,7,11
1.72313E+12,-6124,-4095,4088,-621,852,184,1,7,11
1.72313E+12,-6388,-4332,4108,-256,646,178,1,7,11
1.72313E+12,-6688,-4352,3797,-140,867,176,1,7,11
1.72313E+12,-6382,-4305,3789,371,243,-111,1,7,11
1.72313E+12,-6349,-4264,4118,182,173,36,1,7,11
1.72313E+12,-6507,-4082,4242,531,-107,-208,1,7,11
1.72313E+12,-6461,-4039,4657,249,55,-221,1,7,11
1.72313E+12,-6057,-3869,4506,73,-547,-278,1,7,11
1.72313E+12,-6053,-3573,4661,-154,-241,62,1,7,11
1.72313E+12,-6322,-3785,4074,-1017,315,251,1,7,11
1.72313E+12,-6725,-4365,3808,-602,564,248,1,7,11
1.72313E+12,-6593,-4042,3852,-126,514,-560,1,7,11
1.72313E+12,-6597,-4050,3871,89,147,-389,1,7,11
1.72313E+12,-6301,-4067,3766,18,17,-404,1,7,11
1.72313E+12,-6482,-4389,4117,-266,-259,-391,1,7,11
1.72313E+12,-6525,-4089,4074,-361,53,-243,1,7,11
1.72313E+12,-6438,-4458,4417,-225,52,-191,1,7,11
1.72313E+12,-6045,-4633,3979,-200,-71,-453,1,7,11
1.72313E+12,-6026,-4661,4185,-195,273,-405,1,7,11
1.72313E+12,-6057,-4591,3761,29,563,-559,1,7,11
1.72313E+12,-6032,-4607,4141,66,225,-584,1,7,11
1.72313E+12,-6208,-4383,4608,388,-147,-199,1,7,11
1.72313E+12,-6224,-4214,4240,596,-363,-286,1,7,11
1.72313E+12,-6353,-3718,3850,-434,483,851,1,7,11
1.72313E+12,-6639,-4726,3692,-406,801,1070,1,7,11
1.72313E+12,-6593,-4733,3520,-153,617,837,1,7,11
1.72313E+12,-6781,-4021,3817,681,362,98,1,7,11
1.72313E+12,-7035,-3522,3946,273,852,389,1,7,11
1.72313E+12,-6928,-3904,3928,79,472,451,1,7,11
1.72313E+12,-6710,-4006,3480,-464,318,223,1,7,11
1.72313E+12,-6698,-4079,3682,-476,298,214,1,7,11
1.72313E+12,-6383,-4477,3212,102,178,387,1,7,11
1.72313E+12,-6668,-4426,3221,-29,202,619,1,7,11
1.72313E+12,-6690,-4381,3271,303,208,605,1,7,11
1.72313E+12,-6708,-4094,3641,358,202,604,1,7,11
1.72313E+12,-6725,-4037,3496,204,171,608,1,7,11
1.72313E+12,-6743,-4208,3575,567,146,629,1,7,11
1.72313E+12,-6532,-3829,3881,636,152,419,1,7,11
1.72313E+12,-6592,-3729,3925,637,184,492,1,7,11
1.72313E+12,-6901,-3277,3737,-15,503,727,1,7,11
1.72313E+12,-7225,-3209,3777,97,799,1041,1,7,11
1.72313E+12,-6819,-3300,3986,321,143,410,1,7,11
1.72313E+12,-6948,-3448,3469,985,574,-578,1,7,11
1.72313E+12,-7013,-3224,3637,1352,393,-458,1,7,11
1.72313E+12,-7220,-3244,3332,2320,1024,-882,1,7,11
1.72313E+12,-7187,-3246,2969,2211,1127,-680,1,7,11
1.72313E+12,-7478,-3395,3026,2674,1555,-1144,1,7,11
1.72313E+12,-7522,-3368,3333,2645,1604,-1134,1,7,11
1.72313E+12,-7415,-2975,3428,2113,1242,-1286,1,7,11
1.72313E+12,-7726,-3010,3241,1894,1173,-1299,1,7,11
1.72313E+12,-7360,-3248,3621,1334,794,-974,1,7,11
1.72313E+12,-7513,-3324,3671,1287,612,-977,1,7,11
1.72313E+12,-7496,-3611,3710,1007,229,-983,1,7,11
1.72313E+12,-7147,-3701,3535,1009,295,-940,1,7,11
1.72313E+12,-7218,-3532,3879,1299,83,-930,1,7,11
1.72313E+12,-6792,-3865,3913,1346,-352,-975,1,7,11
1.72313E+12,-6606,-3918,3737,1400,-541,-1321,1,7,11
1.72313E+12,-6381,-3886,3782,1188,-449,-1262,1,7,11
1.72313E+12,-6326,-3862,4124,1201,-795,-1594,1,7,11
1.72313E+12,-6286,-3581,4223,1199,-871,-1603,1,7,11
1.72313E+12,-6519,-3556,4086,1191,-654,-1582,1,7,11
1.72313E+12,-6486,-3547,4463,1181,-651,-1402,1,7,11
1.72313E+12,-6425,-3540,4293,1179,-852,-967,1,7,11
1.72313E+12,-6088,-3532,4620,1160,-503,-1030,1,7,11
1.72313E+12,-6252,-3529,4701,1361,-622,-883,1,7,11
1.72313E+12,-6175,-3558,4557,1008,-214,-781,1,7,11
1.72313E+12,-5874,-3863,4919,920,-282,-468,1,7,11
1.72313E+12,-5881,-3891,4757,1093,-70,-459,1,7,11
1.72313E+12,-6178,-3901,4839,752,135,-461,1,7,11
1.72313E+12,-6209,-3907,5124,674,558,-455,1,7,11
1.72313E+12,-6027,-3944,4987,545,1065,-580,1,7,11
1.72313E+12,-6082,-3797,4864,381,960,-533,1,7,11
1.72313E+12,-6737,-4453,3848,1407,1294,-318,1,7,11
1.72313E+12,-6772,-4094,3551,1229,1014,-141,1,7,11
1.72313E+12,-6953,-3778,3489,1622,1179,-378,1,7,11
1.72313E+12,-6798,-3950,3559,898,1167,34,1,7,11
1.72313E+12,-6983,-3750,3843,1048,1002,84,1,7,11
1.72313E+12,-6354,-3770,3847,480,808,-306,1,7,11
1.72313E+12,-6279,-3747,3582,418,815,-313,1,7,11
1.72313E+12,-6523,-3843,3512,134,737,43,1,7,11
1.72313E+12,-6301,-3511,3696,285,1033,119,1,7,11
1.72313E+12,-6850,-3319,3599,-499,660,479,1,7,11
1.72313E+12,-6917,-3222,3304,-662,501,870,1,7,11
1.72313E+12,-6890,-3591,3631,-1819,-174,1080,1,7,11
1.72313E+12,-6831,-3629,3615,-1896,-579,1109,1,7,11
1.72313E+12,-6933,-3700,3611,-1823,-786,1074,1,7,11
1.72313E+12,-6937,-3496,3679,-1798,-813,741,1,7,11
1.72313E+12,-7908,-4130,3501,-633,-109,-139,1,7,11
1.72313E+12,-11330,-2489,2938,937,2276,697,1,7,11
1.72313E+12,-10436,-2909,2910,-1144,-1487,-268,1,7,11
1.72313E+12,-10298,-2723,2839,-1577,-1953,-163,1,7,11
1.72313E+12,-9573,-3204,2622,-2900,-2269,-291,1,7,11
1.72313E+12,-9386,-3259,2671,-3141,-2362,9,1,7,11
1.72313E+12,-9308,-2365,3104,-3073,-3522,620,1,7,11
1.72313E+12,-8961,-2149,3133,-3248,-3756,809,1,7,11
1.72313E+12,-7014,-1697,2774,-5578,-4822,2348,1,7,11
1.72313E+12,-6506,-1742,2882,-6083,-4872,2552,1,7,11
1.72313E+12,-5349,-1963,2291,-8375,-3642,3713,1,7,11
1.72313E+12,-5345,-1967,2300,-8966,-3652,4115,1,7,11
1.72313E+12,-5655,-2265,2660,-9356,-3738,4844,1,7,11
1.72313E+12,-5267,-2440,2442,-9427,-4162,5216,1,7,11
1.72313E+12,-5098,-2868,2497,-9456,-4070,5198,1,7,11
1.72313E+12,-5208,-2806,2872,-9445,-4432,4801,1,7,11
1.72313E+12,-5135,-2963,2747,-9568,-4472,4575,1,7,11
1.72313E+12,-5130,-3342,3087,-9339,-4429,4338,1,7,11
1.72313E+12,-5507,-4385,3774,-8013,-2835,2695,1,7,11
1.72313E+12,-5745,-4234,4114,-7342,-2499,2551,1,7,11
1.72313E+12,-5735,-4613,3986,-6978,-2575,2231,1,7,11
1.72313E+12,-5997,-4089,4063,-4489,-1822,1472,1,7,11
1.72313E+12,-6204,-4208,4406,-4185,-1248,1419,1,7,11
1.72313E+12,-6490,-3540,4906,-2364,-802,1876,1,7,11
1.72313E+12,-6524,-3511,4943,-1990,-419,1798,1,7,11
1.72313E+12,-6376,-3516,4587,-2059,10,916,1,7,11
1.72313E+12,-6659,-3548,4487,-1753,-94,972,1,7,11
1.72313E+12,-6684,-3841,4645,-1920,377,847,1,7,11
1.72313E+12,-6709,-3898,4294,-1889,227,438,1,7,11
1.72313E+12,-6746,-3723,4243,-1844,558,533,1,7,11
1.72313E+12,-6779,-3803,4446,-1493,589,367,1,7,11
1.72313E+12,-6542,-4119,4396,-1605,584,-42,1,7,11
1.72313E+12,-6533,-4147,4085,-1190,559,47,1,7,11
1.72313E+12,-7025,-4113,3769,-487,185,-1041,1,7,11
1.72313E+12,-7427,-2974,3420,353,-280,-489,1,7,11
1.72313E+12,-7464,-3001,3009,477,12,117,1,7,11
1.72313E+12,-7099,-3025,2969,886,73,126,1,7,11
1.72313E+12,-7324,-2835,3437,1849,1093,-347,1,7,11
1.72313E+12,-7723,-2472,3416,1954,1339,-257,1,7,11
1.72313E+12,-7664,-2219,2774,4117,1717,-379,1,7,11
1.72313E+12,-7640,-2217,2736,4040,1722,-535,1,7,11
1.72313E+12,-7381,-2162,2438,4632,1862,-967,1,7,11
1.72313E+12,-7098,-3396,2951,3328,1368,-1263,1,7,11
1.72313E+12,-7075,-3433,2976,4486,1752,-1847,1,7,11
1.72313E+12,-7108,-3367,3161,4752,2121,-1698,1,7,11
1.72313E+12,-7550,-2941,3134,5227,1956,-1832,1,7,11
1.72313E+12,-7306,-2890,3153,4798,2142,-1456,1,7,11
1.72313E+12,-7389,-2508,3172,4266,1710,-1172,1,7,11
1.72313E+12,-7371,-2472,3167,4377,1668,-1408,1,7,11
1.72313E+12,-7796,-2299,3161,3675,1757,-750,1,7,11
1.72313E+12,-7790,-2587,3000,2127,931,-447,1,7,11
1.72313E+12,-7781,-2581,3034,1679,1070,-442,1,7,11
1.72313E+12,-7772,-2587,3040,1517,707,-415,1,7,11
1.72313E+12,-7751,-2591,3051,1626,839,-413,1,7,11
1.72313E+12,-7803,-2611,3055,1014,559,-626,1,7,11
1.72313E+12,-7328,-2438,3438,376,-336,-519,1,7,11
1.72313E+12,-7305,-2451,3207,297,-318,-518,1,7,11
1.72313E+12,-7167,-2905,3269,-122,-75,-217,1,7,11
1.72313E+12,-7164,-2932,3265,-104,-7,-252,1,7,11
1.72313E+12,-7333,-2873,3221,-16,307,-179,1,7,11
1.72313E+12,-7327,-2855,3213,-33,266,-369,1,7,11
1.72313E+12,-7503,-2848,3252,101,-108,-269,1,7,11
1.72313E+12,-7516,-2840,3255,98,-78,-295,1,7,11
1.72313E+12,-7318,-2824,3252,-261,-50,-303,1,7,11
1.72313E+12,-7304,-2831,3247,-293,-91,-305,1,7,11
1.72313E+12,-7539,-2842,3238,-163,84,4,1,7,11
1.72313E+12,-7524,-2857,3239,-203,70,28,1,7,11
1.72313E+12,-7527,-2899,3257,-563,5,21,1,7,11
1.72313E+12,-7499,-2930,3261,-575,-262,39,1,7,11
1.72313E+12,-7506,-2931,3244,-600,56,103,1,7,11
1.72313E+12,-7517,-2940,3243,-615,35,125,1,7,11
1.72313E+12,-7520,-2727,3259,-427,-333,-73,1,7,11
1.72313E+12,-7508,-2752,3277,-445,-352,-77,1,7,11
1.72313E+12,-7469,-3099,3319,-538,-150,33,1,7,11
1.72313E+12,-7455,-3111,3323,-235,-148,28,1,7,11
1.72313E+12,-7097,-3100,3618,42,-330,-260,1,7,11
1.72313E+12,-7077,-3076,3614,72,-292,-271,1,7,11
1.72313E+12,-7126,-2785,3651,-124,112,-294,1,7,11
1.72313E+12,-7135,-2778,3656,124,-111,-286,1,7,11
1.72313E+12,-7432,-2800,3666,55,-37,8,1,7,11
1.72313E+12,-7430,-2799,3666,53,-33,18,1,7,11
1.72313E+12,-7447,-2800,3669,41,-42,106,1,7,11
1.72313E+12,-7441,-2801,3679,36,-78,-125,1,7,11
1.72313E+12,-7156,-2810,3460,47,-123,115,1,7,11
1.72313E+12,-7117,-3102,3710,-97,-61,51,1,7,11
1.72313E+12,-7121,-3098,3708,-66,-38,58,1,7,11
1.72313E+12,-7127,-3092,3456,-25,-18,85,1,7,11
1.72313E+12,-7122,-3093,3457,271,-2,121,1,7,11
1.72313E+12,-7096,-3090,3700,318,271,-106,1,7,11
1.72313E+12,-7089,-3086,3699,361,303,-93,1,7,11
1.72313E+12,-7092,-3086,3696,152,336,-84,1,7,11
1.72313E+12,-7100,-3097,3699,197,372,-83,1,7,11
1.72313E+12,-7107,-3100,3707,250,152,-87,1,7,11
1.72313E+12,-7107,-3112,3708,573,182,-91,1,7,11
1.72313E+12,-7092,-3128,3688,389,220,-101,1,7,11
1.72313E+12,-7094,-3161,3685,475,542,-117,1,7,11
1.72313E+12,-7094,-3187,3685,856,602,-117,1,7,11
1.72313E+12,-7067,-2945,3661,748,397,-118,1,7,11
1.72313E+12,-7280,-2958,3642,906,448,-120,1,7,11
1.72313E+12,-7253,-2986,3635,1330,768,-124,1,7,11
1.72313E+12,-7209,-3019,3613,1278,832,-120,1,7,11
1.72313E+12,-6898,-3062,3600,1497,671,-118,1,7,11
1.72313E+12,-7182,-3369,3610,1751,1099,-91,1,7,11
1.72313E+12,-7189,-3377,3584,2342,1014,-22,1,7,11
1.72313E+12,-7190,-3343,3282,2678,1225,298,1,7,11
1.72313E+12,-7222,-3044,3230,2716,1437,358,1,7,11
1.72313E+12,-7254,-2968,3436,2965,1871,373,1,7,11
1.72313E+12,-7282,-3136,3350,3376,1753,336,1,7,11
1.72313E+12,-7090,-2762,3042,3455,2101,264,1,7,11
1.72313E+12,-7461,-2895,2996,3449,2145,-74,1,7,11
1.72313E+12,-7520,-2553,3184,3406,2127,-114,1,7,11
1.72313E+12,-7352,-2499,3128,3019,2121,-123,1,7,11
1.72313E+12,-7398,-2453,3074,3152,2098,-115,1,7,11
1.72313E+12,-7728,-2676,2788,2746,2077,-87,1,7,11
1.72313E+12,-7770,-2660,2755,2865,1769,-36,1,7,11
1.72313E+12,-7780,-2608,2691,2482,1707,264,1,7,11
1.72313E+12,-7784,-2587,2902,2590,1666,292,1,7,11
1.72313E+12,-7566,-2586,2877,2185,1885,286,1,7,11
1.72313E+12,-7592,-2297,2868,2315,1809,-21,1,7,11
1.72313E+12,-7947,-2289,2890,2158,1492,-56,1,7,11
1.72313E+12,-8022,-2295,2903,1774,1645,-29,1,7,11
1.72313E+12,-7836,-2299,2909,1673,1550,-2,1,7,11
1.72313E+12,-7917,-2568,2922,1833,1217,304,1,7,11
1.72313E+12,-8231,-2274,2903,1519,1406,374,1,7,11
1.72313E+12,-8251,-2196,2846,1464,1338,205,1,7,11
1.72313E+12,-7936,-2411,2817,1635,1018,514,1,7,11
1.72313E+12,-8193,-2409,2855,1555,993,243,1,7,11
1.72313E+12,-8193,-2380,2849,1541,941,199,1,7,11
1.72313E+12,-8194,-2327,2843,1539,1138,155,1,7,11
1.72313E+12,-8193,-2032,2853,1268,1078,139,1,7,11
1.72313E+12,-7906,-2008,2879,1262,752,153,1,7,11
1.72313E+12,-7858,-1953,2903,1553,681,174,1,7,11
1.72313E+12,-8062,-2171,2734,1579,861,176,1,7,11
1.72313E+12,-8011,-2123,2738,1612,776,188,1,7,11
1.72313E+12,-8005,-1717,2697,1663,470,250,1,7,11
1.72313E+12,-7677,-1852,2927,1414,404,621,1,7,11
1.72313E+12,-7669,-1510,2939,1544,417,426,1,7,11
1.72313E+12,-7629,-1442,2919,1192,635,456,1,7,11
1.72313E+12,-7636,-1649,2891,1325,589,437,1,7,11
1.72313E+12,-7614,-1633,2882,1150,251,390,1,7,11
1.72313E+12,-7606,-1629,2885,718,181,573,1,7,11
1.72313E+12,-7588,-1626,2880,794,368,519,1,7,11
1.72313E+12,-7598,-1646,2883,604,320,225,1,7,11
1.72313E+12,-7616,-1646,2870,175,278,233,1,7,11
1.72313E+12,-7627,-1648,2849,-10,-12,550,1,7,11
1.72313E+12,-7631,-1427,2840,69,-36,636,1,7,11
1.72313E+12,-7638,-1445,2549,-313,-52,461,1,7,11
1.72313E+12,-7636,-1433,2516,-375,-73,781,1,7,11
1.72313E+12,-7615,-1644,2469,-158,-107,817,1,7,11
1.72313E+12,-7588,-1595,2445,-199,116,855,1,7,11
1.72313E+12,-7607,-1543,2454,-236,114,642,1,7,11
1.72313E+12,-7656,-1233,2469,-227,101,713,1,7,11
1.72313E+12,-7653,-1368,2675,-181,82,747,1,7,11
1.72313E+12,-7666,-1003,2675,-217,44,749,1,7,11
1.72313E+12,-7602,-1150,2466,-542,-336,712,1,7,11
1.72313E+12,-7766,-1065,2490,-592,-241,650,1,7,11
1.72313E+12,-7424,-756,2513,-439,-637,841,1,7,11
1.72313E+12,-7704,-726,2839,-885,-482,504,1,7,11
1.72313E+12,-7756,-718,2930,-1091,-871,457,1,7,11
1.72313E+12,-7571,-705,2758,-1284,-716,443,1,7,11
1.72313E+12,-7614,-653,2782,-1155,-1046,467,1,7,11
1.72313E+12,-7678,-642,3106,-1571,-1057,492,1,7,11
1.72313E+12,-8019,-876,3173,-1435,-1048,782,1,7,11
1.72313E+12,-7875,-861,3006,-1794,-750,843,1,7,11
1.72313E+12,-8251,-861,3374,-1847,-713,667,1,7,11
1.72313E+12,-8120,-829,3452,-1843,-660,741,1,7,11
1.72313E+12,-8486,-481,3221,-1803,-865,1071,1,7,11
1.72313E+12,-8559,-601,3212,-1526,-825,1145,1,7,11
1.72313E+12,-8406,-184,3455,-1534,-802,952,1,7,11
1.72313E+12,-8749,8,3408,-1819,-856,1289,1,7,11
1.72313E+12,-8588,-17,3034,-1674,-721,1368,1,7,11
1.72313E+12,-8961,201,3012,-2171,-943,1179,1,7,11
1.72313E+12,-9029,610,3021,-2568,-1619,1230,1,7,11
1.72313E+12,-8809,612,3061,-2744,-1947,1251,1,7,11
1.72313E+12,-8325,560,3391,-3416,-2471,1216,1,7,11
1.72313E+12,-8076,194,3222,-3864,-3022,1389,1,7,11
1.72313E+12,-8050,359,3277,-3761,-3431,1324,1,7,11
1.72313E+12,-7800,-18,3598,-4127,-3408,1002,1,7,11
1.72313E+12,-7347,80,3697,-4163,-2976,925,1,7,11
1.72313E+12,-7479,-280,3493,-3802,-2933,1107,1,7,11
1.72313E+12,-7145,-349,3536,-3920,-2299,1036,1,7,11
1.72313E+12,-7144,-193,3884,-3511,-2171,702,1,7,11
1.72313E+12,-7143,-554,3732,-3312,-1834,876,1,7,11
1.72313E+12,-7454,-389,4099,-3026,-1246,774,1,7,11
1.72313E+12,-7519,-421,4157,-2927,-938,415,1,7,11
1.72313E+12,-7542,-426,4158,-2592,-684,555,1,7,11
1.72313E+12,-7335,-419,4149,-2307,-442,151,1,7,11
1.72313E+12,-7418,-630,4117,-2067,-213,-3,1,7,11
1.72313E+12,-7789,-612,4122,-1901,-290,125,1,7,11
1.72313E+12,-7560,-632,4132,-1526,40,25,1,7,11
1.72313E+12,-7566,-442,4177,-1446,78,-371,1,7,11
1.72313E+12,-7616,-790,3976,-1592,85,-521,1,7,11
1.72313E+12,-7578,-799,4184,-1170,26,-392,1,7,11
1.72313E+12,-7573,-853,4190,-1356,-257,-784,1,7,11
1.72313E+12,-7806,-891,4164,-1017,-292,-887,1,7,11
1.72313E+12,-7773,-682,4119,-965,-307,-705,1,7,11
1.72313E+12,-7746,-744,3827,-947,-314,-767,1,7,11
1.72313E+12,-7733,-1129,4126,-982,-320,-1079,1,7,11
1.72313E+12,-7728,-961,4145,-974,-348,-1100,1,7,11
1.72313E+12,-7767,-1003,4105,-940,-366,-1051,1,7,11
1.72313E+12,-7736,-1331,4108,-925,-137,-707,1,7,11
1.72313E+12,-7763,-1186,4182,-998,-349,-851,1,7,11
1.72313E+12,-7759,-1239,4212,-1007,-345,-456,1,7,11
1.72313E+12,-7725,-1557,3986,-954,-361,-593,1,7,11
1.72313E+12,-7704,-1628,4038,-902,-356,-224,1,7,11
1.72313E+12,-7413,-1423,4054,-1044,-371,-362,1,7,11
1.72313E+12,-7360,-1424,4074,-683,-130,-285,1,7,11
1.72313E+12,-7520,-1411,4086,-846,-158,13,1,7,11
1.72313E+12,-7426,-1429,4367,-784,-198,22,1,7,11
1.72313E+12,-7464,-1626,4393,-462,-208,23,1,7,11
1.72313E+12,-7431,-1590,4379,-633,-169,84,1,7,11
1.72313E+12,-7136,-1592,4409,-572,-357,86,1,7,11
1.72313E+12,-7458,-1610,4238,-524,-281,81,1,7,11
1.72313E+12,-7433,-1588,4237,-197,-295,67,1,7,11
1.72313E+12,-7138,-1580,4239,-221,-293,24,1,7,11
1.72313E+12,-7151,-1618,4267,-551,-282,-289,1,7,11
1.72313E+12,-7146,-1643,4245,-617,-268,-343,1,7,11
1.72313E+12,-7160,-1657,4231,-443,20,-143,1,7,11
1.72313E+12,-7443,-1430,4238,-794,68,-183,1,7,11
1.72313E+12,-7498,-1468,4280,-854,126,-176,1,7,11
1.72313E+12,-7493,-1502,4265,-848,-100,-143,1,7,11
1.72313E+12,-7160,-1533,4449,-831,-46,-147,1,7,11
1.72313E+12,-7123,-1526,4091,-829,325,-197,1,7,11
1.72313E+12,-7143,-1516,4012,-864,192,-249,1,7,11
1.72313E+12,-7164,-1514,4162,-658,547,-543,1,7,11
1.72313E+12,-7457,-1527,3798,-743,389,-561,1,7,11
1.72313E+12,-7547,-1536,3722,-1101,483,-562,1,7,11
1.72313E+12,-7418,-1806,3954,-935,801,-516,1,7,11
1.72313E+12,-7805,-1815,3946,-975,815,-159,1,7,11
1.72313E+12,-7595,-1804,3923,-993,503,-302,1,7,11
1.72313E+12,-7618,-1530,3881,-1004,432,37,1,7,11
1.72313E+12,-7645,-1534,3886,-1288,619,81,1,7,11
1.72313E+12,-7657,-1528,3897,-1293,517,86,1,7,11
1.72313E+12,-7632,-1511,3883,-1281,132,61,1,7,11
1.72313E+12,-7603,-1526,3896,-1293,-4,19,1,7,11
1.72313E+12,-7800,-1826,3939,-1308,101,-274,1,7,11
1.72313E+12,-7715,-1892,3963,-1304,-305,-318,1,7,11
1.72313E+12,-7374,-1688,3952,-1014,-162,-361,1,7,11
1.72313E+12,-7317,-1734,3965,-1009,-216,-135,1,7,11
1.72313E+12,-7315,-2055,3784,-1283,-245,-135,1,7,11
1.72313E+12,-7297,-2126,4179,-1013,-536,-357,1,7,11
1.72313E+12,-7520,-2170,4220,-943,-572,-304,1,7,11
1.72313E+12,-7459,-1932,4013,-1085,-604,5,1,7,11
1.72313E+12,-7154,-1948,4038,-719,-600,43,1,7,11
1.72313E+12,-7109,-1933,4041,-878,-572,67,1,7,11
1.72313E+12,-7097,-1936,4056,-820,-516,70,1,7,11
1.72313E+12,-7114,-1927,4076,-501,-185,84,1,7,11
1.72313E+12,-7129,-1932,4353,-416,-316,98,1,7,11
1.72313E+12,-7140,-2175,4361,-598,20,123,1,7,11
1.72313E+12,-7148,-2150,4087,-534,93,-115,1,7,11
1.72313E+12,-7151,-2130,4067,-240,-101,-115,1,7,11
1.72313E+12,-7432,-2125,4050,-228,-53,-127,1,7,11
1.72313E+12,-7452,-2108,4021,-216,-30,111,1,7,11
1.72313E+12,-7490,-2092,3994,-204,-3,95,1,7,11
1.72313E+12,-7530,-2077,3981,-191,276,99,1,7,11
1.72313E+12,-7305,-2053,4205,-167,295,112,1,7,11
1.72313E+12,-7326,-1779,4166,-140,308,-124,1,7,11
1.72313E+12,-7318,-1753,4103,-370,314,-115,1,7,11
1.72313E+12,-7312,-1743,3796,-372,342,-124,1,7,11
1.72313E+12,-7318,-1720,3760,-138,379,102,1,7,11
1.72313E+12,-7332,-1735,3757,-181,151,61,1,7,11
1.72313E+12,-7341,-1750,3752,-202,155,12,1,7,11
1.72313E+12,-7352,-1783,3756,-228,140,-304,1,7,11
1.72313E+12,-7346,-2077,3748,-235,355,-371,1,7,11
1.72313E+12,-7341,-2123,3749,-253,307,-178,1,7,11
1.72313E+12,-7336,-1921,3784,-530,256,-225,1,7,11
1.72313E+12,-7306,-1975,3815,-536,-75,-514,1,7,11
1.72313E+12,-7527,-2008,3835,-527,117,-544,1,7,11
1.72313E+12,-7467,-2018,3838,-517,75,-559,1,7,11
1.72313E+12,-7467,-2046,4135,-519,96,-554,1,7,11
1.72313E+12,-7480,-2023,4124,-208,120,-515,1,7,11
1.72313E+12,-7491,-1971,4096,-159,-92,-194,1,7,11
1.72313E+12,-7528,-2142,3810,-142,-25,-367,1,7,11
1.72313E+12,-7551,-2090,3784,-164,293,-266,1,7,11
1.72313E+12,-7336,-1732,3722,-185,348,89,1,7,11
1.72313E+12,-7385,-1850,3883,-221,143,-77,1,7,11
1.72313E+12,-7707,-1500,3573,-628,174,296,1,7,11
1.72313E+12,-7779,-1520,3872,-669,156,367,1,7,11
1.72313E+12,-7558,-1836,3943,-1002,224,164,1,7,11
1.72313E+12,-7771,-1898,3954,-1632,8,178,1,7,11
1.72313E+12,-7729,-1673,3938,-1815,-189,152,1,7,11
1.72313E+12,-7710,-1744,3943,-1732,-619,135,1,7,11
1.72313E+12,-7705,-1741,3892,-2123,-507,382,1,7,11
1.72313E+12,-7707,-1713,3851,-2039,-883,154,1,7,11
1.72313E+12,-7716,-1690,3570,-2281,-739,205,1,7,11
1.72313E+12,-7736,-1673,3558,-2850,-1109,532,1,7,11
1.72313E+12,-7765,-1682,3547,-2965,-1002,623,1,7,11
1.72313E+12,-7750,-1720,3561,-3640,-1183,477,1,7,11
1.72313E+12,-7723,-2070,3888,-3800,-1621,859,1,7,11
1.72313E+12,-7694,-1955,3725,-4087,-1516,746,1,7,11
1.72313E+12,-7374,-2346,3786,-4437,-1864,926,1,7,11
1.72313E+12,-7542,-2206,3835,-4382,-1863,1340,1,7,11
1.72313E+12,-7470,-2274,4165,-4214,-1506,1210,1,7,11
1.72313E+12,-7157,-2571,4223,-3946,-1620,1544,1,7,11
1.72313E+12,-7053,-2285,4185,-3631,-1217,1556,1,7,11
1.72313E+12,-7243,-2235,4147,-3390,-1297,1231,1,7,11
1.72313E+12,-7215,-2223,4144,-2984,-1151,1371,1,7,11
1.72313E+12,-7216,-2244,4127,-3108,-1044,983,1,7,11
1.72313E+12,-7283,-2256,4101,-2715,-675,1115,1,7,11
1.72313E+12,-7131,-2234,3830,-2824,-839,1038,1,7,11
1.72313E+12,-7480,-2238,3819,-2680,-503,1034,1,7,11
1.72313E+12,-7308,-2255,3800,-2246,-416,1088,1,7,11
1.72313E+12,-7365,-2245,3776,-2315,-589,1135,1,7,11
1.72313E+12,-7390,-2251,3792,-2166,-535,1148,1,7,11
1.72313E+12,-7331,-2269,3804,-1783,-541,1106,1,7,11
1.72313E+12,-7505,-2580,4107,-1701,-575,718,1,7,11
1.72313E+12,-7426,-2661,4176,-1893,-389,501,1,7,11
1.72313E+12,-7101,-2437,4208,-1535,-481,228,1,7,11
1.72313E+12,-7279,-2662,4160,-1409,-815,-29,1,7,11
1.72313E+12,-7263,-2436,4170,-1637,-813,31,1,7,11
1.72313E+12,-7052,-2476,3998,-1592,-791,-336,1,7,11
1.72313E+12,-7055,-2541,4084,-1227,-809,-371,1,7,11
1.72313E+12,-7279,-2833,4400,-1298,-805,-367,1,7,11
1.72313E+12,-7219,-2823,4405,-1077,-790,-346,1,7,11
1.72313E+12,-6865,-2838,4398,-641,-475,-329,1,7,11
1.72313E+12,-6819,-2534,4069,-450,-625,-317,1,7,11
1.72313E+12,-6832,-2494,4040,-552,-220,-307,1,7,11
1.72313E+12,-6900,-2517,4059,-226,-198,-277,1,7,11
1.72313E+12,-7221,-2534,4385,-357,-43,13,1,7,11
1.72313E+12,-7059,-2825,4267,-292,343,55,1,7,11
1.72313E+12,-7430,-2832,4621,26,146,112,1,7,11
1.72313E+12,-7118,-2679,4245,606,360,-88,1,7,11
1.72313E+12,-7046,-2202,4075,503,376,-81,1,7,11
1.72313E+12,-7287,-1995,4160,428,154,-103,1,7,11
1.72313E+12,-7279,-2085,3776,365,171,103,1,7,11
1.72313E+12,-7111,-1765,3767,-152,191,36,1,7,11
1.72313E+12,-7513,-2053,3838,-679,156,24,1,7,11
1.72313E+12,-7331,-2110,3837,-1348,293,83,1,7,11
1.72313E+12,-7691,-1967,4113,-1462,-64,-41,1,7,11
1.72313E+12,-7741,-2350,4163,-1721,42,142,1,7,11
1.72313E+12,-7722,-2181,4177,-2104,-142,584,1,7,11
1.72313E+12,-7398,-2220,4132,-2147,-599,486,1,7,11
1.72313E+12,-7326,-2235,4105,-1948,-786,856,1,7,11
1.72313E+12,-7524,-2266,4131,-2014,-695,684,1,7,11
1.72313E+12,-7449,-2291,4165,-2037,-1105,749,1,7,11
1.72313E+12,-7121,-2570,4221,-2018,-950,1041,1,7,11
1.72313E+12,-7057,-2291,3986,-1937,-1015,1076,1,7,11
1.72313E+12,-7243,-2280,4007,-2117,-1288,1109,1,7,11
1.72313E+12,-7205,-2226,3994,-1791,-1001,1123,1,7,11
1.72313E+12,-7212,-2401,3975,-1785,-923,1130,1,7,11
1.72313E+12,-7232,-2322,3979,-2105,-1093,1142,1,7,11
1.72313E+12,-7274,-2039,4008,-1990,-763,906,1,7,11
1.72313E+12,-7097,-1995,4044,-2383,-705,935,1,7,11
1.72313E+12,-7441,-2133,4028,-2281,-666,976,1,7,11
1.72313E+12,-7549,-1785,4047,-2517,-650,1311,1,7,11
1.72313E+12,-7331,-1693,4037,-2776,-679,1174,1,7,11
1.72313E+12,-7364,-1870,4030,-3068,-703,1568,1,7,11
1.72313E+12,-7357,-1813,4018,-3654,-763,1449,1,7,11
1.72313E+12,-7361,-1526,4039,-3758,-1097,1793,1,7,11
1.72313E+12,-7346,-1813,4090,-4374,-966,1854,1,7,11
1.72313E+12,-7539,-1855,4356,-4669,-1373,1878,1,7,11
1.72313E+12,-7491,-1671,4409,-4945,-1241,1862,1,7,11
1.72313E+12,-7448,-1747,4462,-5144,-1604,1821,1,7,11
1.72313E+12,-7151,-2080,4306,-5060,-1429,1502,1,7,11
1.72313E+12,-7165,-2161,4673,-5284,-1509,1661,1,7,11
1.72313E+12,-7461,-1925,4515,-5721,-1897,1542,1,7,11
1.72313E+12,-7493,-2101,4552,-5614,-2086,1359,1,7,11
1.72313E+12,-7525,-1782,4591,-5850,-2230,1280,1,7,11
1.72313E+12,-7551,-1723,4883,-6694,-2830,998,1,7,11
1.72313E+12,-7515,-1765,4958,-7258,-2987,1022,1,7,11
1.72313E+12,-7111,-2111,4975,-7578,-3703,1316,1,7,11
1.72313E+12,-6878,-1954,4914,-8142,-4114,1356,1,7,11
1.72313E+12,-6633,-2406,4870,-8480,-4399,1383,1,7,11
1.72313E+12,-6712,-2591,4549,-9501,-4302,1390,1,7,11
1.72313E+12,-6361,-2509,4501,-9720,-4621,1156,1,7,11
1.72313E+12,-6384,-2800,4593,-10159,-4622,1217,1,7,11
1.72313E+12,-6389,-3334,4925,-10614,-4648,1586,1,7,11
1.72313E+12,-6360,-3306,4942,-10615,-4648,1470,1,7,11
1.72313E+12,-6287,-3461,4868,-10212,-4347,1898,1,7,11
1.72313E+12,-6439,-3582,4490,-10267,-4237,2073,1,7,11
1.72313E+12,-6100,-3926,4643,-10072,-4056,1962,1,7,11
1.72313E+12,-6046,-3791,4609,-9645,-4113,2321,1,7,11
1.72313E+12,-6257,-4218,4632,-9414,-3924,2374,1,7,11
1.72313E+12,-6211,-4087,4592,-9314,-3477,2362,1,7,11
1.72313E+12,-6235,-4425,4296,-8654,-3260,2312,1,7,11
1.72313E+12,-6023,-4260,4243,-8488,-3072,1992,1,7,11
1.72313E+12,-6049,-4313,4433,-8063,-3171,2167,1,7,11
1.72313E+12,-6032,-4671,4375,-7414,-2778,2076,1,7,11
1.72313E+12,-6038,-4570,4372,-7051,-2888,1688,1,7,11
1.72313E+12,-6262,-4961,4362,-6934,-2506,1421,1,7,11
1.72313E+12,-6203,-4786,4075,-6514,-2609,1190,1,7,11
1.72313E+12,-6195,-5136,4069,-5883,-2249,930,1,7,11
1.72313E+12,-6197,-5203,4369,-5670,-2189,667,1,7,11
1.72313E+12,-6149,-5184,4361,-5056,-2216,412,1,7,11
1.72313E+12,-5799,-4816,4035,-4942,-2280,211,1,7,11
1.72313E+12,-5936,-4885,4159,-4350,-2616,355,1,7,11
1.72313E+12,-5571,-4695,3749,-4399,-2440,316,1,7,11
1.72313E+12,-5743,-4308,3895,-4068,-2523,312,1,7,11
1.72313E+12,-5672,-4250,3547,-4057,-2865,318,1,7,11
1.72313E+12,-5652,-4291,3468,-4085,-2908,333,1,7,11
1.72313E+12,-5712,-4645,3459,-4377,-2889,365,1,7,11
1.72313E+12,-5592,-4736,3460,-4075,-2836,155,1,7,11
1.72313E+12,-5854,-4508,3685,-4210,-2477,512,1,7,11
1.72313E+12,-6297,-4503,3318,-3821,-2676,836,1,7,11
1.72313E+12,-6716,-4579,3239,-4100,-2466,1124,1,7,11
1.72313E+12,-6542,-4743,3209,-4182,-2518,1362,1,7,11
1.72313E+12,-6623,-5243,3218,-3992,-2555,1229,1,7,11
1.72313E+12,-6822,-5249,3261,-4004,-2543,1248,1,7,11
1.72313E+12,-7116,-5740,3614,-3998,-2537,1248,1,7,11
1.72313E+12,-7385,-5896,3475,-4187,-2848,1274,1,7,11
1.72313E+12,-7776,-5980,3864,-3798,-2932,1628,1,7,11
1.72313E+12,-7718,-5995,3916,-3564,-2743,1502,1,7,11
1.72313E+12,-7515,-5890,3847,-3272,-2744,1871,1,7,11
1.72313E+12,-7227,-5728,3496,-3061,-2694,1910,1,7,11
1.72313E+12,-6942,-5256,3647,-3165,-2890,1848,1,7,11
1.72313E+12,-6658,-5014,3296,-2815,-2848,1470,1,7,11
1.72313E+12,-6126,-4757,3437,-2752,-2555,1573,1,7,11
1.72313E+12,-5864,-4483,3335,-2703,-2511,1170,1,7,11
1.72313E+12,-5576,-4479,2945,-2931,-2486,1311,1,7,11
1.72313E+12,-5288,-4004,2806,-2694,-2445,948,1,7,11
1.72313E+12,-5047,-3835,2698,-2772,-2634,1080,1,7,11
1.72313E+12,-5179,-3759,2932,-3154,-2270,694,1,7,11
1.72313E+12,-5213,-3729,2721,-3004,-2399,849,1,7,11
1.72313E+12,-5092,-3720,3087,-3064,-2327,807,1,7,11
1.72313E+12,-5359,-3724,3195,-3337,-1994,847,1,7,11
1.72313E+12,-6008,-3815,3049,-3363,-2141,759,1,7,11
1.72313E+12,-6279,-4048,3224,-3261,-1702,1310,1,7,11
1.72313E+12,-7001,-4387,3841,-3210,-1890,1639,1,7,11
1.72313E+12,-7143,-4455,3886,-3385,-1897,1743,1,7,11
1.72313E+12,-7488,-4319,3967,-3234,-1841,2363,1,7,11
1.72313E+12,-7139,-4713,3806,-3473,-1880,2308,1,7,11
1.72313E+12,-7134,-4746,4052,-3749,-1879,2226,1,7,11
1.72313E+12,-7440,-5044,4651,-4212,-1822,2036,1,7,11
1.72313E+12,-7446,-5486,4963,-4200,-1887,2051,1,7,11
1.72313E+12,-7080,-5446,5154,-3738,-1773,1830,1,7,11
1.72313E+12,-7038,-5207,5174,-3022,-1962,1646,1,7,11
1.72313E+12,-6398,-4905,5121,-2912,-2359,1263,1,7,11
1.72313E+12,-6021,-4655,4844,-2677,-2401,1182,1,7,11
1.72313E+12,-5808,-4227,4852,-2277,-2044,1387,1,7,11
1.72313E+12,-5829,-4397,5214,-2203,-2120,1401,1,7,11
1.72313E+12,-6219,-4375,5099,-2188,-1754,1236,1,7,11
1.72313E+12,-6033,-4383,5474,-2180,-1768,1644,1,7,11
1.72313E+12,-6200,-4036,5502,-2398,-2098,1804,1,7,11
1.72313E+12,-5766,-4200,5442,-2385,-2116,1692,1,7,11
1.72313E+12,-5505,-4101,5013,-2408,-2080,2048,1,7,11
1.72313E+12,-5504,-3802,4857,-2277,-1675,1777,1,7,11
1.72313E+12,-5401,-4116,4794,-2445,-1658,1884,1,7,11
1.72313E+12,-5417,-4185,4760,-2503,-1353,1661,1,7,11
1.72313E+12,-5488,-4205,4959,-2441,-1058,1153,1,7,11
1.72313E+12,-5316,-3975,4918,-2580,-786,949,1,7,11
1.72313E+12,-5347,-3995,4869,-2402,-576,1042,1,7,11
1.72313E+12,-5351,-4014,4582,-2158,-153,872,1,7,11
1.72313E+12,-5324,-4022,4539,-1869,-294,398,1,7,11
1.72313E+12,-5363,-4071,4520,-1589,77,161,1,7,11
1.72313E+12,-5647,-4398,4519,-1304,-95,-80,1,7,11
1.72313E+12,-5678,-4450,4518,-754,-41,-340,1,7,11
1.72313E+12,-5744,-4245,4553,-484,267,-585,1,7,11
1.72313E+12,-5588,-4293,4580,-195,312,-778,1,7,11
1.72313E+12,-5986,-4617,4888,71,133,-646,1,7,11
1.72313E+12,-6160,-4689,4917,345,223,-718,1,7,11
1.72313E+12,-6131,-4600,4939,529,618,-734,1,7,11
1.72313E+12,-6761,-5406,5007,251,850,-693,1,7,11
1.72313E+12,-6987,-5450,5213,422,856,-648,1,7,11
1.72313E+12,-6542,-4999,4890,1113,635,-732,1,7,11
1.72313E+12,-6380,-4863,4348,1389,392,-1046,1,7,11
1.72313E+12,-6320,-4338,4093,1239,413,-1063,1,7,11
1.72313E+12,-6180,-4432,4127,1197,458,-1052,1,7,11
1.72313E+12,-5867,-4372,3718,1360,811,-731,1,7,11
1.72313E+12,-5867,-4398,3575,1019,877,-712,1,7,11
1.72313E+12,-6228,-4256,3459,946,732,-707,1,7,11
1.72313E+12,-6412,-4640,3638,1110,1066,-678,1,7,11
1.72313E+12,-6295,-4660,3452,1095,1073,-896,1,7,11
1.72313E+12,-6682,-4615,2970,1085,1099,-821,1,7,11
1.72313E+12,-6538,-4311,2781,762,1119,-456,1,7,11
1.72313E+12,-6938,-4334,2691,649,1137,-574,1,7,11
1.72313E+12,-6812,-4672,2927,829,1140,-152,1,7,11
1.72313E+12,-7221,-4499,2939,824,1145,-259,1,7,11
1.72313E+12,-7152,-4550,2705,866,904,-106,1,7,11
1.72313E+12,-7302,-4499,2689,717,1144,316,1,7,11
1.72313E+12,-7347,-4641,2908,1059,1098,244,1,7,11
1.72313E+12,-7507,-4225,2887,1108,757,403,1,7,11
1.72313E+12,-7098,-4059,2872,1136,649,501,1,7,11
1.72313E+12,-7191,-4120,2843,898,775,774,1,7,11
1.72313E+12,-7028,-3927,2549,1114,622,461,1,7,11
1.72313E+12,-6916,-3518,2535,717,512,627,1,7,11
1.72313E+12,-6577,-3486,2860,494,179,537,1,7,11
1.72313E+12,-6737,-3699,2925,587,352,159,1,7,11
1.72313E+12,-6666,-3697,2937,151,337,312,1,7,11
1.72313E+12,-6396,-3510,2714,-75,355,-13,1,7,11
1.72313E+12,-6698,-3878,2711,-314,176,-92,1,7,11
1.72313E+12,-6959,-4211,3097,-446,385,-124,1,7,11
1.72313E+12,-6889,-4446,3053,-880,449,123,1,7,11
1.72313E+12,-7182,-4450,3007,-872,427,43,1,7,11
1.72313E+12,-7279,-4234,3056,-835,497,90,1,7,11
1.72313E+12,-7054,-4226,3351,-799,453,-93,1,7,11
1.72313E+12,-7085,-4478,3424,-477,620,283,1,7,11
1.72313E+12,-7289,-4425,3208,-622,196,144,1,7,11
1.72313E+12,-7221,-4376,3265,-245,281,246,1,7,11
1.72313E+12,-6830,-4021,3255,-335,123,594,1,7,11
1.72313E+12,-6921,-4185,3222,40,38,413,1,7,11
1.72313E+12,-6765,-4119,3204,73,54,451,1,7,11
1.72313E+12,-6395,-4104,3214,58,-113,443,1,7,11
1.72313E+12,-6322,-4114,3228,22,265,634,1,7,11
1.72313E+12,-6352,-4149,3277,-287,130,521,1,7,11
1.72313E+12,-6706,-4161,3309,-324,205,134,1,7,11
1.72313E+12,-6599,-4155,3594,-365,234,286,1,7,11
1.72313E+12,-6992,-4124,3635,-157,191,-11,1,7,11
1.72313E+12,-6822,-4110,3629,-190,354,262,1,7,11
1.72313E+12,-6862,-3814,3611,-218,256,339,1,7,11
1.72313E+12,-6857,-3778,3598,-253,-82,199,1,7,11
1.72313E+12,-6800,-3776,3585,-560,113,572,1,7,11
1.72313E+12,-6978,-3803,3305,-604,85,403,1,7,11
1.72313E+12,-6622,-3844,3267,-634,79,422,1,7,11
1.72313E+12,-6566,-4151,3273,-427,118,628,1,7,11
1.72313E+12,-6560,-4216,3309,-486,-54,229,1,7,11
1.72313E+12,-6575,-4011,3609,-474,-13,129,1,7,11
1.72313E+12,-6610,-4049,3646,-431,265,295,1,7,11
1.72313E+12,-6645,-4057,3653,-618,276,-29,1,7,11
1.72313E+12,-6936,-4053,3661,-552,278,-53,1,7,11
1.72313E+12,-6940,-4032,3647,-226,271,-45,1,7,11
1.72313E+12,-6941,-4010,3633,-172,278,-20,1,7,11
1.72313E+12,-6943,-3996,3628,-131,278,269,1,7,11
1.72313E+12,-6942,-4222,3605,-353,266,297,1,7,11
1.72313E+12,-6929,-4197,3588,-349,-15,310,1,7,11
1.72313E+12,-6913,-4187,3319,-367,-38,310,1,7,11
1.72313E+12,-6918,-4186,3314,-131,-50,295,1,7,11
1.72313E+12,-6913,-4173,3298,-138,-63,267,1,7,11
1.72313E+12,-6924,-4167,3287,-154,-69,-14,1,7,11
1.72313E+12,-6942,-4166,3276,-165,-83,-30,1,7,11
1.72313E+12,-6940,-4169,3255,-170,-108,-46,1,7,11
1.72313E+12,-6936,-4178,3239,-171,-127,-65,1,7,11
1.72313E+12,-6946,-4173,3216,-164,123,-89,1,7,11
1.72313E+12,-6952,-4182,3203,-155,112,-107,1,7,11
1.72313E+12,-6964,-4184,3451,-384,110,124,1,7,11
1.72313E+12,-6972,-4172,3442,-352,105,103,1,7,11
1.72313E+12,-6979,-4173,3429,-327,99,89,1,7,11
1.72313E+12,-6979,-4164,3427,-310,88,67,1,7,11
1.72313E+12,-6972,-4161,3431,-315,65,32,1,7,11
1.72313E+12,-6960,-4174,3206,-341,20,-267,1,7,11
1.72313E+12,-6934,-4183,3228,-376,-297,-323,1,7,11
1.72313E+12,-6924,-4188,3253,-156,-349,-380,1,7,11
1.72313E+12,-6927,-4189,3281,-194,-132,-158,1,7,11
1.72313E+12,-6918,-4202,3321,-222,-161,-165,1,7,11
1.72313E+12,-6636,-4218,3597,-223,-185,-149,1,7,11
1.72313E+12,-6601,-3993,3630,-213,-174,-382,1,7,11
1.72313E+12,-6543,-4048,3632,-175,-136,-358,1,7,11
1.72313E+12,-6758,-4085,3612,-364,-326,-344,1,7,11
1.72313E+12,-6745,-4388,3615,-282,24,-355,1,7,11
1.72313E+12,-6735,-4422,3623,114,-85,-377,1,7,11
1.72313E+12,-6743,-4441,3623,-34,-8,-159,1,7,11
1.72313E+12,-6783,-4429,3619,330,293,-204,1,7,11
1.72313E+12,-6562,-4395,3622,152,293,-234,1,7,11
1.72313E+12,-6570,-4376,3642,193,265,-238,1,7,11
1.72313E+12,-6546,-4362,3675,209,-35,-229,1,7,11
1.72313E+12,-6540,-4086,3477,204,-74,-218,1,7,11
1.72313E+12,-6542,-4059,3506,181,-115,-185,1,7,11
1.72313E+12,-6555,-4014,3523,150,101,-132,1,7,11
1.72313E+12,-6574,-3979,3527,368,63,-303,1,7,11
1.72313E+12,-6585,-4197,3535,298,21,109,1,7,11
1.72313E+12,-6583,-4146,3518,-14,0,-42,1,7,11
1.72313E+12,-6588,-4129,3520,-102,-268,308,1,7,11
1.72313E+12,-6586,-4128,3528,71,-282,380,1,7,11
1.72313E+12,-6582,-4133,3539,13,-295,173,1,7,11
1.72313E+12,-6569,-4143,3549,-278,-304,196,1,7,11
1.72313E+12,-6548,-4145,3542,-300,-312,190,1,7,11
1.72313E+12,-6543,-4139,3527,-316,-306,161,1,7,11
1.72313E+12,-6530,-4147,3524,-339,-301,379,1,7,11
1.72313E+12,-6760,-4168,3528,-365,-298,328,1,7,11
1.72313E+12,-6730,-4215,3553,-134,-291,261,1,7,11
1.72313E+12,-6702,-4007,3570,-383,-284,-78,1,7,11
1.72313E+12,-6691,-4023,3844,-364,-273,86,1,7,11
1.72313E+12,-6710,-4012,3858,-335,-263,12,1,7,11
1.72313E+12,-6749,-3985,3863,-310,-259,-272,1,7,11
1.72313E+12,-6773,-4207,3857,-295,-259,-257,1,7,11
1.72313E+12,-6780,-4184,3853,-294,1,53,1,7,11
1.72313E+12,-6763,-4174,3854,-306,13,119,1,7,11
1.72313E+12,-6732,-4184,3879,-312,32,-86,1,7,11
1.72313E+12,-6685,-4183,3867,-283,54,-80,1,7,11
1.72313E+12,-6388,-4156,3567,-257,101,-116,1,7,11
1.72313E+12,-6393,-4119,3548,0,-87,77,1,7,11
1.72313E+12,-6682,-4105,3527,-261,-22,26,1,7,11
1.72313E+12,-6745,-4113,3505,-299,307,-262,1,7,11
1.72313E+12,-6604,-4137,3514,-349,361,-271,1,7,11
1.72313E+12,-6976,-4174,3542,-384,356,19,1,7,11
1.72313E+12,-6817,-4192,3553,-373,300,86,1,7,11
1.72313E+12,-6856,-4182,3544,-343,-41,-65,1,7,11
1.72313E+12,-6864,-4152,3522,-303,-110,319,1,7,11
1.72313E+12,-6832,-4097,3490,-262,101,203,1,7,11
1.72313E+12,-7026,-3809,3465,7,95,577,1,7,11
1.72313E+12,-6961,-3794,3471,9,119,392,1,7,11
1.72313E+12,-6913,-3794,3475,7,-88,397,1,7,11
1.72313E+12,-6621,-3787,3485,11,-26,556,1,7,11
1.72313E+12,-6620,-3766,3487,10,258,198,1,7,11
1.72313E+12,-6628,-3749,3481,-267,258,340,1,7,11
1.72313E+12,-6646,-3743,3470,-305,-8,-34,1,7,11
1.72313E+12,-6930,-3742,3462,-360,-22,-128,1,7,11
1.72313E+12,-6958,-3762,3472,-172,-45,59,1,7,11
1.72313E+12,-6984,-3795,3486,-219,-83,22,1,7,11
1.72313E+12,-6971,-3826,3487,-242,115,7,1,7,11
1.72313E+12,-6940,-4130,3491,-244,68,-257,1,7,11
1.72313E+12,-6654,-4166,3484,-220,36,-261,1,7,11
1.72313E+12,-6618,-4203,3480,-187,20,-266,1,7,11
1.72313E+12,-6585,-3973,3475,-139,26,-281,1,7,11
1.72313E+12,-6567,-4004,3493,-328,48,-298,1,7,11
1.72313E+12,-6562,-4012,3506,7,64,-319,1,7,11
1.72313E+12,-6549,-4008,3510,85,64,-342,1,7,11
1.72313E+12,-6548,-3995,3521,-109,62,-367,1,7,11
1.72313E+12,-6563,-4219,3527,-49,57,-381,1,7,11
1.72313E+12,-6559,-4187,3536,-11,37,-374,1,7,11
1.72313E+12,-6575,-4148,3546,262,28,-363,1,7,11
1.72313E+12,-6584,-4121,3561,259,15,-337,1,7,11
1.72313E+12,-6599,-3821,3570,258,15,-299,1,7,11
1.72313E+12,-6604,-3798,3847,-23,22,22,1,7,11
1.72313E+12,-6609,-3779,3872,-41,46,87,1,7,11
1.72313E+12,-6588,-3766,3872,-58,70,-115,1,7,11
1.72313E+12,-6569,-3764,3877,-95,111,-88,1,7,11
1.72313E+12,-6566,-3782,3891,118,-95,-91,1,7,11
1.72313E+12,-6595,-3793,3903,94,-36,-109,1,7,11
1.72313E+12,-6618,-3774,3881,88,-1,-123,1,7,11
1.72313E+12,-6633,-3781,3862,46,283,126,1,7,11
1.72313E+12,-6920,-3806,3872,-263,299,113,1,7,11
1.72313E+12,-6934,-3836,3863,-291,272,94,1,7,11
1.72313E+12,-6939,-4104,3850,-290,-33,68,1,7,11
1.72313E+12,-6950,-4098,3570,-284,-93,49,1,7,11
1.72313E+12,-6934,-3827,3553,-289,99,42,1,7,11
1.72313E+12,-6917,-3832,3560,-308,57,43,1,7,11
1.72313E+12,-6648,-4098,3582,-306,31,42,1,7,11
1.72313E+12,-6640,-3808,3562,40,23,54,1,7,11
1.72313E+12,-6634,-3793,3534,64,40,72,1,7,11
1.72313E+12,-6617,-3782,3496,69,68,86,1,7,11
1.72313E+12,-6589,-3794,3466,62,90,88,1,7,11
1.72313E+12,-6536,-4099,3484,31,106,66,1,7,11
1.72313E+12,-6732,-4190,3536,19,112,3,1,7,11
1.72313E+12,-6720,-4017,3853,61,127,-356,1,7,11
1.72313E+12,-6740,-4049,3904,-97,-122,-204,1,7,11
1.72313E+12,-6769,-4039,3916,266,-106,-515,1,7,11
1.72313E+12,-6538,-3985,3924,359,-78,-516,1,7,11
1.72313E+12,-6550,-4202,3943,167,-47,-221,1,7,11
1.72313E+12,-6536,-4186,3966,195,-25,-161,1,7,11
1.72313E+12,-6529,-4170,3735,212,-14,-366,1,7,11
1.72313E+12,-6775,-4132,3743,214,-16,-339,1,7,11
1.72313E+12,-6771,-3825,3753,181,-23,-328,1,7,11
1.72313E+12,-6775,-3778,3755,133,-21,-321,1,7,11
1.72313E+12,-6530,-3731,3752,334,-9,-301,1,7,11
1.72313E+12,-6545,-3951,3735,278,270,-272,1,7,11
1.72313E+12,-6563,-3937,3729,-35,296,20,1,7,11
1.72313E+12,-6580,-3935,3713,-92,325,50,1,7,11
1.72313E+12,-6613,-3937,3938,117,359,71,1,7,11
1.72313E+12,-6656,-3937,3905,72,133,89,1,7,11
1.72313E+12,-6921,-3967,3882,18,138,112,1,7,11
1.72313E+12,-6648,-3762,3846,-289,128,112,1,7,11
1.72313E+12,-6609,-3812,3562,-324,130,79,1,7,11
1.72313E+12,-6583,-4131,3548,-348,148,20,1,7,11
1.72313E+12,-6569,-4204,3549,-344,155,-308,1,7,11
1.72313E+12,-6595,-4005,3514,49,163,-184,1,7,11
1.72313E+12,-6999,-3969,3663,145,347,-96,1,7,11
1.72313E+12,-7033,-4205,3681,212,293,286,1,7,11
1.72313E+12,-7039,-4173,3684,550,-42,148,1,7,11
1.72313E+12,-7024,-4115,3690,630,-116,242,1,7,11
1.72313E+12,-7010,-3808,3460,421,82,556,1,7,11
1.72313E+12,-6986,-3745,3491,467,37,578,1,7,11
1.72313E+12,-6983,-3915,3525,499,6,568,1,7,11
1.72313E+12,-6981,-3552,3543,484,-277,541,1,7,11
1.72313E+12,-6969,-3484,3576,403,-313,248,1,7,11
1.72313E+12,-6951,-3469,3888,548,-359,191,1,7,11
1.72313E+12,-6921,-3477,3944,190,-158,367,1,7,11
1.72313E+12,-6633,-3494,3752,361,-203,268,1,7,11
1.72313E+12,-6609,-3516,3813,292,-237,-90,1,7,11
1.72313E+12,-6574,-3527,3830,-1,-514,72,1,7,11
1.72313E+12,-6563,-3551,4140,-41,-238,1,1,7,11
1.72313E+12,-6558,-3580,4173,-66,-200,-301,1,7,11
1.72313E+12,-6534,-3878,4206,-72,-152,-324,1,7,11
1.72313E+12,-6760,-3882,4218,-55,-308,-348,1,7,11
1.72313E+12,-6769,-3889,3996,-45,30,-355,1,7,11
1.72313E+12,-6784,-3876,4023,-18,101,-351,1,7,11
1.72313E+12,-6560,-3576,4056,262,-97,-327,1,7,11
1.72313E+12,-6591,-3528,4091,-8,-72,-284,1,7,11
1.72313E+12,-6631,-3487,4366,-46,-66,32,1,7,11
1.72313E+12,-6932,-3705,4362,-98,-79,103,1,7,11
1.72313E+12,-6957,-3653,4078,94,-109,-77,1,7,11
1.72313E+12,-6968,-3611,4032,-263,108,256,1,7,11
1.72313E+12,-6973,-3599,4001,-145,71,326,1,7,11
1.72313E+12,-6958,-3625,3982,-539,24,373,1,7,11
1.72313E+12,-6923,-3677,4215,-392,-282,380,1,7,11
1.72313E+12,-6635,-3486,4205,-471,-325,348,1,7,11
1.72313E+12,-6604,-3550,4195,-505,-362,294,1,7,11
1.72313E+12,-6573,-3867,4193,-494,-380,-31,1,7,11
1.72313E+12,-6550,-3911,4195,-445,-129,-97,1,7,11
1.72313E+12,-6782,-3941,4179,-628,-373,100,1,7,11
1.72313E+12,-6768,-3963,4172,-546,-345,54,1,7,11
1.72313E+12,-6761,-3713,4161,-198,-307,27,1,7,11
1.72313E+12,-6750,-3733,4169,-378,-266,22,1,7,11
1.72313E+12,-6735,-3745,4184,-297,27,19,1,7,11
1.72313E+12,-6710,-3752,4201,37,65,9,1,7,11
1.72313E+12,-6706,-3743,4215,101,115,-266,1,7,11
1.72313E+12,-6731,-3958,4209,-95,-93,-279,1,7,11
1.72313E+12,-6757,-3920,4206,-64,-52,-271,1,7,11
1.72313E+12,-6784,-3892,3968,-62,-16,8,1,7,11
1.72313E+12,-6553,-3880,3980,-66,257,34,1,7,11
1.72313E+12,-6560,-3859,3972,-72,263,51,1,7,11
1.72313E+12,-6568,-3842,3973,-89,264,59,1,7,11
1.72313E+12,-6570,-3846,4002,-118,260,70,1,7,11
1.72313E+12,-6577,-3846,4017,-119,-13,79,1,7,11
1.72313E+12,-6599,-3564,4022,-98,-23,88,1,7,11
1.72313E+12,-6656,-3526,4030,-82,-25,-110,1,7,11
1.72313E+12,-6926,-3472,4016,-71,-32,-40,1,7,11
1.72313E+12,-6935,-3685,3997,-107,-25,298,1,7,11
1.72313E+12,-6933,-3642,4219,96,-9,367,1,7,11
1.72313E+12,-6939,-3620,4191,7,272,160,1,7,11
1.72313E+12,-6960,-3616,4176,-363,301,189,1,7,11
1.72313E+12,-6994,-3623,4161,-211,309,205,1,7,11
1.72313E+12,-7002,-3623,4127,-533,296,206,1,7,11
1.72313E+12,-7013,-3627,3833,-592,278,190,1,7,11
1.72313E+12,-7007,-3661,3824,-637,-5,171,1,7,11
1.72313E+12,-7001,-3458,3818,-396,-34,130,1,7,11
1.72313E+12,-6982,-3519,3829,-623,-66,320,1,7,11
1.72313E+12,-6945,-3569,3830,-552,-112,-30,1,7,11
1.72313E+12,-6653,-3866,3834,-208,108,112,1,7,11
1.72313E+12,-6641,-3892,4103,-356,83,-264,1,7,11
1.72313E+12,-6636,-3897,4116,17,62,-363,1,7,11
1.72313E+12,-6625,-3889,4139,118,53,-182,1,7,11
1.72313E+12,-6616,-3884,4163,-56,54,-232,1,7,11
1.72313E+12,-6600,-3880,4203,278,57,-523,1,7,11
1.72313E+12,-6585,-3845,4218,346,74,-553,1,7,11
1.72313E+12,-6557,-3555,3972,380,108,-567,1,7,11
1.72313E+12,-6569,-3528,3980,128,-98,-570,1,7,11
1.72313E+12,-6594,-3499,3991,373,-51,-552,1,7,11
1.72313E+12,-6621,-3476,3993,338,-13,-517,1,7,11
1.72313E+12,-6628,-3462,3976,284,272,-212,1,7,11
1.72313E+12,-6634,-3458,4215,-43,296,-171,1,7,11
1.72313E+12,-6636,-3468,4214,91,303,-376,1,7,11
1.72313E+12,-6637,-3487,4211,17,306,-347,1,7,11
1.72313E+12,-6629,-3511,4206,-295,296,-316,1,7,11
1.72313E+12,-6626,-3537,4199,-341,289,-295,1,7,11
1.72313E+12,-6613,-3557,4184,-375,277,-282,1,7,11
1.72313E+12,-6595,-3844,4167,-147,270,-286,1,7,11
1.72313E+12,-6578,-3876,4145,-165,274,-298,1,7,11
1.72313E+12,-6563,-3905,4127,-162,281,-321,1,7,11
1.72313E+12,-6564,-3942,4127,-145,295,-344,1,7,11
1.72313E+12,-6577,-3959,4127,-364,319,-355,1,7,11
1.72313E+12,-6585,-3713,4116,-309,355,-344,1,7,11
1.72313E+12,-6592,-3732,4103,7,378,-327,1,7,11
1.72313E+12,-6579,-3755,3835,118,139,-316,1,7,11
1.72313E+12,-6572,-3768,3825,-49,162,-325,1,7,11
1.72313E+12,-6575,-3773,3800,297,191,-346,1,7,11
1.72313E+12,-6587,-3762,3789,129,216,-369,1,7,11
1.72313E+12,-6607,-3761,3776,199,235,-130,1,7,11
1.72313E+12,-6631,-3750,3774,530,234,-138,1,7,11
1.72313E+12,-6632,-3718,3766,597,205,-138,1,7,11
1.72313E+12,-6613,-3940,3781,630,156,-136,1,7,11
1.72313E+12,-6595,-3908,3801,390,351,-141,1,7,11
1.72313E+12,-6574,-3876,3816,389,285,-157,1,7,11
1.72313E+12,-6573,-3584,4099,614,-20,-169,1,7,11
1.72313E+12,-6576,-3561,4148,559,-49,-154,1,7,11
1.72313E+12,-6575,-3556,4201,236,-64,-370,1,7,11
1.72313E+12,-6573,-3555,3990,185,-64,-322,1,7,11
1.72313E+12,-6578,-3560,4033,142,-46,-275,1,7,11
1.72313E+12,-6580,-3546,4057,369,-24,32,1,7,11
1.72313E+12,-6595,-3531,4069,344,268,87,1,7,11
1.72313E+12,-6608,-3489,4062,320,311,-111,1,7,11
1.72313E+12,-6632,-3712,4047,269,353,-52,1,7,11
1.72313E+12,-6653,-3678,4009,-49,373,259,1,7,11
1.72313E+12,-6920,-3660,4221,115,381,296,1,7,11
1.72313E+12,-6932,-3669,4200,15,372,309,1,7,11
1.72313E+12,-6937,-3685,4172,-319,342,304,1,7,11
1.72313E+12,-6951,-3694,4135,-370,305,283,1,7,11
1.72313E+12,-6975,-3702,4101,-142,268,258,1,7,11
1.72313E+12,-7001,-3712,3816,-156,-28,-9,1,7,11
1.72313E+12,-7000,-3481,3808,-154,-84,-13,1,7,11
1.72313E+12,-6982,-3523,3819,-381,119,-30,1,7,11
1.72313E+12,-6949,-3559,3823,-317,75,-60,1,7,11
1.72313E+12,-6651,-3569,3830,18,44,-111,1,7,11
1.72313E+12,-6629,-3567,4103,101,28,86,1,7,11
1.72313E+12,-6599,-3576,4137,-87,20,30,1,7,11
1.72313E+12,-6589,-3570,4187,-18,26,-280,1,7,11
1.72313E+12,-6586,-3555,3982,304,27,-324,1,7,11
1.72313E+12,-6579,-3522,4022,363,29,-353,1,7,11
1.72313E+12,-6585,-3480,4049,139,38,-357,1,7,11
1.72313E+12,-6596,-3680,4068,135,56,-339,1,7,11
1.72313E+12,-6605,-3650,4092,359,75,-303,1,7,11
1.72313E+12,-6608,-3625,4361,308,96,-260,1,7,11
1.72313E+12,-6628,-3322,4356,-1,123,57,1,7,11
1.72313E+12,-6655,-3293,4355,-75,-100,110,1,7,11
1.72313E+12,-6924,-3291,4082,81,-69,-118,1,7,11
1.72313E+12,-6931,-3296,4066,-276,-55,-68,1,7,11
1.72313E+12,-6951,-3307,4039,-370,-39,-18,1,7,11
1.72313E+12,-6968,-3311,4000,-192,-29,-1,1,7,11
1.72313E+12,-6978,-3586,3981,-522,-35,262,1,7,11
1.72313E+12,-6991,-3613,3969,-578,-58,263,1,7,11
1.72313E+12,-6997,-3643,4211,-609,-85,256,1,7,11
1.72313E+12,-6989,-3678,4204,-602,-117,-14,1,7,11
1.72313E+12,-6973,-3706,4188,-580,111,-44,1,7,11
1.72313E+12,-6957,-3472,4193,-542,93,-87,1,7,11
1.72313E+12,-6939,-3497,4194,-243,79,120,1,7,11
1.72313E+12,-6923,-3521,4204,-189,63,65,1,7,11
1.72313E+12,-6643,-3527,4206,-132,44,14,1,7,11
1.72313E+12,-6622,-3525,4199,-333,36,-292,1,7,11
1.72313E+12,-6614,-3526,4209,-287,39,-331,1,7,11
1.72313E+12,-6608,-3520,4205,14,44,-353,1,7,11
1.72313E+12,-6607,-3513,4212,55,56,-359,1,7,11
1.72313E+12,-6603,-3490,4213,91,66,-357,1,7,11
1.72313E+12,-6580,-3479,3976,98,70,-344,1,7,11
1.72313E+12,-6562,-3488,4008,85,77,-339,1,7,11
1.72313E+12,-6571,-3492,4037,79,89,-334,1,7,11
1.72313E+12,-6589,-3473,4048,71,98,-319,1,7,11
1.72313E+12,-6610,-3464,4061,37,110,-285,1,7,11
1.72313E+12,-6625,-3467,4071,-260,120,22,1,7,11
1.72313E+12,-6628,-3473,4061,-295,127,71,1,7,11
1.72313E+12,-6623,-3487,4044,-336,-119,111,1,7,11
1.72313E+12,-6623,-3499,4028,-369,-106,-116,1,7,11
1.72313E+12,-6616,-3518,4010,-135,-100,-98,1,7,11
1.72313E+12,-6606,-3527,3987,-135,-102,-95,1,7,11
1.72313E+12,-6601,-3531,3968,-134,-103,-111,1,7,11
1.72313E+12,-6615,-3539,4222,-374,-102,127,1,7,11
1.72313E+12,-6625,-3530,4216,-339,-119,115,1,7,11
1.72313E+12,-6635,-3511,4200,-300,116,114,1,7,11
1.72313E+12,-6622,-3498,4201,-276,93,114,1,7,11
1.72313E+12,-6612,-3496,4209,-263,76,100,1,7,11
1.72313E+12,-6603,-3499,3975,14,64,81,1,7,11
1.72313E+12,-6563,-3501,4216,30,55,55,1,7,11
1.72313E+12,-6545,-3528,3985,27,72,18,1,7,11
1.72313E+12,-6536,-3568,4030,35,94,-286,1,7,11
1.72313E+12,-6533,-3846,4077,80,113,-344,1,7,11
1.72313E+12,-6543,-3569,4089,-102,-117,-141,1,7,11
1.72313E+12,-6573,-3520,4355,-37,-75,-157,1,7,11
1.72313E+12,-6604,-3488,4385,-7,-41,-381,1,7,11
1.72313E+12,-6620,-3468,4421,270,-22,-324,1,7,11
1.72313E+12,-6624,-3697,4437,291,-3,-261,1,7,11
1.72313E+12,-6620,-3663,4408,297,282,87,1,7,11
1.72313E+12,-6625,-3623,4370,257,308,-112,1,7,11
1.72313E+12,-6637,-3595,4069,-75,341,-50,1,7,11
1.72313E+12,-6646,-3590,4038,83,368,265,1,7,11
1.72313E+12,-6918,-3607,4007,-261,378,309,1,7,11
1.72313E+12,-6938,-3616,3973,-324,370,337,1,7,11
1.72313E+12,-6957,-3632,4183,-366,344,345,1,7,11
1.72313E+12,-6967,-3650,4150,-141,304,334,1,7,11
1.72313E+12,-6982,-3672,4128,-158,-1,310,1,7,11
1.72313E+12,-6983,-3690,4117,-149,-63,274,1,7,11
1.72313E+12,-6975,-3459,4118,-383,-125,-33,1,7,11
1.72313E+12,-6954,-3482,4125,-335,77,-95,1,7,11
1.72313E+12,-6943,-3483,4151,-271,38,92,1,7,11
1.72313E+12,-6918,-3492,4182,56,3,30,1,7,11
1.72313E+12,-6638,-3498,3968,125,-272,-285,1,7,11
1.72313E+12,-6623,-3486,4010,-60,-281,-340,1,7,11
1.72313E+12,-6603,-3467,4038,-13,-280,-132,1,7,11
1.72313E+12,-6593,-3696,4071,265,-274,-168,1,7,11
1.72313E+12,-6596,-3673,4364,258,0,-182,1,7,11
1.72313E+12,-6605,-3651,4400,-15,21,-169,1,7,11
1.72313E+12,-6623,-3629,4414,-54,52,-384,1,7,11
1.72313E+12,-6634,-3615,4404,-115,90,-321,1,7,11
1.72313E+12,-6640,-3607,4391,68,-122,13,1,7,11
1.72313E+12,-6649,-3596,4364,-266,-77,102,1,7,11
1.72313E+12,-6914,-3602,4082,-351,-49,-65,1,7,11
1.72313E+12,-6913,-3622,4054,-172,-44,271,1,7,11
1.72313E+12,-6920,-3645,4032,-231,-55,333,1,7,11
1.72313E+12,-6926,-3665,4016,-527,-90,371,1,7,11
1.72313E+12,-6948,-3688,4010,-539,117,129,1,7,11
1.72313E+12,-6961,-3707,4003,-527,53,381,1,7,11
1.72313E+12,-6959,-3461,4009,-230,-260,367,1,7,11
1.72313E+12,-6932,-3461,4010,-167,-308,339,1,7,11
1.72313E+12,-6651,-3461,4020,-344,-323,296,1,7,11
1.72313E+12,-6609,-3464,4040,-259,-315,-11,1,7,11
1.72313E+12,-6576,-3466,4062,87,-300,-75,1,7,11
1.72313E+12,-6540,-3460,4083,-83,-276,57,1,7,11
1.72313E+12,-6773,-3702,4357,257,24,-296,1,7,11
1.72313E+12,-6773,-3683,4379,321,68,-382,1,7,11
1.72313E+12,-6534,-3663,4409,361,96,-179,1,7,11
1.72313E+12,-6544,-3655,4437,365,110,-205,1,7,11
1.72313E+12,-6563,-3637,4465,364,122,-208,1,7,11
1.72313E+12,-6576,-3629,4240,353,127,-187,1,7,11
1.72313E+12,-6578,-3623,4262,330,126,-150,1,7,11
1.72313E+12,-6559,-3638,4287,294,125,-361,1,7,11
1.72313E+12,-6540,-3649,4299,257,-120,-319,1,7,11
1.72313E+12,-6776,-3664,4318,-42,-97,-293,1,7,11
1.72313E+12,-6764,-3683,4325,-86,-62,-280,1,7,11
1.72313E+12,-6745,-3680,4314,-110,-17,-279,1,7,11
1.72313E+12,-6735,-3670,4275,116,298,-280,1,7,11
1.72313E+12,-6757,-3682,4252,57,376,-280,1,7,11
1.72313E+12,-6778,-3704,4256,15,176,-283,1,7,11
1.72313E+12,-6546,-3712,4242,0,216,-283,1,7,11
1.72313E+12,-6576,-3696,4470,-268,230,-274,1,7,11
1.72313E+12,-6604,-3661,4435,-288,214,3,1,7,11
1.72313E+12,-6616,-3620,4375,-323,184,48,1,7,11
1.72313E+12,-6606,-3589,4084,-129,156,101,1,7,11
1.72313E+12,-6583,-3325,4058,-211,134,-106,1,7,11
1.72313E+12,-6569,-3328,4040,-532,133,-70,1,7,11
1.72313E+12,-6555,-3585,4007,-589,154,-51,1,7,11
1.72313E+12,-6566,-3595,3979,-637,203,-38,1,7,11
1.72313E+12,-6587,-3596,4200,-409,517,-26,1,7,11
1.72313E+12,-6623,-3606,4177,-438,572,-19,1,7,11
1.72313E+12,-6654,-3630,4140,-447,621,-16,1,7,11
1.72313E+12,-6967,-3635,4101,-434,421,-19,1,7,11
1.72313E+12,-7024,-3636,3803,-413,451,-25,1,7,11
1.72313E+12,-6800,-3636,3769,-393,446,-45,1,7,11
1.72313E+12,-6835,-3643,3742,-623,435,-74,1,7,11
1.72313E+12,-6877,-3655,3730,-576,417,-106,1,7,11
1.72313E+12,-7173,-3647,3963,-255,639,-126,1,7,11
1.72313E+12,-7194,-3625,3953,-193,587,125,1,7,11
1.72313E+12,-7192,-3603,3938,-383,527,-122,1,7,11
1.72313E+12,-7183,-3592,3935,-317,210,-108,1,7,11
1.72313E+12,-6869,-3600,3948,-276,150,-106,1,7,11
1.72313E+12,-6826,-3620,3967,12,358,-125,1,7,11
1.72313E+12,-6801,-3634,3738,47,332,93,1,7,11
1.72313E+12,-6786,-3635,3759,88,323,25,1,7,11
1.72313E+12,-6792,-3632,3775,120,327,-264,1,7,11
1.72313E+12,-6814,-3618,3788,-107,345,-281,1,7,11
1.72313E+12,-6848,-3599,3789,-94,342,-276,1,7,11
1.72313E+12,-6878,-3319,3785,-94,316,-258,1,7,11
1.72313E+12,-6886,-3302,3768,-109,276,25,1,7,11
1.72313E+12,-6872,-3285,3748,97,-36,49,1,7,11
1.72313E+12,-6837,-3287,3733,47,-100,55,1,7,11
1.72313E+12,-6799,-3303,3735,1,100,42,1,7,11
1.72313E+12,-7010,-3328,3753,-289,49,7,1,7,11
1.72313E+12,-6979,-3605,3774,-306,15,-299,1,7,11
1.72313E+12,-6949,-3633,3805,-299,-275,-350,1,7,11
1.72313E+12,-6927,-3649,4099,-281,-298,-148,1,7,11
1.72313E+12,-6656,-3659,4130,10,-319,-197,1,7,11
1.72313E+12,-6647,-3656,4165,47,-324,-234,1,7,11
1.72313E+12,-6645,-3663,4215,70,-320,-248,1,7,11
1.72313E+12,-6639,-3674,4012,94,-313,-246,1,7,11
1.72313E+12,-6620,-3693,4057,126,-299,-239,1,7,11
1.72313E+12,-6597,-3697,4085,-94,-264,-238,1,7,11
1.72313E+12,-6588,-3696,4358,-69,64,-232,1,7,11
1.72313E+12,-6597,-3688,4368,-53,-105,-217,1,7,11
1.72313E+12,-6604,-3678,4360,-49,-10,-178,1,7,11
1.72313E+12,-6615,-3688,4082,-67,336,-134,1,7,11
1.72313E+12,-6650,-3696,4054,-97,161,-358,1,7,11
1.72313E+12,-6946,-3695,4011,-124,204,-338,1,7,11
1.72313E+12,-6981,-3680,4210,93,205,-325,1,7,11
1.72313E+12,-7031,-3674,4175,27,168,-317,1,7,11
1.72313E+12,-6810,-3680,4163,-293,350,-295,1,7,11
1.72313E+12,-6813,-3692,4146,-336,-6,-271,1,7,11
1.72313E+12,-6797,-3706,4152,-364,-108,8,1,7,11
1.72313E+12,-7025,-3462,4155,-365,63,23,1,7,11
1.72313E+12,-6989,-3460,4155,-342,4,25,1,7,11
1.72313E+12,-6944,-3696,4156,-310,-285,17,1,7,11
1.72313E+12,-6929,-3685,4165,-292,-293,-5,1,7,11
1.72313E+12,-6921,-3678,4191,-287,-292,-275,1,7,11
1.72313E+12,-6915,-3667,4199,-280,-292,-288,1,7,11
1.72313E+12,-6648,-3653,4205,-284,-289,-306,1,7,11
1.72313E+12,-6637,-3670,3971,-319,-285,-319,1,7,11
1.72313E+12,-6623,-3696,3994,-384,-287,-334,1,7,11
1.72313E+12,-6614,-3476,4008,-168,-286,-348,1,7,11
1.72313E+12,-6596,-3507,4018,-189,-288,-362,1,7,11
1.72313E+12,-6586,-3535,4017,-197,-277,-369,1,7,11
