timestamp,ax,ay,az,gx,gy,gz,Label1,Label2,Label3
1.72313E+12,-8007,-1630,2796,2644,422,-133,1,7,11
1.72313E+12,-7953,-1570,2758,2637,452,-158,1,7,11
1.72313E+12,-7957,-1551,2756,2277,799,-156,1,7,11
1.72313E+12,-7975,-1547,2772,2239,853,-130,1,7,11
1.72313E+12,-7996,-1542,2810,2380,872,-342,1,7,11
1.72313E+12,-7994,-1540,3095,2311,843,-299,1,7,11
1.72313E+12,-7979,-1269,3079,1992,794,-284,1,7,11
1.72313E+12,-8012,-1260,2795,2162,777,-294,1,7,11
1.72313E+12,-7810,-1262,2791,1788,505,-296,1,7,11
1.72313E+12,-7851,-1273,2797,1679,465,-269,1,7,11
1.72313E+12,-7881,-1267,2798,1839,422,23,1,7,11
1.72313E+12,-7888,-1232,2777,1529,613,81,1,7,11
1.72313E+12,-7854,-1180,2718,1444,536,121,1,7,11
1.72313E+12,-7856,-1377,2928,1583,234,111,1,7,11
1.72313E+12,-7862,-1311,2913,1174,184,117,1,7,11
1.72313E+12,-7866,-1012,2921,993,374,-113,1,7,11
1.72313E+12,-7869,-993,2698,1059,295,-89,1,7,11
1.72313E+12,-7857,-992,2733,642,-51,-58,1,7,11
1.72313E+12,-7994,-1300,3091,528,7,266,1,7,11
1.72313E+12,-7664,-1343,3141,175,-287,-1,1,7,11
1.72313E+12,-7663,-1183,2983,399,-29,-360,1,7,11
1.72313E+12,-7967,-1339,2969,463,-26,-176,1,7,11
1.72313E+12,-7850,-900,3015,-68,31,-517,1,7,11
1.72313E+12,-7858,-950,3048,-297,-275,-256,1,7,11
1.72313E+12,-7568,-1464,3385,-850,-189,-623,1,7,11
1.72313E+12,-7778,-1806,3393,-883,-160,-453,1,7,11
1.72313E+12,-7705,-1706,3335,-1047,-238,-653,1,7,11
1.72313E+12,-7705,-1722,3334,-1151,-222,-650,1,7,11
1.72313E+12,-7656,-1666,2985,-1278,-246,-260,1,7,11
1.72313E+12,-7671,-1910,2979,-1570,-537,290,1,7,11
1.72313E+12,-7765,-1952,3057,-1302,-224,386,1,7,11
1.72313E+12,-7749,-1980,3036,-1145,-186,191,1,7,11
1.72313E+12,-7812,-2170,3355,-864,-404,290,1,7,11
1.72313E+12,-7812,-1947,3250,-782,-830,183,1,7,11
1.72313E+12,-7068,-2233,3571,915,-584,611,1,7,11
1.72313E+12,-7234,-2630,3889,1897,83,102,1,7,11
1.72313E+12,-8033,-1578,3586,4316,1037,-2040,1,7,11
1.72313E+12,-7907,-1088,3301,4322,869,-2334,1,7,11
1.72313E+12,-7904,-236,3615,1314,-642,-665,1,7,11
1.72313E+12,-8050,-827,3699,520,-712,-432,1,7,11
1.72313E+12,-7300,-2160,3730,-1394,-1299,-501,1,7,11
1.72313E+12,-7440,-2031,3846,-1228,-1337,-865,1,7,11
1.72313E+12,-7197,-2217,4106,240,-608,-1552,1,7,11
1.72313E+12,-7069,-2408,3831,667,38,-1271,1,7,11
1.72313E+12,-7530,-2586,4167,1730,572,-832,1,7,11
1.72313E+12,-7491,-2659,4149,1712,214,-863,1,7,11
1.72313E+12,-7372,-2257,3494,465,111,-773,1,7,11
1.72313E+12,-7742,-2228,3495,249,-81,-563,1,7,11
1.72313E+12,-7134,-1949,3324,798,-81,345,1,7,11
1.72313E+12,-7143,-2037,3631,396,330,-267,1,7,11
1.72313E+12,-7573,-2098,3250,1016,415,-1618,1,7,11
1.72313E+12,-7917,-2065,3262,1166,394,-1165,1,7,11
1.72313E+12,-7516,-2683,3686,-311,-849,-367,1,7,11
1.72313E+12,-7492,-2836,3494,-784,-887,-538,1,7,11
1.72313E+12,-7635,-2501,3945,-1295,-48,183,1,7,11
1.72313E+12,-7825,-2625,3754,-1122,298,769,1,7,11
1.72313E+12,-7343,-1417,3844,-635,-228,1187,1,7,11
1.72313E+12,-7501,-1565,3868,-591,-370,1006,1,7,11
1.72313E+12,-7428,-1467,3837,-228,-57,694,1,7,11
1.72313E+12,-7162,-1880,3815,-612,105,502,1,7,11
1.72313E+12,-7723,-1733,4181,-1448,131,396,1,7,11
1.72313E+12,-7360,-1718,3979,-1793,292,877,1,7,11
1.72313E+12,-7142,-1422,4043,-1908,-636,475,1,7,11
1.72313E+12,-7284,-1437,4067,-1848,-866,774,1,7,11
1.72313E+12,-6050,-2114,4081,-1570,-821,151,1,7,11
1.72313E+12,-6083,-2026,4451,-1469,-480,104,1,7,11
1.72313E+12,-7271,-2662,5156,-1546,-488,-831,1,7,11
1.72313E+12,-7537,-2275,5194,-1147,-602,-416,1,7,11
1.72313E+12,-7827,-1539,4775,569,381,1327,1,7,11
1.72313E+12,-7943,-1296,4571,446,211,1283,1,7,11
1.72313E+12,-6868,-1431,4621,-258,59,-388,1,7,11
1.72313E+12,-6883,-1438,4609,-342,-274,-831,1,7,11
1.72313E+12,-7198,-2052,4943,-208,-783,756,1,7,11
1.72313E+12,-7512,-1304,5209,-91,-1142,503,1,7,11
1.72313E+12,-7043,-1002,5122,122,-1023,833,1,7,11
1.72313E+12,-6828,-1487,5209,-233,-521,-830,1,7,11
1.72313E+12,-6861,-1525,5188,-361,-341,-684,1,7,11
1.72313E+12,-6811,-1585,5166,-22,188,-462,1,7,11
1.72313E+12,-6861,-1541,4860,-14,249,-789,1,7,11
1.72313E+12,-7215,-1876,4949,-294,215,-402,1,7,11
1.72313E+12,-6998,-1681,4541,-329,-114,-465,1,7,11
1.72313E+12,-7748,-2173,4759,-98,131,93,1,7,11
1.72313E+12,-7607,-2106,4856,809,158,220,1,7,11
1.72313E+12,-6810,-1980,5279,1491,-1,-164,1,7,11
1.72313E+12,-6799,-2172,5256,2127,274,-740,1,7,11
1.72313E+12,-6962,-1496,4701,1851,634,-2230,1,7,11
1.72313E+12,-6861,-1864,4485,1398,403,-2254,1,7,11
1.72313E+12,-7062,-2101,4509,-157,49,-752,1,7,11
1.72313E+12,-7254,-2144,4511,-290,-276,-563,1,7,11
1.72313E+12,-6894,-2127,4710,-387,-317,79,1,7,11
1.72313E+12,-6865,-2139,4683,-471,-279,347,1,7,11
1.72313E+12,-6853,-2148,4667,-825,43,554,1,7,11
1.72313E+12,-6866,-1934,4682,-871,99,470,1,7,11
1.72313E+12,-6796,-2009,4726,-642,-110,806,1,7,11
1.72313E+12,-6826,-2027,4519,-824,-9,504,1,7,11
1.72313E+12,-6857,-2004,4542,-436,325,437,1,7,11
1.72313E+12,-6894,-1987,4550,-566,132,592,1,7,11
1.72313E+12,-7206,-2115,4726,-384,207,235,1,7,11
1.72313E+12,-7274,-1730,4619,-267,564,185,1,7,11
1.72313E+12,-7090,-1872,4271,88,472,184,1,7,11
1.72313E+12,-7131,-1526,4229,-103,659,208,1,7,11
1.72313E+12,-7166,-1525,4245,-86,1036,230,1,7,11
1.72313E+12,-7154,-1497,4232,-35,1061,216,1,7,11
1.72313E+12,-7112,-1435,4427,-12,737,143,1,7,11
1.72313E+12,-7094,-1642,4377,-116,723,-22,1,7,11
1.72313E+12,-7447,-1424,4403,-257,720,101,1,7,11
1.72313E+12,-7448,-1489,4414,-133,654,60,1,7,11
1.72313E+12,-7489,-1900,4450,-256,863,-281,1,7,11
1.72313E+12,-7166,-1929,4460,-604,772,-141,1,7,11
1.72313E+12,-7462,-2094,4441,-404,499,-619,1,7,11
1.72313E+12,-7462,-2198,4388,-403,456,-880,1,7,11
1.72313E+12,-7549,-2240,4086,-386,780,-712,1,7,11
1.72313E+12,-7301,-2262,4041,-562,791,-659,1,7,11
1.72313E+12,-7518,-2275,4016,-476,805,-796,1,7,11
1.72313E+12,-7452,-2270,4200,-337,838,-414,1,7,11
1.72313E+12,-7429,-2219,4138,5,656,-568,1,7,11
1.72313E+12,-7081,-2371,3744,276,710,-206,1,7,11
1.72313E+12,-7469,-2372,3754,148,1107,-198,1,7,11
1.72313E+12,-7141,-2325,3964,404,1062,-316,1,7,11
1.72313E+12,-7099,-2345,3731,641,897,-140,1,7,11
1.72313E+12,-7137,-2352,3744,948,956,-223,1,7,11
1.72313E+12,-7127,-2233,4113,1273,976,-623,1,7,11
1.72313E+12,-7082,-2581,4158,1751,1007,-858,1,7,11
1.72313E+12,-7075,-2853,4001,2237,1349,-956,1,7,11
1.72313E+12,-7174,-3192,4066,3151,1154,-1597,1,7,11
1.72313E+12,-6999,-3638,4395,3868,1606,-1942,1,7,11
1.72313E+12,-6628,-4113,4475,4590,1700,-2693,1,7,11
1.72313E+12,-6601,-4243,4229,5836,2417,-3546,1,7,11
1.72313E+12,-6968,-4698,4402,7543,2892,-4327,1,7,11
1.72313E+12,-6841,-4495,3988,9009,3038,-5178,1,7,11
1.72313E+12,-7209,-4631,3714,10503,3667,-5293,1,7,11
1.72313E+12,-7097,-4437,3690,11780,3758,-5680,1,7,11
1.72313E+12,-7108,-3988,3377,12915,4001,-5317,1,7,11
1.72313E+12,-7052,-3960,2730,13870,4254,-5437,1,7,11
1.72313E+12,-7439,-3487,2538,14293,4872,-5088,1,7,11
1.72313E+12,-7146,-3290,2608,15164,4812,-5141,1,7,11
1.72313E+12,-7507,-3353,2213,15629,5104,-4814,1,7,11
1.72313E+12,-7379,-3130,2312,15965,5472,-4914,1,7,11
1.72313E+12,-7743,-2943,1992,15793,5427,-4568,1,7,11
1.72313E+12,-7797,-2475,2161,15757,5023,-4532,1,7,11
1.72313E+12,-7975,-2179,2119,15515,5181,-4605,1,7,11
1.72313E+12,-8232,-2170,2144,15077,4959,-4549,1,7,11
1.72313E+12,-8070,-1897,2161,14489,4643,-4633,1,7,11
1.72313E+12,-8490,-1595,2162,13765,4400,-4405,1,7,11
1.72313E+12,-8567,-1282,2166,13130,4104,-3801,1,7,11
1.72313E+12,-8356,-938,1992,12108,3540,-3670,1,7,11
1.72313E+12,-8336,-884,2389,10750,3212,-3048,1,7,11
1.72313E+12,-8361,-780,2249,9683,3159,-2732,1,7,11
1.72313E+12,-8342,-770,2302,8665,2512,-2651,1,7,11
1.72313E+12,-8485,-835,2471,7669,2327,-2357,1,7,11
1.72313E+12,-8097,-692,2876,7019,1690,-2163,1,7,11
1.72313E+12,-8278,-1051,2756,6265,1213,-1911,1,7,11
1.72313E+12,-7923,-1137,3129,5652,1322,-1507,1,7,11
1.72313E+12,-7875,-950,3011,4859,710,-1655,1,7,11
1.72313E+12,-8036,-1281,3407,4398,478,-1272,1,7,11
1.72313E+12,-7951,-1153,3308,4178,567,-1219,1,7,11
1.72313E+12,-7636,-1245,3670,3462,202,-1202,1,7,11
1.72313E+12,-7561,-1553,3479,3506,145,-1218,1,7,11
1.72313E+12,-7771,-1555,3506,3053,149,-1247,1,7,11
1.72313E+12,-7731,-1544,3503,2796,184,-1241,1,7,11
1.72313E+12,-7684,-1590,3519,2737,237,-1186,1,7,11
1.72313E+12,-7359,-1421,3537,2177,557,-1398,1,7,11
1.72313E+12,-7345,-1532,3550,1941,394,-1405,1,7,11
1.72313E+12,-7362,-1862,3546,1773,468,-1161,1,7,11
1.72313E+12,-7374,-1666,3534,1881,508,-1401,1,7,11
1.72313E+12,-7386,-1715,3532,1483,775,-1379,1,7,11
1.72313E+12,-7397,-1742,3514,1617,493,-1341,1,7,11
1.72313E+12,-7403,-2063,3518,1209,452,-1320,1,7,11
1.72313E+12,-7411,-2119,3530,1345,398,-1312,1,7,11
1.72313E+12,-7717,-2170,3544,978,596,-1323,1,7,11
1.72313E+12,-7785,-1931,3559,1142,529,-1016,1,7,11
1.72313E+12,-7769,-1948,3564,760,146,-917,1,7,11
1.72313E+12,-7753,-2004,3843,875,305,-1100,1,7,11
1.72313E+12,-7736,-2308,3871,510,-13,-1029,1,7,11
1.72313E+12,-7734,-2358,3907,429,-51,-722,1,7,11
1.72313E+12,-7711,-2381,3904,634,-89,-650,1,7,11
1.72313E+12,-7694,-2399,3897,559,-108,-841,1,7,11
1.72313E+12,-7398,-2424,3885,215,117,-497,1,7,11
1.72313E+12,-7321,-2202,3877,379,88,-422,1,7,11
1.72313E+12,-7307,-2224,3877,327,102,-637,1,7,11
1.72313E+12,-7547,-2219,3858,300,113,-582,1,7,11
1.72313E+12,-7531,-2192,3841,271,-121,-524,1,7,11
1.72313E+12,-7526,-2184,3569,-28,-96,-205,1,7,11
1.72313E+12,-7510,-2425,3570,-85,-91,-138,1,7,11
1.72313E+12,-7501,-2183,3569,101,-89,-360,1,7,11
1.72313E+12,-7528,-2223,3865,29,-99,-331,1,7,11
1.72313E+12,-7540,-2244,3887,-286,115,-302,1,7,11
1.72313E+12,-7535,-2227,3860,-301,73,-294,1,7,11
1.72313E+12,-7528,-2203,3583,-343,30,-256,1,7,11
1.72313E+12,-7545,-2189,3566,-166,-284,33,1,7,11
1.72313E+12,-7513,-2196,3557,-584,-343,92,1,7,11
1.72313E+12,-7490,-2233,3563,-426,-371,126,1,7,11
1.72313E+12,-7506,-2252,3560,-503,-370,-103,1,7,11
1.72313E+12,-7521,-2257,3547,-825,-380,-46,1,7,11
1.72313E+12,-7506,-2273,3548,-642,-132,268,1,7,11
1.72313E+12,-7527,-2278,3557,-680,-363,308,1,7,11
1.72313E+12,-7299,-2277,3578,-689,-345,361,1,7,11
1.72313E+12,-7308,-2276,3583,-685,-351,152,1,7,11
1.72313E+12,-7337,-2275,3855,-668,-348,175,1,7,11
1.72313E+12,-7362,-2262,3870,-894,-352,186,1,7,11
1.72313E+12,-7407,-2233,3887,-844,-344,175,1,7,11
1.72313E+12,-7695,-2180,3881,-801,-369,179,1,7,11
1.72313E+12,-7709,-2397,3892,-788,-144,179,1,7,11
1.72313E+12,-7748,-2358,3917,-774,-187,179,1,7,11
1.72313E+12,-7730,-2351,3935,-788,-551,216,1,7,11
1.72313E+12,-7406,-2352,3966,-807,-404,226,1,7,11
1.72313E+12,-7390,-2348,3747,-805,-482,195,1,7,11
1.72313E+12,-7368,-2322,3771,-803,-799,182,1,7,11
1.72313E+12,-7351,-2037,3789,-809,-845,197,1,7,11
1.72313E+12,-7305,-2012,3813,-830,-887,243,1,7,11
1.72313E+12,-7477,-1988,3818,-863,-650,540,1,7,11
1.72313E+12,-7162,-1966,3817,-652,-858,544,1,7,11
1.72313E+12,-7140,-1959,4100,-736,-773,539,1,7,11
1.72313E+12,-7143,-2030,4128,-1072,-427,528,1,7,11
1.72313E+12,-7463,-2386,4130,-1131,-552,209,1,7,11
1.72313E+12,-7470,-2259,4147,-1117,-176,192,1,7,11
1.72313E+12,-7481,-2640,4169,-1045,-366,379,1,7,11
1.72313E+12,-7474,-2475,4201,-655,-142,323,1,7,11
1.72313E+12,-7159,-2676,4158,-476,-610,78,1,7,11
1.72313E+12,-7453,-2250,3820,-197,-394,-182,1,7,11
1.72313E+12,-7518,-2388,3779,-350,-407,-536,1,7,11
1.72313E+12,-7522,-1992,3733,-310,-490,-575,1,7,11
1.72313E+12,-7545,-2000,3753,-357,-466,-555,1,7,11
1.72313E+12,-7448,-2039,3794,-140,-408,-540,1,7,11
1.72313E+12,-7468,-2401,4154,-141,-254,-557,1,7,11
1.72313E+12,-7427,-2418,3972,-292,-173,-234,1,7,11
1.72313E+12,-7438,-2188,4029,72,-141,-141,1,7,11
1.72313E+12,-7050,-2184,4038,-57,-173,12,1,7,11
1.72313E+12,-7230,-2195,4064,298,-372,53,1,7,11
1.72313E+12,-6831,-2311,4411,601,347,33,1,7,11
1.72313E+12,-6892,-2320,4436,393,567,-139,1,7,11
1.72313E+12,-7084,-2352,3989,640,1321,-647,1,7,11
1.72313E+12,-7064,-2380,4181,681,1174,-695,1,7,11
1.72313E+12,-7273,-2193,4132,696,1230,-1025,1,7,11
1.72313E+12,-7291,-2223,3832,759,1554,-1149,1,7,11
1.72313E+12,-7106,-2203,3773,1085,1601,-963,1,7,11
1.72313E+12,-7145,-2425,3916,1136,1613,-952,1,7,11
1.72313E+12,-7439,-2405,3863,1144,1629,-1130,1,7,11
1.72313E+12,-7425,-2182,3583,1090,1645,-1053,1,7,11
1.72313E+12,-7425,-2208,3512,1054,1445,-1025,1,7,11
1.72313E+12,-7435,-2222,3464,725,1492,-1047,1,7,11
1.72313E+12,-7513,-2217,3680,883,1572,-905,1,7,11
1.72313E+12,-7342,-2255,3654,426,1806,-1146,1,7,11
1.72313E+12,-7352,-2254,3621,591,1516,-1051,1,7,11
1.72313E+12,-7309,-2594,3622,242,1493,-704,1,7,11
1.72313E+12,-7328,-2658,3614,230,1528,-864,1,7,11
1.72313E+12,-7518,-2436,3605,238,1506,-478,1,7,11
1.72313E+12,-7514,-2446,3585,540,1793,-638,1,7,11
1.72313E+12,-7483,-2441,3283,608,1820,-533,1,7,11
1.72313E+12,-7165,-2479,3229,636,1844,-189,1,7,11
1.72313E+12,-7428,-2546,3454,421,1906,-200,1,7,11
1.72313E+12,-7469,-2856,3429,479,1692,-249,1,7,11
1.72313E+12,-7316,-2897,3383,843,1730,-576,1,7,11
1.72313E+12,-7397,-2863,3058,696,1726,-594,1,7,11
1.72313E+12,-7783,-2558,3036,719,1739,-585,1,7,11
1.72313E+12,-7773,-2521,3013,894,1863,-168,1,7,11
1.72313E+12,-7958,-2835,2986,816,1887,-340,1,7,11
1.72313E+12,-7822,-2555,2944,814,1521,67,1,7,11
1.72313E+12,-8067,-2935,3064,464,1644,-68,1,7,11
1.72313E+12,-8565,-3100,3243,472,970,343,1,7,11
1.72313E+12,-8425,-2955,3588,831,573,547,1,7,11
1.72313E+12,-8403,-3377,3402,701,-552,656,1,7,11
1.72313E+12,-8205,-3382,2971,1065,-1181,1282,1,7,11
1.72313E+12,-7593,-3415,3128,1094,-2115,1241,1,7,11
1.72313E+12,-7330,-3424,2940,1127,-2255,1621,1,7,11
1.72313E+12,-7464,-3369,2931,1143,-2441,1436,1,7,11
1.72313E+12,-7547,-3044,2720,919,-2449,1817,1,7,11
1.72313E+12,-7694,-2983,2795,967,-2680,1723,1,7,11
1.72313E+12,-7403,-3075,3090,1381,-2443,2099,1,7,11
1.72313E+12,-7712,-2894,2999,1219,-2283,1943,1,7,11
1.72313E+12,-7885,-2738,3464,1345,-2416,1776,1,7,11
1.72313E+12,-7834,-2590,3470,1601,-2397,1948,1,7,11
1.72313E+12,-7847,-2427,3896,1595,-2635,2055,1,7,11
1.72313E+12,-7955,-2094,3905,1632,-2572,2101,1,7,11
1.72313E+12,-7752,-1497,3892,1575,-2909,1755,1,7,11
1.72313E+12,-7421,-1226,3925,1191,-2915,1890,1,7,11
1.72313E+12,-7701,-980,3954,1392,-2896,1797,1,7,11
1.72313E+12,-7387,-1030,3967,1394,-2938,1816,1,7,11
1.72313E+12,-7307,-492,3960,1215,-2888,1806,1,7,11
1.72313E+12,-7494,-553,3810,1184,-2548,1473,1,7,11
1.72313E+12,-7164,-368,4223,1188,-2443,1608,1,7,11
1.72313E+12,-7137,-97,4376,1205,-2245,1153,1,7,11
1.72313E+12,-7112,186,4275,1369,-2014,991,1,7,11
1.72313E+12,-7214,555,4492,897,-2050,1108,1,7,11
1.72313E+12,-6797,568,4964,671,-1526,870,1,7,11
1.72313E+12,-6939,548,5120,501,-1226,582,1,7,11
1.72313E+12,-6617,243,5219,595,-901,287,1,7,11
1.72313E+12,-6656,152,5011,134,-835,9,1,7,11
1.72313E+12,-6926,291,5041,-119,-395,-167,1,7,11
1.72313E+12,-6603,-79,5016,-383,-253,-569,1,7,11
1.72313E+12,-6570,-260,4994,-624,-348,-470,1,7,11
1.72313E+12,-6578,-161,5147,-500,89,-644,1,7,11
1.72313E+12,-6594,-558,4786,-823,317,-1112,1,7,11
1.72313E+12,-6839,-631,4941,-816,385,-1298,1,7,11
1.72313E+12,-7188,-435,4587,-825,784,-1297,1,7,11
1.72313E+12,-7245,-485,4543,-860,692,-1341,1,7,11
1.72313E+12,-7092,-819,4590,-678,1076,-1375,1,7,11
1.72313E+12,-7083,-893,4896,-651,1083,-1323,1,7,11
1.72313E+12,-7054,-708,4902,-850,1088,-1328,1,7,11
1.72313E+12,-7059,-747,4598,-501,1102,-1325,1,7,11
1.72313E+12,-7094,-754,4531,-439,1136,-1312,1,7,11
1.72313E+12,-7156,-739,4718,-450,922,-1001,1,7,11
1.72313E+12,-7454,-1032,4700,-776,927,-1147,1,7,11
1.72313E+12,-7460,-1048,4693,-835,906,-765,1,7,11
1.72313E+12,-7487,-1059,4672,-856,1151,-648,1,7,11
1.72313E+12,-7504,-1087,4665,-652,1114,-805,1,7,11
1.72313E+12,-7306,-1140,4661,-663,1051,-442,1,7,11
1.72313E+12,-7544,-919,4653,-643,685,-587,1,7,11
1.72313E+12,-7298,-944,4652,-865,847,-517,1,7,11
1.72313E+12,-7529,-948,4662,-847,496,-201,1,7,11
1.72313E+12,-7500,-990,4725,-852,399,-159,1,7,11
1.72313E+12,-7435,-1015,4541,-868,571,-140,1,7,11
1.72313E+12,-7425,-1364,4866,-866,558,-158,1,7,11
1.72313E+12,-7436,-1382,4906,-815,566,-145,1,7,11
1.72313E+12,-7433,-1198,4956,-786,562,-347,1,7,11
1.72313E+12,-7144,-1247,4974,-775,524,-236,1,7,11
1.72313E+12,-7112,-1572,4991,-472,238,76,1,7,11
1.72313E+12,-7115,-1614,4987,-397,250,101,1,7,11
1.72313E+12,-7310,-1492,4763,-418,389,77,1,7,11
1.72313E+12,-7846,-2099,5059,-541,469,74,1,7,11
1.72313E+12,-7164,-1378,4687,173,-30,630,1,7,11
1.72313E+12,-7116,-1608,4584,-316,153,-41,1,7,11
1.72313E+12,-7439,-1565,4594,120,216,259,1,7,11
1.72313E+12,-7283,-1272,4514,17,251,-55,1,7,11
1.72313E+12,-7168,-1179,4672,-101,605,-75,1,7,11
1.72313E+12,-7296,-1342,4307,93,639,-94,1,7,11
1.72313E+12,-7459,-1345,4334,38,819,-127,1,7,11
1.72313E+12,-7456,-1352,4325,8,782,-15,1,7,11
1.72313E+12,-7146,-1383,4324,-265,479,287,1,7,11
1.72313E+12,-7085,-1189,4329,-289,429,278,1,7,11
1.72313E+12,-7067,-1262,4344,7,395,-86,1,7,11
1.72313E+12,-7102,-1256,4321,97,593,84,1,7,11
1.72313E+12,-7168,-1207,4285,-87,541,94,1,7,11
1.72313E+12,-7526,-1187,4279,-28,220,-21,1,7,11
1.72313E+12,-7495,-1154,4307,360,155,195,1,7,11
1.72313E+12,-7505,-1179,4668,182,167,603,1,7,11
1.72313E+12,-7167,-1155,4703,609,141,797,1,7,11
1.72313E+12,-7091,-1349,4735,787,357,880,1,7,11
1.72313E+12,-7285,-1023,4531,655,356,828,1,7,11
1.72313E+12,-7229,-978,4598,757,360,452,1,7,11
1.72313E+12,-7233,-953,4947,1035,162,539,1,7,11
1.72313E+12,-7097,-1283,4821,709,534,355,1,7,11
1.72313E+12,-7550,-1406,5233,654,387,269,1,7,11
1.72313E+12,-7535,-1407,5217,743,635,132,1,7,11
1.72313E+12,-7284,-1296,4827,1075,597,515,1,7,11
1.72313E+12,-6845,-913,4914,734,465,512,1,7,11
1.72313E+12,-7197,-907,4874,783,644,531,1,7,11
1.72313E+12,-7060,-976,4890,539,684,405,1,7,11
1.72313E+12,-7535,-921,4587,216,709,862,1,7,11
1.72313E+12,-7786,-760,4723,224,654,949,1,7,11
1.72313E+12,-7655,-798,4318,240,791,1601,1,7,11
1.72313E+12,-7629,-614,4416,187,639,1694,1,7,11
1.72313E+12,-7628,-195,4067,340,562,1786,1,7,11
1.72313E+12,-7937,-146,4022,-17,530,1911,1,7,11
1.72313E+12,-7818,-357,4044,-59,548,1562,1,7,11
1.72313E+12,-7885,-347,4050,294,250,898,1,7,11
1.72313E+12,-7911,7,3991,252,530,394,1,7,11
1.72313E+12,-7837,77,4162,426,522,-63,1,7,11
1.72313E+12,-7988,74,4131,501,582,-595,1,7,11
1.72313E+12,-7637,29,3829,846,634,-1081,1,7,11
1.72313E+12,-7583,-316,3797,892,427,-1269,1,7,11
1.72313E+12,-7554,-378,3740,699,433,-1842,1,7,11
1.72313E+12,-7561,-161,3924,695,424,-1765,1,7,11
1.72313E+12,-7794,-236,3860,880,639,-2057,1,7,11
1.72313E+12,-7561,-600,3877,776,614,-1749,1,7,11
1.72313E+12,-7616,-485,3919,463,567,-1861,1,7,11
1.72313E+12,-7600,-825,3922,499,206,-1611,1,7,11
1.72313E+12,-7750,-843,3560,833,133,-1374,1,7,11
1.72313E+12,-7347,-823,3653,836,157,-959,1,7,11
1.72313E+12,-7466,-836,3287,423,534,-907,1,7,11
1.72313E+12,-7474,-648,3285,200,478,-990,1,7,11
1.72313E+12,-7347,-715,3321,314,665,-1329,1,7,11
1.72313E+12,-7569,-760,3311,265,1044,-1022,1,7,11
1.72313E+12,-7644,-1082,3588,-51,1104,-924,1,7,11
1.72313E+12,-7665,-1107,3594,-13,1092,-1141,1,7,11
1.72313E+12,-7656,-1125,3320,276,1115,-1063,1,7,11
1.72313E+12,-7653,-916,3312,277,1136,-1094,1,7,11
1.72313E+12,-8030,-950,3302,295,928,-1138,1,7,11
1.72313E+12,-8037,-1011,3266,350,909,-1143,1,7,11
1.72313E+12,-7975,-1298,3203,178,918,-930,1,7,11
1.72313E+12,-7950,-1350,3404,231,1006,-1283,1,7,11
1.72313E+12,-7941,-1155,3355,553,1335,-1318,1,7,11
1.72313E+12,-7624,-1204,3015,630,1157,-1304,1,7,11
1.72313E+12,-7558,-1552,2979,420,1222,-1291,1,7,11
1.72313E+12,-7761,-1605,3177,778,1261,-1298,1,7,11
1.72313E+12,-7742,-1644,3107,658,1277,-1330,1,7,11
1.72313E+12,-7764,-1648,2765,1070,1274,-1355,1,7,11
1.72313E+12,-7761,-1643,2690,993,1202,-1299,1,7,11
1.72313E+12,-7415,-1615,2839,1154,1363,-981,1,7,11
1.72313E+12,-7380,-1649,2549,1238,1299,-962,1,7,11
1.72313E+12,-7333,-1433,2524,1580,996,-959,1,7,11
1.72313E+12,-7368,-1498,2532,1633,987,-1010,1,7,11
1.72313E+12,-7705,-1805,2526,1447,999,-1317,1,7,11
1.72313E+12,-7573,-1831,2508,1488,1288,-1350,1,7,11
1.72313E+12,-7988,-1881,2499,1468,1329,-1368,1,7,11
1.72313E+12,-7888,-1684,2497,1434,1351,-1330,1,7,11
1.72313E+12,-8280,-1768,2469,1648,1356,-1018,1,7,11
1.72313E+12,-8177,-2064,2442,1599,1352,-918,1,7,11
1.72313E+12,-8464,-2115,2673,1269,1334,-1137,1,7,11
1.72313E+12,-8463,-2101,2612,1233,1301,-760,1,7,11
1.72313E+12,-8107,-2093,2281,1190,984,-692,1,7,11
1.72313E+12,-8295,-2082,2217,1384,911,-676,1,7,11
1.72313E+12,-7864,-2088,2186,1291,1104,-665,1,7,11
1.72313E+12,-7989,-2094,2396,964,1075,-675,1,7,11
1.72313E+12,-7627,-2080,2330,916,759,-1032,1,7,11
1.72313E+12,-7590,-2092,2040,1084,724,-1127,1,7,11
1.72313E+12,-7806,-2095,2007,1035,699,-910,1,7,11
1.72313E+12,-7798,-2131,2010,705,683,-950,1,7,11
1.72313E+12,-7784,-2150,1982,668,657,-968,1,7,11
1.72313E+12,-7565,-2174,1980,870,662,-1016,1,7,11
1.72313E+12,-7645,-1937,1965,822,683,-1286,1,7,11
1.72313E+12,-8029,-1958,1981,497,718,-1000,1,7,11
1.72313E+12,-7898,-2002,1998,414,733,-1151,1,7,11
1.72313E+12,-8261,-2332,2015,589,717,-759,1,7,11
1.72313E+12,-8307,-2394,2027,522,650,-879,1,7,11
1.72313E+12,-8095,-2194,2036,218,827,-803,1,7,11
1.72313E+12,-8103,-2203,2030,200,451,-476,1,7,11
1.72313E+12,-8314,-2204,2022,168,589,-421,1,7,11
1.72313E+12,-8279,-2427,2011,141,220,-388,1,7,11
1.72313E+12,-8211,-2380,2004,362,345,-593,1,7,11
1.72313E+12,-7888,-2344,2001,322,-23,-548,1,7,11
1.72313E+12,-7843,-2311,2007,278,-109,-234,1,7,11
1.72313E+12,-7817,-2028,2030,-31,65,-155,1,7,11
1.72313E+12,-8049,-2028,2319,-73,-260,-308,1,7,11
1.72313E+12,-8017,-2020,2331,-98,-312,59,1,7,11
1.72313E+12,-7989,-2023,2392,119,-353,-105,1,7,11
1.72313E+12,-7956,-2019,2405,88,-132,-19,1,7,11
1.72313E+12,-7645,-1993,2405,55,-167,280,1,7,11
1.72313E+12,-7597,-1956,2374,-258,-176,267,1,7,11
1.72313E+12,-7597,-1935,2342,-364,-149,-47,1,7,11
1.72313E+12,-7638,-1960,2353,-524,-376,-93,1,7,11
1.72313E+12,-7669,-1991,2376,-421,-369,-109,1,7,11
1.72313E+12,-7668,-2344,2383,-823,-139,119,1,7,11
1.72313E+12,-7946,-2420,2394,-694,-140,-21,1,7,11
1.72313E+12,-7960,-2236,2398,-1077,-156,-353,1,7,11
1.72313E+12,-7950,-2562,2379,-1111,-192,-190,1,7,11
1.72313E+12,-7945,-2642,2383,-940,-214,-544,1,7,11
1.72313E+12,-7940,-2470,2391,-960,-230,-613,1,7,11
1.72313E+12,-7655,-2554,2405,-985,-256,-388,1,7,11
1.72313E+12,-7628,-2882,2416,-967,-551,-425,1,7,11
1.72313E+12,-7563,-2922,2395,-946,-606,-447,1,7,11
1.72313E+12,-7767,-2707,2390,-900,-637,-481,1,7,11
1.72313E+12,-7739,-2757,2402,-1145,-394,-779,1,7,11
1.72313E+12,-7784,-3098,2210,-1134,-392,-815,1,7,11
1.72313E+12,-7796,-3107,2227,-1037,-399,-773,1,7,11
1.72313E+12,-7609,-3193,2248,-1073,-606,-808,1,7,11
1.72313E+12,-8281,-3280,2536,-1294,-155,-689,1,7,11
1.72313E+12,-8178,-3254,2859,-709,-201,-412,1,7,11
1.72313E+12,-7332,-3078,2900,-362,-491,-63,1,7,11
1.72313E+12,-7113,-2697,2894,24,-796,-77,1,7,11
1.72313E+12,-7134,-2256,2822,-113,-365,-121,1,7,11
1.72313E+12,-7498,-2253,2826,119,16,-90,1,7,11
1.72313E+12,-7367,-2235,2550,107,-123,-36,1,7,11
1.72313E+12,-7739,-2232,2551,66,-31,274,1,7,11
1.72313E+12,-7597,-2208,2551,38,295,323,1,7,11
1.72313E+12,-7953,-2394,2525,18,335,364,1,7,11
1.72313E+12,-8027,-2371,2519,-261,329,147,1,7,11
1.72313E+12,-8061,-2034,2473,-281,273,182,1,7,11
1.72313E+12,-8031,-2025,2454,-327,-95,187,1,7,11
1.72313E+12,-7971,-1999,2686,-136,43,380,1,7,11
1.72313E+12,-7668,-2002,2441,-213,-321,257,1,7,11
1.72313E+12,-7645,-1983,2447,-513,-165,-115,1,7,11
1.72313E+12,-7619,-1990,2492,-567,-513,62,1,7,11
1.72313E+12,-7802,-2021,2512,-613,-601,35,1,7,11
1.72313E+12,-7759,-2322,2550,-421,-415,13,1,7,11
1.72313E+12,-7695,-2355,2841,-474,-424,18,1,7,11
1.72313E+12,-7420,-2397,2894,-788,-392,27,1,7,11
1.72313E+12,-7421,-2422,2691,-845,-618,56,1,7,11
1.72313E+12,-7421,-2412,2715,-843,-588,104,1,7,11
1.72313E+12,-7710,-2397,2748,-867,-539,-103,1,7,11
1.72313E+12,-7771,-2390,2799,-888,-238,-23,1,7,11
1.72313E+12,-7787,-2372,3104,-893,-239,347,1,7,11
1.72313E+12,-7760,-2336,3102,-868,-515,195,1,7,11
1.72313E+12,-7726,-2033,3100,-881,-530,236,1,7,11
1.72313E+12,-7741,-2012,3149,-667,-538,229,1,7,11
1.72313E+12,-7762,-1994,3188,-695,-583,222,1,7,11
1.72313E+12,-7767,-1983,2983,-732,-390,210,1,7,11
1.72313E+12,-7761,-1986,3044,-1044,-457,188,1,7,11
1.72313E+12,-7802,-1997,3347,-1085,-503,159,1,7,11
1.72313E+12,-7567,-1995,3397,-1147,-803,168,1,7,11
1.72313E+12,-7590,-2025,3229,-997,-826,201,1,7,11
1.72313E+12,-7574,-2043,3317,-1335,-846,532,1,7,11
1.72313E+12,-7786,-2041,3644,-1394,-866,614,1,7,11
1.72313E+12,-7414,-1990,3669,-1174,-893,449,1,7,11
1.72313E+12,-7300,-1968,3704,-1257,-881,495,1,7,11
1.72313E+12,-7511,-1955,3501,-1582,-810,507,1,7,11
1.72313E+12,-7547,-1934,3553,-1617,-473,500,1,7,11
1.72313E+12,-7381,-2165,3876,-1614,-390,770,1,7,11
1.72313E+12,-7794,-2112,3898,-1557,-576,830,1,7,11
1.72313E+12,-7621,-2075,3910,-1237,-519,660,1,7,11
1.72313E+12,-7981,-1779,3925,-1167,-164,766,1,7,11
1.72313E+12,-8060,-1736,3920,-1352,-139,1095,1,7,11
1.72313E+12,-7822,-1702,3929,-1287,-378,1125,1,7,11
1.72313E+12,-8017,-1915,3923,-972,-155,1150,1,7,11
1.72313E+12,-7659,-1868,3886,-1151,-175,1062,1,7,11
1.72313E+12,-7590,-1804,3556,-1064,-171,644,1,7,11
1.72313E+12,-7770,-1480,3471,-725,-169,815,1,7,11
1.72313E+12,-7698,-1420,3651,-667,-158,546,1,7,11
1.72313E+12,-7392,-1652,3600,-884,-147,364,1,7,11
1.72313E+12,-7354,-1661,3306,-866,-137,-44,1,7,11
1.72313E+12,-7325,-1664,3261,-817,-384,91,1,7,11
1.72313E+12,-7321,-1486,3241,-798,-371,-279,1,7,11
1.72313E+12,-7897,-2374,3581,-1407,-10,-819,1,7,11
1.72313E+12,-8691,-2453,4056,-813,294,-532,1,7,11
1.72313E+12,-7686,-1893,3595,301,-846,575,1,7,11
1.72313E+12,-7440,-2133,3619,-352,-586,109,1,7,11
1.72313E+12,-7300,-1974,3695,-200,-376,-337,1,7,11
1.72313E+12,-7482,-1970,3673,-132,-362,-157,1,7,11
1.72313E+12,-7165,-2114,3306,-272,-320,-526,1,7,11
1.72313E+12,-7478,-2097,3282,13,60,-555,1,7,11
1.72313E+12,-7533,-2090,3250,-265,-116,-202,1,7,11
1.72313E+12,-7490,-2106,3221,-274,-54,-296,1,7,11
1.72313E+12,-7154,-2062,3396,2,296,46,1,7,11
1.72313E+12,-7157,-1787,3348,0,161,29,1,7,11
1.72313E+12,-7522,-1788,3342,-281,516,-280,1,7,11
1.72313E+12,-7696,-2074,3386,-336,565,-319,1,7,11
1.72313E+12,-7608,-2123,3406,-339,556,-302,1,7,11
1.72313E+12,-7984,-2157,3401,-312,512,-265,1,7,11
1.72313E+12,-8032,-1944,3381,-322,172,31,1,7,11
1.72313E+12,-7822,-2003,3386,-369,364,15,1,7,11
1.72313E+12,-7879,-2039,3415,-369,286,-265,1,7,11
1.72313E+12,-7872,-2015,3394,-317,-81,19,1,7,11
1.72313E+12,-7827,-1955,3353,-285,63,48,1,7,11
1.72313E+12,-8050,-2135,3057,-292,-285,86,1,7,11
1.72313E+12,-8011,-2065,3027,-336,-372,-127,1,7,11
1.72313E+12,-7941,-1764,3000,-138,-209,-69,1,7,11
1.72313E+12,-7626,-1748,3003,-221,-519,-51,1,7,11
1.72313E+12,-7598,-1744,3043,-547,-544,-29,1,7,11
1.72313E+12,-7584,-1737,3332,-602,-575,265,1,7,11
1.72313E+12,-7788,-1740,3357,-408,-638,314,1,7,11
1.72313E+12,-7718,-1766,3380,-504,-426,315,1,7,11
1.72313E+12,-7698,-2052,3397,-845,-420,264,1,7,11
1.72313E+12,-7735,-2075,3413,-664,-396,-42,1,7,11
1.72313E+12,-7760,-2104,3431,-743,-624,-26,1,7,11
1.72313E+12,-7758,-2126,3432,-1070,-597,263,1,7,11
1.72313E+12,-7741,-2153,3442,-1122,-576,294,1,7,11
1.72313E+12,-7700,-2176,3445,-1149,-569,329,1,7,11
1.72313E+12,-7705,-1924,3217,-903,-541,302,1,7,11
1.72313E+12,-7755,-2164,3250,-1120,-529,314,1,7,11
1.72313E+12,-7747,-2141,3257,-1092,-572,132,1,7,11
1.72313E+12,-7386,-2133,3235,-1098,-640,221,1,7,11
1.72313E+12,-7552,-2151,3244,-1140,-392,208,1,7,11
1.72313E+12,-7304,-1923,3292,-908,-601,149,1,7,11
1.72313E+12,-7342,-1945,3608,-899,-557,372,1,7,11
1.72313E+12,-7379,-1966,3654,-1121,-532,380,1,7,11
1.72313E+12,-7399,-2002,3703,-1086,-514,161,1,7,11
1.72313E+12,-7373,-2309,3492,-1057,-248,193,1,7,11
1.72313E+12,-7348,-2374,3546,-765,-227,166,1,7,11
1.72313E+12,-7337,-2182,3855,-715,-211,345,1,7,11
1.72313E+12,-7319,-2231,3892,-892,-211,-7,1,7,11
1.72313E+12,-7326,-2251,3917,-801,-195,-119,1,7,11
1.72313E+12,-7338,-2240,3919,-441,-162,61,1,7,11
1.72313E+12,-7314,-2197,3870,-585,-379,49,1,7,11
1.72313E+12,-7551,-2387,3557,-249,-300,50,1,7,11
1.72313E+12,-7543,-2329,3510,-231,29,77,1,7,11
1.72313E+12,-7309,-2046,3499,-232,103,76,1,7,11
1.72313E+12,-7359,-2003,3483,-201,-111,82,1,7,11
1.72313E+12,-7688,-1963,3483,-170,-93,101,1,7,11
1.72313E+12,-7712,-2157,3704,-134,-120,-80,1,7,11
1.72313E+12,-7738,-2097,3674,-377,120,-20,1,7,11
1.72313E+12,-7763,-1792,3647,-382,106,299,1,7,11
1.72313E+12,-7761,-1753,3622,-145,87,360,1,7,11
1.72313E+12,-7759,-1752,3635,-196,78,372,1,7,11
1.72313E+12,-7783,-1775,3673,-227,69,352,1,7,11
1.72313E+12,-7778,-1785,3676,-229,41,318,1,7,11
1.72313E+12,-7745,-2054,3670,-222,5,-2,1,7,11
1.72313E+12,-7737,-1789,3643,-204,2,-69,1,7,11
1.72313E+12,-7690,-2052,3622,-211,3,-115,1,7,11
1.72313E+12,-7421,-2051,3596,-230,22,96,1,7,11
1.72313E+12,-7410,-2054,3591,-515,64,73,1,7,11
1.72313E+12,-7384,-2049,3584,-558,90,67,1,7,11
1.72313E+12,-7415,-2057,3605,-619,-97,59,1,7,11
1.72313E+12,-7682,-2070,3623,-454,-72,77,1,7,11
1.72313E+12,-7699,-2097,3629,-492,-54,103,1,7,11
1.72313E+12,-7696,-2102,3606,-771,-29,117,1,7,11
1.72313E+12,-7718,-2109,3327,-796,265,-125,1,7,11
1.72313E+12,-7731,-2125,3327,-847,297,-100,1,7,11
1.72313E+12,-7728,-2155,3586,-879,309,-64,1,7,11
1.72313E+12,-7743,-1930,3588,-887,335,-59,1,7,11
1.72313E+12,-7763,-1948,3594,-862,341,-39,1,7,11
1.72313E+12,-7762,-1951,3320,-819,332,-25,1,7,11
1.72313E+12,-7779,-1933,3298,-772,314,-26,1,7,11
1.72313E+12,-7768,-2164,3257,-486,269,-14,1,7,11
1.72313E+12,-7740,-2140,3251,-492,-28,-22,1,7,11
1.72313E+12,-7748,-2128,3254,-481,-49,-50,1,7,11
1.72313E+12,-7752,-2076,3214,-454,-85,-75,1,7,11
1.72313E+12,-7755,-2053,3455,-495,113,-109,1,7,11
1.72313E+12,-7744,-2054,3204,-815,51,98,1,7,11
1.72313E+12,-7786,-2061,3228,-870,4,13,1,7,11
1.72313E+12,-7569,-2089,3237,-641,-305,-294,1,7,11
1.72313E+12,-7580,-2109,3224,-879,-355,-312,1,7,11
1.72313E+12,-7564,-2126,3219,-889,-133,-334,1,7,11
1.72313E+12,-7578,-1933,3241,-641,-147,-377,1,7,11
1.72313E+12,-7555,-1970,3242,-849,-166,-145,1,7,11
1.72313E+12,-7798,-2007,3244,-784,-161,-182,1,7,11
1.72313E+12,-7787,-2312,3269,-461,-145,-176,1,7,11
1.72313E+12,-7746,-2379,3293,-619,-367,-381,1,7,11
1.72313E+12,-7691,-2177,3316,-243,-320,-318,1,7,11
1.72313E+12,-7393,-2213,3595,-359,14,-260,1,7,11
1.72313E+12,-7361,-2209,3594,40,106,55,1,7,11
1.72313E+12,-7355,-2192,3584,-96,-42,110,1,7,11
1.72313E+12,-7376,-2416,3319,-15,309,-86,1,7,11
1.72313E+12,-7387,-2393,3314,282,380,-21,1,7,11
1.72313E+12,-7399,-2372,3303,296,183,284,1,7,11
1.72313E+12,-7422,-2377,3313,284,234,336,1,7,11
1.72313E+12,-7695,-2367,3293,290,245,355,1,7,11
1.72313E+12,-7704,-2336,3272,287,208,347,1,7,11
1.72313E+12,-7712,-2316,3276,-2,145,297,1,7,11
1.72313E+12,-7730,-2312,3318,-16,321,-6,1,7,11
1.72313E+12,-7743,-2046,3596,267,-11,-53,1,7,11
1.72313E+12,-7747,-2025,3594,330,-93,-79,1,7,11
1.72313E+12,-7718,-1986,3299,130,92,-100,1,7,11
1.72313E+12,-7725,-1969,3312,142,75,107,1,7,11
1.72313E+12,-7737,-1964,3604,161,61,93,1,7,11
1.72313E+12,-7718,-1963,3616,203,43,96,1,7,11
1.72313E+12,-7698,-1955,3620,248,43,73,1,7,11
1.72313E+12,-7411,-1947,3654,533,42,39,1,7,11
1.72313E+12,-7385,-1932,3652,584,57,-309,1,7,11
1.72313E+12,-7372,-2174,3650,622,89,-375,1,7,11
1.72313E+12,-7391,-2150,3665,638,-123,-179,1,7,11
1.72313E+12,-7415,-2145,3687,395,-97,-188,1,7,11
1.72313E+12,-7406,-2138,3706,426,-80,-158,1,7,11
1.72313E+12,-7403,-2134,3460,447,-52,-380,1,7,11
1.72313E+12,-7380,-2129,3472,471,-32,-342,1,7,11
1.72313E+12,-7385,-2091,3462,774,277,-339,1,7,11
1.72313E+12,-7412,-1779,3684,802,325,-334,1,7,11
1.72313E+12,-7423,-1719,3681,773,346,-308,1,7,11
1.72313E+12,-7684,-1696,3680,441,348,-312,1,7,11
1.72313E+12,-7735,-1680,3690,585,336,-365,1,7,11
1.72313E+12,-7773,-1899,3694,253,301,-158,1,7,11
1.72313E+12,-7574,-1878,3708,142,-7,-185,1,7,11
1.72313E+12,-7570,-1878,3463,269,-126,-170,1,7,11
1.72313E+12,-7807,-1904,3477,111,17,-173,1,7,11
1.72313E+12,-7735,-1696,3484,-281,-354,-178,1,7,11
1.72313E+12,-7410,-1786,3536,-172,-171,-246,1,7,11
1.72313E+12,-7343,-1966,3878,-249,-218,-582,1,7,11
1.72313E+12,-7552,-2335,3892,-151,-176,-445,1,7,11
1.72313E+12,-7313,-2394,3870,11,-317,-808,1,7,11
1.72313E+12,-7364,-2427,3845,-87,62,-848,1,7,11
1.72313E+12,-7395,-2188,3531,320,-101,-785,1,7,11
1.72313E+12,-7698,-2398,3694,168,264,-402,1,7,11
1.72313E+12,-7795,-2307,3621,193,357,-191,1,7,11
1.72313E+12,-7588,-1977,3602,320,313,125,1,7,11
1.72313E+12,-7562,-1977,3631,-127,-50,148,1,7,11
1.72313E+12,-7633,-1935,3644,-295,108,595,1,7,11
1.72313E+12,-7626,-1939,3650,-531,-375,804,1,7,11
1.72313E+12,-7616,-1925,3618,-471,-548,888,1,7,11
1.72313E+12,-7607,-2166,3643,-688,-477,699,1,7,11
1.72313E+12,-7561,-1951,3623,-1120,-642,1026,1,7,11
1.72313E+12,-7744,-2000,3708,-964,-738,1115,1,7,11
1.72313E+12,-7409,-2015,3525,-921,-1043,948,1,7,11
1.72313E+12,-7307,-2359,3551,-1068,-1054,1312,1,7,11
1.72313E+12,-7543,-2399,3902,-887,-708,1372,1,7,11
1.72313E+12,-7541,-2387,3951,-576,-888,1189,1,7,11
1.72313E+12,-7305,-2032,3953,38,-798,1194,1,7,11
1.72313E+12,-7479,-2141,3729,309,-495,1203,1,7,11
1.72313E+12,-7150,-1747,3754,519,-450,1402,1,7,11
1.72313E+12,-7484,-1818,3755,434,-590,1073,1,7,11
1.72313E+12,-7333,-1643,3765,768,-193,878,1,7,11
1.72313E+12,-7420,-1270,3796,502,-372,462,1,7,11
1.72313E+12,-7761,-1169,3824,438,-314,586,1,7,11
1.72313E+12,-7783,-1363,4116,580,-328,222,1,7,11
1.72313E+12,-7805,-1342,4151,535,-368,344,1,7,11
1.72313E+12,-7587,-1024,4137,183,-210,-7,1,7,11
1.72313E+12,-7633,-956,4157,-110,-633,-47,1,7,11
1.72313E+12,-7635,-1007,4026,-168,-868,262,1,7,11
1.72313E+12,-7415,-1355,4364,-629,-1096,298,1,7,11
1.72313E+12,-7439,-1195,4428,-477,-901,-61,1,7,11
1.72313E+12,-6907,-1611,4455,-455,-1027,-318,1,7,11
1.72313E+12,-6797,-1441,4448,-566,-436,-476,1,7,11
1.72313E+12,-6991,-1454,4390,-204,-341,-1110,1,7,11
1.72313E+12,-7034,-1449,4057,-176,294,-1210,1,7,11
1.72313E+12,-6879,-1432,3979,-223,403,-1475,1,7,11
1.72313E+12,-7250,-1455,4174,-572,697,-1885,1,7,11
1.72313E+12,-7084,-1446,3817,-400,941,-1744,1,7,11
1.72313E+12,-7448,-1458,3735,-510,1402,-2134,1,7,11
1.72313E+12,-7544,-1453,3888,-844,1556,-1984,1,7,11
1.72313E+12,-7387,-1453,3532,-740,1428,-2353,1,7,11
1.72313E+12,-7420,-1519,3705,-931,1477,-2410,1,7,11
1.72313E+12,-7411,-1503,3327,-1360,1515,-2251,1,7,11
1.72313E+12,-7728,-1521,3264,-1655,1832,-2676,1,7,11
1.72313E+12,-7731,-1907,3273,-1735,1517,-2547,1,7,11
1.72313E+12,-7743,-1924,3622,-2321,1408,-2811,1,7,11
1.72313E+12,-7580,-2220,3684,-2204,1208,-3377,1,7,11
1.72313E+12,-7942,-2475,3667,-2429,901,-3594,1,7,11
1.72313E+12,-7999,-2936,3308,-2029,774,-3595,1,7,11
1.72313E+12,-7943,-3153,3447,-2149,154,-3404,1,7,11
1.72313E+12,-7643,-3401,3390,-1744,127,-3087,1,7,11
1.72313E+12,-7791,-3589,3397,-1520,-374,-2683,1,7,11
1.72313E+12,-7708,-3536,3429,-1267,-554,-1969,1,7,11
1.72313E+12,-7299,-3922,3257,-1022,-476,-1425,1,7,11
1.72313E+12,-7156,-3966,3309,-753,-843,-1134,1,7,11
1.72313E+12,-7216,-3935,3327,-446,-870,-605,1,7,11
1.72313E+12,-6845,-3893,3629,-221,-824,126,1,7,11
1.72313E+12,-7024,-3560,3655,-268,-463,493,1,7,11
1.72313E+12,-6986,-3482,3670,-114,-547,1044,1,7,11
1.72313E+12,-7040,-3611,3685,-9,-366,954,1,7,11
1.72313E+12,-6904,-3442,3677,331,99,1298,1,7,11
1.72313E+12,-7071,-2999,3678,133,295,1373,1,7,11
1.72313E+12,-7153,-3080,3646,139,272,1190,1,7,11
1.72313E+12,-7477,-2891,3605,-8,-45,1211,1,7,11
1.72313E+12,-7550,-2537,3596,39,-125,1207,1,7,11
1.72313E+12,-7529,-2463,3603,-147,22,1190,1,7,11
1.72313E+12,-7491,-2677,3306,-579,-286,1315,1,7,11
1.72313E+12,-7122,-2440,3270,-811,-322,1097,1,7,11
1.72313E+12,-7154,-2502,3270,-680,-275,812,1,7,11
1.72313E+12,-7081,-2526,3210,-1035,28,535,1,7,11
1.72313E+12,-7158,-2873,3217,-1121,-107,278,1,7,11
1.72313E+12,-7135,-2721,3235,-926,-49,123,1,7,11
1.72313E+12,-7479,-3085,3300,-931,-3,-303,1,7,11
1.72313E+12,-7491,-3161,3284,-1135,-82,-354,1,7,11
1.72313E+12,-7483,-2978,3251,-1054,80,-139,1,7,11
1.72313E+12,-7455,-3054,3263,-742,-280,-167,1,7,11
1.72313E+12,-7146,-3396,3280,-662,-378,-211,1,7,11
1.72313E+12,-7101,-3203,3297,-778,-198,-534,1,7,11
1.72313E+12,-7050,-3254,3312,-627,-245,-607,1,7,11
1.72313E+12,-7290,-3310,3621,-149,-248,-387,1,7,11
1.72313E+12,-7195,-3269,3611,93,-230,-610,1,7,11
1.72313E+12,-7041,-3593,3470,-15,-361,-536,1,7,11
1.72313E+12,-6903,-3627,3510,201,-349,4,1,7,11
1.72313E+12,-6830,-3659,3551,401,70,-97,1,7,11
1.72313E+12,-6796,-3651,3579,832,-55,349,1,7,11
1.72313E+12,-6802,-3628,3873,710,338,524,1,7,11
1.72313E+12,-6848,-3271,3852,1095,190,497,1,7,11
1.72313E+12,-6872,-3428,3563,1124,516,1030,1,7,11
1.72313E+12,-6903,-3031,3496,1101,593,1323,1,7,11
1.72313E+12,-7187,-3141,3704,707,626,1413,1,7,11
1.72313E+12,-7281,-2783,3706,483,599,1754,1,7,11
1.72313E+12,-7236,-2914,3677,589,177,2407,1,7,11
1.72313E+12,-6886,-2663,3586,145,329,2601,1,7,11
1.72313E+12,-7457,-2190,3612,-107,168,2265,1,7,11
1.72313E+12,-7568,-2164,3618,12,162,2250,1,7,11
1.72313E+12,-8018,-1845,3266,-157,273,2193,1,7,11
1.72313E+12,-8114,-1823,3672,-635,110,1984,1,7,11
1.72313E+12,-8005,-1415,3292,-634,-559,1773,1,7,11
1.72313E+12,-8027,-1462,3598,-488,-521,1293,1,7,11
1.72313E+12,-7671,-1842,3670,-777,-630,773,1,7,11
1.72313E+12,-7769,-1789,3711,-430,-604,-49,1,7,11
1.72313E+12,-7671,-2141,3487,-562,-233,-538,1,7,11
1.72313E+12,-7409,-1958,3519,-187,-347,-875,1,7,11
1.72313E+12,-7692,-2002,3842,-325,61,-1040,1,7,11
1.72313E+12,-7681,-2324,3896,4,-19,-886,1,7,11
1.72313E+12,-7298,-2362,3931,-110,334,-429,1,7,11
1.72313E+12,-7496,-2415,3959,40,190,-253,1,7,11
1.72313E+12,-7124,-2201,3961,351,241,-342,1,7,11
1.72313E+12,-7287,-2237,3712,380,559,-265,1,7,11
1.72313E+12,-7278,-2229,3920,156,396,-272,1,7,11
1.72313E+12,-7280,-2180,3554,164,464,-289,1,7,11
1.72313E+12,-7066,-2379,3688,337,802,-357,1,7,11
1.72313E+12,-7157,-2365,3589,-69,652,-193,1,7,11
1.72313E+12,-7551,-2404,3271,18,738,-529,1,7,11
1.72313E+12,-7356,-2203,3443,-362,733,-585,1,7,11
1.72313E+12,-7703,-2267,3385,-195,707,-431,1,7,11
1.72313E+12,-7759,-2614,3341,-232,884,-498,1,7,11
1.72313E+12,-7793,-2450,3054,-202,792,-805,1,7,11
1.72313E+12,-7558,-2516,3035,-366,447,-817,1,7,11
1.72313E+12,-7797,-2845,3040,2,606,-803,1,7,11
1.72313E+12,-7747,-2880,3040,-81,539,-787,1,7,11
1.72313E+12,-7712,-2870,3043,357,251,-778,1,7,11
1.72313E+12,-7681,-2833,3043,512,239,-510,1,7,11
1.72313E+12,-7419,-2532,3067,387,238,-509,1,7,11
1.72313E+12,-7698,-2491,3364,485,234,-498,1,7,11
1.72313E+12,-7700,-2450,3418,816,206,-465,1,7,11
1.72313E+12,-7417,-2658,3419,886,171,-433,1,7,11
1.72313E+12,-7415,-2598,3417,686,178,-438,1,7,11
1.72313E+12,-7414,-2297,3426,729,201,-403,1,7,11
1.72313E+12,-7400,-2226,3412,757,255,-621,1,7,11
1.72313E+12,-7689,-2425,3408,756,583,-575,1,7,11
1.72313E+12,-7709,-2363,3383,751,388,-519,1,7,11
1.72313E+12,-7749,-2312,3357,735,452,-227,1,7,11
1.72313E+12,-7779,-2022,3336,697,486,-199,1,7,11
1.72313E+12,-7559,-2011,3330,894,484,-195,1,7,11
1.72313E+12,-7806,-2029,3054,846,433,-196,1,7,11
1.72313E+12,-7773,-2306,3040,804,638,-228,1,7,11
1.72313E+12,-7760,-2345,3022,776,601,-533,1,7,11
1.72313E+12,-7748,-2400,3035,483,562,-578,1,7,11
1.72313E+12,-7743,-2212,3062,485,524,-607,1,7,11
1.72313E+12,-7702,-2293,3339,509,206,-615,1,7,11
1.72313E+12,-7400,-2606,3370,813,165,-385,1,7,11
1.72313E+12,-7375,-2659,3397,861,146,-424,1,7,11
1.72313E+12,-7372,-2435,3413,670,149,-466,1,7,11
1.72313E+12,-7381,-2437,3406,733,156,-491,1,7,11
1.72313E+12,-7394,-2684,3404,760,166,-505,1,7,11
1.72313E+12,-7689,-2660,3403,757,182,-503,1,7,11
1.72313E+12,-7702,-2661,3404,715,177,-476,1,7,11
1.72313E+12,-7703,-2667,3412,878,154,-443,1,7,11
1.72313E+12,-7684,-2442,3425,504,333,-638,1,7,11
1.72313E+12,-7397,-2475,3441,632,286,-618,1,7,11
1.72313E+12,-7378,-2519,3201,244,-14,-597,1,7,11
1.72313E+12,-7362,-2551,3230,329,-47,-569,1,7,11
1.72313E+12,-7299,-2867,3242,-5,-92,-504,1,7,11
1.72313E+12,-7537,-2865,3234,-27,-104,-237,1,7,11
1.72313E+12,-7545,-2869,3233,-75,-86,-219,1,7,11
1.72313E+12,-7300,-2861,3234,-121,-65,-176,1,7,11
1.72313E+12,-7313,-2869,3255,78,-60,-374,1,7,11
1.72313E+12,-7301,-2858,3274,41,-82,-307,1,7,11
1.72313E+12,-7516,-2830,3261,8,-126,16,1,7,11
1.72313E+12,-7461,-2550,3228,-295,105,54,1,7,11
1.72313E+12,-7465,-2552,3226,-379,116,62,1,7,11
1.72313E+12,-7480,-2553,3240,-181,-128,90,1,7,11
1.72313E+12,-7494,-2819,3252,-231,-125,-122,1,7,11
1.72313E+12,-7477,-2829,3261,-518,121,-68,1,7,11
1.72313E+12,-7482,-2829,3279,-551,-118,-50,1,7,11
1.72313E+12,-7492,-2830,3301,-570,-108,-30,1,7,11
1.72313E+12,-7481,-2820,3298,-568,-103,-22,1,7,11
1.72313E+12,-7481,-2834,3305,-575,-90,-42,1,7,11
1.72313E+12,-7479,-2835,3320,-567,-72,-65,1,7,11
1.72313E+12,-7499,-2842,3609,-540,-32,-107,1,7,11
1.72313E+12,-7537,-2838,3620,-219,-3,-122,1,7,11
1.72313E+12,-7515,-2835,3609,-155,-2,-121,1,7,11
1.72313E+12,-7548,-2817,3593,-360,286,103,1,7,11
1.72313E+12,-7335,-2525,3302,-315,302,107,1,7,11
1.72313E+12,-7346,-2515,3288,-315,309,123,1,7,11
1.72313E+12,-7396,-2530,3281,-292,347,-120,1,7,11
1.72313E+12,-7393,-2510,3250,19,348,-71,1,7,11
1.72313E+12,-7377,-2501,3234,19,362,-64,1,7,11
1.72313E+12,-7358,-2481,3219,30,378,-83,1,7,11
1.72313E+12,-7390,-2461,3220,8,151,119,1,7,11
1.72313E+12,-7404,-2442,3212,-258,156,100,1,7,11
1.72313E+12,-7416,-2451,3204,-276,151,102,1,7,11
1.72313E+12,-7407,-2469,3450,-274,153,114,1,7,11
1.72313E+12,-7397,-2468,3441,-264,152,-128,1,7,11
1.72313E+12,-7374,-2462,3447,-263,150,-108,1,7,11
1.72313E+12,-7340,-2455,3453,-257,152,-97,1,7,11
1.72313E+12,-7327,-2448,3438,25,157,-107,1,7,11
1.72313E+12,-7310,-2684,3416,43,167,-122,1,7,11
1.72313E+12,-7300,-2670,3397,41,180,112,1,7,11
1.72313E+12,-7301,-2667,3381,23,201,90,1,7,11
1.72313E+12,-7341,-2658,3379,18,238,69,1,7,11
1.72313E+12,-7366,-2648,3352,-261,247,88,1,7,11
1.72313E+12,-7372,-2651,3347,-297,243,109,1,7,11
1.72313E+12,-7406,-2638,3065,-320,253,114,1,7,11
1.72313E+12,-7692,-2624,3056,-344,251,-119,1,7,11
1.72313E+12,-7705,-2631,3050,-379,222,-91,1,7,11
1.72313E+12,-7708,-2615,3033,-139,185,-64,1,7,11
1.72313E+12,-7688,-2627,3036,-170,137,-61,1,7,11
1.72313E+12,-7414,-2614,3024,-184,313,-82,1,7,11
1.72313E+12,-7424,-2612,3029,-201,287,-111,1,7,11
1.72313E+12,-7420,-2590,3022,-206,265,-116,1,7,11
1.72313E+12,-7389,-2571,3011,-202,-10,-126,1,7,11
1.72313E+12,-7399,-2576,3018,-225,-7,95,1,7,11
1.72313E+12,-7397,-2599,3030,-240,-19,58,1,7,11
1.72313E+12,-7413,-2617,3043,-238,-23,6,1,7,11
1.72313E+12,-7684,-2617,3055,-205,-34,-298,1,7,11
1.72313E+12,-7719,-2599,3058,-170,-34,-339,1,7,11
1.72313E+12,-7746,-2584,3066,-148,-30,-359,1,7,11
1.72313E+12,-7564,-2301,3347,-132,-27,-345,1,7,11
1.72313E+12,-7805,-2572,3384,-382,-99,-305,1,7,11
1.72313E+12,-7805,-2573,3410,-349,-125,-293,1,7,11
1.72313E+12,-7800,-2295,3419,-300,114,-289,1,7,11
1.72313E+12,-7570,-2570,3202,-258,106,-291,1,7,11
1.72313E+12,-7789,-2604,3246,42,91,-282,1,7,11
1.72313E+12,-7805,-2640,3282,111,112,-333,1,7,11
1.72313E+12,-7559,-2673,3299,-62,112,-129,1,7,11
1.72313E+12,-7803,-2445,3301,285,-124,-165,1,7,11
1.72313E+12,-7783,-2465,3300,357,-73,-185,1,7,11
1.72313E+12,-7776,-2472,3283,168,-27,-218,1,7,11
1.72313E+12,-7758,-2486,3271,193,264,-517,1,7,11
1.72313E+12,-7779,-2472,3276,193,310,-533,1,7,11
1.72313E+12,-7771,-2451,3254,158,337,-524,1,7,11
1.72313E+12,-7563,-2668,3230,355,369,-232,1,7,11
1.72313E+12,-7594,-2613,3442,-37,338,-372,1,7,11
1.72313E+12,-7808,-2291,3398,3,263,38,1,7,11
1.72313E+12,-7555,-2223,3406,-564,-56,-88,1,7,11
1.72313E+12,-7749,-2194,3390,-653,94,353,1,7,11
1.72313E+12,-7414,-2401,3401,-1016,6,546,1,7,11
1.72313E+12,-7524,-2360,3335,-1637,-367,480,1,7,11
1.72313E+12,-7119,-2031,3173,-1787,-196,847,1,7,11
1.72313E+12,-7267,-2023,3153,-2283,-220,653,1,7,11
1.72313E+12,-7209,-2025,2788,-2735,-182,740,1,7,11
1.72313E+12,-7185,-2003,2725,-3456,-371,1084,1,7,11
1.72313E+12,-7214,-2031,2898,-3881,-273,928,1,7,11
1.72313E+12,-7237,-2323,2510,-4209,-128,1336,1,7,11
1.72313E+12,-7121,-2242,2466,-4429,303,1558,1,7,11
1.72313E+12,-7132,-2641,2665,-4432,858,1457,1,7,11
1.72313E+12,-7296,-2544,2603,-4003,1138,1526,1,7,11
1.72313E+12,-7189,-2693,2275,-3936,1245,1610,1,7,11
1.72313E+12,-7205,-2754,2236,-3213,1697,999,1,7,11
1.72313E+12,-7239,-3158,2221,-2760,2318,818,1,7,11
1.72313E+12,-7073,-3006,2431,-2180,2611,288,1,7,11
1.72313E+12,-7452,-3057,2309,-1531,2538,-249,1,7,11
1.72313E+12,-7333,-3370,1924,-973,2851,-729,1,7,11
1.72313E+12,-7760,-3335,1775,-453,2537,-1336,1,7,11
1.72313E+12,-7663,-3013,1878,-369,2592,-1204,1,7,11
1.72313E+12,-7646,-3043,1512,83,2038,-1400,1,7,11
1.72313E+12,-7624,-3331,1439,280,2056,-1315,1,7,11
1.72313E+12,-7567,-3336,1606,231,1866,-967,1,7,11
1.72313E+12,-7801,-3021,1265,433,1517,-911,1,7,11
1.72313E+12,-7566,-2956,1167,845,1521,-1108,1,7,11
1.72313E+12,-7579,-3161,1361,1026,1828,-1036,1,7,11
1.72313E+12,-7588,-3086,1300,914,1856,-757,1,7,11
1.72313E+12,-7650,-2739,955,1306,1861,-1067,1,7,11
1.72313E+12,-7824,-2506,1081,1344,1843,-1113,1,7,11
1.72313E+12,-8300,-2607,705,896,1476,-1042,1,7,11
1.72313E+12,-8486,-2292,677,850,1565,-884,1,7,11
1.72313E+12,-8395,-2288,658,566,1353,-418,1,7,11
1.72313E+12,-8711,-2619,642,290,1057,-208,1,7,11
1.72313E+12,-8744,-2531,654,36,768,-373,1,7,11
1.72313E+12,-8767,-2708,687,-326,211,-342,1,7,11
1.72313E+12,-8763,-2797,698,-319,-92,-306,1,7,11
1.72313E+12,-8423,-3074,705,-280,-134,45,1,7,11
1.72313E+12,-8546,-2776,747,8,-610,-80,1,7,11
1.72313E+12,-8076,-2757,1096,2,-482,327,1,7,11
1.72313E+12,-8229,-2798,969,14,-491,276,1,7,11
1.72313E+12,-8031,-3177,1402,-102,-497,402,1,7,11
1.72313E+12,-7424,-3009,1235,314,-896,435,1,7,11
1.72313E+12,-7154,-3146,1178,595,-869,225,1,7,11
1.72313E+12,-7293,-2809,1176,677,-824,340,1,7,11
1.72313E+12,-7259,-2899,1372,1092,-427,-127,1,7,11
1.72313E+12,-7446,-2906,1222,1033,-515,22,1,7,11
1.72313E+12,-7158,-2863,1207,688,-174,-33,1,7,11
1.72313E+12,-7515,-2854,1198,666,-305,-8,1,7,11
1.72313E+12,-7369,-2865,1215,816,-295,345,1,7,11
1.72313E+12,-7734,-2913,1236,402,-282,172,1,7,11
1.72313E+12,-7587,-2864,1203,623,-287,517,1,7,11
1.72313E+12,-7944,-2863,1226,517,-267,582,1,7,11
1.72313E+12,-7812,-2865,1252,194,22,386,1,7,11
1.72313E+12,-7867,-2882,1262,146,18,451,1,7,11
1.72313E+12,-7911,-2875,1273,357,32,500,1,7,11
1.72313E+12,-7885,-2872,1561,323,30,794,1,7,11
1.72313E+12,-7836,-2899,1614,307,41,776,1,7,11
1.72313E+12,-8004,-2917,1652,329,38,464,1,7,11
1.72313E+12,-7670,-2939,1433,367,32,605,1,7,11
1.72313E+12,-7603,-2930,1464,166,7,227,1,7,11
1.72313E+12,-7561,-2932,1516,212,-290,337,1,7,11
1.72313E+12,-7763,-2896,1531,533,-364,-51,1,7,11
1.72313E+12,-7710,-2836,1531,590,-171,81,1,7,11
1.72313E+12,-7414,-2522,1535,603,-193,-277,1,7,11
1.72313E+12,-7703,-2502,1837,602,-157,-357,1,7,11
1.72313E+12,-7745,-2474,1866,621,-365,-361,1,7,11
1.72313E+12,-7803,-2474,1901,619,-300,-319,1,7,11
1.72313E+12,-7579,-2475,1912,387,22,31,1,7,11
1.72313E+12,-7585,-2474,1896,425,93,99,1,7,11
1.72313E+12,-7592,-2450,1846,451,-86,-118,1,7,11
1.72313E+12,-7630,-2441,1828,438,262,-120,1,7,11
1.72313E+12,-7673,-2443,1827,425,329,-125,1,7,11
1.72313E+12,-7968,-2688,1804,432,377,108,1,7,11
1.72313E+12,-8011,-2435,1792,426,153,66,1,7,11
1.72313E+12,-8054,-2446,1532,422,167,30,1,7,11
1.72313E+12,-7849,-2444,1529,444,156,-258,1,7,11
1.72313E+12,-7870,-2452,1518,465,363,-261,1,7,11
1.72313E+12,-7853,-2435,1502,493,292,2,1,7,11
1.72313E+12,-7851,-2465,1516,477,-55,-257,1,7,11
1.72313E+12,-8062,-2508,1816,458,92,-269,1,7,11
1.72313E+12,-8034,-2830,1898,438,-264,-310,1,7,11
1.72313E+12,-7973,-2887,1732,453,-357,-343,1,7,11
1.72313E+12,-7950,-2918,2067,504,-148,-144,1,7,11
1.72313E+12,-7657,-2711,2165,813,-181,-148,1,7,11
1.72313E+12,-7619,-2747,1980,880,-196,-144,1,7,11
1.72313E+12,-7587,-2784,2046,692,-201,-132,1,7,11
1.72313E+12,-7570,-2775,2335,1031,-171,-382,1,7,11
1.72313E+12,-7557,-2749,2354,1120,-367,-372,1,7,11
1.72313E+12,-7804,-2708,2354,937,-291,-355,1,7,11
1.72313E+12,-7558,-2925,2358,978,52,-335,1,7,11
1.72313E+12,-7596,-2913,2403,981,126,-316,1,7,11
1.72313E+12,-7590,-2883,2190,1022,-104,-257,1,7,11
1.72313E+12,-7557,-2836,2193,1350,-112,16,1,7,11
1.72313E+12,-7562,-2515,2198,1169,-121,6,1,7,11
1.72313E+12,-7561,-2652,2430,1550,-108,39,1,7,11
1.72313E+12,-7558,-2270,2372,1598,-78,114,1,7,11
1.72313E+12,-7782,-2425,2041,1583,-33,-31,1,7,11
1.72313E+12,-7737,-2353,1968,1245,283,320,1,7,11
1.72313E+12,-7716,-2048,2168,1389,371,361,1,7,11
1.72313E+12,-7724,-2040,2130,1002,202,340,1,7,11
1.72313E+12,-7752,-2042,2102,1140,545,275,1,7,11
1.72313E+12,-7560,-2328,2101,1034,623,-82,1,7,11
1.72313E+12,-7650,-2371,2098,717,410,68,1,7,11
1.72313E+12,-7966,-2420,2076,677,416,13,1,7,11
1.72313E+12,-7950,-2202,1785,685,384,-295,1,7,11
1.72313E+12,-7674,-2237,1746,710,632,-140,1,7,11
1.72313E+12,-7654,-2622,1822,1643,853,-486,1,7,11
1.72313E+12,-7954,-2628,1498,1751,684,-496,1,7,11
1.72313E+12,-7946,-2599,1413,2403,762,-474,1,7,11
1.72313E+12,-7952,-2284,1590,2518,1112,-481,1,7,11
1.72313E+12,-7970,-2232,1273,3076,936,-453,1,7,11
1.72313E+12,-7964,-2219,1238,3048,976,-410,1,7,11
1.72313E+12,-7966,-2196,1186,3269,1013,-395,1,7,11
1.72313E+12,-8028,-2422,1153,3687,1321,-433,1,7,11
1.72313E+12,-7908,-2398,1385,3575,1373,-469,1,7,11
1.72313E+12,-8313,-2397,1360,3915,1386,-473,1,7,11
1.72313E+12,-8158,-2400,1319,3722,1350,-435,1,7,11
1.72313E+12,-8163,-2360,935,3755,1283,-395,1,7,11
1.72313E+12,-8455,-2331,1134,3946,993,-446,1,7,11
1.72313E+12,-8180,-2022,1084,3843,929,-462,1,7,11
1.72313E+12,-8180,-2021,1078,3673,1100,-506,1,7,11
1.72313E+12,-8182,-1969,1030,3271,716,-803,1,7,11
1.72313E+12,-8182,-1934,754,3029,785,-858,1,7,11
1.72313E+12,-8165,-1938,1028,2744,539,-654,1,7,11
1.72313E+12,-8080,-1960,1049,2458,259,-681,1,7,11
1.72313E+12,-8221,-2021,1078,2429,6,-719,1,7,11
1.72313E+12,-7833,-2363,1126,2146,-213,-760,1,7,11
1.72313E+12,-7949,-2215,923,1868,-628,-1068,1,7,11
1.72313E+12,-7609,-2614,1293,1600,-462,-1124,1,7,11
1.72313E+12,-7789,-2501,1407,1404,-790,-897,1,7,11
1.72313E+12,-7758,-2864,1237,1288,-848,-934,1,7,11
1.72313E+12,-7684,-2927,1537,966,-669,-924,1,7,11
1.72313E+12,-7383,-2723,1599,1139,-691,-941,1,7,11
1.72313E+12,-7366,-2753,1434,1084,-694,-899,1,7,11
1.72313E+12,-7324,-2768,1512,747,-665,-1108,1,7,11
1.72313E+12,-7393,-2832,1867,892,-827,-1086,1,7,11
1.72313E+12,-7711,-3146,1751,478,-501,-745,1,7,11
1.72313E+12,-7743,-3129,2126,393,-428,-644,1,7,11
1.72313E+12,-7585,-3095,1994,547,-609,-815,1,7,11
1.72313E+12,-7629,-2795,2364,186,-564,-419,1,7,11
1.72313E+12,-7627,-2781,2262,264,-569,-164,1,7,11
1.72313E+12,-7615,-2762,2674,86,-637,-293,1,7,11
1.72313E+12,-7562,-2944,2536,-273,-488,113,1,7,11
1.72313E+12,-7420,-2891,2879,-168,-887,-16,1,7,11
1.72313E+12,-7314,-2840,2725,-526,-728,291,1,7,11
1.72313E+12,-7467,-2498,2799,-565,-1087,372,1,7,11
1.72313E+12,-7280,-2667,3099,-615,-961,211,1,7,11
1.72313E+12,-6896,-2611,3179,-444,-1022,222,1,7,11
1.72313E+12,-6861,-2581,3053,-779,-1293,198,1,7,11
1.72313E+12,-6886,-2288,3444,-792,-1289,211,1,7,11
1.72313E+12,-7180,-2254,3311,-798,-1287,514,1,7,11
1.72313E+12,-7061,-2253,3503,-866,-955,228,1,7,11
1.72313E+12,-7360,-2278,3751,-682,-1069,182,1,7,11
1.72313E+12,-8009,-2606,4070,-721,-687,223,1,7,11
1.72313E+12,-8136,-2443,4633,-695,-895,617,1,7,11
1.72313E+12,-8386,-2439,4597,-796,-679,880,1,7,11
1.72313E+12,-8404,-2277,4937,-616,-1056,901,1,7,11
1.72313E+12,-8363,-2396,4977,-551,-1139,1306,1,7,11
1.72313E+12,-8512,-1995,4938,-522,-971,1156,1,7,11
1.72313E+12,-8289,-2163,4602,-597,-1340,1196,1,7,11
1.72313E+12,-7959,-2101,4492,-464,-1187,1363,1,7,11
1.72313E+12,-7387,-2075,4623,-847,-1242,1148,1,7,11
1.72313E+12,-7294,-2066,4462,-729,-1537,882,1,7,11
1.72313E+12,-7016,-2111,4363,-942,-1264,556,1,7,11
1.72313E+12,-6551,-1948,4061,-1403,-1263,289,1,7,11
1.72313E+12,-6363,-2314,4019,-1544,-1262,52,1,7,11
1.72313E+12,-6339,-2222,4023,-1434,-1194,-249,1,7,11
1.72313E+12,-6704,-2679,4395,-1491,-1401,-443,1,7,11
1.72313E+12,-6669,-2438,4371,-1601,-1189,-769,1,7,11
1.72313E+12,-6744,-2490,4411,-1542,-1387,-885,1,7,11
1.72313E+12,-6593,-2512,4428,-1208,-1339,-643,1,7,11
1.72313E+12,-6989,-2817,4224,-1185,-1010,-862,1,7,11
1.72313E+12,-6874,-2863,4302,-1379,-940,-471,1,7,11
1.72313E+12,-6891,-2554,4343,-973,-924,-234,1,7,11
1.72313E+12,-6809,-2484,4306,-1095,-1145,-263,1,7,11
1.72313E+12,-7030,-2503,4306,-1067,-763,119,1,7,11
1.72313E+12,-6792,-2531,4329,-1040,-896,-66,1,7,11
1.72313E+12,-6786,-2846,4614,-760,-798,-47,1,7,11
1.72313E+12,-6797,-2843,4329,-671,-424,-97,1,7,11
1.72313E+12,-6812,-2830,4279,-822,-573,86,1,7,11
1.72313E+12,-6844,-2553,4474,-482,-209,-259,1,7,11
1.72313E+12,-6912,-2515,4405,-385,-326,-348,1,7,11
1.72313E+12,-7234,-2496,4088,-594,75,-376,1,7,11
1.72313E+12,-7074,-2502,4063,-607,-61,-142,1,7,11
1.72313E+12,-7152,-2526,4074,-411,325,-370,1,7,11
1.72313E+12,-7455,-2520,4078,-408,354,-340,1,7,11
1.72313E+12,-7459,-2495,4055,-395,377,-290,1,7,11
1.72313E+12,-7127,-2479,4012,-402,278,-263,1,7,11
1.72313E+12,-7089,-2481,4008,-445,-42,-287,1,7,11
1.72313E+12,-7069,-2520,4026,-809,-112,-307,1,7,11
1.72313E+12,-7279,-2845,4026,-866,52,-299,1,7,11
1.72313E+12,-7205,-2722,4029,-688,-292,-314,1,7,11
1.72313E+12,-6851,-3121,4033,-738,-358,-357,1,7,11
1.72313E+12,-6791,-3023,4072,-1043,-135,-225,1,7,11
1.72313E+12,-6986,-3443,4381,-1049,-199,-612,1,7,11
1.72313E+12,-6639,-3596,4391,-757,-524,-502,1,7,11
1.72313E+12,-6554,-3457,4393,-661,-532,-690,1,7,11
1.72313E+12,-6532,-3484,4354,-493,-208,-1138,1,7,11
1.72313E+12,-6784,-3694,4058,-604,-366,-1023,1,7,11
1.72313E+12,-6596,-3693,4092,-546,10,-1378,1,7,11
1.72313E+12,-6923,-3652,4094,-153,93,-1364,1,7,11
1.72313E+12,-6926,-3307,4046,-285,-118,-1296,1,7,11
1.72313E+12,-6974,-3220,4029,44,-35,-987,1,7,11
1.72313E+12,-6790,-3396,4003,71,284,-1126,1,7,11
1.72313E+12,-6853,-3334,3980,59,334,-709,1,7,11
1.72313E+12,-7169,-3015,4195,25,370,-781,1,7,11
1.72313E+12,-7201,-2963,4157,-306,138,-581,1,7,11
1.72313E+12,-7206,-3192,4114,-145,156,-141,1,7,11
1.72313E+12,-7197,-3178,3790,-252,176,9,1,7,11
1.72313E+12,-7187,-3195,3715,-386,200,119,1,7,11
1.72313E+12,-7170,-2978,3924,-790,201,-61,1,7,11
1.72313E+12,-6874,-3046,3894,-668,171,-31,1,7,11
1.72313E+12,-6865,-3392,3889,-764,140,-79,1,7,11
1.72313E+12,-6891,-3216,3897,-1069,348,127,1,7,11
1.72313E+12,-6890,-3281,3889,-1059,284,82,1,7,11
1.72313E+12,-6907,-3589,3893,-765,-18,21,1,7,11
1.72313E+12,-7212,-3622,3917,-709,-51,-295,1,7,11
1.72313E+12,-7266,-3650,3957,-882,-88,-311,1,7,11
1.72313E+12,-7278,-3633,3958,-511,112,-273,1,7,11
1.72313E+12,-7280,-3607,3957,-435,69,11,1,7,11
1.72313E+12,-7273,-3322,3957,-403,35,25,1,7,11
1.72313E+12,-7276,-3247,3927,-388,22,29,1,7,11
1.72313E+12,-7257,-3431,3898,-402,31,43,1,7,11
1.72313E+12,-7252,-3370,3861,-469,56,119,1,7,11
1.72313E+12,-7201,-3349,3851,-838,63,-90,1,7,11
1.72313E+12,-7186,-3354,3863,-1041,104,284,1,7,11
1.72313E+12,-6860,-3371,3840,-1130,104,134,1,7,11
1.72313E+12,-7028,-3405,3541,-988,104,180,1,7,11
1.72313E+12,-6950,-3445,3490,-1342,108,175,1,7,11
1.72313E+12,-6932,-3226,3701,-1179,-127,367,1,7,11
1.72313E+12,-6975,-3269,3670,-1244,-94,299,1,7,11
1.72313E+12,-7032,-3327,3649,-1541,-81,271,1,7,11
1.72313E+12,-6888,-3315,3629,-1232,-21,-5,1,7,11
1.72313E+12,-7269,-3282,3598,-1398,-3,337,1,7,11
1.72313E+12,-7290,-3229,3271,-1303,-18,247,1,7,11
1.72313E+12,-7279,-3236,3260,-1294,-24,624,1,7,11
1.72313E+12,-7221,-3281,3252,-995,-30,447,1,7,11
1.72313E+12,-6911,-3313,3241,-939,-14,410,1,7,11
1.72313E+12,-6888,-3587,3234,-1110,-11,554,1,7,11
1.72313E+12,-6880,-3593,3207,-1047,-30,157,1,7,11
1.72313E+12,-6892,-3598,3442,-718,-35,263,1,7,11
1.72313E+12,-7183,-3592,3425,-685,-39,98,1,7,11
1.72313E+12,-7196,-3654,3202,-688,-94,-285,1,7,11
1.72313E+12,-7178,-3712,3226,-659,96,-187,1,7,11
1.72313E+12,-7213,-3492,3248,-869,50,-407,1,7,11
1.72313E+12,-7276,-3535,3306,-831,-279,-840,1,7,11
1.72313E+12,-7293,-3914,3632,-810,-132,-688,1,7,11
1.72313E+12,-7286,-3750,3456,-508,-248,-746,1,7,11
1.72313E+12,-7281,-3775,3489,-398,-604,-1040,1,7,11
1.72313E+12,-7048,-3739,3485,-238,-420,-1031,1,7,11
1.72313E+12,-7044,-3726,3492,-378,-489,-859,1,7,11
1.72313E+12,-7046,-3961,3519,-290,-787,-418,1,7,11
1.72313E+12,-7277,-3964,3545,13,-821,-166,1,7,11
1.72313E+12,-7248,-3914,3549,104,-825,-294,1,7,11
1.72313E+12,-7176,-3874,3558,-112,-823,-49,1,7,11
1.72313E+12,-6880,-3504,3530,-54,-811,201,1,7,11
1.72313E+12,-6870,-3698,3539,-53,-482,550,1,7,11
1.72313E+12,-6839,-3651,3537,-105,-428,1058,1,7,11
1.72313E+12,-6796,-3588,3539,75,-613,1019,1,7,11
1.72313E+12,-6796,-3317,3844,-352,-526,1216,1,7,11
1.72313E+12,-6999,-3299,3906,-152,-199,1659,1,7,11
1.72313E+12,-6973,-3248,3920,-361,-341,1493,1,7,11
1.72313E+12,-6991,-3065,3580,-281,26,1527,1,7,11
1.72313E+12,-7007,-3170,3525,-336,119,1484,1,7,11
1.72313E+12,-6861,-2738,3463,-134,276,1593,1,7,11
1.72313E+12,-7048,-2850,3660,-243,138,1206,1,7,11
1.72313E+12,-7475,-2827,3669,-426,200,1364,1,7,11
1.72313E+12,-7458,-2485,3594,-432,185,1376,1,7,11
1.72313E+12,-7526,-2667,3294,-788,563,975,1,7,11
1.72313E+12,-7297,-2661,3277,-866,594,967,1,7,11
1.72313E+12,-7499,-2663,3239,-688,425,1114,1,7,11
1.72313E+12,-7506,-2668,3444,-751,813,728,1,7,11
1.72313E+12,-7463,-2436,3424,-1123,886,874,1,7,11
1.72313E+12,-7155,-2499,3443,-1007,678,483,1,7,11
1.72313E+12,-7081,-2537,3433,-1165,673,594,1,7,11
1.72313E+12,-7248,-2522,3396,-1651,861,140,1,7,11
1.72313E+12,-6868,-2539,3341,-1753,474,-97,1,7,11
1.72313E+12,-6875,-2710,3402,-2234,403,-198,1,7,11
1.72313E+12,-6853,-2774,3364,-2480,546,-481,1,7,11
1.72313E+12,-7170,-2806,3026,-2781,587,-1140,1,7,11
1.72313E+12,-7084,-3194,3013,-3331,620,-1381,1,7,11
1.72313E+12,-7105,-3441,3056,-3270,621,-1212,1,7,11
1.72313E+12,-7452,-3465,3407,-3230,386,-1251,1,7,11
1.72313E+12,-7427,-3964,3388,-3174,614,-1206,1,7,11
1.72313E+12,-7510,-4160,3353,-2458,406,-1186,1,7,11
1.72313E+12,-7542,-4059,3385,-1724,449,-1000,1,7,11
1.72313E+12,-7685,-4436,3447,-1397,464,-1134,1,7,11
1.72313E+12,-7741,-4227,3225,-469,532,-880,1,7,11
1.72313E+12,-7806,-4375,3423,-61,317,-629,1,7,11
1.72313E+12,-7949,-4224,3402,445,49,-264,1,7,11
1.72313E+12,-8037,-3820,3418,1051,-567,221,1,7,11
1.72313E+12,-7827,-3885,3427,1305,-739,1059,1,7,11
1.72313E+12,-7839,-3705,3439,1199,-1203,1461,1,7,11
1.72313E+12,-8045,-3445,3383,1261,-1918,2399,1,7,11
1.72313E+12,-7951,-2967,3355,1390,-2038,3110,1,7,11
1.72313E+12,-7804,-3093,3402,936,-2224,3857,1,7,11
1.72313E+12,-7451,-2746,3447,1052,-2224,4295,1,7,11
1.72313E+12,-6848,-2732,3307,880,-2306,4938,1,7,11
1.72313E+12,-6300,-2768,3654,782,-2093,4767,1,7,11
1.72313E+12,-5842,-2846,3585,828,-1560,4272,1,7,11
1.72313E+12,-5791,-2565,3209,504,-484,3327,1,7,11
1.72313E+12,-6153,-2306,3396,533,355,2589,1,7,11
1.72313E+12,-6421,-2148,3345,-93,913,1610,1,7,11
1.72313E+12,-6727,-2073,3006,-186,1530,891,1,7,11
1.72313E+12,-7030,-1926,2970,-856,1942,47,1,7,11
1.72313E+12,-7201,-2349,3189,-931,2534,-582,1,7,11
1.72313E+12,-7081,-2576,3181,-1176,3104,-642,1,7,11
1.72313E+12,-7425,-2823,3190,-1208,3066,-905,1,7,11
1.72313E+12,-7522,-3084,3005,-1195,3427,-1182,1,7,11
1.72313E+12,-7341,-3329,3030,-1009,3364,-1662,1,7,11
1.72313E+12,-7395,-3207,2983,-722,2964,-1865,1,7,11
1.72313E+12,-7743,-3307,3189,-432,2783,-1737,1,7,11
1.72313E+12,-7790,-3646,3136,-359,2836,-1720,1,7,11
1.72313E+12,-7569,-3605,2746,320,2475,-1879,1,7,11
1.72313E+12,-7974,-3290,2903,411,2454,-1458,1,7,11
1.72313E+12,-7826,-3452,2515,754,2435,-1395,1,7,11
1.72313E+12,-7885,-3050,2598,1300,2435,-1048,1,7,11
1.72313E+12,-8194,-3164,2204,1220,2674,-490,1,7,11
1.72313E+12,-7923,-2772,2334,1585,2605,-250,1,7,11
1.72313E+12,-7899,-2925,1978,1612,2248,-136,1,7,11
1.72313E+12,-7909,-2858,2171,1575,2379,-138,1,7,11
1.72313E+12,-8206,-2834,2172,1238,1947,-204,1,7,11
1.72313E+12,-8256,-2819,2153,1176,1702,-541,1,7,11
1.72313E+12,-8296,-2824,2117,1365,1413,-611,1,7,11
1.72313E+12,-8309,-2840,2092,1295,1364,-400,1,7,11
1.72313E+12,-8308,-2850,1786,967,1071,-411,1,7,11
1.72313E+12,-8272,-2864,1762,1123,805,-412,1,7,11
1.72313E+12,-8241,-2884,1790,743,558,-400,1,7,11
1.72313E+12,-7920,-2916,2077,664,341,-616,1,7,11
1.72313E+12,-7888,-2913,2102,868,-60,-595,1,7,11
1.72313E+12,-7824,-2901,2138,824,69,-528,1,7,11
1.72313E+12,-7999,-2895,2166,813,-272,-211,1,7,11
1.72313E+12,-7630,-2886,1921,814,-345,-160,1,7,11
1.72313E+12,-7758,-2890,1954,790,-145,-162,1,7,11
1.72313E+12,-7336,-2863,1949,830,-201,-184,1,7,11
1.72313E+12,-7485,-2553,1935,886,-189,-550,1,7,11
1.72313E+12,-7439,-2457,2151,710,-157,-633,1,7,11
1.72313E+12,-7136,-2625,2104,744,-131,-399,1,7,11
1.72313E+12,-7090,-2259,1736,749,-350,-389,1,7,11
1.72313E+12,-7126,-2179,1918,892,-279,-401,1,7,11
1.72313E+12,-7473,-2413,1891,481,16,-639,1,7,11
1.72313E+12,-7331,-2391,1865,612,28,-589,1,7,11
1.72313E+12,-7734,-2404,1835,230,-266,-256,1,7,11
1.72313E+12,-7612,-2192,1822,361,-377,-155,1,7,11
1.72313E+12,-7952,-2290,1832,-46,-545,-313,1,7,11
1.72313E+12,-8024,-2620,1848,120,-424,-265,1,7,11
1.72313E+12,-7842,-2439,1890,45,-805,45,1,7,11
1.72313E+12,-7827,-2539,1723,1,-649,93,1,7,11
1.72313E+12,-8063,-2871,1772,5,-678,82,1,7,11
1.72313E+12,-7998,-2716,2077,34,-672,54,1,7,11
1.72313E+12,-7585,-2765,2096,126,-845,-323,1,7,11
1.72313E+12,-7750,-2796,2115,-59,-486,-191,1,7,11
1.72313E+12,-7423,-2813,2137,260,-632,-572,1,7,11
1.72313E+12,-7361,-3085,2147,308,-564,-422,1,7,11
1.72313E+12,-7313,-3121,2173,291,-527,-796,1,7,11
1.72313E+12,-7551,-3154,1954,259,-522,-883,1,7,11
1.72313E+12,-7519,-2952,1995,-43,-548,-680,1,7,11
1.72313E+12,-7493,-3005,2043,-70,-562,-713,1,7,11
1.72313E+12,-7516,-3042,2348,-97,-526,-731,1,7,11
1.72313E+12,-7317,-3332,2411,-123,-197,-688,1,7,11
1.72313E+12,-7406,-3353,2221,-123,-362,-843,1,7,11
1.72313E+12,-7737,-3339,2253,126,-312,-414,1,7,11
1.72313E+12,-7769,-3062,2263,111,-294,-211,1,7,11
1.72313E+12,-7802,-3031,2273,52,-278,-306,1,7,11
1.72313E+12,-7569,-3020,2283,-280,-285,84,1,7,11
1.72313E+12,-7553,-3051,2565,-371,-323,-77,1,7,11
1.72313E+12,-7802,-3047,2571,-150,-354,-58,1,7,11
1.72313E+12,-7803,-3056,2606,-202,-152,-81,1,7,11
1.72313E+12,-7770,-3330,2638,-211,-514,-122,1,7,11
1.72313E+12,-7726,-3338,2662,-226,-405,28,1,7,11
1.72313E+12,-7692,-3356,2437,-235,-827,-368,1,7,11
1.72313E+12,-7406,-3340,2462,-246,-765,-238,1,7,11
1.72313E+12,-7372,-3380,2518,-517,-950,-604,1,7,11
1.72313E+12,-7404,-3389,2830,-233,-1319,-417,1,7,11
1.72313E+12,-7382,-3379,2882,-162,-1185,-629,1,7,11
1.72313E+12,-7350,-3383,2910,-316,-1258,-555,1,7,11
1.72313E+12,-7551,-3378,2923,72,-1275,-168,1,7,11
1.72313E+12,-7525,-3358,2688,-59,-1251,-273,1,7,11
1.72313E+12,-7534,-3345,2733,301,-1203,-103,1,7,11
1.72313E+12,-7518,-3363,2804,138,-1158,181,1,7,11
1.72313E+12,-7463,-3383,3142,251,-1362,468,1,7,11
1.72313E+12,-7124,-3421,2999,605,-1353,709,1,7,11
1.72313E+12,-7237,-3245,3367,427,-1391,1034,1,7,11
1.72313E+12,-7188,-3245,3436,799,-1398,878,1,7,11
1.72313E+12,-7055,-3425,3217,646,-1357,397,1,7,11
1.72313E+12,-7487,-3001,3211,765,-1329,558,1,7,11
1.72313E+12,-7383,-2770,3417,1024,-1322,620,1,7,11
1.72313E+12,-7716,-2864,3401,859,-1374,778,1,7,11
1.72313E+12,-7729,-2448,3358,407,-1407,683,1,7,11
1.72313E+12,-7762,-2568,3334,159,-1378,1051,1,7,11
1.72313E+12,-7725,-2427,3359,119,-1348,931,1,7,11
1.72313E+12,-7363,-2351,3361,-181,-1010,1284,1,7,11
1.72313E+12,-7538,-2309,3358,-471,-1063,1309,1,7,11
1.72313E+12,-7418,-2036,3379,-1033,-799,1328,1,7,11
1.72313E+12,-7292,-2368,3425,-1355,-227,1325,1,7,11
1.72313E+12,-6874,-2412,3376,-1629,69,1017,1,7,11
1.72313E+12,-6837,-2216,3039,-1856,148,920,1,7,11
1.72313E+12,-6829,-2262,2996,-2117,859,627,1,7,11
1.72313E+12,-6875,-2574,3177,-2180,1142,330,1,7,11
1.72313E+12,-7204,-2660,3131,-2615,1157,80,1,7,11
1.72313E+12,-7042,-2840,3144,-2473,1598,-373,1,7,11
1.72313E+12,-7253,-2755,3092,-2654,1411,-251,1,7,11
1.72313E+12,-7217,-3111,2747,-2569,1566,-787,1,7,11
1.72313E+12,-7107,-2952,2695,-2379,1770,-1053,1,7,11
1.72313E+12,-7437,-2986,2539,-1969,2139,-1150,1,7,11
1.72313E+12,-7305,-3337,2471,-1820,2047,-938,1,7,11
1.72313E+12,-7515,-3209,2672,-1566,2387,-1041,1,7,11
1.72313E+12,-7128,-3605,2656,-1323,2595,-766,1,7,11
1.72313E+12,-7306,-3566,2526,-1073,2882,-1107,1,7,11
1.72313E+12,-7371,-3774,2557,-631,2923,-1050,1,7,11
1.72313E+12,-7707,-3777,2667,-30,2943,-1072,1,7,11
1.72313E+12,-7594,-3878,2404,489,2925,-1042,1,7,11
1.72313E+12,-8006,-3490,1980,732,2823,-687,1,7,11
1.72313E+12,-7912,-3283,2068,1131,2639,-485,1,7,11
1.72313E+12,-8284,-3367,1692,1096,2351,-213,1,7,11
1.72313E+12,-8292,-2987,1864,673,1744,70,1,7,11
1.72313E+12,-8294,-3190,1834,494,1415,335,1,7,11
1.72313E+12,-8210,-3149,1803,601,1344,583,1,7,11
1.72313E+12,-8042,-3122,1795,203,1069,793,1,7,11
1.72313E+12,-7616,-3132,1821,315,652,884,1,7,11
1.72313E+12,-7571,-3133,1863,-40,859,892,1,7,11
1.72313E+12,-7786,-3126,1899,125,784,682,1,7,11
1.72313E+12,-7744,-2969,1755,-281,444,679,1,7,11
1.72313E+12,-7316,-3182,1704,37,570,675,1,7,11
1.72313E+12,-7423,-3190,1773,-376,615,405,1,7,11
1.72313E+12,-7735,-2953,2092,-329,181,434,1,7,11
1.72313E+12,-7344,-3119,1780,-323,145,581,1,7,11
1.72313E+12,-7591,-2798,2079,-272,153,552,1,7,11
1.72313E+12,-7724,-2894,1740,-286,283,415,1,7,11
1.72313E+12,-7610,-2873,2051,-138,288,419,1,7,11
1.72313E+12,-7578,-2853,2060,-178,-105,814,1,7,11
1.72313E+12,-7586,-2845,2068,-157,90,845,1,7,11
1.72313E+12,-7592,-2553,2069,-353,14,885,1,7,11
1.72313E+12,-7805,-2553,2095,-313,-306,641,1,7,11
1.72313E+12,-7774,-2830,2134,40,-321,868,1,7,11
1.72313E+12,-7741,-2847,1945,-94,-312,828,1,7,11
1.72313E+12,-7684,-2866,1980,316,-262,777,1,7,11
1.72313E+12,-7364,-2897,2007,242,103,414,1,7,11
1.72313E+12,-7341,-2698,1993,428,263,249,1,7,11
1.72313E+12,-7367,-2699,1954,640,196,316,1,7,11
1.72313E+12,-7743,-2932,2162,1046,638,-117,1,7,11
1.72313E+12,-7601,-2871,2103,904,789,-276,1,7,11
1.72313E+12,-7966,-2829,1791,906,665,-186,1,7,11
1.72313E+12,-8048,-2497,1690,1110,672,-230,1,7,11
1.72313E+12,-7909,-2680,1890,692,889,-244,1,7,11
1.72313E+12,-8283,-2627,1834,482,505,-168,1,7,11
1.72313E+12,-8454,-2567,1490,242,562,-270,1,7,11
1.72313E+12,-8515,-2260,1614,-38,-35,309,1,7,11
1.72313E+12,-8452,-2216,1250,-144,-145,408,1,7,11
1.72313E+12,-8298,-2561,1569,-860,-478,719,1,7,11
1.72313E+12,-8049,-2677,1416,-910,-715,967,1,7,11
1.72313E+12,-7784,-2547,1534,-1344,-1069,1296,1,7,11
1.72313E+12,-7301,-2939,1915,-1157,-1061,949,1,7,11
1.72313E+12,-7092,-3081,1760,-1382,-731,726,1,7,11
1.72313E+12,-7238,-3178,2084,-994,-797,627,1,7,11
1.72313E+12,-6912,-2968,2076,-1060,-544,257,1,7,11
1.72313E+12,-7212,-2986,2055,-875,35,-130,1,7,11
1.72313E+12,-7058,-3043,1782,-477,326,-427,1,7,11
1.72313E+12,-7658,-3646,1417,250,468,-837,1,7,11
1.72313E+12,-7608,-3658,1647,402,580,-441,1,7,11
1.72313E+12,-7801,-3659,1646,792,182,-608,1,7,11
1.72313E+12,-7699,-3615,1657,688,289,-554,1,7,11
1.72313E+12,-7356,-3260,1645,1094,-85,-561,1,7,11
1.72313E+12,-7340,-3374,1637,979,104,-599,1,7,11
1.72313E+12,-7367,-2957,1648,1302,43,-607,1,7,11
1.72313E+12,-7401,-2804,1662,1351,-267,-579,1,7,11
1.72313E+12,-7690,-2884,1629,1361,-298,-543,1,7,11
1.72313E+12,-7776,-2449,1576,1308,-286,-518,1,7,11
1.72313E+12,-7633,-2602,1559,1096,-281,-256,1,7,11
1.72313E+12,-7839,-2650,1594,777,-262,-565,1,7,11
1.72313E+12,-8140,-2553,1615,365,17,-389,1,7,11
1.72313E+12,-8750,-3154,1852,-137,-285,-457,1,7,11
1.72313E+12,-8772,-3194,1680,-201,-548,-530,1,7,11
1.72313E+12,-8555,-3148,1666,-211,-790,-160,1,7,11
1.72313E+12,-8464,-3025,1879,-184,-886,-354,1,7,11
1.72313E+12,-8071,-2875,1822,-134,-702,55,1,7,11
1.72313E+12,-8286,-2536,1838,-169,-725,263,1,7,11
1.72313E+12,-7936,-2500,1904,-205,-726,468,1,7,11
1.72313E+12,-8014,-2457,1677,-153,-759,1071,1,7,11
1.72313E+12,-7570,-2663,1694,-319,-737,1349,1,7,11
1.72313E+12,-7725,-2269,1664,112,-871,1267,1,7,11
1.72313E+12,-7681,-2226,1717,63,-780,1646,1,7,11
1.72313E+12,-7375,-2192,2054,-262,-506,1444,1,7,11
1.72313E+12,-7404,-2191,1982,-330,-771,1605,1,7,11
1.72313E+12,-7787,-2348,2395,-285,-791,1176,1,7,11
1.72313E+12,-8011,-1988,2283,25,-841,1013,1,7,11
1.72313E+12,-7857,-2068,2615,44,-1089,974,1,7,11
1.72313E+12,-7856,-1665,2651,-295,-1344,1117,1,7,11
1.72313E+12,-7866,-1810,2476,-176,-1562,720,1,7,11
1.72313E+12,-7983,-1499,2826,-557,-1461,819,1,7,11
1.72313E+12,-7621,-1816,2739,-407,-1465,576,1,7,11
1.72313E+12,-7757,-1669,2968,-433,-1444,320,1,7,11
1.72313E+12,-7517,-1867,3002,-544,-1643,86,1,7,11
1.72313E+12,-7496,-1834,3340,-611,-1376,-193,1,7,11
1.72313E+12,-7086,-1851,3413,-619,-1057,-220,1,7,11
1.72313E+12,-7156,-1686,3289,-627,-251,-544,1,7,11
1.72313E+12,-7207,-1895,3373,-199,-113,-140,1,7,11
1.72313E+12,-7176,-1473,2953,-252,602,-217,1,7,11
1.72313E+12,-7183,-1599,2729,-462,968,-136,1,7,11
1.72313E+12,-7119,-1256,2819,-1142,1609,-341,1,7,11
1.72313E+12,-7320,-1549,2460,-1681,1855,31,1,7,11
1.72313E+12,-7795,-1653,2600,-2362,1683,-100,1,7,11
1.72313E+12,-7609,-1527,2425,-2670,1810,269,1,7,11
1.72313E+12,-7610,-1890,1976,-2941,1612,-7,1,7,11
1.72313E+12,-7615,-1776,2117,-2994,1385,114,1,7,11
1.72313E+12,-7680,-2149,2055,-3244,903,-313,1,7,11
1.72313E+12,-8058,-2016,1790,-3677,703,-151,1,7,11
1.72313E+12,-8215,-2382,1789,-3709,786,-136,1,7,11
1.72313E+12,-8320,-2232,2052,-3680,564,21,1,7,11
1.72313E+12,-8071,-2592,2097,-3317,328,-64,1,7,11
1.72313E+12,-8227,-2572,1784,-3375,91,338,1,7,11
1.72313E+12,-8201,-2293,1761,-3029,-315,141,1,7,11
1.72313E+12,-7934,-2566,1785,-2961,-181,205,1,7,11
1.72313E+12,-7837,-2259,1782,-3118,-567,540,1,7,11
1.72313E+12,-7928,-2246,2121,-3073,-557,513,1,7,11
1.72313E+12,-7997,-2368,1789,-2691,-484,430,1,7,11
1.72313E+12,-7798,-2048,1774,-2802,-465,539,1,7,11
1.72313E+12,-7710,-2034,2061,-3020,-423,344,1,7,11
1.72313E+12,-7343,-2308,2083,-3311,-615,75,1,7,11
1.72313E+12,-7349,-2411,2110,-3915,-215,-245,1,7,11
1.72313E+12,-7365,-2569,1781,-4193,-327,-492,1,7,11
1.72313E+12,-7782,-2496,1761,-4445,-118,-868,1,7,11
1.72313E+12,-7952,-2750,1775,-4643,377,-925,1,7,11
1.72313E+12,-8053,-3025,1790,-4639,314,-919,1,7,11
1.72313E+12,-7920,-3261,1756,-4402,408,-908,1,7,11
1.72313E+12,-8223,-3672,1679,-3656,408,-1089,1,7,11
1.72313E+12,-8258,-3480,1872,-2768,397,-742,1,7,11
1.72313E+12,-8247,-3688,1523,-2321,391,-828,1,7,11
1.72313E+12,-8255,-3308,1469,-1425,408,-400,1,7,11
1.72313E+12,-7930,-3449,1466,-1139,631,-169,1,7,11
1.72313E+12,-7873,-3386,1486,-404,397,23,1,7,11
1.72313E+12,-8038,-3339,1529,56,409,-33,1,7,11
1.72313E+12,-7677,-3014,1836,530,446,372,1,7,11
1.72313E+12,-7558,-3193,1887,653,435,178,1,7,11
1.72313E+12,-7794,-3157,1692,939,431,327,1,7,11
1.72313E+12,-7804,-2745,1874,1252,604,-7,1,7,11
1.72313E+12,-7807,-2866,1795,1660,514,-113,1,7,11
1.72313E+12,-7633,-2496,1483,1459,183,54,1,7,11
1.72313E+12,-7950,-2685,1468,1423,326,51,1,7,11
1.72313E+12,-7972,-2647,1471,1645,-57,119,1,7,11
1.72313E+12,-7628,-2648,1505,1598,81,-119,1,7,11
1.72313E+12,-7661,-2621,1517,1592,55,54,1,7,11
1.72313E+12,-7628,-2591,1515,1567,1,27,1,7,11
1.72313E+12,-7657,-2631,1834,1238,37,-287,1,7,11
1.72313E+12,-7652,-2645,1879,1235,45,-299,1,7,11
1.72313E+12,-7651,-2638,1896,1258,78,-333,1,7,11
1.72313E+12,-7653,-2610,1909,1269,113,-372,1,7,11
1.72313E+12,-7650,-2606,1671,1228,-119,-169,1,7,11
1.72313E+12,-7636,-2610,1681,1170,-93,-220,1,7,11
1.72313E+12,-7635,-2593,1689,1370,-64,-548,1,7,11
1.72313E+12,-7639,-2571,1692,1308,-55,-603,1,7,11
1.72313E+12,-7621,-2301,1684,976,-65,-623,1,7,11
1.72313E+12,-7597,-2319,1706,898,-83,-624,1,7,11
1.72313E+12,-7569,-2600,1720,1084,-104,-637,1,7,11
1.72313E+12,-7778,-2654,1744,1030,-123,-388,1,7,11
1.72313E+12,-7744,-2451,1771,744,108,-441,1,7,11
1.72313E+12,-7740,-2490,2067,746,91,-506,1,7,11
1.72313E+12,-7763,-2524,2136,742,89,-814,1,7,11
1.72313E+12,-7564,-2544,1949,1027,107,-822,1,7,11
1.72313E+12,-7638,-2541,2017,1060,116,-789,1,7,11
1.72313E+12,-7977,-2555,2307,1080,-126,-476,1,7,11
1.72313E+12,-7817,-2816,2330,1099,-106,-388,1,7,11
1.72313E+12,-7886,-2511,2287,916,-34,59,1,7,11
1.72313E+12,-7890,-2469,2007,922,-4,-99,1,7,11
1.72313E+12,-7921,-2451,1994,1151,-3,-21,1,7,11
1.72313E+12,-7903,-2675,1953,1144,-54,319,1,7,11
1.72313E+12,-7838,-2446,1936,1095,-112,350,1,7,11
1.72313E+12,-7819,-2477,1948,735,40,268,1,7,11
1.72313E+12,-8007,-2488,1940,689,-272,-13,1,7,11
1.72313E+12,-7678,-2489,1934,889,-374,118,1,7,11
1.72313E+12,-7587,-2475,1927,856,-216,37,1,7,11
1.72313E+12,-7778,-2494,1945,806,-543,-314,1,7,11
1.72313E+12,-7746,-2543,1991,455,-597,-151,1,7,11
1.72313E+12,-7742,-2822,2035,394,-602,-218,1,7,11
1.72313E+12,-7743,-2858,2333,603,-604,-230,1,7,11
1.72313E+12,-7794,-2900,2368,581,-570,-241,1,7,11
1.72313E+12,-7571,-2933,2391,593,-515,-168,1,7,11
1.72313E+12,-7576,-2716,2409,630,-191,-342,1,7,11
1.72313E+12,-7579,-2786,2187,402,-143,-277,1,7,11
1.72313E+12,-7566,-3105,2206,491,-357,-262,1,7,11
1.72313E+12,-7616,-3135,2243,830,-300,-320,1,7,11
1.72313E+12,-7668,-3144,2275,684,-284,-133,1,7,11
1.72313E+12,-8028,-3116,2290,1052,-289,-210,1,7,11
1.72313E+12,-8034,-3095,2303,1147,-161,-231,1,7,11
1.72313E+12,-7942,-2801,2277,978,-600,-562,1,7,11
1.72313E+12,-7960,-2752,2267,1288,-418,-470,1,7,11
1.72313E+12,-8010,-2770,2565,1003,-804,-805,1,7,11
1.72313E+12,-7648,-3090,2639,955,-747,-802,1,7,11
1.72313E+12,-7709,-3143,2433,930,-935,-828,1,7,11
1.72313E+12,-7535,-3170,2485,911,-1012,-693,1,7,11
1.72313E+12,-7433,-3197,2554,913,-1008,-1080,1,7,11
1.72313E+12,-7133,-2966,2859,946,-967,-940,1,7,11
1.72313E+12,-7279,-2969,2883,1014,-950,-990,1,7,11
1.72313E+12,-7243,-3199,2900,1336,-1109,-1340,1,7,11
1.72313E+12,-7285,-3180,2890,1391,-731,-1357,1,7,11
1.72313E+12,-7074,-3161,2907,1163,-855,-1331,1,7,11
1.72313E+12,-7073,-3172,2938,1185,-771,-936,1,7,11
1.72313E+12,-7250,-2961,2726,1205,-430,-1038,1,7,11
1.72313E+12,-7179,-2966,2731,1547,-573,-642,1,7,11
1.72313E+12,-6852,-3197,2735,1602,-187,-506,1,7,11
1.72313E+12,-7039,-2949,2745,1657,-310,-570,1,7,11
1.72313E+12,-6590,-3172,2720,1456,29,-361,1,7,11
1.72313E+12,-6552,-3099,2930,1463,-24,-292,1,7,11
1.72313E+12,-6729,-3105,2913,1621,354,81,1,7,11
1.72313E+12,-6782,-3087,2908,1536,533,81,1,7,11
1.72313E+12,-6947,-3087,2865,1161,638,18,1,7,11
1.72313E+12,-7203,-2711,2484,1386,479,-320,1,7,11
1.72313E+12,-7515,-2560,2612,960,796,-336,1,7,11
1.72313E+12,-7777,-2519,2567,673,797,9,1,7,11
1.72313E+12,-7622,-2534,2282,410,484,-78,1,7,11
1.72313E+12,-7608,-2844,2294,172,458,281,1,7,11
1.72313E+12,-7561,-2707,2665,267,476,-14,1,7,11
1.72313E+12,-7580,-2807,2508,-60,800,67,1,7,11
1.72313E+12,-7785,-3097,2538,-20,805,-246,1,7,11
1.72313E+12,-7719,-3119,2550,358,511,-778,1,7,11
1.72313E+12,-7399,-3113,2532,161,508,-1088,1,7,11
1.72313E+12,-7377,-3122,2502,164,792,-1336,1,7,11
1.72313E+12,-7317,-3186,2474,335,827,-1256,1,7,11
1.72313E+12,-7524,-3033,2473,-43,641,-1598,1,7,11
1.72313E+12,-7458,-3415,2473,74,739,-1628,1,7,11
1.72313E+12,-7432,-3269,2683,-276,1125,-1602,1,7,11
1.72313E+12,-7082,-3300,2265,-309,968,-1231,1,7,11
1.72313E+12,-7357,-3600,1935,-526,1427,-1370,1,7,11
1.72313E+12,-7798,-3591,1755,-604,1852,-1100,1,7,11
1.72313E+12,-7968,-3625,1854,-418,1739,-778,1,7,11
1.72313E+12,-7896,-3641,1490,-460,2072,-184,1,7,11
1.72313E+12,-8294,-3635,1633,-419,1780,-117,1,7,11
1.72313E+12,-8124,-3313,1155,-544,1892,145,1,7,11
1.72313E+12,-8131,-3445,1291,-180,1419,636,1,7,11
1.72313E+12,-8307,-3384,979,-227,1153,838,1,7,11
1.72313E+12,-8207,-3322,945,-564,903,703,1,7,11
1.72313E+12,-7824,-3051,912,-438,655,1035,1,7,11
1.72313E+12,-7788,-3040,1142,-831,418,1056,1,7,11
1.72313E+12,-7420,-3065,1144,-743,517,702,1,7,11
1.72313E+12,-7701,-3362,946,-908,173,626,1,7,11
1.72313E+12,-7756,-3427,1011,-1013,337,195,1,7,11
1.72313E+12,-7751,-3454,1316,-1021,-115,336,1,7,11
1.72313E+12,-7722,-3210,1351,-941,31,-78,1,7,11
1.72313E+12,-7414,-3238,1315,-1001,-295,19,1,7,11
1.72313E+12,-7696,-3256,1333,-684,-328,-169,1,7,11
1.72313E+12,-7702,-3297,1158,-659,-163,-547,1,7,11
1.72313E+12,-7334,-3312,1179,-887,-569,-400,1,7,11
1.72313E+12,-7305,-3291,1198,-892,-393,-811,1,7,11
1.72313E+12,-7313,-3264,1194,-715,-447,-875,1,7,11
1.72313E+12,-7727,-3256,1198,-1071,-407,-867,1,7,11
1.72313E+12,-7744,-3261,1170,-906,-458,-441,1,7,11
1.72313E+12,-7725,-3316,1165,-984,-455,-626,1,7,11
1.72313E+12,-7629,-3683,1191,-1357,-392,-408,1,7,11
1.72313E+12,-8025,-3867,1277,-1203,-419,-634,1,7,11
1.72313E+12,-7835,-3733,1587,-1222,-485,-613,1,7,11
1.72313E+12,-8199,-4110,1433,-1227,-842,-601,1,7,11
1.72313E+12,-8208,-4206,1807,-1174,-746,-544,1,7,11
1.72313E+12,-8218,-4018,1672,-1312,-1149,-228,1,7,11
1.72313E+12,-7885,-4039,1789,-1119,-1339,-345,1,7,11
1.72313E+12,-7953,-4009,2157,-875,-1268,65,1,7,11
1.72313E+12,-7730,-4174,2017,-604,-1648,-53,1,7,11
1.72313E+12,-7515,-3786,2387,-328,-1461,355,1,7,11
1.72313E+12,-7294,-3930,2263,-80,-1503,250,1,7,11
1.72313E+12,-6820,-3551,2619,179,-1500,388,1,7,11
1.72313E+12,-6645,-3699,2450,614,-1440,477,1,7,11
1.72313E+12,-6529,-3595,2542,480,-1597,770,1,7,11
1.72313E+12,-6736,-3265,2889,768,-1206,801,1,7,11
1.72313E+12,-6767,-3233,2738,451,-1286,796,1,7,11
1.72313E+12,-6606,-3216,3105,632,-1124,793,1,7,11
1.72313E+12,-6968,-3415,3177,571,-738,809,1,7,11
1.72313E+12,-6797,-3061,2970,228,-660,874,1,7,11
1.72313E+12,-6970,-3007,2967,357,-665,769,1,7,11
1.72313E+12,-6643,-2984,2967,85,-695,1037,1,7,11
1.72313E+12,-6565,-2994,3008,-359,-730,743,1,7,11
1.72313E+12,-6541,-3019,3343,-528,-738,891,1,7,11
1.72313E+12,-6588,-3063,3444,-628,-744,793,1,7,11
1.72313E+12,-6978,-3361,3300,-445,-715,445,1,7,11
1.72313E+12,-7212,-3434,3699,-457,-664,426,1,7,11
1.72313E+12,-7136,-3230,3543,-454,-659,507,1,7,11
1.72313E+12,-7315,-3592,3947,-481,-641,838,1,7,11
1.72313E+12,-7720,-3633,3794,-442,-893,655,1,7,11
1.72313E+12,-7582,-3653,4149,-396,-879,704,1,7,11
1.72313E+12,-7958,-3648,3972,-563,-845,757,1,7,11
1.72313E+12,-7996,-3270,4207,-146,-791,1127,1,7,11
1.72313E+12,-8023,-3388,4196,-268,-440,1010,1,7,11
1.72313E+12,-7941,-3192,4105,-111,-609,1188,1,7,11
1.72313E+12,-7797,-2745,3734,-17,-536,1569,1,7,11
1.72313E+12,-7549,-2817,3860,277,-245,1602,1,7,11
1.72313E+12,-7059,-2679,3493,-22,-203,1176,1,7,11
1.72313E+12,-6878,-2579,3668,-95,-160,1135,1,7,11
1.72313E+12,-6999,-2248,3588,86,-373,799,1,7,11
1.72313E+12,-6927,-2221,3255,-270,-337,198,1,7,11
1.72313E+12,-6634,-2235,3220,-132,-311,-101,1,7,11
1.72313E+12,-6931,-2575,3220,-242,-257,-369,1,7,11
1.72313E+12,-6855,-2625,3316,-413,120,-628,1,7,11
1.72313E+12,-7157,-2709,3686,-504,-13,-775,1,7,11
1.72313E+12,-7265,-2535,3296,-536,-83,-582,1,7,11
1.72313E+12,-6892,-2507,3404,-339,124,-148,1,7,11
1.72313E+12,-7091,-2939,3201,-226,292,-513,1,7,11
1.72313E+12,-7533,-2814,3272,-597,137,-536,1,7,11
1.72313E+12,-7402,-3129,3323,-602,149,-235,1,7,11
1.72313E+12,-7420,-3122,3584,-254,340,-178,1,7,11
1.72313E+12,-7394,-3103,3308,-155,-17,-137,1,7,11
1.72313E+12,-7309,-3108,3283,-158,-124,-375,1,7,11
1.72313E+12,-7475,-3116,3275,-163,72,-172,1,7,11
1.72313E+12,-7445,-3122,3269,-152,56,-517,1,7,11
1.72313E+12,-7156,-3105,3255,-144,44,-557,1,7,11
1.72313E+12,-7123,-3107,3276,-157,47,-568,1,7,11
1.72313E+12,-7079,-3104,3274,-375,80,-546,1,7,11
1.72313E+12,-7089,-3087,3258,-343,-74,-545,1,7,11
1.72313E+12,-7151,-2813,3254,-305,294,-246,1,7,11
1.72313E+12,-7441,-2803,3215,-271,374,-162,1,7,11
1.72313E+12,-7465,-2794,3422,1,194,-350,1,7,11
1.72313E+12,-7449,-2775,3355,-265,254,-297,1,7,11
1.72313E+12,-7480,-2799,3343,-331,578,-328,1,7,11
1.72313E+12,-7523,-3083,3336,-371,599,-377,1,7,11
1.72313E+12,-7326,-3123,3329,-140,582,-188,1,7,11
1.72313E+12,-7341,-3143,3055,-138,250,-520,1,7,11
1.72313E+12,-7332,-3166,3040,-132,153,-614,1,7,11
1.72313E+12,-7542,-2968,3047,-141,297,-444,1,7,11
1.72313E+12,-7485,-3013,3048,-369,-38,-798,1,7,11
1.72313E+12,-7435,-3043,3037,-319,-90,-644,1,7,11
1.72313E+12,-7151,-3339,3038,-276,-97,-749,1,7,11
1.72313E+12,-7139,-3375,3042,36,-86,-1062,1,7,11
1.72313E+12,-7145,-3409,3049,105,-51,-1080,1,7,11
1.72313E+12,-7159,-3414,3048,-82,-17,-1048,1,7,11
1.72313E+12,-7165,-3420,3049,-39,256,-723,1,7,11
1.72313E+12,-7157,-3419,3039,-8,-8,-890,1,7,11
1.72313E+12,-7138,-3425,3035,-1,-28,-802,1,7,11
1.72313E+12,-7135,-3414,3007,258,-35,-473,1,7,11
1.72313E+12,-7168,-3417,3000,-37,-35,-413,1,7,11
1.72313E+12,-7442,-3421,2965,-86,-53,-592,1,7,11
1.72313E+12,-7441,-3442,2961,88,-81,-507,1,7,11
1.72313E+12,-7426,-3216,2985,8,125,-206,1,7,11
1.72313E+12,-7167,-3237,3013,-309,92,-200,1,7,11
1.72313E+12,-7166,-3243,3025,-287,36,-179,1,7,11
1.72313E+12,-7141,-3220,3012,2,-283,-156,1,7,11
1.72313E+12,-7144,-3205,3015,24,-323,-139,1,7,11
1.72313E+12,-7127,-3429,2993,47,-350,-359,1,7,11
1.72313E+12,-7146,-3410,2987,24,-335,-310,1,7,11
1.72313E+12,-7160,-3408,3001,-260,-314,5,1,7,11
1.72313E+12,-7164,-3419,3004,-279,-302,64,1,7,11
1.72313E+12,-7428,-3432,3017,-280,-283,99,1,7,11
1.72313E+12,-7438,-3424,3028,-258,-276,-123,1,7,11
1.72313E+12,-7162,-3427,3045,10,-283,-90,1,7,11
1.72313E+12,-7134,-3430,3056,19,-294,-82,1,7,11
1.72313E+12,-7137,-3440,3343,28,-309,-102,1,7,11
1.72313E+12,-7126,-3455,3390,64,-332,-110,1,7,11
1.72313E+12,-7121,-3438,3411,-126,-342,-107,1,7,11
1.72313E+12,-7111,-3403,3418,-54,-355,-97,1,7,11
1.72313E+12,-7094,-3366,3418,-11,-353,-81,1,7,11
1.72313E+12,-7097,-3337,3430,283,-346,-65,1,7,11
1.72313E+12,-7096,-3334,3204,300,-341,-61,1,7,11
1.72313E+12,-7099,-3338,3236,329,-330,-60,1,7,11
1.72313E+12,-7098,-3057,3250,366,-323,-38,1,7,11
1.72313E+12,-7081,-3033,3250,137,-317,-39,1,7,11
1.72313E+12,-7107,-3016,3251,145,-290,-54,1,7,11
1.72313E+12,-7125,-3014,3266,130,-275,-56,1,7,11
1.72313E+12,-7140,-3028,3291,360,-266,-80,1,7,11
1.72313E+12,-7155,-3049,3312,338,-280,-93,1,7,11
1.72313E+12,-7113,-3065,3310,325,-321,-110,1,7,11
1.72313E+12,-7089,-3355,3597,287,-343,68,1,7,11
1.72313E+12,-7086,-3396,3627,268,-368,-280,1,7,11
1.72313E+12,-7074,-3429,3646,276,-153,-357,1,7,11
1.72313E+12,-7049,-3442,3665,295,-188,-175,1,7,11
1.72313E+12,-7290,-3456,3682,317,-208,-230,1,7,11
1.72313E+12,-7258,-3219,3705,341,-218,-534,1,7,11
1.72313E+12,-7227,-3231,3469,373,-213,-582,1,7,11
1.72313E+12,-7207,-3245,3496,140,-190,-634,1,7,11
1.72313E+12,-7208,-3257,3531,171,-157,-418,1,7,11
1.72313E+12,-7210,-3260,3550,192,-376,-426,1,7,11
1.72313E+12,-6902,-3247,3575,214,-345,-400,1,7,11
1.72313E+12,-6888,-3243,3880,208,-276,-397,1,7,11
1.72313E+12,-6854,-3232,3915,225,33,-624,1,7,11
1.72313E+12,-6836,-3217,3959,234,101,-599,1,7,11
1.72313E+12,-6809,-3450,3966,232,-92,-556,1,7,11
1.72313E+12,-7023,-3411,3947,236,-42,-230,1,7,11
1.72313E+12,-6785,-3388,3935,183,302,-206,1,7,11
1.72313E+12,-6835,-3362,3951,364,151,-155,1,7,11
1.72313E+12,-6882,-3343,3956,284,241,-323,1,7,11
1.72313E+12,-7181,-3336,3712,-51,588,22,1,7,11
1.72313E+12,-7215,-3351,3712,115,611,73,1,7,11
1.72313E+12,-7218,-3347,3947,70,399,-59,1,7,11
1.72313E+12,-7224,-3348,3929,28,449,341,1,7,11
1.72313E+12,-7203,-3350,3877,9,501,156,1,7,11
1.72313E+12,-7204,-3360,3845,-279,807,188,1,7,11
1.72313E+12,-7203,-3376,3574,-327,843,182,1,7,11
1.72313E+12,-7205,-3387,3535,-312,869,136,1,7,11
1.72313E+12,-7198,-3370,3477,-316,883,326,1,7,11
1.72313E+12,-7196,-3380,3710,-341,887,-13,1,7,11
1.72313E+12,-7190,-3409,3702,-143,895,-105,1,7,11
1.72313E+12,-7191,-3427,3661,-160,645,58,1,7,11
1.72313E+12,-7173,-3221,3643,-202,891,-308,1,7,11
1.72313E+12,-6884,-3248,3618,-205,872,-178,1,7,11
1.72313E+12,-6885,-3261,3586,-213,880,-596,1,7,11
1.72313E+12,-7181,-3254,3316,-205,876,-476,1,7,11
1.72313E+12,-7206,-3264,3297,-205,847,-883,1,7,11
1.72313E+12,-7043,-3288,3297,-215,833,-1092,1,7,11
1.72313E+12,-7095,-3286,3310,-197,505,-1312,1,7,11
1.72313E+12,-7439,-3215,3258,-356,431,-1629,1,7,11
1.72313E+12,-7325,-3054,3395,46,623,-1786,1,7,11
1.72313E+12,-7727,-3105,3024,99,237,-2228,1,7,11
1.72313E+12,-7638,-2733,2968,10,321,-2919,1,7,11
1.72313E+12,-7941,-2751,2977,-184,9,-2956,1,7,11
1.72313E+12,-7778,-3096,2986,-628,-604,-3454,1,7,11
1.72313E+12,-7309,-2971,3007,-827,-657,-3662,1,7,11
1.72313E+12,-7067,-3441,3332,-1096,-900,-3536,1,7,11
1.72313E+12,-6834,-3500,3448,-1354,-1304,-3572,1,7,11
1.72313E+12,-6642,-3821,3266,-1235,-1343,-3505,1,7,11
1.72313E+12,-6776,-4381,3594,-1572,-1305,-3589,1,7,11
1.72313E+12,-6355,-4336,3597,-1273,-973,-3026,1,7,11
1.72313E+12,-6470,-4719,3318,-1554,-1093,-2718,1,7,11
1.72313E+12,-6102,-4878,3313,-1624,-669,-2644,1,7,11
1.72313E+12,-6091,-4746,3314,-1425,-454,-2336,1,7,11
1.72313E+12,-6031,-5197,3598,-1487,-565,-1738,1,7,11
1.72313E+12,-6268,-5056,3320,-1648,-362,-1515,1,7,11
1.72313E+12,-6050,-5407,3296,-1231,74,-1615,1,7,11
1.72313E+12,-6054,-5416,3227,-1010,-9,-1407,1,7,11
1.72313E+12,-6077,-5432,3444,-1084,172,-957,1,7,11
1.72313E+12,-6133,-5390,3398,-859,582,-749,1,7,11
1.72313E+12,-6472,-5402,3365,-484,386,-779,1,7,11
1.72313E+12,-6279,-5089,3049,-249,610,-232,1,7,11
1.72313E+12,-6369,-5019,2963,-377,221,69,1,7,11
1.72313E+12,-6664,-5207,3110,-292,-30,148,1,7,11
1.72313E+12,-6721,-4817,2726,62,12,470,1,7,11
1.72313E+12,-6572,-4939,2905,91,-216,1040,1,7,11
1.72313E+12,-6645,-4593,2915,1,-416,1382,1,7,11
1.72313E+12,-6962,-4544,2759,-153,-848,1744,1,7,11
1.72313E+12,-6983,-4730,3118,-246,-724,1927,1,7,11
1.72313E+12,-6648,-4641,3152,-531,-1110,2898,1,7,11
1.72313E+12,-6725,-4256,3139,-228,-984,3028,1,7,11
1.72313E+12,-6491,-4458,3181,-618,-1309,3258,1,7,11
1.72313E+12,-6082,-4380,2978,-693,-1335,3236,1,7,11
1.72313E+12,-6058,-4056,3063,-990,-1156,3346,1,7,11
1.72313E+12,-6258,-4218,3384,-1388,-1569,3135,1,7,11
1.72313E+12,-6218,-3769,3045,-1529,-1634,2868,1,7,11
1.72313E+12,-6282,-4113,3421,-2139,-1211,2613,1,7,11
1.72313E+12,-6080,-4116,3378,-2126,-1175,2301,1,7,11
1.72313E+12,-6035,-4357,3259,-2145,-744,2075,1,7,11
1.72313E+12,-6527,-4409,3312,-1498,-577,1552,1,7,11
1.72313E+12,-6709,-4043,3201,-1630,-151,978,1,7,11
1.72313E+12,-6576,-4222,3336,-902,-263,1064,1,7,11
1.72313E+12,-7002,-4176,2971,-714,-41,1052,1,7,11
1.72313E+12,-7239,-3994,2985,-857,191,896,1,7,11
1.72313E+12,-6891,-3972,3116,-551,215,1370,1,7,11
1.72313E+12,-7049,-4180,2804,-195,537,986,1,7,11
1.72313E+12,-7476,-4170,2792,-379,356,929,1,7,11
1.72313E+12,-7331,-4120,2737,-348,-301,1092,1,7,11
1.72313E+12,-7551,-3741,2690,-161,-843,738,1,7,11
1.72313E+12,-7390,-3732,2800,-411,-1340,847,1,7,11
1.72313E+12,-7302,-3769,2951,-832,-1906,650,1,7,11
1.72313E+12,-7552,-3749,3070,-867,-2020,711,1,7,11
1.72313E+12,-7528,-3836,3245,-832,-2593,899,1,7,11
1.72313E+12,-7276,-4097,3317,-553,-2535,1156,1,7,11
1.72313E+12,-6840,-4136,3674,53,-2436,1230,1,7,11
1.72313E+12,-6939,-3817,3481,543,-2178,1272,1,7,11
1.72313E+12,-6565,-3765,3559,713,-2124,1273,1,7,11
1.72313E+12,-6751,-3888,3565,1161,-1830,1236,1,7,11
1.72313E+12,-6718,-3687,3527,1493,-1581,1390,1,7,11
1.72313E+12,-6556,-3228,3483,1692,-1294,1006,1,7,11
1.72313E+12,-6641,-3052,3462,1726,-1059,997,1,7,11
1.72313E+12,-6795,-2988,3541,1911,-855,1286,1,7,11
1.72313E+12,-6795,-2997,3889,1858,-473,1322,1,7,11
1.72313E+12,-7187,-3012,3964,1857,-602,976,1,7,11
1.72313E+12,-7181,-3069,3966,1877,-612,924,1,7,11
1.72313E+12,-6902,-3029,3887,1869,-518,757,1,7,11
1.72313E+12,-7272,-3334,3946,1457,-378,872,1,7,11
1.72313E+12,-7153,-3225,4146,1578,7,817,1,7,11
1.72313E+12,-7299,-3210,4215,1498,81,661,1,7,11
1.72313E+12,-7392,-3454,4030,1682,38,1121,1,7,11
1.72313E+12,-7408,-3042,3987,2023,-284,1381,1,7,11
1.72313E+12,-7354,-2736,3817,2597,-152,1458,1,7,11
1.72313E+12,-7528,-2513,3824,2253,-247,1731,1,7,11
1.72313E+12,-7432,-2686,3953,2250,-411,2032,1,7,11
1.72313E+12,-7287,-2319,3926,2225,-475,2355,1,7,11
1.72313E+12,-7085,-1724,3945,1940,-462,2399,1,7,11
1.72313E+12,-7214,-1814,3940,1853,-494,2283,1,7,11
1.72313E+12,-6996,-1646,3921,1171,-507,2635,1,7,11
1.72313E+12,-6997,-1457,3831,794,-588,2409,1,7,11
1.72313E+12,-6736,-1662,3818,303,-203,1968,1,7,11
1.72313E+12,-6579,-1614,4100,-409,-11,1626,1,7,11
1.72313E+12,-6930,-1642,4191,-1093,564,1150,1,7,11
1.72313E+12,-6885,-1561,4204,-1385,749,629,1,7,11
1.72313E+12,-7291,-1592,3968,-1648,1331,-8,1,7,11
1.72313E+12,-7427,-1639,4186,-1833,1610,-176,1,7,11
1.72313E+12,-7524,-1488,4151,-1744,1512,-837,1,7,11
1.72313E+12,-7390,-1827,3810,-2104,1899,-942,1,7,11
1.72313E+12,-7768,-1905,3754,-1967,1672,-1396,1,7,11
1.72313E+12,-7795,-1784,3769,-2344,1675,-1169,1,7,11
1.72313E+12,-7724,-1960,3775,-2337,1747,-1285,1,7,11
1.72313E+12,-7383,-2182,3806,-1994,1936,-1001,1,7,11
1.72313E+12,-7392,-2607,3774,-1734,2322,-1015,1,7,11
1.72313E+12,-7366,-2639,3905,-1458,2399,-1307,1,7,11
1.72313E+12,-7359,-2687,3562,-1229,2224,-1324,1,7,11
1.72313E+12,-7393,-2654,3457,-974,2613,-1308,1,7,11
1.72313E+12,-7722,-2545,3457,-733,2297,-999,1,7,11
1.72313E+12,-7645,-2481,3616,-809,2387,-1159,1,7,11
1.72313E+12,-7809,-2483,3316,-507,1767,-1207,1,7,11
1.72313E+12,-7844,-2684,3226,-632,1628,-1370,1,7,11
1.72313E+12,-8209,-2640,3205,-597,1160,-1282,1,7,11
1.72313E+12,-8251,-2671,3221,-174,1144,-653,1,7,11
1.72313E+12,-8014,-2630,3392,0,642,-607,1,7,11
1.72313E+12,-7969,-2577,3060,104,490,-526,1,7,11
1.72313E+12,-7614,-2255,3013,99,570,-514,1,7,11
1.72313E+12,-7630,-2207,3031,55,206,-589,1,7,11
1.72313E+12,-7590,-2405,3015,70,329,-562,1,7,11
1.72313E+12,-7788,-2345,2978,44,274,-592,1,7,11
1.72313E+12,-7802,-2321,2971,-294,-8,-629,1,7,11
1.72313E+12,-7766,-2026,3178,-356,-36,-611,1,7,11
1.72313E+12,-7708,-2010,3129,-192,-31,-607,1,7,11
1.72313E+12,-7698,-2046,3136,-599,273,-611,1,7,11
1.72313E+12,-7416,-2359,3142,-473,295,-600,1,7,11
1.72313E+12,-7417,-2183,3167,-839,310,-632,1,7,11
1.72313E+12,-7717,-2288,2957,-655,305,-426,1,7,11
1.72313E+12,-7722,-2588,3184,-887,-15,-396,1,7,11
1.72313E+12,-7684,-2662,3173,-896,-85,-387,1,7,11
1.72313E+12,-7417,-2464,3146,-859,-123,-633,1,7,11
1.72313E+12,-7362,-2554,3172,-876,80,-611,1,7,11
1.72313E+12,-7348,-2854,3181,-859,16,-618,1,7,11
1.72313E+12,-7338,-2878,3168,-788,-292,-403,1,7,11
1.72313E+12,-7374,-2927,3162,-507,-362,-445,1,7,11
1.72313E+12,-7393,-2708,2950,-474,-194,-463,1,7,11
1.72313E+12,-7400,-2766,3012,-475,-536,-441,1,7,11
1.72313E+12,-7367,-2771,3042,-422,-396,-410,1,7,11
1.72313E+12,-7544,-2771,3050,-628,-458,-388,1,7,11
1.72313E+12,-7514,-2782,3069,-617,-476,-608,1,7,11
1.72313E+12,-7442,-2792,3345,-613,-441,-535,1,7,11
1.72313E+12,-7152,-3089,3396,-392,-618,-239,1,7,11
1.72313E+12,-7124,-3150,3224,-414,-548,-173,1,7,11
1.72313E+12,-7106,-3169,3266,-612,-224,-138,1,7,11
1.72313E+12,-7148,-3178,3310,-573,-190,-147,1,7,11
1.72313E+12,-7152,-3156,3596,-239,-194,-380,1,7,11
1.72313E+12,-7443,-3121,3622,-186,-205,-149,1,7,11
1.72313E+12,-7460,-3089,3638,-131,-248,-384,1,7,11
1.72313E+12,-7164,-2798,3637,-345,-576,-132,1,7,11
1.72313E+12,-7109,-2797,3655,-336,-394,-176,1,7,11
1.72313E+12,-7058,-3085,3688,-299,-428,-525,1,7,11
1.72313E+12,-7263,-3103,3689,34,-454,-590,1,7,11
1.72313E+12,-7181,-3114,3670,94,-455,-417,1,7,11
1.72313E+12,-6860,-3097,3638,104,-423,-505,1,7,11
1.72313E+12,-6792,-3115,3632,21,-639,-862,1,7,11
1.72313E+12,-7025,-3129,3635,-322,-577,-742,1,7,11
1.72313E+12,-6809,-3145,3620,-138,-237,-1141,1,7,11
1.72313E+12,-7173,-3147,3602,-230,-158,-977,1,7,11
1.72313E+12,-7282,-2956,3618,-595,-372,-976,1,7,11
1.72313E+12,-7143,-3040,3629,-428,-356,-910,1,7,11
1.72313E+12,-7437,-3418,3668,-472,-174,-746,1,7,11
1.72313E+12,-7426,-3428,3671,-438,-568,-838,1,7,11
1.72313E+12,-7512,-3221,3481,-472,-403,-405,1,7,11
1.72313E+12,-7306,-3279,3558,-504,-845,-177,1,7,11
1.72313E+12,-7718,-3295,3873,-603,-1113,85,1,7,11
1.72313E+12,-7525,-3466,3747,-309,-1266,231,1,7,11
1.72313E+12,-7137,-3474,3835,153,-1501,619,1,7,11
1.72313E+12,-7287,-3261,3806,889,-1895,472,1,7,11
1.72313E+12,-6908,-3350,3799,1098,-1791,891,1,7,11
1.72313E+12,-6792,-3193,4107,1119,-2108,717,1,7,11
1.72313E+12,-6985,-2762,4144,752,-2067,765,1,7,11
1.72313E+12,-7083,-2815,4420,830,-1711,1144,1,7,11
1.72313E+12,-6828,-2692,4420,693,-2133,1633,1,7,11
1.72313E+12,-7223,-2915,4244,871,-1754,1482,1,7,11
1.72313E+12,-6791,-2552,4454,861,-2122,2116,1,7,11
1.72313E+12,-6923,-2450,4409,454,-1731,1953,1,7,11
1.72313E+12,-6558,-2624,4424,253,-1450,2326,1,7,11
1.72313E+12,-6708,-2647,4613,-24,-1305,2339,1,7,11
1.72313E+12,-6747,-2469,4557,-106,-874,2311,1,7,11
1.72313E+12,-6354,-2660,4553,266,-606,2341,1,7,11
1.72313E+12,-6478,-2659,4537,261,18,2079,1,7,11
1.72313E+12,-6384,-2659,4574,-81,363,1425,1,7,11
1.72313E+12,-6703,-2631,4522,-122,518,1406,1,7,11
1.72313E+12,-6605,-2566,4721,11,448,1141,1,7,11
1.72313E+12,-6939,-2246,4679,-345,805,1086,1,7,11
1.72313E+12,-7038,-2191,4644,-195,706,1076,1,7,11
1.72313E+12,-6840,-2215,4695,-550,1084,948,1,7,11
1.72313E+12,-6785,-2282,4721,-388,911,1285,1,7,11
1.72313E+12,-6807,-2265,4680,-594,993,993,1,7,11
1.72313E+12,-6904,-2202,4615,-537,1305,1038,1,7,11
1.72313E+12,-7238,-2185,4288,-251,1303,664,1,7,11
1.72313E+12,-6785,-2034,4360,-210,944,895,1,7,11
1.72313E+12,-6891,-1996,4087,-636,1285,574,1,7,11
1.72313E+12,-7177,-2018,4079,-510,995,218,1,7,11
1.72313E+12,-7195,-1986,4094,-845,1008,275,1,7,11
1.72313E+12,-7440,-2362,4469,-738,1383,-269,1,7,11
1.72313E+12,-7480,-2317,4092,-780,907,-91,1,7,11
1.72313E+12,-7356,-2357,4354,-439,1101,-40,1,7,11
1.72313E+12,-7537,-2356,4033,-608,750,-314,1,7,11
1.72313E+12,-7304,-2322,4014,-233,675,-238,1,7,11
1.72313E+12,-7400,-2346,4052,-197,675,-639,1,7,11
1.72313E+12,-7705,-2351,4055,-134,861,-773,1,7,11
1.72313E+12,-7582,-2004,4037,-229,796,-653,1,7,11
1.72313E+12,-7941,-1990,4001,37,416,-672,1,7,11
1.72313E+12,-8027,-1986,3999,32,557,-650,1,7,11
1.72313E+12,-7827,-2018,3989,-273,196,-842,1,7,11
1.72313E+12,-7859,-2409,4049,-348,372,-795,1,7,11
1.72313E+12,-7894,-2200,4051,-292,348,-770,1,7,11
1.72313E+12,-7911,-2297,4083,-302,290,-500,1,7,11
1.72313E+12,-8038,-2604,4094,13,-75,-490,1,7,11
1.72313E+12,-7598,-2614,4062,111,92,-860,1,7,11
1.72313E+12,-7584,-2595,4021,-61,123,-1123,1,7,11
1.72313E+12,-7629,-2607,4009,-30,92,-1300,1,7,11
1.72313E+12,-7808,-2620,4223,-21,-278,-1370,1,7,11
1.72313E+12,-7687,-2654,4200,-61,-323,-1210,1,7,11
1.72313E+12,-7391,-2435,4200,-112,-308,-1552,1,7,11
1.72313E+12,-7339,-2497,4184,81,-296,-1586,1,7,11
1.72313E+12,-7519,-2859,4196,24,-291,-1594,1,7,11
1.72313E+12,-7430,-2925,4169,11,-317,-1587,1,7,11
1.72313E+12,-7259,-2788,4150,-305,-135,-1596,1,7,11
1.72313E+12,-6873,-3114,4140,-332,-153,-1413,1,7,11
1.72313E+12,-7039,-3183,4135,-322,-144,-1534,1,7,11
1.72313E+12,-6882,-2960,4158,-299,-330,-1687,1,7,11
1.72313E+12,-6912,-3029,4187,10,-142,-1681,1,7,11
1.72313E+12,-6883,-3032,4145,84,-513,-1908,1,7,11
1.72313E+12,-6802,-3054,4133,122,-635,-1889,1,7,11
1.72313E+12,-6949,-3031,4120,-82,-465,-1866,1,7,11
1.72313E+12,-6630,-3017,4126,-67,-484,-1866,1,7,11
1.72313E+12,-6941,-3031,4179,-71,-453,-1844,1,7,11
1.72313E+12,-6647,-3339,4012,-47,-479,-1428,1,7,11
1.72313E+12,-6958,-3358,4353,312,-447,-1579,1,7,11
1.72313E+12,-6913,-3377,4406,173,-481,-1387,1,7,11
1.72313E+12,-6631,-3353,4443,548,-472,-998,1,7,11
1.72313E+12,-6606,-3069,4264,619,-462,-1129,1,7,11
1.72313E+12,-6615,-2996,4639,468,-392,-738,1,7,11
1.72313E+12,-6945,-3127,4714,854,-603,-500,1,7,11
1.72313E+12,-6926,-2797,4527,687,-608,-150,1,7,11
1.72313E+12,-6639,-2744,4572,1037,-591,-69,1,7,11
1.72313E+12,-6611,-2886,4508,924,-256,187,1,7,11
1.72313E+12,-6542,-2649,4482,984,-170,402,1,7,11
1.72313E+12,-6590,-2581,4518,1101,-293,493,1,7,11
1.72313E+12,-6668,-2280,4606,677,53,845,1,7,11
1.72313E+12,-7019,-2565,4977,468,-118,880,1,7,11
1.72313E+12,-6868,-2564,4765,236,-96,826,1,7,11
1.72313E+12,-7158,-2846,5239,68,-101,631,1,7,11
1.72313E+12,-7361,-2798,5427,53,54,612,1,7,11
1.72313E+12,-7439,-2938,5022,-51,-153,386,1,7,11
1.72313E+12,-7100,-2901,5147,261,-182,531,1,7,11
1.72313E+12,-6800,-2464,4564,365,-249,597,1,7,11
1.72313E+12,-6755,-2627,4280,286,-148,246,1,7,11
1.72313E+12,-6357,-2593,4353,-112,89,325,1,7,11
1.72313E+12,-6370,-2606,4028,-262,136,109,1,7,11
1.72313E+12,-6755,-2645,4009,-342,406,-265,1,7,11
1.72313E+12,-6567,-2468,4033,-166,821,-293,1,7,11
1.72313E+12,-6650,-2847,4074,-163,894,-332,1,7,11
1.72313E+12,-6653,-2927,4060,-363,890,-146,1,7,11
1.72313E+12,-6976,-2756,4059,-306,648,-560,1,7,11
1.72313E+12,-6841,-3075,4068,-264,642,-431,1,7,11
1.72313E+12,-6908,-3169,4358,30,857,-491,1,7,11
1.72313E+12,-7235,-2985,4389,122,831,-775,1,7,11
1.72313E+12,-7240,-3048,4415,262,788,-474,1,7,11
1.72313E+12,-7222,-3068,4406,184,792,-402,1,7,11
1.72313E+12,-6863,-3059,4364,388,812,-547,1,7,11
1.72313E+12,-6996,-2988,4008,843,885,-237,1,7,11
1.72313E+12,-6633,-3175,4152,728,754,-250,1,7,11
1.72313E+12,-6577,-3133,3777,1045,914,-579,1,7,11
1.72313E+12,-6584,-3100,3935,762,1369,-457,1,7,11
1.72313E+12,-6984,-3134,3715,647,1592,-649,1,7,11
1.72313E+12,-6827,-3180,3785,862,1430,-732,1,7,11
1.72313E+12,-6881,-3001,4144,834,1418,-1081,1,7,11
1.72313E+12,-7169,-3345,4222,647,1603,-936,1,7,11
1.72313E+12,-7189,-3376,4206,1063,1210,-1287,1,7,11
1.72313E+12,-6873,-3353,4139,947,1005,-1336,1,7,11
1.72313E+12,-6983,-3053,3775,1022,1066,-1369,1,7,11
1.72313E+12,-6933,-3337,3764,953,710,-1216,1,7,11
1.72313E+12,-6652,-3072,3758,960,865,-1224,1,7,11
1.72313E+12,-6587,-3014,3749,963,502,-1159,1,7,11
1.72313E+12,-6700,-2977,3728,922,387,-1299,1,7,11
1.72313E+12,-6292,-2954,3718,1080,563,-958,1,7,11
1.72313E+12,-6494,-2972,3723,694,544,-982,1,7,11
1.72313E+12,-6438,-2971,3910,862,523,-997,1,7,11
1.72313E+12,-6475,-2973,3540,476,589,-1368,1,7,11
1.72313E+12,-6354,-3192,3610,588,465,-1197,1,7,11
1.72313E+12,-6783,-3031,3256,311,851,-1233,1,7,11
1.72313E+12,-6966,-3378,3409,85,750,-1273,1,7,11
1.72313E+12,-7287,-3324,3369,-146,934,-1629,1,7,11
1.72313E+12,-7412,-3914,3343,-245,1017,-1642,1,7,11
1.72313E+12,-7594,-4191,3357,-577,1293,-1423,1,7,11
1.72313E+12,-7993,-4443,3416,-589,1278,-1481,1,7,11
1.72313E+12,-7852,-4620,3219,-219,927,-1507,1,7,11
1.72313E+12,-7995,-4736,3225,-184,717,-1461,1,7,11
1.72313E+12,-7628,-4559,3263,-1,804,-1524,1,7,11
1.72313E+12,-7764,-4563,3325,232,635,-1813,1,7,11
1.72313E+12,-7333,-4517,3624,471,172,-1526,1,7,11
1.72313E+12,-7083,-4694,3663,699,-48,-1446,1,7,11
1.72313E+12,-6811,-4331,3697,898,26,-1615,1,7,11
1.72313E+12,-6564,-4226,3491,1308,-351,-1548,1,7,11
1.72313E+12,-6335,-4371,3535,1185,-196,-1197,1,7,11
1.72313E+12,-6131,-4020,3575,1257,-225,-1382,1,7,11
1.72313E+12,-6113,-4180,3860,1558,-143,-1340,1,7,11
1.72313E+12,-6462,-4119,3886,1273,-281,-959,1,7,11
1.72313E+12,-6309,-3806,3886,1242,101,-680,1,7,11
1.72313E+12,-6398,-3960,3854,1204,307,-588,1,7,11
1.72313E+12,-6535,-3859,3559,1367,576,110,1,7,11
1.72313E+12,-6584,-3560,3522,930,844,636,1,7,11
1.72313E+12,-6615,-3539,3532,693,902,1135,1,7,11
1.72313E+12,-6980,-3936,3921,625,1158,1559,1,7,11
1.72313E+12,-6540,-4118,3768,148,1171,1664,1,7,11
1.72313E+12,-6379,-3972,3790,299,1208,1835,1,7,11
1.72313E+12,-6332,-3985,3740,-2,1220,1216,1,7,11
1.72313E+12,-6397,-4145,3893,-18,1244,738,1,7,11
1.72313E+12,-6753,-3783,3531,-74,1184,591,1,7,11
1.72313E+12,-6590,-3940,3466,74,1382,260,1,7,11
1.72313E+12,-6918,-3903,3702,-275,982,81,1,7,11
1.72313E+12,-6617,-3916,3477,-359,1061,-352,1,7,11
1.72313E+12,-6578,-3927,3580,-323,840,-552,1,7,11
1.72313E+12,-6692,-3519,3513,29,406,-805,1,7,11
1.72313E+12,-6554,-3499,3558,-298,551,-766,1,7,11
1.72313E+12,-6751,-3493,3582,-373,152,-1044,1,7,11
1.72313E+12,-6589,-3484,3862,-164,166,-1083,1,7,11
1.72313E+12,-6645,-3521,3883,-218,226,-741,1,7,11
1.72313E+12,-6945,-3557,3888,-205,600,-864,1,7,11
1.72313E+12,-6922,-3570,3844,-201,773,-453,1,7,11
1.72313E+12,-6951,-3861,3565,-224,763,-576,1,7,11
1.72313E+12,-6943,-3896,3519,-248,1000,-140,1,7,11
1.72313E+12,-6947,-3951,3711,-528,1263,18,1,7,11
1.72313E+12,-6790,-3794,3656,-551,1803,-55,1,7,11
1.72313E+12,-6925,-4110,3276,-218,1722,372,1,7,11
1.72313E+12,-7037,-3971,3431,-242,1976,340,1,7,11
1.72313E+12,-6793,-4218,2990,-336,1929,131,1,7,11
1.72313E+12,-6881,-4021,3109,-338,2094,370,1,7,11
1.72313E+12,-7249,-4039,2710,-318,1693,189,1,7,11
1.72313E+12,-7081,-4447,2722,-323,1489,546,1,7,11
1.72313E+12,-7283,-4239,2942,-76,1541,433,1,7,11
1.72313E+12,-7254,-4429,2877,179,1164,417,1,7,11
1.72313E+12,-7254,-4373,2886,613,1303,608,1,7,11
1.72313E+12,-7290,-4031,2898,819,963,523,1,7,11
1.72313E+12,-7063,-4148,2893,754,1130,225,1,7,11
1.72313E+12,-7057,-3788,2900,1092,756,220,1,7,11
1.72313E+12,-7044,-3951,2927,1111,643,196,1,7,11
1.72313E+12,-7269,-3890,2693,1083,775,156,1,7,11
1.72313E+12,-7254,-3542,2938,1076,455,342,1,7,11
1.72313E+12,-7273,-3699,2939,738,440,270,1,7,11
1.72313E+12,-7083,-3699,2719,835,402,-5,1,7,11
1.72313E+12,-7052,-3661,2691,488,537,320,1,7,11
1.72313E+12,-7269,-3702,2721,576,153,261,1,7,11
1.72313E+12,-7234,-3468,2719,549,285,-113,1,7,11
1.72313E+12,-7188,-3707,2705,556,-63,-304,1,7,11
1.72313E+12,-6883,-3472,2720,551,109,-514,1,7,11
1.72313E+12,-6909,-3458,2747,590,19,-443,1,7,11
1.72313E+12,-6846,-3514,3105,585,-213,-786,1,7,11
1.72313E+12,-6621,-3572,3141,780,-626,-697,1,7,11
1.72313E+12,-6989,-3679,2759,900,-198,-1292,1,7,11
1.72313E+12,-6848,-3325,2863,991,-358,-1344,1,7,11
1.72313E+12,-7232,-3600,2510,915,-118,-1355,1,7,11
1.72313E+12,-7467,-3631,2437,1060,206,-1010,1,7,11
1.72313E+12,-7340,-3471,2662,677,479,-1056,1,7,11
1.72313E+12,-7724,-3512,2613,649,1041,-858,1,7,11
1.72313E+12,-7564,-3523,2286,864,1319,-632,1,7,11
1.72313E+12,-7605,-3521,2202,810,1572,-376,1,7,11
1.72313E+12,-7609,-3509,2376,489,1502,-62,1,7,11
1.72313E+12,-7622,-3658,1984,509,1748,140,1,7,11
1.72313E+12,-7601,-3263,2098,775,2118,386,1,7,11
1.72313E+12,-7772,-3449,2069,512,2147,704,1,7,11
1.72313E+12,-7388,-3237,2127,-22,2058,983,1,7,11
1.72313E+12,-7531,-3304,2161,36,1883,1402,1,7,11
1.72313E+12,-7475,-3627,2146,-340,1590,1405,1,7,11
1.72313E+12,-7490,-3664,2111,-156,981,1001,1,7,11
1.72313E+12,-7527,-3680,2101,-203,847,1072,1,7,11
1.72313E+12,-7338,-3702,2114,-239,196,868,1,7,11
1.72313E+12,-7407,-3708,2134,-245,86,452,1,7,11
1.72313E+12,-7700,-3484,1924,-529,-527,570,1,7,11
1.72313E+12,-7717,-3483,1966,-224,-800,227,1,7,11
1.72313E+12,-7737,-3469,2011,-159,-738,157,1,7,11
1.72313E+12,-7766,-3473,2340,-334,-1091,138,1,7,11
1.72313E+12,-7706,-3711,2418,39,-915,222,1,7,11
1.72313E+12,-7392,-3461,2259,-100,-1107,240,1,7,11
1.72313E+12,-7344,-3687,2302,347,-717,558,1,7,11
1.72313E+12,-7527,-3621,2276,244,-783,603,1,7,11
1.72313E+12,-7447,-3289,2213,594,-560,405,1,7,11
1.72313E+12,-7129,-3253,2195,547,-284,632,1,7,11
1.72313E+12,-7099,-3309,2273,164,-114,581,1,7,11
1.72313E+12,-7261,-3459,2639,297,-92,237,1,7,11
1.72313E+12,-7206,-3861,2489,306,94,346,1,7,11
1.72313E+12,-6792,-3866,2481,131,-281,-99,1,7,11
1.72313E+12,-7223,-3714,2848,155,19,-195,1,7,11
1.72313E+12,-7098,-3716,2934,555,9,-523,1,7,11
1.72313E+12,-7464,-3716,2758,430,29,-556,1,7,11
1.72313E+12,-7527,-3895,2788,692,-3,-163,1,7,11
1.72313E+12,-7483,-3544,2783,965,186,60,1,7,11
1.72313E+12,-7153,-3475,2791,1219,441,-89,1,7,11
1.72313E+12,-7107,-3640,2800,1443,902,-103,1,7,11
1.72313E+12,-7123,-3264,2798,1695,1518,43,1,7,11
1.72313E+12,-7122,-3425,2789,1942,2224,-351,1,7,11
1.72313E+12,-7183,-3053,2493,4561,7931,-1592,1,7,11
1.72313E+12,-2297,-3123,-938,8205,32511,-31372,1,7,11
1.72313E+12,-1712,-2879,-1385,1068,32511,-32768,1,7,11
1.72313E+12,-1422,-2450,-1157,-3551,32511,-32768,1,7,11
1.72313E+12,-1247,-2588,-1200,-6442,32511,-32768,1,7,11
1.72313E+12,-1389,-2252,-1242,-7579,32511,-32768,1,7,11
1.72313E+12,-1325,-2420,-1551,-8153,32511,-32768,1,7,11
1.72313E+12,-1421,-1777,-683,-8188,32511,-32768,1,7,11
1.72313E+12,-1159,-1869,-846,-7664,32511,-32768,1,7,11
1.72313E+12,-964,-1522,-836,-6816,32511,-32768,1,7,11
1.72313E+12,-1129,-1639,-179,-6061,32511,-32768,1,7,11
1.72313E+12,8144,998,32511,-11760,32511,-32768,1,7,11
1.72313E+12,5087,594,21180,-2301,16413,-32768,1,7,11
1.72313E+12,2705,-71,13003,4504,5638,-32768,1,7,11
1.72313E+12,1277,-321,8081,8169,-686,-32768,1,7,11
1.72313E+12,428,-210,5393,10013,-4314,-32768,1,7,11
1.72313E+12,-83,-562,3630,10335,-6284,-32768,1,7,11
1.72313E+12,-383,-628,2579,9618,-7471,-32768,1,7,11
1.72313E+12,-556,-415,1710,8629,-7755,-32768,1,7,11
1.72313E+12,-403,-458,1594,7505,-7397,-32768,1,7,11
1.72313E+12,-457,-483,1382,5552,-7095,-32768,1,7,11
1.72313E+12,-486,-769,1000,3841,-6960,-32768,1,7,11
1.72313E+12,-509,-820,964,1645,-6286,-32768,1,7,11
1.72313E+12,-16017,-26326,21515,-24901,5964,-32768,1,7,11
1.72313E+12,-10896,-17307,10892,-32768,28417,-16265,1,7,11
1.72313E+12,-8405,-12595,10484,-32768,32511,3744,1,7,11
1.72313E+12,-5186,-873,811,11744,32511,32511,1,7,11
1.72313E+12,-2060,7030,-15510,21340,32511,32511,1,7,11
1.72313E+12,-967,7361,-10698,8402,32511,32511,1,7,11
1.72313E+12,-167,5896,-9221,3483,24379,32511,1,7,11
1.72313E+12,1308,5653,-7854,269,19149,32440,1,7,11
1.72313E+12,-15,3901,-7937,2826,16811,20174,1,7,11
1.72313E+12,-503,2374,-6306,14179,5837,13475,1,7,11
1.72313E+12,-590,1321,-4310,22881,-4715,10000,1,7,11
1.72313E+12,-2578,1351,-4707,27647,-13571,6128,1,7,11
1.72313E+12,-4117,1828,-5192,26794,-19851,422,1,7,11
1.72313E+12,-6017,1542,-5816,20715,-18442,-6621,1,7,11
1.72313E+12,-6582,624,-6068,15522,-15216,-10493,1,7,11
1.72313E+12,-6359,803,-5505,9634,-15422,-12807,1,7,11
1.72313E+12,-5837,-79,-3801,673,-17309,-13839,1,7,11
1.72313E+12,-6619,289,-2843,-5080,-16977,-17076,1,7,11
1.72313E+12,-5461,-91,-1663,-5317,-12883,-19155,1,7,11
1.72313E+12,-5385,289,-737,-6444,-11650,-18223,1,7,11
1.72313E+12,-5885,-94,-191,-8931,-9546,-19469,1,7,11
1.72313E+12,-6143,-361,-298,-10163,-6457,-22405,1,7,11
1.72313E+12,-6683,-679,-630,-11310,-2285,-26753,1,7,11
1.72313E+12,-6112,-2058,-1085,-11836,-111,-32768,1,7,11
1.72313E+12,-4575,-3679,-1096,-10171,2578,-32768,1,7,11
1.72313E+12,-4743,-8180,-444,-5193,5667,-32768,1,7,11
1.72313E+12,-703,-10644,-2893,18972,12015,-32768,1,7,11
1.72313E+12,-1598,-12256,-581,32511,8659,-28452,1,7,11
1.72313E+12,-1345,-10697,2978,32511,-1692,-30962,1,7,11
1.72313E+12,4606,-10329,4680,32511,5190,-24983,1,7,11
1.72313E+12,2215,-9434,7058,21649,11755,-10776,1,7,11
1.72313E+12,1239,-10502,6281,9075,10258,-4612,1,7,11
1.72313E+12,1362,-9171,5730,4454,8222,-4171,1,7,11
1.72313E+12,975,-8328,5647,757,6040,-4035,1,7,11
1.72313E+12,1106,-8367,5675,-3428,2159,-4935,1,7,11
1.72313E+12,1572,-7888,5220,-5271,-2598,-5897,1,7,11
1.72313E+12,2555,-7420,4208,-6391,-1851,-5734,1,7,11
1.72313E+12,3599,-7146,3344,-3808,5460,-2606,1,7,11
1.72313E+12,2792,-7979,3790,-652,7959,43,1,7,11
1.72313E+12,2262,-7615,4451,3357,7597,-1683,1,7,11
1.72313E+12,2511,-6440,4138,2763,6211,-4575,1,7,11
1.72313E+12,4038,-6490,63,1206,5750,-6000,1,7,11
1.72313E+12,3866,-7945,2690,-3525,15900,-13007,1,7,11
1.72313E+12,3255,-6850,3285,-915,14365,-16289,1,7,11
1.72313E+12,3020,-6556,4111,-1330,10580,-13915,1,7,11
1.72313E+12,3225,-6162,4886,-1058,7023,-10506,1,7,11
1.72313E+12,3240,-5300,5151,-4207,2725,-8782,1,7,11
1.72313E+12,3891,-6034,4777,-6381,1169,-7225,1,7,11
1.72313E+12,3559,-6234,4574,-6019,1907,-6357,1,7,11
1.72313E+12,3511,-5877,4610,-6041,2620,-5033,1,7,11
1.72313E+12,3913,-6148,4094,-5989,2957,-4442,1,7,11
1.72313E+12,3532,-6196,3824,-5335,4962,-4062,1,7,11
1.72313E+12,3508,-6297,3517,-6550,6239,-4657,1,7,11
1.72313E+12,3612,-6535,3175,-9912,6429,-4356,1,7,11
1.72313E+12,3317,-6641,2346,-14254,6163,-1931,1,7,11
1.72313E+12,3885,-6950,1733,-18084,5702,590,1,7,11
1.72313E+12,3743,-6554,2090,-19101,5250,1521,1,7,11
1.72313E+12,4178,-7002,1787,-18785,6103,2311,1,7,11
1.72313E+12,3762,-7117,1329,-17900,6927,2014,1,7,11
1.72313E+12,3897,-7721,565,-17623,6858,2114,1,7,11
1.72313E+12,4922,-8334,1321,-17514,7248,1004,1,7,11
1.72313E+12,4342,-8157,1519,-13908,9290,-1392,1,7,11
1.72313E+12,4358,-7983,998,-10653,9138,-2183,1,7,11
1.72313E+12,3977,-7802,761,-8806,8171,-2502,1,7,11
1.72313E+12,3812,-7406,141,-7551,6628,-2711,1,7,11
1.72313E+12,3506,-7344,-209,-7392,5014,-2859,1,7,11
1.72313E+12,3036,-7189,-822,-8091,2989,-3467,1,7,11
1.72313E+12,2546,-6104,-1037,-10499,2665,-2783,1,7,11
1.72313E+12,3069,-6460,-1483,-14079,1456,-727,1,7,11
1.72313E+12,3804,-7105,-3032,-20402,-1047,-1221,1,7,11
1.72313E+12,4495,-7945,-4456,-27606,-448,-2844,1,7,11
1.72313E+12,5247,-6374,-1473,-32768,-228,-4612,1,7,11
1.72313E+12,4762,-5034,-2719,-19554,-277,-3261,1,7,11
1.72313E+12,4560,-4347,-3229,-13548,-953,-3655,1,7,11
1.72313E+12,4724,-3973,-3232,-9673,-1674,-3472,1,7,11
1.72313E+12,4506,-3980,-3375,-7006,-3021,-4099,1,7,11
1.72313E+12,4506,-4206,-3421,-4039,-4079,-4085,1,7,11
1.72313E+12,4874,-4502,-3816,-2376,-4513,-6930,1,7,11
1.72313E+12,4726,-4848,-5197,620,-1985,-6416,1,7,11
1.72313E+12,4092,-3614,-4550,-198,505,-4676,1,7,11
1.72313E+12,4261,-3115,-4073,-1122,907,-4111,1,7,11
1.72313E+12,4267,-3153,-4504,-1770,-446,-4711,1,7,11
1.72313E+12,4687,-2809,-4419,-4383,-2257,-6259,1,7,11
1.72313E+12,4698,-2881,-4899,-3478,-4247,-6463,1,7,11
1.72313E+12,5402,-3632,-4745,-7673,-7820,-8121,1,7,11
1.72313E+12,4558,-3850,-3988,-10420,-15509,-10097,1,7,11
1.72313E+12,3603,-2122,-5629,-5364,-24565,-9197,1,7,11
1.72313E+12,2011,-2865,-6985,1372,-15489,-9544,1,7,11
1.72313E+12,1670,-2796,-6824,5777,-7873,-13460,1,7,11
1.72313E+12,1786,-2504,-7294,13007,-7632,-16796,1,7,11
1.72313E+12,2762,-622,-7956,11036,-8318,-18997,1,7,11
1.72313E+12,2655,-1184,-7161,2651,-4524,-13762,1,7,11
1.72313E+12,1761,-1272,-6354,-280,-3699,-13281,1,7,11
1.72313E+12,2018,-1301,-7010,-622,-3297,-14351,1,7,11
1.72313E+12,2265,-1309,-6877,584,-1852,-15528,1,7,11
1.72313E+12,2437,-446,-7216,-299,877,-15859,1,7,11
1.72313E+12,3080,-394,-6979,-167,5049,-10796,1,7,11
1.72313E+12,2899,-736,-7551,1426,8636,-6776,1,7,11
1.72313E+12,3095,-984,-7444,944,5553,-5665,1,7,11
1.72313E+12,3227,-1321,-6560,-932,2095,-6966,1,7,11
1.72313E+12,3698,-749,-6387,-3821,-1622,-11698,1,7,11
1.72313E+12,3547,-226,-6656,-5276,-671,-12384,1,7,11
1.72313E+12,2802,303,-6340,-6785,937,-11110,1,7,11
1.72313E+12,2879,1108,-6736,-7775,2240,-7865,1,7,11
1.72313E+12,2549,1803,-6538,-9683,3261,-5805,1,7,11
1.72313E+12,2746,2389,-6416,-13435,4115,-8816,1,7,11
1.72313E+12,2016,3631,-6170,-15483,6184,-16120,1,7,11
1.72313E+12,1938,5476,-6305,-14691,5958,-20544,1,7,11
1.72313E+12,2247,7394,-6951,-11145,4364,-21569,1,7,11
1.72313E+12,2825,9661,-7313,-8457,3079,-21351,1,7,11
1.72313E+12,4207,11621,-8232,-5603,1970,-19080,1,7,11
1.72313E+12,4549,13085,-9019,-3516,930,-19466,1,7,11
1.72313E+12,5563,13570,-9519,-1411,-307,-19659,1,7,11
1.72313E+12,6037,13767,-9789,86,-2329,-18947,1,7,11
1.72313E+12,6893,13347,-9374,-121,-5168,-15637,1,7,11
1.72313E+12,7279,12619,-9108,1057,-9177,-15343,1,7,11
1.72313E+12,7182,11932,-8965,1172,-13403,-14357,1,7,11
1.72313E+12,7021,10763,-7844,2811,-15094,-12502,1,7,11
1.72313E+12,6602,8381,-6795,5581,-16387,-12738,1,7,11
1.72313E+12,6179,6108,-5935,7256,-17997,-14307,1,7,11
1.72313E+12,5031,4437,-4517,6826,-21344,-16278,1,7,11
1.72313E+12,4452,2419,-3680,7200,-23044,-17114,1,7,11
1.72313E+12,2988,53,-1699,7442,-22592,-16836,1,7,11
1.72313E+12,1243,-3073,-500,7509,-22300,-16813,1,7,11
1.72313E+12,-1007,-3449,410,7586,-20458,-13516,1,7,11
1.72313E+12,-1957,-3842,1548,7472,-17764,-11731,1,7,11
1.72313E+12,-2500,-3801,2088,6040,-14898,-9379,1,7,11
1.72313E+12,-2714,-4008,2369,4789,-12671,-7897,1,7,11
1.72313E+12,-2976,-4006,2227,3984,-10703,-7306,1,7,11
1.72313E+12,-3878,-4659,2592,2912,-9341,-6970,1,7,11
1.72313E+12,-4991,-4561,2826,1584,-9283,-6434,1,7,11
1.72313E+12,-6209,-4036,2689,389,-8232,-7510,1,7,11
1.72313E+12,-7007,-3421,2676,532,-6822,-7092,1,7,11
1.72313E+12,-7531,-2478,2362,1632,-6093,-5684,1,7,11
1.72313E+12,-7873,-1410,1909,2656,-5012,-3875,1,7,11
1.72313E+12,-7860,-930,1360,2991,-3966,-2327,1,7,11
1.72313E+12,-7764,-755,877,3453,-2856,-1466,1,7,11
1.72313E+12,-6900,-339,241,1439,-2566,-106,1,7,11
1.72313E+12,-7153,-752,560,-2582,-2686,459,1,7,11
1.72313E+12,-8112,-606,991,-5097,-2116,220,1,7,11
1.72313E+12,-9050,-843,1616,-5547,-450,633,1,7,11
1.72313E+12,-8439,-948,1363,-4621,-507,-347,1,7,11
1.72313E+12,-8073,-1262,1053,-2773,-989,-1851,1,7,11
1.72313E+12,-8022,-1286,841,-1168,-1259,-2735,1,7,11
1.72313E+12,-7784,-1011,492,-915,-721,-3598,1,7,11
1.72313E+12,-7845,-1321,409,-2628,-785,-2993,1,7,11
1.72313E+12,-7914,-948,388,-5143,-1132,-1990,1,7,11
1.72313E+12,-8162,-435,395,-7215,-1111,-255,1,7,11
1.72313E+12,-8155,-481,600,-6982,-1112,1026,1,7,11
1.72313E+12,-8449,-887,243,-5693,-961,856,1,7,11
1.72313E+12,-8706,-819,543,-4676,-1173,-264,1,7,11
1.72313E+12,-8788,-708,567,-4081,-1892,-817,1,7,11
1.72313E+12,-8783,-1131,617,-4447,-2014,-991,1,7,11
1.72313E+12,-8876,-651,400,-4648,-2166,-1214,1,7,11
1.72313E+12,-9082,-705,180,-4280,-2528,-1069,1,7,11
1.72313E+12,-8511,-1088,198,-3204,-5127,-1242,1,7,11
1.72313E+12,-7786,-662,792,-2599,-6262,-2334,1,7,11
1.72313E+12,-7381,-716,1047,-2911,-4082,-1493,1,7,11
1.72313E+12,-7952,-1107,1357,-3193,-2147,24,1,7,11
1.72313E+12,-7816,-1261,1578,-3111,-309,1393,1,7,11
1.72313E+12,-8454,-1643,1561,-1722,1293,2121,1,7,11
1.72313E+12,-8443,-908,1357,572,1163,1561,1,7,11
1.72313E+12,-8471,-798,1148,2073,1389,1316,1,7,11
1.72313E+12,-8133,-581,766,734,1672,956,1,7,11
1.72313E+12,-8138,-628,758,-1037,2254,947,1,7,11
1.72313E+12,-8387,-852,1089,-2254,2663,900,1,7,11
1.72313E+12,-8167,-709,890,-3450,1243,339,1,7,11
1.72313E+12,-8083,-954,894,-4136,163,-1337,1,7,11
1.72313E+12,-7847,-1369,827,-4250,-496,-2719,1,7,11
1.72313E+12,-7950,-1540,864,-4745,-995,-4305,1,7,11
1.72313E+12,-7566,-1488,667,-5252,-1386,-5831,1,7,11
1.72313E+12,-7702,-1763,663,-5762,-704,-7072,1,7,11
1.72313E+12,-7592,-2432,759,-6187,-108,-8028,1,7,11
1.72313E+12,-7944,-2834,1073,-5394,134,-8205,1,7,11
1.72313E+12,-7994,-3190,1125,-3528,-322,-8496,1,7,11
1.72313E+12,-8045,-3296,1006,-1238,-1355,-8730,1,7,11
1.72313E+12,-7860,-3552,1160,1645,-2624,-8111,1,7,11
1.72313E+12,-8059,-3867,1208,4430,-4171,-7412,1,7,11
1.72313E+12,-8087,-3646,1217,5884,-5806,-6554,1,7,11
1.72313E+12,-8526,-3104,1011,5906,-7983,-4644,1,7,11
1.72313E+12,-7641,-2755,1023,2987,-7981,-524,1,7,11
1.72313E+12,-7128,-3411,1521,169,-6416,2917,1,7,11
1.72313E+12,-6836,-3911,1987,-1119,-4337,3798,1,7,11
1.72313E+12,-6848,-3946,2263,-454,-3037,2992,1,7,11
1.72313E+12,-6841,-3366,2266,376,-2206,1502,1,7,11
1.72313E+12,-7278,-3547,2891,216,-2132,693,1,7,11
1.72313E+12,-7286,-3620,2462,1315,-2010,-546,1,7,11
1.72313E+12,-7088,-3153,2613,1072,-1764,-1095,1,7,11
1.72313E+12,-7087,-2712,2455,29,-1225,-954,1,7,11
1.72313E+12,-7048,-2728,2822,-1322,-387,-943,1,7,11
1.72313E+12,-7141,-3130,2713,-1736,627,-884,1,7,11
1.72313E+12,-7426,-3066,2737,-1786,1258,-390,1,7,11
1.72313E+12,-7434,-3413,2889,-1511,1974,-524,1,7,11
1.72313E+12,-7092,-3391,2648,-1596,2739,-384,1,7,11
1.72313E+12,-7049,-3411,2391,-1796,3569,-135,1,7,11
1.72313E+12,-7466,-3266,1947,-2041,4699,-338,1,7,11
1.72313E+12,-7368,-3206,2072,-2512,5156,-40,1,7,11
1.72313E+12,-7541,-2991,1877,-3287,5026,170,1,7,11
1.72313E+12,-7342,-3186,1463,-4271,4808,41,1,7,11
1.72313E+12,-7312,-2964,1268,-5406,4867,-540,1,7,11
1.72313E+12,-7725,-3217,1269,-5507,4506,-214,1,7,11
1.72313E+12,-7561,-3294,1217,-5032,4291,356,1,7,11
1.72313E+12,-7561,-3300,1298,-4259,3836,1063,1,7,11
1.72313E+12,-7564,-3586,1102,-3502,3391,1356,1,7,11
1.72313E+12,-7579,-3302,652,-2796,2216,1155,1,7,11
1.72313E+12,-7622,-3246,507,-2618,1153,1186,1,7,11
1.72313E+12,-7643,-3412,392,-2427,-73,1247,1,7,11
1.72313E+12,-7782,-3044,630,-2414,-935,1536,1,7,11
1.72313E+12,-7715,-3067,465,-2343,-1870,1183,1,7,11
1.72313E+12,-7409,-3051,790,-1917,-2028,910,1,7,11
1.72313E+12,-7344,-2996,842,-1122,-2076,811,1,7,11
1.72313E+12,-7778,-3171,1047,-12,-1521,225,1,7,11
1.72313E+12,-7623,-3124,1117,1280,-1424,589,1,7,11
1.72313E+12,-7638,-3105,1052,1930,-1826,742,1,7,11
1.72313E+12,-7572,-3088,675,2568,-1861,1085,1,7,11
1.72313E+12,-7912,-3028,956,2487,-1958,490,1,7,11
1.72313E+12,-7901,-3027,1158,3462,-4111,14,1,7,11
1.72313E+12,-7942,-3197,1166,3999,-5415,-1145,1,7,11
1.72313E+12,-7738,-2552,1007,3483,-5007,-1220,1,7,11
1.72313E+12,-7750,-2931,1580,2290,-3828,-1031,1,7,11
1.72313E+12,-7760,-2742,1842,1535,-3106,-400,1,7,11
1.72313E+12,-7754,-2802,1748,1354,-2025,-329,1,7,11
1.72313E+12,-7741,-3078,2118,1143,-1474,86,1,7,11
1.72313E+12,-7721,-3123,1973,641,-1185,55,1,7,11
1.72313E+12,-7685,-2947,2339,507,-1007,-328,1,7,11
1.72313E+12,-7404,-2953,2404,462,-923,-519,1,7,11
1.72313E+12,-7424,-3169,2187,421,-1124,-408,1,7,11
1.72313E+12,-7687,-2994,2286,591,-1095,-467,1,7,11
1.72313E+12,-7381,-3329,2611,598,-1146,-825,1,7,11
1.72313E+12,-7312,-3367,2637,425,-932,-1026,1,7,11
1.72313E+12,-7543,-3335,2631,788,-923,-1009,1,7,11
1.72313E+12,-7516,-3354,2642,821,-928,-1217,1,7,11
1.72313E+12,-7518,-3388,2645,855,-903,-1651,1,7,11
1.72313E+12,-7529,-3416,2651,657,-1109,-1499,1,7,11
1.72313E+12,-7300,-3426,2663,700,-1048,-1795,1,7,11
1.72313E+12,-7365,-3409,2641,762,-711,-1513,1,7,11
1.72313E+12,-7353,-3366,2594,1043,-889,-1429,1,7,11
1.72313E+12,-7712,-3414,2655,743,-403,-1226,1,7,11
1.72313E+12,-7618,-3267,2838,1024,-240,-938,1,7,11
1.72313E+12,-7621,-3490,2811,1120,-524,-655,1,7,11
1.72313E+12,-7771,-3865,3158,1282,-623,-482,1,7,11
1.72313E+12,-7305,-3570,2987,1581,-494,-779,1,7,11
1.72313E+12,-7489,-3676,3032,1486,-779,-846,1,7,11
1.72313E+12,-7331,-3604,3387,1525,-422,-821,1,7,11
1.72313E+12,-7511,-3217,3370,1896,-437,-818,1,7,11
1.72313E+12,-7428,-3379,3362,1862,-607,-641,1,7,11
1.72313E+12,-7146,-3070,3396,1505,-242,-762,1,7,11
1.72313E+12,-7093,-3011,3430,1656,-165,-1144,1,7,11
1.72313E+12,-7281,-3177,3407,1556,-353,-986,1,7,11
1.72313E+12,-7235,-3149,3389,1399,-274,-1311,1,7,11
1.72313E+12,-7172,-2959,3375,943,38,-1360,1,7,11
1.72313E+12,-6867,-3354,3444,748,65,-1184,1,7,11
1.72313E+12,-6824,-3067,3391,668,44,-1568,1,7,11
1.72313E+12,-7197,-3050,3405,804,95,-1567,1,7,11
1.72313E+12,-7285,-2998,3381,495,99,-1401,1,7,11
1.72313E+12,-7131,-3002,3375,431,-108,-1066,1,7,11
1.72313E+12,-7142,-3012,3340,442,-98,-422,1,7,11
1.72313E+12,-7078,-3072,3060,404,-65,-336,1,7,11
1.72313E+12,-7257,-3066,3015,626,-25,-115,1,7,11
1.72313E+12,-7210,-3356,2988,255,268,-11,1,7,11
1.72313E+12,-7217,-3201,3048,330,267,-34,1,7,11
1.72313E+12,-6905,-3297,3348,-36,-114,82,1,7,11
1.72313E+12,-6905,-3610,3363,108,37,-375,1,7,11
1.72313E+12,-7181,-3637,3387,-257,-344,-556,1,7,11
1.72313E+12,-7174,-3668,3376,-133,-206,-425,1,7,11
1.72313E+12,-6883,-3486,3407,-254,-567,-493,1,7,11
1.72313E+12,-7038,-3878,3449,-624,-419,-834,1,7,11
1.72313E+12,-6600,-4161,3268,-490,-787,-1062,1,7,11
1.72313E+12,-6542,-4218,3309,-501,-822,-918,1,7,11
1.72313E+12,-6693,-4082,3597,-489,-858,-1157,1,7,11
1.72313E+12,-6395,-4417,3620,-437,-830,-1652,1,7,11
1.72313E+12,-6387,-4439,3637,-626,-777,-1829,1,7,11
1.72313E+12,-6673,-4408,3622,-536,-435,-1680,1,7,11
1.72313E+12,-6730,-4091,3595,-151,-516,-1880,1,7,11
1.72313E+12,-6540,-3980,3296,-244,-381,-1462,1,7,11
1.72313E+12,-6632,-4160,3258,96,19,-1189,1,7,11
1.72313E+12,-6981,-4143,3224,-91,-99,-1092,1,7,11
1.72313E+12,-7019,-3826,3216,-2,-36,-465,1,7,11
1.72313E+12,-6887,-3814,3220,319,313,-337,1,7,11
1.72313E+12,-6874,-3763,3413,203,282,260,1,7,11
1.72313E+12,-6794,-3724,3342,242,279,523,1,7,11
1.72313E+12,-7015,-3751,3034,209,287,424,1,7,11
1.72313E+12,-7001,-3736,2989,202,-1,420,1,7,11
1.72313E+12,-7040,-3925,2957,180,-26,610,1,7,11
1.72313E+12,-6878,-3898,2949,138,-65,590,1,7,11
1.72313E+12,-7203,-3849,3172,367,117,384,1,7,11
1.72313E+12,-7293,-3847,3160,337,77,496,1,7,11
1.72313E+12,-7236,-3551,3103,369,15,864,1,7,11
1.72313E+12,-7202,-3926,3118,373,94,706,1,7,11
1.72313E+12,-6893,-3776,3186,191,112,670,1,7,11
1.72313E+12,-6848,-4140,3012,542,47,487,1,7,11
1.72313E+12,-6806,-4106,2988,459,-353,215,1,7,11
1.72313E+12,-6810,-3831,3023,770,-199,-28,1,7,11
1.72313E+12,-7034,-3787,3006,484,-581,28,1,7,11
1.72313E+12,-6900,-4114,3394,590,-625,-373,1,7,11
1.72313E+12,-7173,-3715,3344,553,-841,-403,1,7,11
1.72313E+12,-7220,-3960,3426,217,-666,-429,1,7,11
1.72313E+12,-6912,-3784,3231,145,-1033,-605,1,7,11
1.72313E+12,-6853,-4132,3288,161,-1041,-235,1,7,11
1.72313E+12,-6810,-4195,3588,234,-747,-383,1,7,11
1.72313E+12,-7010,-4010,3640,585,-687,-279,1,7,11
1.72313E+12,-6944,-4039,3674,464,-866,14,1,7,11
1.72313E+12,-6656,-4013,3702,883,-775,-283,1,7,11
1.72313E+12,-6641,-3994,3471,1036,-427,-343,1,7,11
1.72313E+12,-6630,-4013,3524,927,-573,-371,1,7,11
1.72313E+12,-6588,-4028,3558,1372,-199,-342,1,7,11
1.72313E+12,-6762,-4041,3577,1562,-290,5,1,7,11
1.72313E+12,-6360,-4086,3563,1481,-77,102,1,7,11
1.72313E+12,-6278,-4360,3841,1889,186,125,1,7,11
1.72313E+12,-6515,-4096,3849,1745,428,57,1,7,11
1.72313E+12,-6293,-4032,3846,2075,887,-357,1,7,11
1.72313E+12,-6661,-4184,3846,2085,1060,-546,1,7,11
1.72313E+12,-6542,-4109,3855,1756,941,-438,1,7,11
1.72313E+12,-6640,-3801,3858,1902,991,-794,1,7,11
1.72313E+12,-6957,-3748,3566,1516,998,-856,1,7,11
1.72313E+12,-6999,-3733,3512,1583,978,-869,1,7,11
1.72313E+12,-7007,-3778,3486,1367,934,-858,1,7,11
1.72313E+12,-6990,-4106,3462,910,1109,-850,1,7,11
1.72313E+12,-6939,-4186,3692,739,734,-843,1,7,11
1.72313E+12,-6635,-4021,3686,860,852,-836,1,7,11
1.72313E+12,-6624,-4365,3686,770,463,-818,1,7,11
1.72313E+12,-6613,-4455,3697,465,573,-507,1,7,11
1.72313E+12,-6576,-4253,3682,465,151,-449,1,7,11
1.72313E+12,-6780,-4279,3666,493,260,-388,1,7,11
1.72313E+12,-6754,-4251,3692,779,-83,-589,1,7,11
1.72313E+12,-6764,-4455,3492,808,117,-534,1,7,11
1.72313E+12,-6549,-4329,3534,859,74,-209,1,7,11
1.72313E+12,-6604,-4208,3560,666,34,-130,1,7,11
1.72313E+12,-6967,-3834,3848,712,-262,-316,1,7,11
