timestamp,ax,ay,az,gx,gy,gz,Label1,Label2,Label3
1.72313E+12,-5983,-4727,4687,-765,-1099,-516,1,7,11
1.72313E+12,-5996,-4727,4704,-1035,-1061,-553,1,7,11
1.72313E+12,-5762,-4485,4722,-1052,-1039,-575,1,7,11
1.72313E+12,-6015,-4495,4727,-1057,-1042,-594,1,7,11
1.72313E+12,-5767,-4506,4486,-1070,-1063,-621,1,7,11
1.72313E+12,-5763,-4521,4493,-1092,-1108,-399,1,7,11
1.72313E+12,-5773,-4540,4516,-1122,-911,-450,1,7,11
1.72313E+12,-6002,-4581,4540,-916,-1008,-500,1,7,11
1.72313E+12,-5917,-4897,4564,-971,-1378,-824,1,7,11
1.72313E+12,-5560,-4957,4591,-1014,-1225,-671,1,7,11
1.72313E+12,-5734,-4988,4605,-1291,-1560,-1053,1,7,11
1.72313E+12,-5670,-4754,4892,-1317,-1615,-904,1,7,11
1.72313E+12,-5358,-4782,4907,-1336,-1652,-973,1,7,11
1.72313E+12,-5312,-4801,4915,-1344,-1664,-1003,1,7,11
1.72313E+12,-5503,-4820,4912,-1355,-1409,-994,1,7,11
1.72313E+12,-5438,-4861,4912,-1385,-1648,-973,1,7,11
1.72313E+12,-5396,-5165,4918,-1154,-1620,-960,1,7,11
1.72313E+12,-5106,-5207,4920,-1179,-1586,-952,1,7,11
1.72313E+12,-5081,-4996,4940,-1209,-1557,-952,1,7,11
1.72313E+12,-5078,-5046,4963,-1226,-1270,-952,1,7,11
1.72313E+12,-5058,-5096,4738,-1241,-1267,-955,1,7,11
1.72313E+12,-5030,-5401,4762,-1240,-1277,-975,1,7,11
1.72313E+12,-5244,-5445,4787,-1235,-1555,-1018,1,7,11
1.72313E+12,-5215,-5479,4812,-1208,-1579,-1337,1,7,11
1.72313E+12,-5186,-5493,4811,-1165,-1614,-1403,1,7,11
1.72313E+12,-5136,-5261,4820,-1399,-1410,-1215,1,7,11
1.72313E+12,-4805,-5293,4820,-1397,-1467,-1553,1,7,11
1.72313E+12,-4963,-5341,4816,-1404,-1531,-1662,1,7,11
1.72313E+12,-4883,-5661,4819,-1158,-1834,-1809,1,7,11
1.72313E+12,-4554,-5735,4828,-1156,-1870,-1721,1,7,11
1.72313E+12,-4711,-5548,4812,-1398,-1915,-2147,1,7,11
1.72313E+12,-4348,-5617,4793,-1391,-1696,-2344,1,7,11
1.72313E+12,-4302,-5949,4802,-1398,-1712,-2565,1,7,11
1.72313E+12,-4241,-5771,4793,-1384,-1750,-2534,1,7,11
1.72313E+12,-4456,-5800,4761,-1356,-1782,-2809,1,7,11
1.72313E+12,-4426,-5831,4756,-1349,-1784,-3182,1,7,11
1.72313E+12,-4385,-5858,4780,-1375,-1813,-2985,1,7,11
1.72313E+12,-4044,-6166,4814,-1176,-2104,-2998,1,7,11
1.72313E+12,-4179,-6271,4846,-1233,-1969,-2968,1,7,11
1.72313E+12,-3770,-6090,4838,-1240,-2318,-3196,1,7,11
1.72313E+12,-3849,-6431,4823,-1236,-2405,-3181,1,7,11
1.72313E+12,-3685,-6513,4814,-1247,-2205,-3180,1,7,11
1.72313E+12,-3262,-6343,4799,-1239,-2246,-3182,1,7,11
1.72313E+12,-3361,-6679,4777,-1228,-2256,-3178,1,7,11
1.72313E+12,-3195,-6778,4758,-1214,-2247,-3177,1,7,11
1.72313E+12,-2778,-6632,4755,-1210,-2208,-3180,1,7,11
1.72313E+12,-2886,-6974,4743,-1154,-2411,-2946,1,7,11
1.72313E+12,-2488,-7040,4967,-1345,-2361,-2966,1,7,11
1.72313E+12,-2607,-6855,4943,-1286,-2046,-2987,1,7,11
1.72313E+12,-2212,-7206,4952,-999,-1992,-3010,1,7,11
1.72313E+12,-2328,-7280,4965,-937,-1956,-3038,1,7,11
1.72313E+12,-1951,-7046,4957,-1110,-2168,-3331,1,7,11
1.72313E+12,-2112,-7058,4931,-1029,-2123,-3071,1,7,11
1.72313E+12,-1774,-7094,4939,-740,-2073,-3016,1,7,11
1.72313E+12,-1709,-7109,4934,-688,-1756,-3192,1,7,11
1.72313E+12,-1878,-7112,4936,-653,-1693,-2801,1,7,11
1.72313E+12,-1504,-7128,4917,-851,-1878,-2903,1,7,11
1.72313E+12,-1648,-7121,4595,-803,-1517,-2501,1,7,11
1.72313E+12,-1545,-7157,4539,-824,-1619,-2630,1,7,11
1.72313E+12,-1244,-7460,4519,-869,-1176,-2282,1,7,11
1.72313E+12,-1225,-7508,4483,-644,-996,-2207,1,7,11
1.72313E+12,-1214,-7302,4716,-668,-1086,-2379,1,7,11
1.72313E+12,-1173,-7359,4714,-675,-722,-2047,1,7,11
1.72313E+12,-1399,-7366,4715,-881,-656,-2003,1,7,11
1.72313E+12,-1325,-7383,4700,-821,-667,-1972,1,7,11
1.72313E+12,-968,-7403,4675,-481,-723,-1981,1,7,11
1.72313E+12,-1123,-7382,4625,-401,-1053,-2031,1,7,11
1.72313E+12,-1035,-7360,4346,-608,-1125,-2345,1,7,11
1.72313E+12,-666,-7382,4338,-599,-966,-2398,1,7,11
1.72313E+12,-831,-7375,4300,-543,-1321,-2197,1,7,11
1.72313E+12,-461,-7368,4263,-540,-1167,-2221,1,7,11
1.72313E+12,-628,-7393,4281,-550,-1240,-2216,1,7,11
1.72313E+12,-523,-7402,4288,-518,-1558,-2420,1,7,11
1.72313E+12,-373,-7693,4307,-526,-1627,-2368,1,7,11
1.72313E+12,1,-7715,4318,-228,-1617,-2365,1,7,11
1.72313E+12,91,-7697,4297,-160,-1275,-2333,1,7,11
1.72313E+12,-90,-7411,4287,-141,-1160,-2030,1,7,11
1.72313E+12,-28,-7383,4281,-152,-1294,-1967,1,7,11
1.72313E+12,317,-7375,4298,-220,-971,-2129,1,7,11
1.72313E+12,166,-7373,4285,-242,-907,-2052,1,7,11
1.72313E+12,230,-7363,4277,-542,-1081,-1736,1,7,11
1.72313E+12,535,-7358,4272,-586,-757,-1687,1,7,11
1.72313E+12,563,-7348,4261,-636,-712,-1893,1,7,11
1.72313E+12,631,-7385,4270,-442,-725,-1830,1,7,11
1.72313E+12,418,-7401,4268,-448,-729,-1531,1,7,11
1.72313E+12,509,-7698,4274,-453,-744,-1465,1,7,11
1.72313E+12,817,-7689,4233,-446,-766,-1660,1,7,11
1.72313E+12,851,-7695,4470,-423,-760,-1579,1,7,11
1.72313E+12,666,-7708,4460,-431,-750,-1247,1,7,11
1.72313E+12,741,-7734,4442,-408,-746,-1177,1,7,11
1.72313E+12,1054,-7759,4452,-630,-697,-1372,1,7,11
1.72313E+12,1117,-7807,4462,-583,-659,-1317,1,7,11
1.72313E+12,1151,-7769,4425,-248,-847,-1281,1,7,11
1.72313E+12,909,-7722,4397,-231,-818,-986,1,7,11
1.72313E+12,923,-7713,4409,-237,-751,-940,1,7,11
1.72313E+12,964,-7714,4423,-233,-481,-1143,1,7,11
1.72313E+12,1310,-7723,4408,-208,-477,-1110,1,7,11
1.72313E+12,1351,-7685,4362,-179,-435,-1121,1,7,11
1.72313E+12,1393,-7417,4367,-217,-639,-1113,1,7,11
1.72313E+12,1182,-7401,4375,-246,-612,-1110,1,7,11
1.72313E+12,1234,-7412,4387,-518,-611,-1114,1,7,11
1.72313E+12,1276,-7398,4367,-522,-600,-1122,1,7,11
1.72313E+12,1593,-7398,4354,-531,-588,-1135,1,7,11
1.72313E+12,1612,-7370,4071,-543,-540,-1142,1,7,11
1.72313E+12,1630,-7393,4086,-580,-228,-1114,1,7,11
1.72313E+12,1640,-7414,4365,-585,-189,-1078,1,7,11
1.72313E+12,1419,-7694,4377,-562,-164,-1031,1,7,11
1.72313E+12,1456,-7702,4357,-527,-136,-736,1,7,11
1.72313E+12,1485,-7684,4086,-254,-359,-704,1,7,11
1.72313E+12,1522,-7404,4050,-250,-322,-676,1,7,11
1.72313E+12,1525,-7402,4044,-523,-272,-659,1,7,11
1.72313E+12,1518,-7423,4052,-543,15,-894,1,7,11
1.72313E+12,1525,-7713,4051,-537,29,-873,1,7,11
1.72313E+12,1808,-7744,4040,-256,27,-850,1,7,11
1.72313E+12,1872,-7778,4035,-216,10,-847,1,7,11
1.72313E+12,1669,-7772,4016,-162,-263,-863,1,7,11
1.72313E+12,1727,-7774,4024,-355,-271,-883,1,7,11
1.72313E+12,1761,-7732,4008,-270,-265,-651,1,7,11
1.72313E+12,1777,-7401,3983,50,29,-656,1,7,11
1.72313E+12,1756,-7331,3980,48,81,-641,1,7,11
1.72313E+12,1699,-7518,4008,-258,114,-848,1,7,11
1.72313E+12,1694,-7497,4051,-321,90,-491,1,7,11
1.72313E+12,1767,-7504,4051,-366,34,-408,1,7,11
1.72313E+12,2089,-7522,4023,-148,20,-632,1,7,11
1.72313E+12,2117,-7540,3999,-188,41,-634,1,7,11
1.72313E+12,2114,-7303,3999,-230,79,-639,1,7,11
1.72313E+12,2122,-7323,4001,-247,118,-638,1,7,11
1.72313E+12,2134,-7338,3987,-243,-116,-637,1,7,11
1.72313E+12,2154,-7352,3968,-233,-101,-387,1,7,11
1.72313E+12,1922,-7372,4207,-231,-103,-399,1,7,11
1.72313E+12,2144,-7343,4206,-204,-78,-415,1,7,11
1.72313E+12,2158,-7349,4208,-194,-89,-635,1,7,11
1.72313E+12,2172,-7352,4215,-177,-100,-594,1,7,11
1.72313E+12,2169,-7342,4211,-138,-102,-559,1,7,11
1.72313E+12,2168,-7342,4207,-130,-114,-513,1,7,11
1.72313E+12,2153,-7336,4202,-376,121,-226,1,7,11
1.72313E+12,2138,-7339,4207,-131,79,-197,1,7,11
1.72313E+12,2163,-7333,4187,-366,31,-183,1,7,11
1.72313E+12,1951,-7334,4165,-356,14,-184,1,7,11
1.72313E+12,1965,-7322,4146,-347,49,-192,1,7,11
1.72313E+12,1979,-7343,4146,-367,83,-195,1,7,11
1.72313E+12,1980,-7356,4150,-355,118,-200,1,7,11
1.72313E+12,1981,-7346,4149,-321,-115,-203,1,7,11
1.72313E+12,2016,-7360,4158,-302,-104,-187,1,7,11
1.72313E+12,2321,-7353,4140,-261,-77,-188,1,7,11
1.72313E+12,2335,-7356,4146,20,-40,-202,1,7,11
1.72313E+12,2311,-7302,4133,44,259,-214,1,7,11
1.72313E+12,2026,-7303,4174,27,268,-192,1,7,11
1.72313E+12,1999,-7551,4217,23,-24,-153,1,7,11
1.72313E+12,2004,-7531,3968,48,-64,-364,1,7,11
1.72313E+12,2005,-7524,3983,40,-92,-311,1,7,11
1.72313E+12,2011,-7525,3977,33,-119,-283,1,7,11
1.72313E+12,1997,-7519,3977,14,118,-266,1,7,11
1.72313E+12,1990,-7512,3972,-258,94,4,1,7,11
1.72313E+12,1974,-7498,3971,-285,76,9,1,7,11
1.72313E+12,1994,-7504,3979,-315,41,16,1,7,11
1.72313E+12,2010,-7509,3971,-326,9,-258,1,7,11
1.72313E+12,2040,-7529,4215,-346,-278,-281,1,7,11
1.72313E+12,2321,-7534,4195,-356,-281,-322,1,7,11
1.72313E+12,2350,-7543,4191,-376,-266,-363,1,7,11
1.72313E+12,2370,-7298,4192,-379,26,-155,1,7,11
1.72313E+12,2362,-7544,4192,-375,66,-199,1,7,11
1.72313E+12,2381,-7542,4181,-377,87,-224,1,7,11
1.72313E+12,2389,-7528,4165,-382,102,-250,1,7,11
1.72313E+12,2364,-7508,4160,-146,119,-253,1,7,11
1.72313E+12,2349,-7527,4200,-175,96,-227,1,7,11
1.72313E+12,2369,-7549,3973,-163,35,-193,1,7,11
1.72313E+12,2402,-7542,4210,-374,-258,-161,1,7,11
1.72313E+12,2423,-7541,4195,-344,-257,-379,1,7,11
1.72313E+12,2191,-7538,4175,-327,5,-353,1,7,11
1.72313E+12,2208,-7532,4161,-322,15,-352,1,7,11
1.72313E+12,2217,-7514,4148,-312,22,-352,1,7,11
1.72313E+12,2250,-7514,4148,-329,17,-355,1,7,11
1.72313E+12,2296,-7518,4146,-336,27,-380,1,7,11
1.72313E+12,2588,-7530,4153,-347,56,-149,1,7,11
1.72313E+12,2579,-7503,4135,-326,98,-183,1,7,11
1.72313E+12,2578,-7500,4122,-327,-127,-197,1,7,11
1.72313E+12,2564,-7510,4144,-338,-84,-167,1,7,11
1.72313E+12,2560,-7512,4168,-335,-57,-384,1,7,11
1.72313E+12,2578,-7496,4160,-311,-59,-345,1,7,11
1.72313E+12,2573,-7504,4175,-304,-57,-301,1,7,11
1.72313E+12,2564,-7505,4182,-293,-54,2,1,7,11
1.72313E+12,2260,-7485,4168,-263,-34,54,1,7,11
1.72313E+12,2212,-7482,4161,-269,-34,119,1,7,11
1.72313E+12,2229,-7496,4162,-287,-79,-78,1,7,11
1.72313E+12,2249,-7504,4163,-287,-106,-69,1,7,11
1.72313E+12,2284,-7513,4173,-276,-117,-76,1,7,11
1.72313E+12,2300,-7498,4161,2,-115,-124,1,7,11
1.72313E+12,2575,-7490,4135,10,-104,86,1,7,11
1.72313E+12,2296,-7471,4116,-271,-67,30,1,7,11
1.72313E+12,2262,-7477,4140,-312,-56,-258,1,7,11
1.72313E+12,2259,-7496,4169,-336,-86,-267,1,7,11
1.72313E+12,2258,-7495,4152,-323,-99,-264,1,7,11
1.72313E+12,2269,-7498,4128,-316,-103,-258,1,7,11
1.72313E+12,2256,-7489,4117,-320,-101,7,1,7,11
1.72313E+12,2243,-7504,4120,-340,-109,33,1,7,11
1.72313E+12,2246,-7531,4122,-345,-120,61,1,7,11
1.72313E+12,2236,-7537,4121,-327,-122,82,1,7,11
1.72313E+12,2227,-7526,4110,-316,123,111,1,7,11
1.72313E+12,2230,-7525,4112,-307,101,-127,1,7,11
1.72313E+12,2229,-7522,4113,-312,78,-116,1,7,11
1.72313E+12,2256,-7538,4120,-311,56,-110,1,7,11
1.72313E+12,2255,-7530,4100,-291,51,-124,1,7,11
1.72313E+12,2270,-7521,3821,-297,43,127,1,7,11
1.72313E+12,2289,-7519,3816,-303,60,111,1,7,11
1.72313E+12,2576,-7541,3807,-310,78,93,1,7,11
1.72313E+12,2595,-7299,3817,-294,110,59,1,7,11
1.72313E+12,2579,-7303,3827,-279,-110,47,1,7,11
1.72313E+12,2585,-7300,3839,2,-89,53,1,7,11
1.72313E+12,2577,-7533,4104,27,-75,78,1,7,11
1.72313E+12,2610,-7526,4107,42,-73,-123,1,7,11
1.72313E+12,2607,-7485,4106,49,-48,-83,1,7,11
1.72313E+12,2567,-7492,4150,12,-36,-29,1,7,11
1.72313E+12,2278,-7504,4180,6,-67,297,1,7,11
1.72313E+12,2280,-7499,4180,21,-101,373,1,7,11
1.72313E+12,2569,-7518,4148,38,-115,172,1,7,11
1.72313E+12,2581,-7506,4104,38,-90,182,1,7,11
1.72313E+12,2588,-7509,3834,14,-48,179,1,7,11
1.72313E+12,2590,-7528,4101,-266,263,161,1,7,11
1.72313E+12,2606,-7300,4112,-268,317,378,1,7,11
1.72313E+12,2587,-7311,4103,6,135,311,1,7,11
1.72313E+12,2258,-7535,3825,19,223,-8,1,7,11
1.72313E+12,2177,-7545,4115,-281,521,-19,1,7,11
1.72313E+12,2361,-7298,4172,-284,512,-8,1,7,11
1.72313E+12,2311,-7550,4210,2,195,294,1,7,11
1.72313E+12,2032,-7538,4202,50,379,350,1,7,11
1.72313E+12,2000,-7534,4209,70,311,148,1,7,11
1.72313E+12,1998,-7528,4200,61,-24,197,1,7,11
1.72313E+12,2015,-7511,4182,75,-100,232,1,7,11
1.72313E+12,2311,-7520,4165,57,107,517,1,7,11
1.72313E+12,2331,-7518,4149,41,84,209,1,7,11
1.72313E+12,2373,-7297,4143,18,62,143,1,7,11
1.72313E+12,2393,-7312,4127,13,82,331,1,7,11
1.72313E+12,2385,-7335,4134,3,-83,284,1,7,11
1.72313E+12,2334,-7322,4139,9,-29,262,1,7,11
1.72313E+12,2328,-7332,4151,30,-17,292,1,7,11
1.72313E+12,2339,-7314,4123,61,-10,325,1,7,11
1.72313E+12,2331,-7304,4132,58,278,371,1,7,11
1.72313E+12,2312,-7325,4168,43,316,174,1,7,11
1.72313E+12,1989,-7323,4204,74,331,253,1,7,11
1.72313E+12,1963,-7326,3968,110,297,638,1,7,11
1.72313E+12,1982,-7330,4216,-123,-9,488,1,7,11
1.72313E+12,1989,-7307,4166,-106,265,816,1,7,11
1.72313E+12,2017,-7357,4150,118,314,894,1,7,11
1.72313E+12,1996,-7371,4137,104,149,691,1,7,11
1.72313E+12,1966,-7421,4129,97,226,1031,1,7,11
1.72313E+12,1943,-7700,4105,-128,577,1103,1,7,11
1.72313E+12,2131,-7734,4103,-94,437,897,1,7,11
1.72313E+12,2090,-7766,4096,-37,793,956,1,7,11
1.72313E+12,1761,-7804,4127,288,888,993,1,7,11
1.72313E+12,1669,-7793,4154,148,691,1346,1,7,11
1.72313E+12,1854,-7787,4211,515,695,1553,1,7,11
1.72313E+12,1808,-7786,3996,638,881,1836,1,7,11
1.72313E+12,1503,-7780,4002,499,851,2072,1,7,11
1.72313E+12,1413,-7781,4009,870,640,1975,1,7,11
1.72313E+12,1646,-7801,4076,666,1068,2381,1,7,11
1.72313E+12,1563,-7792,4387,743,1321,2246,1,7,11
1.72313E+12,1185,-7748,4427,1095,1267,2651,1,7,11
1.72313E+12,1335,-7726,4448,904,1642,2852,1,7,11
1.72313E+12,1092,-7713,4242,962,1529,2800,1,7,11
1.72313E+12,674,-7718,4315,1008,1698,3013,1,7,11
1.72313E+12,501,-7704,4623,1354,2134,3324,1,7,11
1.72313E+12,612,-7411,4647,1190,2325,3465,1,7,11
1.72313E+12,244,-7371,4683,1270,2363,3583,1,7,11
1.72313E+12,333,-7345,4523,1556,2852,3955,1,7,11
1.72313E+12,-66,-7357,4909,1584,2793,4100,1,7,11
1.72313E+12,69,-7344,4982,1496,2951,4216,1,7,11
1.72313E+12,-257,-7542,4787,1892,3332,3982,1,7,11
1.72313E+12,-134,-7124,4782,1726,3443,4191,1,7,11
1.72313E+12,-557,-7053,5140,1666,3265,4152,1,7,11
1.72313E+12,-475,-7276,5247,1887,3311,3774,1,7,11
1.72313E+12,-734,-7169,5048,1889,3587,3844,1,7,11
1.72313E+12,-908,-6878,5098,1864,3586,3709,1,7,11
1.72313E+12,-1371,-6806,5395,1863,3622,3255,1,7,11
1.72313E+12,-1280,-6786,5478,1828,3638,3066,1,7,11
1.72313E+12,-1442,-6988,5259,1842,3651,3127,1,7,11
1.72313E+12,-1667,-6925,5336,1828,3639,2701,1,7,11
1.72313E+12,-2055,-6606,5638,1815,3319,2535,1,7,11
1.72313E+12,-1965,-6779,5660,1825,3262,2625,1,7,11
1.72313E+12,-2396,-6695,5691,1819,3443,2203,1,7,11
1.72313E+12,-2255,-6385,5730,1530,3336,2409,1,7,11
1.72313E+12,-2622,-6280,5710,1472,3122,2347,1,7,11
1.72313E+12,-2481,-6409,5674,1429,2721,2019,1,7,11
1.72313E+12,-2845,-6057,5645,1474,2867,1950,1,7,11
1.72313E+12,-2753,-6219,5374,1296,2834,2074,1,7,11
1.72313E+12,-2951,-6167,5362,1094,2829,1677,1,7,11
1.72313E+12,-3390,-5888,5346,688,2550,1897,1,7,11
1.72313E+12,-3236,-6174,5351,803,2464,1679,1,7,11
1.72313E+12,-3302,-6189,5345,468,2654,1665,1,7,11
1.72313E+12,-3659,-6214,5351,437,2601,1853,1,7,11
1.72313E+12,-3466,-6200,5305,478,2292,1504,1,7,11
1.72313E+12,-3571,-6148,5489,779,2297,1636,1,7,11
1.72313E+12,-3960,-5795,5407,786,2571,1272,1,7,11
1.72313E+12,-4115,-5989,5387,450,2274,1224,1,7,11
1.72313E+12,-4186,-5972,5405,611,2386,1254,1,7,11
1.72313E+12,-3993,-5909,5105,558,2009,1263,1,7,11
1.72313E+12,-3994,-5928,5091,192,2148,1253,1,7,11
1.72313E+12,-4007,-5949,5065,336,2061,1185,1,7,11
1.72313E+12,-4013,-5960,5031,-3,1710,1298,1,7,11
1.72313E+12,-4046,-5941,5226,-81,1882,1100,1,7,11
1.72313E+12,-4377,-5974,5211,80,1807,641,1,7,11
1.72313E+12,-4443,-5978,5172,27,1415,492,1,7,11
1.72313E+12,-4230,-6000,5149,-274,1262,404,1,7,11
1.72313E+12,-4308,-6008,5146,-281,1168,603,1,7,11
1.72313E+12,-4651,-5790,5148,5,1332,571,1,7,11
1.72313E+12,-4331,-5773,4826,57,917,572,1,7,11
1.72313E+12,-4307,-5784,4809,72,1098,252,1,7,11
1.72313E+12,-4305,-5783,4789,88,1041,188,1,7,11
1.72313E+12,-4339,-5770,4796,107,751,132,1,7,11
1.72313E+12,-4665,-5978,4787,-105,874,382,1,7,11
1.72313E+12,-4670,-5968,4803,-88,810,140,1,7,11
1.72313E+12,-4636,-5976,4811,-67,472,152,1,7,11
1.72313E+12,-4349,-5966,4804,-47,405,129,1,7,11
1.72313E+12,-4328,-6005,4850,-61,583,332,1,7,11
1.72313E+12,-4344,-5967,4848,-11,519,-19,1,7,11
1.72313E+12,-4327,-6002,5149,-10,188,-99,1,7,11
1.72313E+12,-4322,-5963,5143,318,377,63,1,7,11
1.72313E+12,-4347,-5630,5158,360,352,-265,1,7,11
1.72313E+12,-4651,-5563,5133,128,306,-292,1,7,11
1.72313E+12,-4633,-5755,4860,327,-24,-297,1,7,11
1.72313E+12,-4350,-5742,5124,-40,-82,-304,1,7,11
1.72313E+12,-4623,-5739,5170,106,-109,-315,1,7,11
1.72313E+12,-4622,-5746,5183,59,-113,-312,1,7,11
1.72313E+12,-4658,-5505,5218,3,-79,-306,1,7,11
1.72313E+12,-4641,-5540,5230,-282,-54,-280,1,7,11
1.72313E+12,-4615,-5554,5234,-274,-22,-286,1,7,11
1.72313E+12,-4609,-5568,5225,-267,263,-292,1,7,11
1.72313E+12,-4673,-5540,5213,25,336,-318,1,7,11
1.72313E+12,-4693,-5529,5211,43,363,-281,1,7,11
1.72313E+12,-4696,-5538,5225,57,147,17,1,7,11
1.72313E+12,-4695,-5551,5230,67,181,45,1,7,11
1.72313E+12,-4682,-5538,5210,120,191,63,1,7,11
1.72313E+12,-4686,-5530,5194,124,209,73,1,7,11
1.72313E+12,-4689,-5529,5180,-127,216,86,1,7,11
1.72313E+12,-4685,-5542,5190,121,218,123,1,7,11
1.72313E+12,-4676,-5541,5197,-123,207,-86,1,7,11
1.72313E+12,-4659,-5551,5208,-112,178,-29,1,7,11
1.72313E+12,-4640,-5551,5211,-92,136,-1,1,7,11
1.72313E+12,-4649,-5530,5206,-72,355,-7,1,7,11
1.72313E+12,-4709,-5740,5197,-56,344,-7,1,7,11
1.72313E+12,-4721,-5720,5206,-84,318,299,1,7,11
1.72313E+12,-4725,-5713,5197,-108,316,356,1,7,11
1.72313E+12,-4729,-5698,5188,-120,339,143,1,7,11
1.72313E+12,-4711,-5688,5145,127,129,163,1,7,11
1.72313E+12,-4725,-5676,5146,74,222,143,1,7,11
1.72313E+12,-4494,-5686,5202,8,527,352,1,7,11
1.72313E+12,-4493,-5697,5221,-257,232,260,1,7,11
1.72313E+12,-4565,-5681,5209,13,213,126,1,7,11
1.72313E+12,-4872,-5636,5188,11,138,84,1,7,11
1.72313E+12,-4592,-5647,5160,-297,348,121,1,7,11
1.72313E+12,-4587,-5680,5176,-350,348,-79,1,7,11
1.72313E+12,-4547,-5721,5180,-370,328,-32,1,7,11
1.72313E+12,-4548,-5727,5170,-354,330,-32,1,7,11
1.72313E+12,-4533,-5730,5153,-344,315,-25,1,7,11
1.72313E+12,-4526,-5743,5140,-348,297,-31,1,7,11
1.72313E+12,-4532,-5739,5121,-352,281,-60,1,7,11
1.72313E+12,-4557,-5734,4863,-353,277,-76,1,7,11
1.72313E+12,-4565,-5743,5122,-349,259,-65,1,7,11
1.72313E+12,-4561,-5737,4862,-339,-10,-54,1,7,11
1.72313E+12,-4555,-5743,5128,-337,-33,-57,1,7,11
1.72313E+12,-4518,-5737,4855,-338,-50,-82,1,7,11
1.72313E+12,-4508,-5720,4845,-369,-54,126,1,7,11
1.72313E+12,-4527,-5735,4857,-162,-43,73,1,7,11
1.72313E+12,-4545,-5727,4860,-191,-51,27,1,7,11
1.72313E+12,-4549,-5731,4846,-226,-50,1,1,7,11
1.72313E+12,-4535,-5516,4852,-256,-46,-269,1,7,11
1.72313E+12,-4517,-5541,4855,-239,-36,-304,1,7,11
1.72313E+12,-4726,-5585,4855,-211,-32,-339,1,7,11
1.72313E+12,-4706,-5599,4846,-153,-16,-163,1,7,11
1.72313E+12,-4493,-5586,4840,-335,265,-250,1,7,11
1.72313E+12,-4529,-5528,4820,-278,257,-533,1,7,11
1.72313E+12,-4560,-5509,4809,-269,-1,-516,1,7,11
1.72313E+12,-4523,-5509,4801,-289,-28,-209,1,7,11
1.72313E+12,-4510,-5513,4783,-294,-11,-212,1,7,11
1.72313E+12,-4531,-5514,4758,-300,275,-525,1,7,11
1.72313E+12,-4554,-5750,4748,-320,320,-594,1,7,11
1.72313E+12,-4535,-5527,4759,-371,343,-629,1,7,11
1.72313E+12,-4525,-5544,4988,-376,139,-399,1,7,11
1.72313E+12,-4533,-5564,4977,-334,228,-634,1,7,11
1.72313E+12,-4565,-5575,4987,-307,561,-604,1,7,11
1.72313E+12,-4591,-5572,4740,-265,573,-567,1,7,11
1.72313E+12,-4605,-5581,4983,37,570,-228,1,7,11
1.72313E+12,-4869,-5579,4986,93,599,-377,1,7,11
1.72313E+12,-4884,-5569,4970,-106,616,26,1,7,11
1.72313E+12,-4568,-5580,4954,-67,606,-60,1,7,11
1.72313E+12,-4534,-5546,4925,-22,620,329,1,7,11
1.72313E+12,-4560,-5524,4929,-27,388,182,1,7,11
1.72313E+12,-4584,-5743,4916,-40,389,542,1,7,11
1.72313E+12,-4602,-5728,4926,-89,625,618,1,7,11
1.72313E+12,-4892,-5703,4910,117,602,396,1,7,11
1.72313E+12,-4950,-5657,4877,79,558,417,1,7,11
1.72313E+12,-4758,-5645,4882,-268,521,443,1,7,11
1.72313E+12,-4795,-5350,4870,-355,229,482,1,7,11
1.72313E+12,-4829,-5365,4885,-199,182,510,1,7,11
1.72313E+12,-5144,-5374,4891,-545,376,772,1,7,11
1.72313E+12,-5158,-5653,4868,-579,333,789,1,7,11
1.72313E+12,-4846,-5679,4561,-584,271,508,1,7,11
1.72313E+12,-4849,-5702,4567,-596,334,426,1,7,11
1.72313E+12,-5135,-5716,4581,-596,355,590,1,7,11
1.72313E+12,-5173,-5728,4593,-565,345,515,1,7,11
1.72313E+12,-5247,-5748,4607,-546,322,218,1,7,11
1.72313E+12,-5049,-5506,4864,-229,292,229,1,7,11
1.72313E+12,-5069,-5759,4590,-156,269,521,1,7,11
1.72313E+12,-5104,-5750,4566,-307,284,536,1,7,11
1.72313E+12,-5398,-5701,4495,30,276,548,1,7,11
1.72313E+12,-5429,-5656,4671,61,263,577,1,7,11
1.72313E+12,-5447,-5376,4612,40,-22,592,1,7,11
1.72313E+12,-5433,-5352,4284,14,-74,576,1,7,11
1.72313E+12,-5419,-5310,4452,-276,125,520,1,7,11
1.72313E+12,-5412,-5264,4358,-343,79,194,1,7,11
1.72313E+12,-5422,-5496,4039,-184,45,137,1,7,11
1.72313E+12,-5444,-5495,3979,-552,21,382,1,7,11
1.72313E+12,-5414,-5267,4191,-400,-272,163,1,7,11
1.72313E+12,-5428,-5309,4161,-493,-274,218,1,7,11
1.72313E+12,-5426,-5373,4159,-846,-305,552,1,7,11
1.72313E+12,-5396,-5694,4130,-654,-370,632,1,7,11
1.72313E+12,-5115,-5513,4140,-734,-157,429,1,7,11
1.72313E+12,-5118,-5576,4153,-1042,-185,466,1,7,11
1.72313E+12,-5102,-5898,4181,-1073,-235,498,1,7,11
1.72313E+12,-5070,-5894,4174,-1059,-549,493,1,7,11
1.72313E+12,-5041,-5896,4172,-1060,-587,504,1,7,11
1.72313E+12,-5245,-5912,4182,-1061,-613,782,1,7,11
1.72313E+12,-5183,-5919,4203,-1040,-625,802,1,7,11
1.72313E+12,-5122,-5931,3983,-752,-621,809,1,7,11
1.72313E+12,-4820,-5903,4000,-686,-615,792,1,7,11
1.72313E+12,-4992,-5617,4002,-650,-389,786,1,7,11
1.72313E+12,-4875,-5595,4020,-891,-399,769,1,7,11
1.72313E+12,-4578,-5519,4050,-867,-613,460,1,7,11
1.72313E+12,-4582,-5710,4392,-841,-245,445,1,7,11
1.72313E+12,-4919,-5654,4265,-494,-368,455,1,7,11
1.72313E+12,-4805,-5489,4687,-582,12,489,1,7,11
1.72313E+12,-5189,-5118,4578,-332,-69,499,1,7,11
1.72313E+12,-5000,-5008,4987,103,-2,472,1,7,11
1.72313E+12,-5099,-5151,5145,311,369,636,1,7,11
1.72313E+12,-5282,-4757,5064,555,243,246,1,7,11
1.72313E+12,-5731,-4573,5443,816,593,368,1,7,11
1.72313E+12,-5906,-4628,5255,1048,427,273,1,7,11
1.72313E+12,-5814,-4435,5310,957,790,-39,1,7,11
1.72313E+12,-6251,-4066,5658,1004,661,-58,1,7,11
1.72313E+12,-6439,-4008,5515,1284,1045,-41,1,7,11
1.72313E+12,-6348,-4188,5580,1345,1144,262,1,7,11
1.72313E+12,-6674,-3776,5526,1164,926,325,1,7,11
1.72313E+12,-6393,-3950,5504,1352,936,362,1,7,11
1.72313E+12,-6338,-3921,5757,995,948,300,1,7,11
1.72313E+12,-6495,-3905,5708,899,947,-104,1,7,11
1.72313E+12,-6071,-3900,5642,1077,922,-329,1,7,11
1.72313E+12,-6186,-3921,5314,749,956,-615,1,7,11
1.72313E+12,-5808,-3739,5264,707,981,-641,1,7,11
1.72313E+12,-5961,-3822,5255,752,1304,-897,1,7,11
1.72313E+12,-5611,-4125,5496,1129,1384,-1357,1,7,11
1.72313E+12,-5744,-4180,5491,1285,1203,-1215,1,7,11
1.72313E+12,-5705,-4093,5323,1360,1560,-1537,1,7,11
1.72313E+12,-5346,-4294,5645,1275,1563,-1577,1,7,11
1.72313E+12,-5281,-4529,5522,1589,1580,-1411,1,7,11
1.72313E+12,-5294,-4963,5610,1451,1572,-1510,1,7,11
1.72313E+12,-5288,-4974,5548,1717,1207,-1861,1,7,11
1.72313E+12,-5249,-4808,5752,1718,1378,-1865,1,7,11
1.72313E+12,-5448,-4829,5670,1740,1283,-1860,1,7,11
1.72313E+12,-5043,-4779,5254,1731,905,-1819,1,7,11
1.72313E+12,-5167,-4760,5080,1885,1115,-1521,1,7,11
1.72313E+12,-4843,-5135,5247,1413,1146,-1468,1,7,11
1.72313E+12,-4764,-5165,4817,1563,922,-1658,1,7,11
1.72313E+12,-4933,-4859,4597,1179,993,-1588,1,7,11
1.72313E+12,-4589,-4773,4610,1282,1371,-1257,1,7,11
1.72313E+12,-4511,-4981,4397,1054,1255,-1172,1,7,11
1.72313E+12,-4708,-4737,4219,793,1663,-1341,1,7,11
1.72313E+12,-4718,-4809,4101,512,1830,-1014,1,7,11
1.72313E+12,-4496,-5010,3826,261,1697,-1002,1,7,11
1.72313E+12,-4599,-5388,3776,115,1742,-1023,1,7,11
1.72313E+12,-4740,-5329,3791,-283,1750,-1019,1,7,11
1.72313E+12,-5152,-5536,3824,-380,1744,-1016,1,7,11
1.72313E+12,-5060,-5790,4169,-177,1684,-992,1,7,11
1.72313E+12,-5427,-6266,3978,-152,1836,-976,1,7,11
1.72313E+12,-5279,-6451,4023,-360,1474,-957,1,7,11
1.72313E+12,-5657,-6379,4089,-318,1638,-936,1,7,11
1.72313E+12,-5511,-6767,4401,21,1266,-1148,1,7,11
1.72313E+12,-5579,-6546,4400,-114,1391,-1073,1,7,11
1.72313E+12,-5596,-6756,4373,-3,985,-711,1,7,11
1.72313E+12,-5531,-6660,4070,350,1066,-842,1,7,11
1.72313E+12,-5693,-6463,3996,205,655,-486,1,7,11
1.72313E+12,-5342,-6270,4217,527,505,-394,1,7,11
1.72313E+12,-5473,-5817,4202,577,597,-571,1,7,11
1.72313E+12,-5109,-5613,4195,584,178,-530,1,7,11
1.72313E+12,-5038,-5723,4222,528,285,-516,1,7,11
1.72313E+12,-5195,-5450,4415,94,-433,-440,1,7,11
1.72313E+12,-5179,-5386,4463,-309,-666,-426,1,7,11
1.72313E+12,-5184,-5436,4292,-219,-1110,-640,1,7,11
1.72313E+12,-5236,-5312,4667,-402,-1000,-601,1,7,11
1.72313E+12,-5003,-5662,4502,-776,-1393,-571,1,7,11
1.72313E+12,-5222,-5706,4528,-818,-1557,-548,1,7,11
1.72313E+12,-5188,-5506,4552,-871,-1458,-543,1,7,11
1.72313E+12,-5145,-5552,4577,-701,-1842,-563,1,7,11
1.72313E+12,-4862,-5570,4592,-1042,-1749,-588,1,7,11
1.72313E+12,-4818,-5591,4604,-1131,-2088,-598,1,7,11
1.72313E+12,-4760,-5591,4870,-994,-2164,-610,1,7,11
1.72313E+12,-4963,-5603,4906,-1322,-1960,-623,1,7,11
1.72313E+12,-4886,-5591,4902,-1358,-2026,-397,1,7,11
1.72313E+12,-4556,-5587,4901,-1406,-2338,-450,1,7,11
1.72313E+12,-4492,-5606,4901,-1200,-2387,-777,1,7,11
1.72313E+12,-4672,-5625,4893,-1240,-2189,-853,1,7,11
1.72313E+12,-4342,-5925,4892,-1541,-2233,-676,1,7,11
1.72313E+12,-4275,-5956,4890,-1569,-2270,-748,1,7,11
1.72313E+12,-4461,-6000,4903,-1605,-2572,-1071,1,7,11
1.72313E+12,-4379,-5811,4923,-1631,-2612,-1142,1,7,11
1.72313E+12,-4047,-5871,4945,-1644,-2635,-954,1,7,11
1.72313E+12,-3985,-6194,4966,-1653,-2644,-1287,1,7,11
1.72313E+12,-4178,-6249,4967,-1638,-2658,-1366,1,7,11
1.72313E+12,-3816,-6040,4937,-1626,-2674,-1186,1,7,11
1.72313E+12,-3968,-6081,4895,-1652,-2659,-1273,1,7,11
1.72313E+12,-3873,-6129,4887,-1446,-2637,-1617,1,7,11
1.72313E+12,-3533,-6459,4916,-1486,-2604,-1464,1,7,11
1.72313E+12,-3709,-6519,4926,-1472,-2564,-1823,1,7,11
1.72313E+12,-3629,-6303,4914,-1427,-2261,-1914,1,7,11
1.72313E+12,-3291,-6350,4902,-1645,-2206,-1737,1,7,11
1.72313E+12,-3204,-6685,4914,-1615,-2401,-2068,1,7,11
1.72313E+12,-3368,-6728,4934,-1564,-2359,-2166,1,7,11
1.72313E+12,-3019,-6537,4956,-1269,-2322,-2028,1,7,11
1.72313E+12,-3192,-6591,4979,-1208,-2034,-2415,1,7,11
1.72313E+12,-3131,-6634,4746,-1405,-2018,-2299,1,7,11
1.72313E+12,-3073,-6640,4988,-1337,-2026,-2687,1,7,11
1.72313E+12,-2717,-6920,4988,-1323,-2326,-2536,1,7,11
1.72313E+12,-2865,-6967,4768,-1344,-2372,-2909,1,7,11
1.72313E+12,-2522,-7014,4788,-1339,-2416,-2766,1,7,11
1.72313E+12,-2434,-7027,4770,-1303,-2200,-3114,1,7,11
1.72313E+12,-2602,-6821,4787,-1307,-2216,-3175,1,7,11
1.72313E+12,-2261,-6873,4796,-1016,-2212,-2946,1,7,11
1.72313E+12,-2398,-7181,4801,-972,-2190,-3179,1,7,11
1.72313E+12,-2009,-7222,4795,-1152,-2386,-3140,1,7,11
1.72313E+12,-2114,-7266,4788,-1080,-2023,-3079,1,7,11
1.72313E+12,-1709,-7044,4773,-749,-2137,-2778,1,7,11
1.72313E+12,-1830,-7060,4760,-685,-1728,-2759,1,7,11
1.72313E+12,-1444,-7118,4762,-641,-1845,-2751,1,7,11
1.72313E+12,-1606,-7139,4744,-847,-1463,-2752,1,7,11
1.72313E+12,-1233,-7159,4982,-781,-1628,-2743,1,7,11
1.72313E+12,-1407,-7446,4986,-496,-1581,-2714,1,7,11
1.72313E+12,-1312,-7468,4977,-472,-1580,-2940,1,7,11
1.72313E+12,-956,-7484,4967,-442,-1627,-2915,1,7,11
1.72313E+12,-1116,-7457,4925,-388,-1648,-2870,1,7,11
1.72313E+12,-1026,-7426,4887,-616,-1662,-2553,1,7,11
1.72313E+12,-659,-7438,4887,-435,-1664,-2472,1,7,11
1.72313E+12,-835,-7467,4904,-491,-1639,-2641,1,7,11
1.72313E+12,-493,-7487,4922,-784,-1624,-2276,1,7,11
1.72313E+12,-606,-7302,4949,-809,-1656,-2424,1,7,11
1.72313E+12,-217,-7331,4914,-771,-1657,-2356,1,7,11
1.72313E+12,-141,-7326,4880,-480,-1599,-2309,1,7,11
1.72313E+12,-326,-7335,4867,-471,-1554,-2001,1,7,11
1.72313E+12,-273,-7316,4584,-453,-1248,-1950,1,7,11
1.72313E+12,42,-7330,4579,-464,-1208,-2126,1,7,11
1.72313E+12,-102,-7344,4554,-456,-1192,-1789,1,7,11
1.72313E+12,257,-7367,4519,-446,-1402,-1729,1,7,11
1.72313E+12,344,-7383,4495,-444,-1330,-1671,1,7,11
1.72313E+12,172,-7709,4537,-447,-1002,-1875,1,7,11
1.72313E+12,241,-7408,4733,-616,-923,-1848,1,7,11
1.72313E+12,544,-7390,4715,-552,-1077,-1820,1,7,11
1.72313E+12,593,-7416,4481,-541,-734,-1503,1,7,11
1.72313E+12,598,-7400,4731,-256,-660,-1418,1,7,11
1.72313E+12,607,-7374,4723,-205,-862,-1593,1,7,11
1.72313E+12,636,-7364,4480,-202,-840,-1242,1,7,11
1.72313E+12,448,-7372,4494,-190,-864,-1396,1,7,11
1.72313E+12,797,-7347,4709,-156,-883,-1301,1,7,11
1.72313E+12,641,-7343,4670,-154,-883,-981,1,7,11
1.72313E+12,700,-7320,4620,-178,-845,-945,1,7,11
1.72313E+12,747,-7326,4617,-249,-806,-917,1,7,11
1.72313E+12,1072,-7349,4608,-565,-781,-908,1,7,11
1.72313E+12,1139,-7375,4338,-596,-493,-928,1,7,11
1.72313E+12,923,-7381,4324,-606,-443,-977,1,7,11
1.72313E+12,947,-7400,4332,-608,-406,-1292,1,7,11
1.72313E+12,958,-7400,4326,-581,-395,-1344,1,7,11
1.72313E+12,970,-7400,4328,-564,-394,-1387,1,7,11
1.72313E+12,971,-7382,4326,-534,-411,-1379,1,7,11
1.72313E+12,1006,-7383,4337,-254,-452,-1342,1,7,11
1.72313E+12,1310,-7364,4335,-210,-480,-1297,1,7,11
1.72313E+12,1382,-7374,4331,-195,-510,-980,1,7,11
1.72313E+12,1193,-7371,4329,-173,-510,-941,1,7,11
1.72313E+12,1241,-7353,4317,-148,-501,-907,1,7,11
1.72313E+12,1269,-7347,4295,-383,-472,-1127,1,7,11
1.72313E+12,1268,-7329,4284,-384,-427,-1072,1,7,11
1.72313E+12,1578,-7349,4292,-136,-407,-732,1,7,11
1.72313E+12,1641,-7364,4300,-130,-616,-665,1,7,11
1.72313E+12,1413,-7342,4288,-342,-540,-869,1,7,11
1.72313E+12,1415,-7313,4276,-319,-187,-805,1,7,11
1.72313E+12,1435,-7300,4291,-304,-379,-471,1,7,11
1.72313E+12,1457,-7531,4284,-277,-327,-399,1,7,11
1.72313E+12,1482,-7518,4265,-277,-295,-579,1,7,11
1.72313E+12,1535,-7518,4232,-298,-286,-515,1,7,11
1.72313E+12,1825,-7528,4447,-336,-280,-239,1,7,11
1.72313E+12,1834,-7546,4427,-382,-272,-244,1,7,11
1.72313E+12,1810,-7303,4419,-160,-270,-523,1,7,11
1.72313E+12,1795,-7330,4402,-183,-287,-536,1,7,11
1.72313E+12,1533,-7381,4413,-185,-307,-536,1,7,11
1.72313E+12,1535,-7394,4396,-141,-305,-534,1,7,11
1.72313E+12,1797,-7392,4393,-370,-294,-256,1,7,11
1.72313E+12,1528,-7393,4420,-343,-283,-235,1,7,11
1.72313E+12,1534,-7383,4411,-313,-310,-210,1,7,11
1.72313E+12,1851,-7368,4413,9,-141,-204,1,7,11
1.72313E+12,1851,-7353,4438,39,-153,-200,1,7,11
1.72313E+12,1858,-7305,4434,73,-178,-189,1,7,11
1.72313E+12,1861,-7546,4439,70,-192,-164,1,7,11
1.72313E+12,1884,-7538,4465,49,-221,-140,1,7,11
1.72313E+12,1664,-7529,4224,37,-519,-129,1,7,11
1.72313E+12,1730,-7521,4465,40,-549,-139,1,7,11
1.72313E+12,1777,-7513,4442,24,-535,-166,1,7,11
1.72313E+12,1782,-7520,4450,-363,-383,-184,1,7,11
1.72313E+12,2064,-7526,4424,-367,-358,-198,1,7,11
1.72313E+12,1782,-7526,4421,-376,-321,-220,1,7,11
1.72313E+12,1759,-7515,4428,-376,-333,-219,1,7,11
1.72313E+12,1760,-7523,4427,-367,-384,-217,1,7,11
1.72313E+12,1764,-7508,4401,-346,-176,-211,1,7,11
1.72313E+12,1777,-7518,4387,-358,-205,-186,1,7,11
1.72313E+12,2060,-7519,4373,-355,-226,-162,1,7,11
1.72313E+12,2117,-7540,4364,-365,-238,-135,1,7,11
1.72313E+12,1921,-7300,4360,-374,-236,-135,1,7,11
1.72313E+12,2000,-7307,4073,-368,-218,-188,1,7,11
1.72313E+12,1973,-7536,4051,-341,-149,-224,1,7,11
1.72313E+12,1987,-7551,4051,-350,-321,-220,1,7,11
1.72313E+12,2008,-7331,4066,-370,-276,-235,1,7,11
1.72313E+12,1978,-7316,4063,-324,45,-241,1,7,11
1.72313E+12,1945,-7547,4058,-290,86,-218,1,7,11
1.72313E+12,1975,-7311,4079,-284,70,-173,1,7,11
1.72313E+12,1992,-7301,4083,11,59,-164,1,7,11
1.72313E+12,1984,-7515,4070,43,45,-161,1,7,11
1.72313E+12,1979,-7505,4076,37,38,-149,1,7,11
1.72313E+12,1958,-7473,4082,38,28,-129,1,7,11
1.72313E+12,1946,-7457,4074,27,12,-340,1,7,11
1.72313E+12,1961,-7471,4091,6,-260,-300,1,7,11
1.72313E+12,1977,-7476,4085,3,-267,-275,1,7,11
1.72313E+12,1974,-7480,4078,-271,-257,10,1,7,11
1.72313E+12,1993,-7494,4086,-288,10,38,1,7,11
1.72313E+12,2005,-7504,4355,-296,27,60,1,7,11
1.72313E+12,2030,-7517,4353,-282,44,75,1,7,11
1.72313E+12,2045,-7523,4090,-275,72,78,1,7,11
1.72313E+12,2343,-7551,4095,-267,86,76,1,7,11
1.72313E+12,2354,-7513,4060,7,110,31,1,7,11
1.72313E+12,2378,-7521,4055,-266,116,-268,1,7,11
1.72313E+12,2355,-7521,4060,-283,-117,-327,1,7,11
1.72313E+12,2042,-7513,4074,-294,-80,-357,1,7,11
1.72313E+12,1993,-7494,4076,-298,-63,-360,1,7,11
1.72313E+12,1964,-7485,4066,-310,-73,-341,1,7,11
1.72313E+12,1961,-7494,4054,-340,-87,-320,1,7,11
1.72313E+12,1962,-7508,4071,-365,-112,-309,1,7,11
1.72313E+12,1984,-7509,4076,-363,107,-286,1,7,11
1.72313E+12,2038,-7516,4060,-348,76,-283,1,7,11
1.72313E+12,2320,-7505,4051,-341,72,-301,1,7,11
1.72313E+12,2348,-7497,4041,-342,73,-316,1,7,11
1.72313E+12,2360,-7499,4049,-355,77,-336,1,7,11
1.72313E+12,2377,-7511,4054,-349,80,-353,1,7,11
1.72313E+12,2363,-7484,4041,-331,101,-369,1,7,11
1.72313E+12,2331,-7466,4061,-327,-122,-339,1,7,11
1.72313E+12,2315,-7446,4090,-322,-123,-287,1,7,11
1.72313E+12,2308,-7167,4364,-311,105,26,1,7,11
1.72313E+12,2351,-7427,4375,-308,46,77,1,7,11
1.72313E+12,2409,-7167,4094,-305,-257,98,1,7,11
1.72313E+12,2180,-7433,4078,-325,-259,95,1,7,11
1.72313E+12,2425,-7459,4075,-356,25,96,1,7,11
1.72313E+12,2403,-7491,4071,-377,68,110,1,7,11
1.72313E+12,2370,-7509,4068,-134,113,-125,1,7,11
1.72313E+12,2359,-7536,4074,-381,-123,-96,1,7,11
1.72313E+12,2356,-7527,4064,-363,-114,-87,1,7,11
1.72313E+12,2344,-7530,4054,-360,-116,-95,1,7,11
1.72313E+12,2312,-7539,4048,-353,-123,-102,1,7,11
1.72313E+12,2029,-7533,4036,-338,119,-94,1,7,11
1.72313E+12,2009,-7537,4041,-331,96,-73,1,7,11
1.72313E+12,2032,-7542,4059,-321,57,-51,1,7,11
1.72313E+12,2327,-7521,4037,-284,20,-52,1,7,11
1.72313E+12,2368,-7497,4008,-273,2,-67,1,7,11
1.72313E+12,2387,-7471,4003,-294,3,-103,1,7,11
1.72313E+12,2418,-7454,3986,-320,5,114,1,7,11
1.72313E+12,2418,-7468,3999,-358,44,87,1,7,11
1.72313E+12,2183,-7502,4011,-382,76,83,1,7,11
1.72313E+12,2204,-7496,3998,-377,125,70,1,7,11
1.72313E+12,2188,-7530,4039,-160,-76,59,1,7,11
1.72313E+12,2404,-7536,4058,-169,-19,64,1,7,11
1.72313E+12,2399,-7297,4072,-156,270,115,1,7,11
1.72313E+12,2370,-7297,4051,-353,337,-120,1,7,11
1.72313E+12,2354,-7543,4024,-312,358,-99,1,7,11
1.72313E+12,2308,-7521,4011,-284,377,-88,1,7,11
1.72313E+12,2001,-7519,4028,-282,364,-58,1,7,11
1.72313E+12,1937,-7503,4036,7,324,-16,1,7,11
1.72313E+12,1923,-7504,4039,17,-1,317,1,7,11
1.72313E+12,1923,-7484,4030,28,-59,370,1,7,11
1.72313E+12,1928,-7474,4017,21,-115,153,1,7,11
1.72313E+12,1948,-7449,3994,-267,100,184,1,7,11
1.72313E+12,1965,-7454,4001,-323,80,198,1,7,11
1.72313E+12,2014,-7473,3989,-366,54,201,1,7,11
1.72313E+12,2367,-7508,3973,-143,61,179,1,7,11
1.72313E+12,2417,-7522,4217,-145,-128,369,1,7,11
1.72313E+12,2404,-7546,4000,-139,-17,318,1,7,11
1.72313E+12,2329,-7533,4032,-359,338,297,1,7,11
1.72313E+12,2034,-7307,4072,-344,140,352,1,7,11
1.72313E+12,2034,-7322,4077,-308,170,175,1,7,11
1.72313E+12,2007,-7316,4058,-283,177,237,1,7,11
1.72313E+12,1978,-7300,4025,-262,166,563,1,7,11
1.72313E+12,1942,-7308,3994,-267,156,396,1,7,11
1.72313E+12,2172,-7323,3984,-268,157,498,1,7,11
1.72313E+12,2151,-7358,3978,-280,153,883,1,7,11
1.72313E+12,2141,-7374,4212,-272,151,752,1,7,11
1.72313E+12,2101,-7392,4198,-266,159,1125,1,7,11
1.72313E+12,2090,-7694,4200,2,160,1023,1,7,11
1.72313E+12,2023,-7729,4212,34,195,1405,1,7,11
1.72313E+12,1716,-7741,4204,105,237,1257,1,7,11
1.72313E+12,1906,-7761,4188,-50,549,1448,1,7,11
1.72313E+12,1826,-7773,4174,283,616,1817,1,7,11
1.72313E+12,1476,-7759,4166,360,463,1912,1,7,11
1.72313E+12,1420,-7782,4170,137,835,1786,1,7,11
1.72313E+12,1547,-7784,4198,165,722,2144,1,7,11
1.72313E+12,1155,-7780,4214,191,1051,2041,1,7,11
1.72313E+12,969,-7773,3970,218,1119,2204,1,7,11
1.72313E+12,761,-7716,3996,246,1136,2449,1,7,11
1.72313E+12,710,-7692,4010,252,1110,2770,1,7,11
1.72313E+12,888,-7737,4089,230,1129,3049,1,7,11
1.72313E+12,815,-7783,4415,554,1145,3265,1,7,11
1.72313E+12,783,-7571,4436,633,909,3648,1,7,11
1.72313E+12,446,-7592,4226,466,1013,3657,1,7,11
1.72313E+12,530,-7721,4472,832,1348,3628,1,7,11
1.72313E+12,204,-7698,4255,805,1396,3687,1,7,11
1.72313E+12,356,-7396,4294,836,1217,3711,1,7,11
1.72313E+12,271,-7406,4334,841,1563,3469,1,7,11
1.72313E+12,-95,-7717,4646,842,1428,3691,1,7,11
1.72313E+12,74,-7789,4490,841,1517,3610,1,7,11
1.72313E+12,-261,-7781,4539,657,1842,3216,1,7,11
1.72313E+12,-339,-7423,4537,731,1887,3047,1,7,11
1.72313E+12,-163,-7369,4577,723,1674,3122,1,7,11
1.72313E+12,-516,-7362,4888,693,1726,2926,1,7,11
1.72313E+12,-417,-7308,4944,696,2063,2460,1,7,11
1.72313E+12,-827,-7482,4738,700,2111,2289,1,7,11
1.72313E+12,-691,-7133,4807,692,2144,2397,1,7,11
1.72313E+12,-1117,-7082,4894,644,1932,2010,1,7,11
1.72313E+12,-1285,-7069,5184,892,1966,2144,1,7,11
1.72313E+12,-1184,-7230,5203,647,1962,1763,1,7,11
1.72313E+12,-1632,-7191,4998,889,1992,1675,1,7,11
1.72313E+12,-1691,-6905,4993,881,2042,1699,1,7,11
1.72313E+12,-1751,-6904,5217,642,2308,1734,1,7,11
1.72313E+12,-1974,-6899,5195,667,2362,1777,1,7,11
1.72313E+12,-2328,-6896,5182,686,2394,2117,1,7,11
1.72313E+12,-2188,-6862,5164,713,2182,2033,1,7,11
1.72313E+12,-2302,-6826,5169,765,2244,2427,1,7,11
1.72313E+12,-2671,-7037,5174,1127,2578,2568,1,7,11
1.72313E+12,-2515,-6964,5154,975,2481,2660,1,7,11
1.72313E+12,-2694,-6644,5140,1324,2905,2559,1,7,11
1.72313E+12,-2713,-6610,4856,1381,2905,2796,1,7,11
1.72313E+12,-2726,-6584,4844,1164,2914,3166,1,7,11
1.72313E+12,-2742,-6766,4809,1195,2894,3129,1,7,11
1.72313E+12,-2808,-6687,4778,1153,2866,2691,1,7,11
1.72313E+12,-3194,-6355,4776,1308,2544,2685,1,7,11
1.72313E+12,-3042,-6293,4788,908,2652,2407,1,7,11
1.72313E+12,-3201,-6454,4793,1030,2259,2100,1,7,11
1.72313E+12,-3609,-6109,4781,859,2323,1837,1,7,11
1.72313E+12,-3505,-6064,4781,402,2153,1618,1,7,11
1.72313E+12,-3896,-6031,4780,213,1715,1218,1,7,11
1.72313E+12,-3716,-6026,4776,291,1507,1394,1,7,11
1.72313E+12,-3742,-6053,4774,-114,1554,1340,1,7,11
1.72313E+12,-3961,-6061,4986,45,1358,1288,1,7,11
1.72313E+12,-3941,-6089,4981,-329,981,922,1,7,11
1.72313E+12,-3958,-6126,4980,-149,903,1062,1,7,11
1.72313E+12,-3715,-6409,4973,-190,1060,712,1,7,11
1.72313E+12,-3778,-6127,4933,-180,741,654,1,7,11
1.72313E+12,-3801,-6443,4929,-216,647,889,1,7,11
1.72313E+12,-4115,-6118,4606,-152,864,651,1,7,11
1.72313E+12,-4146,-6445,4891,-182,794,723,1,7,11
1.72313E+12,-4131,-6427,4866,-368,470,1025,1,7,11
1.72313E+12,-4147,-6444,4878,-333,426,758,1,7,11
1.72313E+12,-4125,-6430,4607,-257,605,758,1,7,11
1.72313E+12,-4110,-6430,4874,25,551,715,1,7,11
1.72313E+12,-4149,-6427,4882,79,549,667,1,7,11
1.72313E+12,-4140,-6404,4874,-118,254,641,1,7,11
1.72313E+12,-4141,-6133,4894,-95,557,825,1,7,11
1.72313E+12,-4191,-6095,4873,-46,637,504,1,7,11
1.72313E+12,-4222,-6060,4875,293,505,470,1,7,11
1.72313E+12,-4006,-6027,4883,307,854,421,1,7,11
1.72313E+12,-4028,-6029,4917,318,658,626,1,7,11
1.72313E+12,-4075,-6254,4916,361,739,560,1,7,11
1.72313E+12,-4423,-6194,4902,151,1068,515,1,7,11
1.72313E+12,-4474,-5869,4875,181,1092,517,1,7,11
1.72313E+12,-4250,-5799,4593,173,1114,252,1,7,11
1.72313E+12,-4295,-5765,4593,128,1143,216,1,7,11
1.72313E+12,-4339,-6001,4595,347,896,176,1,7,11
1.72313E+12,-4659,-5979,4602,334,1145,139,1,7,11
1.72313E+12,-4723,-5963,4585,329,1058,151,1,7,11
1.72313E+12,-4736,-5955,4576,323,650,213,1,7,11
1.72313E+12,-4525,-5969,4601,317,818,515,1,7,11
1.72313E+12,-4577,-5964,4866,375,475,574,1,7,11
1.72313E+12,-4542,-5956,4590,172,406,599,1,7,11
1.72313E+12,-4554,-5948,4582,212,409,565,1,7,11
1.72313E+12,-4544,-5936,4575,235,398,520,1,7,11
1.72313E+12,-4570,-5904,4564,513,405,206,1,7,11
1.72313E+12,-4585,-5620,4548,242,393,164,1,7,11
1.72313E+12,-4598,-5612,4553,197,399,137,1,7,11
1.72313E+12,-4877,-5611,4565,138,421,371,1,7,11
1.72313E+12,-4865,-5611,4556,347,429,352,1,7,11
1.72313E+12,-4878,-5604,4555,306,463,321,1,7,11
1.72313E+12,-4878,-5597,4547,263,473,289,1,7,11
1.72313E+12,-4886,-5601,4546,-34,478,-9,1,7,11
1.72313E+12,-4598,-5901,4551,-57,483,-47,1,7,11
1.72313E+12,-4879,-5598,4542,-45,486,98,1,7,11
1.72313E+12,-4911,-5589,4544,-17,488,65,1,7,11
1.72313E+12,-4912,-5562,4512,-24,448,50,1,7,11
1.72313E+12,-4961,-5593,4529,-56,443,51,1,7,11
1.72313E+12,-4962,-5593,4521,-49,386,78,1,7,11
1.72313E+12,-4975,-5614,4529,-70,607,92,1,7,11
1.72313E+12,-4969,-5596,4502,-59,563,111,1,7,11
1.72313E+12,-4983,-5598,4504,-82,520,123,1,7,11
1.72313E+12,-4758,-5596,4509,-105,246,-117,1,7,11
1.72313E+12,-4791,-5591,4506,118,216,-89,1,7,11
1.72313E+12,-4808,-5582,4494,76,168,-54,1,7,11
1.72313E+12,-4783,-5575,4728,18,367,-20,1,7,11
1.72313E+12,-4759,-5566,4713,-290,322,258,1,7,11
1.72313E+12,-4992,-5546,4695,-360,270,256,1,7,11
1.72313E+12,-4977,-5565,4711,-180,-54,-22,1,7,11
1.72313E+12,-4738,-5551,4708,-232,-112,-83,1,7,11
1.72313E+12,-4752,-5595,4488,-542,51,-102,1,7,11
1.72313E+12,-4957,-5592,4711,-513,-275,-88,1,7,11
1.72313E+12,-4925,-5614,4708,-520,-292,-102,1,7,11
1.72313E+12,-4935,-5607,4711,-514,-273,126,1,7,11
1.72313E+12,-4938,-5889,4481,-521,-280,91,1,7,11
1.72313E+12,-4948,-5893,4497,-248,-276,75,1,7,11
1.72313E+12,-4940,-5899,4503,-231,-288,49,1,7,11
1.72313E+12,-4937,-5902,4500,-224,-293,12,1,7,11
1.72313E+12,-4943,-5623,4490,-222,-289,-283,1,7,11
1.72313E+12,-4935,-5889,4504,-255,-328,-287,1,7,11
1.72313E+12,-4912,-5915,4516,-526,-354,-322,1,7,11
1.72313E+12,-4911,-5943,4535,-252,-354,-139,1,7,11
1.72313E+12,-4906,-5932,4530,-214,-364,-192,1,7,11
1.72313E+12,-4887,-5953,4528,-184,-364,-229,1,7,11
1.72313E+12,-4893,-5934,4526,-381,-356,-256,1,7,11
1.72313E+12,-4879,-5930,4514,-354,-350,-247,1,7,11
1.72313E+12,-4880,-5947,4536,-335,-317,-231,1,7,11
1.72313E+12,-4606,-5971,4544,-288,-277,-199,1,7,11
1.72313E+12,-4569,-5954,4481,59,44,-384,1,7,11
1.72313E+12,-4527,-5910,4491,39,105,-367,1,7,11
1.72313E+12,-4557,-5905,4503,34,-27,-339,1,7,11
1.72313E+12,-4545,-5916,4503,27,294,-280,1,7,11
1.72313E+12,-4534,-5902,4492,67,355,38,1,7,11
1.72313E+12,-4568,-5631,4721,78,174,62,1,7,11
1.72313E+12,-4608,-5596,4699,99,231,87,1,7,11
1.72313E+12,-4902,-5599,4715,66,241,116,1,7,11
1.72313E+12,-4939,-5582,4705,48,209,-99,1,7,11
1.72313E+12,-4966,-5573,4697,24,167,-53,1,7,11
1.72313E+12,-4737,-5575,4688,-260,129,-1,1,7,11
1.72313E+12,-4760,-5598,4699,-295,343,304,1,7,11
1.72313E+12,-4745,-5608,4690,-297,298,357,1,7,11
1.72313E+12,-4747,-5624,4691,-301,283,372,1,7,11
1.72313E+12,-4747,-5613,4676,-276,258,153,1,7,11
1.72313E+12,-4972,-5628,4691,-271,-43,192,1,7,11
1.72313E+12,-4739,-5609,4702,12,-70,205,1,7,11
1.72313E+12,-4985,-5595,4717,41,113,239,1,7,11
1.72313E+12,-4972,-5575,4710,66,98,234,1,7,11
1.72313E+12,-4739,-5562,4721,73,120,170,1,7,11
1.72313E+12,-4768,-5545,4480,60,-106,308,1,7,11
1.72313E+12,-4774,-5538,4484,47,-90,261,1,7,11
1.72313E+12,-4798,-5542,4498,29,-73,-46,1,7,11
1.72313E+12,-4839,-5534,4499,26,-73,-61,1,7,11
1.72313E+12,-5147,-5750,4504,87,-87,-33,1,7,11
1.72313E+12,-5164,-5711,4484,78,121,308,1,7,11
1.72313E+12,-5122,-5742,4711,45,115,134,1,7,11
1.72313E+12,-4783,-5517,4721,29,-105,156,1,7,11
1.72313E+12,-4766,-5541,4481,36,-43,358,1,7,11
1.72313E+12,-4747,-5542,4487,52,-19,299,1,7,11
1.72313E+12,-4759,-5526,4487,57,265,-19,1,7,11
1.72313E+12,-4778,-5532,4516,59,276,-57,1,7,11
1.72313E+12,-4800,-5524,4530,88,288,-80,1,7,11
1.72313E+12,-4804,-5505,4520,-126,285,-83,1,7,11
1.72313E+12,-4784,-5736,4508,-114,284,-90,1,7,11
1.72313E+12,-4786,-5715,4528,-121,302,-118,1,7,11
1.72313E+12,-4781,-5684,4510,-127,298,97,1,7,11
1.72313E+12,-4794,-5669,4509,77,290,53,1,7,11
1.72313E+12,-4828,-5679,4516,22,278,32,1,7,11
1.72313E+12,-4855,-5683,4509,-262,-3,32,1,7,11
1.72313E+12,-5137,-5666,4491,-292,-53,41,1,7,11
1.72313E+12,-5142,-5660,4497,-326,-102,54,1,7,11
1.72313E+12,-5142,-5660,4498,-346,104,72,1,7,11
1.72313E+12,-5127,-5668,4506,-359,74,94,1,7,11
1.72313E+12,-5125,-5667,4501,-358,70,108,1,7,11
1.72313E+12,-5129,-5668,4510,-369,92,121,1,7,11
1.72313E+12,-5127,-5677,4517,-368,-124,-114,1,7,11
1.72313E+12,-4850,-5679,4507,-357,-77,-109,1,7,11
1.72313E+12,-4853,-5693,4523,-352,-24,109,1,7,11
1.72313E+12,-4836,-5695,4516,-337,-8,43,1,7,11
1.72313E+12,-4829,-5713,4498,-337,-1,-305,1,7,11
1.72313E+12,-4837,-5724,4508,-344,-3,-141,1,7,11
1.72313E+12,-4837,-5733,4505,-374,-57,-255,1,7,11
1.72313E+12,-4824,-5758,4530,-156,-115,-560,1,7,11
1.72313E+12,-4800,-5516,4534,-176,58,-570,1,7,11
1.72313E+12,-4827,-5528,4553,-188,44,-547,1,7,11
1.72313E+12,-4846,-5757,4511,-152,55,-230,1,7,11
1.72313E+12,-4843,-5520,4497,-174,103,-151,1,7,11
1.72313E+12,-4811,-5523,4724,-163,-95,-330,1,7,11
1.72313E+12,-4990,-5583,4728,-180,-31,-285,1,7,11
1.72313E+12,-4953,-5617,4723,-152,306,-305,1,7,11
1.72313E+12,-4944,-5907,4725,-364,348,-362,1,7,11
1.72313E+12,-4948,-5891,4684,-301,358,-177,1,7,11
1.72313E+12,-4960,-5603,4633,-289,354,-233,1,7,11
1.72313E+12,-4988,-5606,4618,-329,335,-526,1,7,11
1.72313E+12,-4764,-5602,4346,-362,286,-530,1,7,11
1.72313E+12,-4797,-5606,4335,-140,-23,-242,1,7,11
1.72313E+12,-4826,-5612,4330,-178,-96,-166,1,7,11
1.72313E+12,-4832,-5897,4609,-234,85,-308,1,7,11
1.72313E+12,-4838,-5921,4634,-513,1,68,1,7,11
1.72313E+12,-4833,-5930,4644,-254,-344,-98,1,7,11
1.72313E+12,-4804,-5915,4626,-246,-186,-33,1,7,11
1.72313E+12,-4803,-5912,4649,-253,-200,256,1,7,11
1.72313E+12,-4977,-5614,4621,-252,-239,278,1,7,11
1.72313E+12,-4982,-5628,4661,-530,-183,286,1,7,11
1.72313E+12,-4935,-5590,4660,-246,-170,292,1,7,11
1.72313E+12,-4945,-5575,4680,-242,-353,295,1,7,11
1.72313E+12,-4952,-5554,4683,-203,-299,341,1,7,11
1.72313E+12,-4737,-5750,4689,-183,37,180,1,7,11
1.72313E+12,-4770,-5755,4705,-208,-107,542,1,7,11
1.72313E+12,-4776,-5526,4722,-213,-71,609,1,7,11
1.72313E+12,-4813,-5757,4699,-164,-69,624,1,7,11
1.72313E+12,-4839,-5737,4677,-153,-71,622,1,7,11
1.72313E+12,-5135,-5721,4677,-145,-61,593,1,7,11
1.72313E+12,-5169,-5709,4668,-157,-51,559,1,7,11
1.72313E+12,-5205,-5695,4659,-156,-34,523,1,7,11
1.72313E+12,-5233,-5686,4656,-162,-21,235,1,7,11
1.72313E+12,-5242,-5684,4646,-157,-14,217,1,7,11
1.72313E+12,-5247,-5686,4642,-144,-3,190,1,7,11
1.72313E+12,-5001,-5675,4634,-368,263,167,1,7,11
1.72313E+12,-5001,-5668,4608,-340,268,146,1,7,11
1.72313E+12,-4997,-5678,4342,-323,273,379,1,7,11
1.72313E+12,-5244,-5658,4307,-280,283,347,1,7,11
1.72313E+12,-5006,-5680,4307,-289,310,334,1,7,11
1.72313E+12,-5231,-5691,4317,-271,310,324,1,7,11
1.72313E+12,-5223,-5711,4333,-264,315,296,1,7,11
1.72313E+12,-5220,-5707,4331,21,317,258,1,7,11
1.72313E+12,-5222,-5689,4331,33,304,-56,1,7,11
1.72313E+12,-5224,-5674,4336,19,286,-92,1,7,11
1.72313E+12,-5224,-5657,4334,1,257,-113,1,7,11
1.72313E+12,-5228,-5644,4336,-288,-21,123,1,7,11
1.72313E+12,-5240,-5637,4339,-328,-41,114,1,7,11
1.72313E+12,-5241,-5633,4339,-362,-66,112,1,7,11
1.72313E+12,-5004,-5373,4333,-138,-79,119,1,7,11
1.72313E+12,-5022,-5373,4330,-174,-80,-122,1,7,11
1.72313E+12,-5041,-5652,4343,-211,-85,-98,1,7,11
1.72313E+12,-5045,-5670,4351,-239,-103,-81,1,7,11
1.72313E+12,-5043,-5677,4616,-256,126,-77,1,7,11
1.72313E+12,-5055,-5672,4625,-528,89,-90,1,7,11
1.72313E+12,-5066,-5662,4624,-542,39,-106,1,7,11
1.72313E+12,-5099,-5648,4621,-547,-268,-120,1,7,11
1.72313E+12,-5378,-5370,4609,-557,-334,-120,1,7,11
1.72313E+12,-5398,-5352,4348,-586,-160,-111,1,7,11
1.72313E+12,-5420,-5328,4340,-619,-518,-104,1,7,11
1.72313E+12,-5448,-5310,4334,-413,-633,-91,1,7,11
1.72313E+12,-5466,-5287,4331,-468,-506,-83,1,7,11
1.72313E+12,-5471,-5259,4310,-798,-654,-78,1,7,11
1.72313E+12,-5459,-5487,4297,-885,-1085,-77,1,7,11
1.72313E+12,-5476,-5444,4280,-733,-1016,-81,1,7,11
1.72313E+12,-5484,-5430,4267,-1152,-1236,-75,1,7,11
1.72313E+12,-5486,-5441,4257,-1376,-1491,-69,1,7,11
1.72313E+12,-5476,-5445,4255,-1629,-2071,-100,1,7,11
1.72313E+12,-5442,-5252,4270,-1683,-2193,111,1,7,11
1.72313E+12,-5021,-5663,4297,-2610,-3261,2,1,7,11
1.72313E+12,-5128,-5517,4299,-2823,-3910,-322,1,7,11
1.72313E+12,-4977,-5992,4614,-2746,-3969,-171,1,7,11
1.72313E+12,-4653,-6151,4618,-3123,-4258,-561,1,7,11
1.72313E+12,-4479,-6248,4613,-3130,-4718,-805,1,7,11
1.72313E+12,-4085,-6087,4632,-3106,-4578,-1297,1,7,11
1.72313E+12,-4202,-6437,4655,-2767,-4601,-1606,1,7,11
1.72313E+12,-3800,-6521,4647,-2758,-4732,-1850,1,7,11
1.72313E+12,-3903,-6314,4648,-2276,-4232,-1769,1,7,11
1.72313E+12,-3493,-6399,4694,-2318,-4141,-2159,1,7,11
1.72313E+12,-3605,-6730,4725,-2052,-3709,-2008,1,7,11
1.72313E+12,-3204,-6728,4705,-1514,-2956,-2349,1,7,11
1.72313E+12,-3336,-6746,4727,-1569,-2439,-2432,1,7,11
1.72313E+12,-2954,-6775,4514,-1407,-1955,-2274,1,7,11
1.72313E+12,-3125,-6576,4579,-1019,-1487,-2653,1,7,11
1.72313E+12,-3082,-6618,4885,-1138,-1331,-2524,1,7,11
1.72313E+12,-3078,-6645,4902,-755,-742,-2904,1,7,11
1.72313E+12,-3087,-6656,4920,-663,-512,-2748,1,7,11
1.72313E+12,-2815,-6950,4935,-879,-404,-3083,1,7,11
1.72313E+12,-2761,-6792,4982,-886,-442,-3171,1,7,11
1.72313E+12,-2909,-7184,4755,-884,-890,-3349,1,7,11
1.72313E+12,-2894,-7233,4981,-806,-1150,-3643,1,7,11
1.72313E+12,-2694,-7209,4926,-477,-1171,-3921,1,7,11
1.72313E+12,-2754,-7224,4933,-433,-1436,-3800,1,7,11
1.72313E+12,-2728,-7231,4926,-597,-1696,-3742,1,7,11
1.72313E+12,-2543,-7254,4922,-254,-2130,-3533,1,7,11
1.72313E+12,-2248,-7054,4920,-184,-1953,-3287,1,7,11
1.72313E+12,-1946,-7044,4871,-366,-2165,-3378,1,7,11
1.72313E+12,-1879,-7208,4572,-159,-1679,-3062,1,7,11
1.72313E+12,-1496,-7197,4590,-516,-1498,-3333,1,7,11
1.72313E+12,-1645,-7204,4866,-626,-1594,-3343,1,7,11
1.72313E+12,-1557,-7222,4886,-475,-1190,-3332,1,7,11
1.72313E+12,-1221,-7288,4914,-818,-1331,-3038,1,7,11
1.72313E+12,-1382,-7081,4926,-871,-1007,-2986,1,7,11
1.72313E+12,-1314,-7141,4925,-647,-953,-3186,1,7,11
1.72313E+12,-996,-7466,4917,-653,-920,-3111,1,7,11
1.72313E+12,-926,-7508,4908,-891,-917,-2767,1,7,11
1.72313E+12,-1100,-7545,4893,-859,-923,-2910,1,7,11
1.72313E+12,-753,-7548,4868,-809,-944,-2528,1,7,11
1.72313E+12,-868,-7319,4587,-791,-975,-2654,1,7,11
1.72313E+12,-459,-7350,4568,-509,-984,-2562,1,7,11
1.72313E+12,-596,-7358,4545,-496,-961,-2251,1,7,11
1.72313E+12,-218,-7381,4539,-499,-956,-2212,1,7,11
1.72313E+12,32,-7686,4549,-486,-981,-2196,1,7,11
1.72313E+12,-31,-7722,4528,-455,-1281,-2236,1,7,11
1.72313E+12,142,-7738,4491,-409,-1296,-2613,1,7,11
1.72313E+12,166,-7396,4675,-599,-970,-2525,1,7,11
1.72313E+12,374,-7359,4655,-636,-925,-2868,1,7,11
1.72313E+12,332,-7346,4673,-397,-913,-2855,1,7,11
1.72313E+12,301,-7354,4690,-410,-926,-2476,1,7,11
1.72313E+12,364,-7395,4695,-403,-951,-2239,1,7,11
1.72313E+12,196,-7409,4677,-612,-939,-1997,1,7,11
1.72313E+12,543,-7389,4629,-588,-920,-1762,1,7,11
1.72313E+12,417,-7397,4610,-587,-904,-1801,1,7,11
1.72313E+12,769,-7383,4314,-580,-1131,-1645,1,7,11
1.72313E+12,891,-7402,4311,-604,-1121,-1265,1,7,11
1.72313E+12,746,-7405,4303,-589,-1087,-1205,1,7,11
1.72313E+12,1064,-7410,4286,-575,-1029,-1180,1,7,11
1.72313E+12,1101,-7402,4264,-562,-705,-1405,1,7,11
1.72313E+12,1134,-7408,4256,-549,-651,-1354,1,7,11
1.72313E+12,942,-7415,4227,-516,-870,-1292,1,7,11
1.72313E+12,987,-7421,4229,-231,-806,-991,1,7,11
1.72313E+12,1020,-7682,4232,-210,-482,-939,1,7,11
1.72313E+12,1352,-7697,4233,-183,-438,-1151,1,7,11
1.72313E+12,1164,-7688,4477,-144,-415,-1138,1,7,11
1.72313E+12,1218,-7416,4448,-370,-628,-921,1,7,11
1.72313E+12,1230,-7411,4440,-372,-611,-941,1,7,11
1.72313E+12,1274,-7686,4451,-141,-601,-978,1,7,11
1.72313E+12,1560,-7414,4442,-156,-594,-1286,1,7,11
1.72313E+12,1538,-7369,4434,-155,-584,-1324,1,7,11
1.72313E+12,1562,-7358,4440,-176,-606,-1269,1,7,11
1.72313E+12,1609,-7365,4448,-182,-639,-944,1,7,11
1.72313E+12,1656,-7367,4437,-174,-408,-1125,1,7,11
1.72313E+12,1425,-7359,4429,-158,-640,-1050,1,7,11
1.72313E+12,1466,-7375,4437,-155,-617,-707,1,7,11
1.72313E+12,1515,-7367,4431,-365,-592,-889,1,7,11
1.72313E+12,1813,-7361,4416,-328,-556,-828,1,7,11
1.72313E+12,1869,-7357,4410,-305,-530,-783,1,7,11
1.72313E+12,1910,-7324,4380,-278,-238,-778,1,7,11
1.72313E+12,1667,-7312,4375,-285,-201,-787,1,7,11
1.72313E+12,1919,-7307,4379,-293,-163,-794,1,7,11
1.72313E+12,1672,-7327,4403,-301,-144,-777,1,7,11
1.72313E+12,1694,-7333,4410,-286,-377,-495,1,7,11
1.72313E+12,1744,-7345,4406,7,-347,-463,1,7,11
1.72313E+12,1754,-7303,4379,24,-303,-445,1,7,11
1.72313E+12,1771,-7299,4383,1,-277,-415,1,7,11
1.72313E+12,1759,-7548,4402,-276,-263,-395,1,7,11
1.72313E+12,2049,-7298,4409,-282,-281,-613,1,7,11
1.72313E+12,2069,-7550,4409,-270,-284,-600,1,7,11
1.72313E+12,2053,-7536,4406,-268,-289,-579,1,7,11
1.72313E+12,2061,-7521,4396,-266,-305,-545,1,7,11
1.72313E+12,2070,-7508,4382,-276,-327,-524,1,7,11
1.72313E+12,2084,-7516,4388,-291,-358,-514,1,7,11
1.72313E+12,2111,-7523,4394,-290,-140,-515,1,7,11
1.72313E+12,2139,-7523,4394,-284,-169,-531,1,7,11
1.72313E+12,2148,-7527,4404,-281,-178,-545,1,7,11
1.72313E+12,1924,-7501,4387,-263,-194,-548,1,7,11
1.72313E+12,1978,-7493,4387,-264,-200,-549,1,7,11
1.72313E+12,2028,-7490,4386,-267,-188,-557,1,7,11
1.72313E+12,2316,-7481,4376,-268,-151,-566,1,7,11
1.72313E+12,2340,-7464,4355,-272,-357,-570,1,7,11
1.72313E+12,2333,-7454,4362,-308,-285,-556,1,7,11
1.72313E+12,2328,-7467,4388,-335,-271,-529,1,7,11
1.72313E+12,2351,-7474,4389,-333,-275,-234,1,7,11
1.72313E+12,2363,-7481,4377,-325,2,-200,1,7,11
1.72313E+12,2367,-7476,4364,-319,24,-167,1,7,11
1.72313E+12,2350,-7466,4359,-318,43,-133,1,7,11
1.72313E+12,2344,-7486,4372,-329,40,-348,1,7,11
1.72313E+12,2362,-7511,4372,-310,21,-317,1,7,11
1.72313E+12,2384,-7494,4074,-281,11,-317,1,7,11
1.72313E+12,2404,-7488,4050,-280,15,-328,1,7,11
1.72313E+12,2412,-7485,4030,-288,38,-355,1,7,11
1.72313E+12,2405,-7504,4032,-315,61,-372,1,7,11
1.72313E+12,2386,-7522,4057,-322,78,-132,1,7,11
1.72313E+12,2378,-7541,4076,-321,82,-382,1,7,11
1.72313E+12,2375,-7539,4071,-293,90,-361,1,7,11
1.72313E+12,2384,-7536,4059,-265,95,-343,1,7,11
1.72313E+12,2377,-7507,4061,19,109,-324,1,7,11
1.72313E+12,2384,-7494,4061,33,102,-303,1,7,11
1.72313E+12,2376,-7468,4055,51,101,-290,1,7,11
1.72313E+12,2373,-7449,4069,43,86,-263,1,7,11
1.72313E+12,2394,-7430,4068,45,65,9,1,7,11
1.72313E+12,2422,-7435,4080,29,57,26,1,7,11
1.72313E+12,2181,-7453,4078,16,70,34,1,7,11
1.72313E+12,2416,-7458,4091,13,101,31,1,7,11
1.72313E+12,2393,-7437,4084,7,113,39,1,7,11
1.72313E+12,2388,-7441,4073,-269,115,54,1,7,11
1.72313E+12,2357,-7431,4091,-296,119,67,1,7,11
1.72313E+12,2321,-7157,4367,-306,125,91,1,7,11
1.72313E+12,2307,-7150,4370,-319,112,110,1,7,11
1.72313E+12,2315,-7142,4361,-341,74,122,1,7,11
1.72313E+12,2344,-7154,4091,-375,7,111,1,7,11
1.72313E+12,2366,-7164,4065,-163,-274,71,1,7,11
1.72313E+12,2407,-7448,4045,-235,-276,16,1,7,11
1.72313E+12,2189,-7504,4036,-519,5,-311,1,7,11
1.72313E+12,2192,-7532,4021,-252,58,-133,1,7,11
1.72313E+12,2423,-7309,4036,-234,97,-189,1,7,11
1.72313E+12,2397,-7310,4048,-180,110,-213,1,7,11
1.72313E+12,2384,-7298,4043,-377,86,-206,1,7,11
1.72313E+12,2393,-7533,4033,-325,55,-184,1,7,11
1.72313E+12,2413,-7517,4030,-281,24,-147,1,7,11
1.72313E+12,2177,-7506,4026,5,4,-363,1,7,11
1.72313E+12,2199,-7480,4020,30,-264,-323,1,7,11
1.72313E+12,2208,-7466,4030,31,-267,-290,1,7,11
1.72313E+12,2215,-7455,4042,30,-268,-265,1,7,11
1.72313E+12,2239,-7442,4039,17,-270,11,1,7,11
1.72313E+12,2252,-7432,4028,-260,-257,20,1,7,11
1.72313E+12,2280,-7451,4020,-291,19,19,1,7,11
1.72313E+12,2286,-7457,4009,-313,61,-259,1,7,11
1.72313E+12,2281,-7458,4003,-326,107,-282,1,7,11
1.72313E+12,2265,-7450,4008,-331,-104,-311,1,7,11
1.72313E+12,2250,-7463,4025,-343,-78,-328,1,7,11
1.72313E+12,2231,-7460,4024,-345,-75,-334,1,7,11
1.72313E+12,2229,-7463,4038,-344,-86,-329,1,7,11
1.72313E+12,2258,-7468,4023,-332,-106,-327,1,7,11
1.72313E+12,2264,-7448,4009,-316,-105,-327,1,7,11
1.72313E+12,2269,-7447,4012,-312,-104,-315,1,7,11
1.72313E+12,2245,-7442,4022,-307,-108,-301,1,7,11
1.72313E+12,2250,-7447,4034,-310,117,-269,1,7,11
1.72313E+12,2259,-7436,4022,-301,91,11,1,7,11
1.72313E+12,2295,-7437,4008,-310,70,43,1,7,11
1.72313E+12,2581,-7440,3983,-323,84,55,1,7,11
1.72313E+12,2590,-7453,3985,-345,122,60,1,7,11
1.72313E+12,2576,-7468,3999,-363,-91,58,1,7,11
1.72313E+12,2296,-7452,3985,-347,-65,60,1,7,11
1.72313E+12,2292,-7470,3992,-357,-58,78,1,7,11
1.72313E+12,2299,-7487,4001,-342,-53,84,1,7,11
1.72313E+12,2562,-7487,3998,-321,-50,84,1,7,11
1.72313E+12,2299,-7483,3986,-309,-30,81,1,7,11
1.72313E+12,2279,-7466,3974,-308,-13,82,1,7,11
1.72313E+12,2249,-7455,3982,-315,-14,99,1,7,11
1.72313E+12,2236,-7460,4002,-331,-35,122,1,7,11
1.72313E+12,2215,-7440,3991,-345,-67,127,1,7,11
1.72313E+12,2205,-7433,3975,-344,-87,-114,1,7,11
1.72313E+12,2204,-7439,3984,-384,-105,-94,1,7,11
1.72313E+12,2220,-7470,4011,-146,125,-78,1,7,11
1.72313E+12,2233,-7477,4007,-380,108,-83,1,7,11
1.72313E+12,2253,-7480,3988,-366,87,-94,1,7,11
1.72313E+12,2252,-7471,3969,-359,89,-110,1,7,11
1.72313E+12,2250,-7472,4213,-367,93,-112,1,7,11
1.72313E+12,2271,-7495,4215,-372,107,-114,1,7,11
1.72313E+12,2270,-7504,4216,-362,-126,-121,1,7,11
1.72313E+12,2266,-7516,4215,-343,-106,126,1,7,11
1.72313E+12,2245,-7509,4213,-322,-86,110,1,7,11
1.72313E+12,2224,-7511,4218,-313,-78,122,1,7,11
1.72313E+12,2205,-7499,4220,-299,-75,-122,1,7,11
1.72313E+12,2198,-7487,4220,-297,-88,-102,1,7,11
1.72313E+12,2193,-7488,4210,-321,-125,-74,1,7,11
1.72313E+12,2207,-7485,4200,-335,107,-78,1,7,11
1.72313E+12,2224,-7496,4188,-353,92,-87,1,7,11
1.72313E+12,2232,-7506,4174,-368,88,-100,1,7,11
1.72313E+12,2221,-7528,4176,-375,94,-116,1,7,11
1.72313E+12,2222,-7548,4169,-360,104,-120,1,7,11
1.72313E+12,2205,-7302,4179,-332,126,-108,1,7,11
1.72313E+12,2190,-7536,4180,-298,-121,-91,1,7,11
1.72313E+12,2197,-7528,4182,-270,123,-65,1,7,11
1.72313E+12,2226,-7521,4184,18,112,-43,1,7,11
1.72313E+12,2237,-7523,4176,38,116,-29,1,7,11
1.72313E+12,2242,-7524,4170,31,-118,-16,1,7,11
1.72313E+12,2249,-7526,4169,20,-85,-10,1,7,11
1.72313E+12,2260,-7535,4182,12,-42,-16,1,7,11
1.72313E+12,2258,-7518,4179,17,272,-43,1,7,11
1.72313E+12,2262,-7516,4170,9,323,-87,1,7,11
1.72313E+12,2239,-7508,4166,-261,373,105,1,7,11
1.72313E+12,2197,-7505,4180,-284,151,55,1,7,11
1.72313E+12,2421,-7511,4204,-288,163,25,1,7,11
1.72313E+12,2386,-7527,4217,-294,148,9,1,7,11
1.72313E+12,2351,-7521,3975,-283,364,8,1,7,11
1.72313E+12,2339,-7531,3981,-275,300,37,1,7,11
1.72313E+12,2342,-7521,4220,2,-21,85,1,7,11
1.72313E+12,2364,-7523,4201,-257,-87,-111,1,7,11
1.72313E+12,2383,-7514,4188,2,-128,-62,1,7,11
1.72313E+12,2390,-7512,4191,-271,96,-12,1,7,11
1.72313E+12,2404,-7526,4204,-269,77,298,1,7,11
1.72313E+12,2188,-7303,4200,23,117,138,1,7,11
1.72313E+12,2431,-7301,4180,43,-89,164,1,7,11
1.72313E+12,2410,-7302,4185,46,-30,190,1,7,11
1.72313E+12,2385,-7302,4187,69,276,205,1,7,11
1.72313E+12,2366,-7299,4185,84,322,228,1,7,11
1.72313E+12,2351,-7309,4205,95,361,245,1,7,11
1.72313E+12,2335,-7323,4211,121,142,523,1,7,11
1.72313E+12,2046,-7341,3986,-121,197,557,1,7,11
1.72313E+12,2009,-7338,3987,-72,250,609,1,7,11
1.72313E+12,1969,-7333,3990,-53,560,423,1,7,11
1.72313E+12,1958,-7333,3991,-36,610,501,1,7,11
1.72313E+12,1961,-7347,4005,-30,418,839,1,7,11
1.72313E+12,1943,-7366,3990,257,481,893,1,7,11
1.72313E+12,2135,-7341,3989,298,783,698,1,7,11
1.72313E+12,2118,-7372,4008,277,825,1107,1,7,11
1.72313E+12,1753,-7378,4046,319,874,925,1,7,11
1.72313E+12,1686,-7374,4067,363,872,1349,1,7,11
1.72313E+12,1912,-7393,4092,149,868,1563,1,7,11
1.72313E+12,1882,-7367,4073,220,883,1504,1,7,11
1.72313E+12,1832,-7360,4359,247,675,1670,1,7,11
1.72313E+12,1831,-7385,4355,525,730,2087,1,7,11
1.72313E+12,1490,-7401,4371,567,924,1932,1,7,11
1.72313E+12,1648,-7394,4411,596,1388,2039,1,7,11
1.72313E+12,1596,-7403,4429,389,1587,2200,1,7,11
1.72313E+12,1186,-7399,4472,439,1820,2641,1,7,11
1.72313E+12,1010,-7416,4258,473,1713,2895,1,7,11
1.72313E+12,1099,-7718,4286,793,2145,3145,1,7,11
1.72313E+12,887,-7699,4287,870,2345,3348,1,7,11
1.72313E+12,803,-7736,4318,893,2276,3315,1,7,11
1.72313E+12,422,-7753,4620,698,2512,3463,1,7,11
1.72313E+12,537,-7766,4711,1036,2943,3574,1,7,11
1.72313E+12,210,-7768,4514,1147,2777,3928,1,7,11
1.72313E+12,323,-7705,4552,1283,3137,3946,1,7,11
1.72313E+12,-79,-7353,4566,1366,3199,3966,1,7,11
1.72313E+12,57,-7316,4885,1352,2984,3734,1,7,11
1.72313E+12,-339,-7522,4974,1349,3014,3966,1,7,11
1.72313E+12,-226,-7458,4779,1353,3012,3928,1,7,11
1.72313E+12,-616,-7129,4803,1369,3013,3900,1,7,11
1.72313E+12,-772,-7069,4821,1359,3030,3876,1,7,11
1.72313E+12,-673,-7266,4855,1326,3338,3881,1,7,11
1.72313E+12,-1103,-7273,5203,1290,3418,3879,1,7,11
1.72313E+12,-979,-6911,5202,1366,3249,3870,1,7,11
1.72313E+12,-1345,-6870,5008,1359,3638,3880,1,7,11
1.72313E+12,-1176,-6849,5130,1345,3509,3866,1,7,11
1.72313E+12,-1348,-6827,5397,1367,3872,3527,1,7,11
1.72313E+12,-1462,-6797,5394,1198,3781,3327,1,7,11
1.72313E+12,-1723,-6978,5116,1543,4181,3353,1,7,11
1.72313E+12,-2003,-6651,5122,1575,4011,3153,1,7,11
1.72313E+12,-2601,-6780,5114,1644,4042,2711,1,7,11
1.72313E+12,-2828,-6680,5389,1624,4186,2869,1,7,11
1.72313E+12,-2794,-6315,5088,1642,3795,2531,1,7,11
1.72313E+12,-3094,-6491,5074,1606,3884,2433,1,7,11
1.72313E+12,-3278,-6425,5096,1249,3690,2578,1,7,11
1.72313E+12,-3705,-6102,5072,1404,3214,2216,1,7,11
1.72313E+12,-3866,-6023,5024,1335,3009,2346,1,7,11
1.72313E+12,-3735,-6226,5242,908,2722,2041,1,7,11
1.72313E+12,-3829,-6207,5228,1036,2549,1995,1,7,11
1.72313E+12,-4182,-6157,5198,687,2653,2159,1,7,11
1.72313E+12,-4039,-5851,5175,849,2250,2049,1,7,11
1.72313E+12,-4387,-5800,5131,791,2357,1693,1,7,11
1.72313E+12,-4234,-6001,4837,470,1965,1860,1,7,11
1.72313E+12,-4290,-5963,4814,396,2057,1795,1,7,11
1.72313E+12,-4325,-5939,4807,571,1898,1471,1,7,11
1.72313E+12,-4618,-5929,4822,243,1503,1643,1,7,11
1.72313E+12,-4656,-5890,4797,218,1627,1557,1,7,11
1.72313E+12,-4692,-5582,4764,177,1247,1209,1,7,11
1.72313E+12,-4715,-5530,4740,365,1399,1371,1,7,11
1.72313E+12,-4485,-5742,4962,277,1313,1022,1,7,11
1.72313E+12,-4520,-5709,4929,-92,990,948,1,7,11
1.72313E+12,-4534,-5716,4939,32,926,1139,1,7,11
1.72313E+12,-4565,-5724,4928,-327,1118,1074,1,7,11
1.72313E+12,-4579,-5742,4927,-159,1049,750,1,7,11
1.72313E+12,-4592,-5732,4908,-234,736,664,1,7,11
1.72313E+12,-4884,-5525,4915,-568,681,835,1,7,11
1.72313E+12,-4895,-5527,4881,-590,871,498,1,7,11
1.72313E+12,-4941,-5541,4864,-625,843,414,1,7,11
1.72313E+12,-4957,-5555,4584,-639,791,387,1,7,11
1.72313E+12,-4970,-5588,4562,-639,511,629,1,7,11
1.72313E+12,-4737,-5609,4552,-609,495,388,1,7,11
1.72313E+12,-4745,-5901,4553,-575,448,427,1,7,11
1.72313E+12,-4964,-5962,4557,-513,628,457,1,7,11
1.72313E+12,-4927,-5943,4517,-161,562,421,1,7,11
1.72313E+12,-4923,-5934,4509,-343,521,598,1,7,11
1.72313E+12,-4950,-5911,4498,-278,253,247,1,7,11
1.72313E+12,-4989,-5891,4497,39,237,160,1,7,11
1.72313E+12,-4738,-5605,4490,96,184,362,1,7,11
1.72313E+12,-4740,-5591,4492,-118,139,291,1,7,11
1.72313E+12,-4739,-5577,4498,-90,359,-62,1,7,11
1.72313E+12,-4760,-5545,4488,-87,334,85,1,7,11
1.72313E+12,-4800,-5520,4509,-88,302,-271,1,7,11
1.72313E+12,-4838,-5507,4509,-65,263,-331,1,7,11
1.72313E+12,-4858,-5756,4534,-67,-18,-350,1,7,11
1.72313E+12,-5146,-5744,4567,-40,-17,-328,1,7,11
1.72313E+12,-5126,-5748,4590,-12,-61,-259,1,7,11
1.72313E+12,-4763,-5731,4593,310,-107,51,1,7,11
1.72313E+12,-4960,-5700,4581,357,-112,47,1,7,11
1.72313E+12,-4970,-5666,4583,129,-75,1,1,7,11
1.72313E+12,-4954,-5690,4599,360,-43,-332,1,7,11
1.72313E+12,-4748,-5690,4607,177,360,-154,1,7,11
1.72313E+12,-4761,-5355,4568,233,193,-197,1,7,11
1.72313E+12,-4787,-5347,4575,183,547,-521,1,7,11
1.72313E+12,-4818,-5370,4865,140,599,-584,1,7,11
1.72313E+12,-4821,-5349,4876,137,625,-615,1,7,11
1.72313E+12,-4840,-5338,4602,367,400,-385,1,7,11
1.72313E+12,-4820,-5340,4600,319,402,-387,1,7,11
1.72313E+12,-4841,-5361,4599,265,438,-399,1,7,11
1.72313E+12,-4855,-5376,4871,-32,435,-625,1,7,11
1.72313E+12,-5126,-5656,4890,-55,443,-604,1,7,11
1.72313E+12,-5135,-5667,4879,-55,398,-554,1,7,11
1.72313E+12,-5146,-5644,4587,-47,634,-252,1,7,11
1.72313E+12,-5158,-5638,4560,-81,587,-198,1,7,11
1.72313E+12,-5149,-5643,4544,-109,561,-135,1,7,11
1.72313E+12,-5144,-5654,4543,110,553,-339,1,7,11
1.72313E+12,-5138,-5678,4542,101,567,-290,1,7,11
1.72313E+12,-4846,-5701,4551,99,571,10,1,7,11
1.72313E+12,-4818,-5711,4526,122,572,26,1,7,11
1.72313E+12,-4790,-5712,4521,-126,580,12,1,7,11
1.72313E+12,-4811,-5697,4510,-121,594,-279,1,7,11
1.72313E+12,-4823,-5691,4505,112,587,-302,1,7,11
1.72313E+12,-4858,-5694,4505,95,595,-309,1,7,11
1.72313E+12,-5129,-5688,4482,84,576,-287,1,7,11
1.72313E+12,-4858,-5697,4481,59,534,-268,1,7,11
1.72313E+12,-5122,-5703,4489,38,223,-264,1,7,11
1.72313E+12,-5135,-5704,4486,26,149,16,1,7,11
1.72313E+12,-5167,-5685,4725,31,344,50,1,7,11
1.72313E+12,-5174,-5671,4710,1,297,94,1,7,11
1.72313E+12,-5146,-5635,4674,-290,258,-75,1,7,11
1.72313E+12,-5194,-5638,4698,-370,275,-72,1,7,11
1.72313E+12,-5186,-5372,4673,-179,217,-17,1,7,11
1.72313E+12,-5152,-5682,4666,-230,-20,-2,1,7,11
1.72313E+12,-5141,-5712,4644,-212,307,261,1,7,11
1.72313E+12,-5131,-5729,4640,-181,162,-21,1,7,11
1.72313E+12,-5159,-5746,4650,-164,239,-63,1,7,11
1.72313E+12,-5157,-5746,4652,-132,540,-88,1,7,11
1.72313E+12,-5192,-5732,4649,-354,576,-112,1,7,11
1.72313E+12,-5162,-5526,4664,-298,610,125,1,7,11
1.72313E+12,-5235,-5709,4639,27,626,104,1,7,11
1.72313E+12,-5211,-5709,4611,19,589,-103,1,7,11
1.72313E+12,-5223,-5707,4350,5,567,-61,1,7,11
1.72313E+12,-5170,-5703,4313,-279,227,-3,1,7,11
1.72313E+12,-5140,-5722,4325,-347,213,-31,1,7,11
1.72313E+12,-5147,-5753,4346,-381,210,-62,1,7,11
1.72313E+12,-5159,-5507,4351,-134,196,-70,1,7,11
1.72313E+12,-5171,-5760,4325,-380,190,-59,1,7,11
1.72313E+12,-5202,-5505,4299,-384,193,-45,1,7,11
1.72313E+12,-4999,-5736,4249,-133,173,285,1,7,11
1.72313E+12,-5233,-5745,4246,-155,151,353,1,7,11
1.72313E+12,-5237,-5742,4232,-170,176,379,1,7,11
1.72313E+12,-5004,-5746,4243,-169,210,144,1,7,11
1.72313E+12,-5029,-5730,4234,-149,231,150,1,7,11
1.72313E+12,-5061,-5710,4476,-383,234,143,1,7,11
1.72313E+12,-5077,-5696,4452,-129,229,380,1,7,11
1.72313E+12,-5098,-5695,4454,-144,237,344,1,7,11
1.72313E+12,-5114,-5700,4226,-136,521,286,1,7,11
1.72313E+12,-5406,-5686,4476,-336,548,-29,1,7,11
1.72313E+12,-5442,-5640,4450,-284,534,-56,1,7,11
1.72313E+12,-5462,-5353,4438,-266,225,-38,1,7,11
1.72313E+12,-5262,-5338,4454,-270,187,256,1,7,11
1.72313E+12,-5273,-5326,4454,2,357,350,1,7,11
1.72313E+12,-5490,-5320,4461,-263,263,162,1,7,11
1.72313E+12,-5470,-5321,4471,-280,-49,175,1,7,11
1.72313E+12,-5475,-5304,4475,-285,-95,174,1,7,11
1.72313E+12,-5489,-5308,4258,-310,-127,159,1,7,11
1.72313E+12,-5503,-5318,4296,-294,105,165,1,7,11
1.72313E+12,-5498,-5292,4298,-264,66,189,1,7,11
1.72313E+12,-5473,-5270,4279,15,18,223,1,7,11
1.72313E+12,-5430,-5497,4255,0,-284,240,1,7,11
1.72313E+12,-5398,-5482,4244,-314,-309,212,1,7,11
1.72313E+12,-5407,-5480,4253,-364,-312,168,1,7,11
1.72313E+12,-5422,-5469,4260,-157,-323,150,1,7,11
1.72313E+12,-5449,-5462,4256,-203,-314,156,1,7,11
1.72313E+12,-5472,-5457,4240,-250,-314,190,1,7,11
1.72313E+12,-5464,-5490,4257,-559,-323,226,1,7,11
1.72313E+12,-5464,-5493,4252,-588,-318,242,1,7,11
1.72313E+12,-5449,-5490,4234,-587,-297,252,1,7,11
1.72313E+12,-5461,-5502,4243,-609,12,245,1,7,11
1.72313E+12,-5475,-5265,4238,-617,104,516,1,7,11
1.72313E+12,-5479,-5273,4232,-605,-101,534,1,7,11
1.72313E+12,-5433,-5500,4458,-561,-75,539,1,7,11
1.72313E+12,-5455,-5294,4478,-598,-54,539,1,7,11
1.72313E+12,-5428,-5282,4440,-572,-60,544,1,7,11
1.72313E+12,-5462,-5312,4464,-580,-12,519,1,7,11
1.72313E+12,-5457,-5309,4459,-530,-12,549,1,7,11
1.72313E+12,-5450,-5315,4437,-234,290,562,1,7,11
1.72313E+12,-5464,-5304,4404,-176,358,579,1,7,11
1.72313E+12,-5443,-5298,4380,-142,164,589,1,7,11
1.72313E+12,-5457,-5306,4376,-358,248,578,1,7,11
1.72313E+12,-5468,-5290,4094,-308,576,563,1,7,11
1.72313E+12,-5269,-5282,4093,-262,411,563,1,7,11
1.72313E+12,-5297,-5256,4082,67,470,613,1,7,11
1.72313E+12,-5304,-5488,4070,-123,818,419,1,7,11
1.72313E+12,-5336,-5467,4067,-43,661,506,1,7,11
1.72313E+12,-5342,-5452,4047,287,740,849,1,7,11
1.72313E+12,-5363,-5440,4044,362,1086,652,1,7,11
1.72313E+12,-5376,-5419,4026,192,902,698,1,7,11
1.72313E+12,-5659,-5403,4000,252,980,707,1,7,11
1.72313E+12,-5673,-5390,3997,550,1294,692,1,7,11
1.72313E+12,-5727,-5114,3985,596,1359,644,1,7,11
1.72313E+12,-5535,-5078,4215,390,1401,861,1,7,11
1.72313E+12,-5588,-5043,4198,436,1163,829,1,7,11
1.72313E+12,-5932,-5231,4156,472,1178,787,1,7,11
1.72313E+12,-5978,-5194,4134,491,1170,778,1,7,11
1.72313E+12,-6005,-5171,4127,522,1176,770,1,7,11
1.72313E+12,-5784,-5135,4113,829,1196,501,1,7,11
1.72313E+12,-5825,-4839,3832,883,1202,493,1,7,11
1.72313E+12,-5842,-4818,3823,674,1201,493,1,7,11
1.72313E+12,-5852,-4775,3801,735,1194,495,1,7,11
1.72313E+12,-5859,-4752,3776,765,1176,489,1,7,11
1.72313E+12,-5875,-4746,3765,1040,1173,468,1,7,11
1.72313E+12,-6158,-4743,3758,1070,1167,445,1,7,11
1.72313E+12,-6166,-4977,3734,1101,1152,425,1,7,11
1.72313E+12,-6181,-4963,3966,1116,1395,389,1,7,11
1.72313E+12,-6205,-4962,3946,1111,1370,609,1,7,11
1.72313E+12,-6022,-4954,3924,1086,1357,567,1,7,11
1.72313E+12,-6102,-4938,3894,1050,1305,576,1,7,11
1.72313E+12,-6425,-4901,3859,743,974,392,1,7,11
1.72313E+12,-6436,-4882,3851,644,1130,771,1,7,11
1.72313E+12,-6413,-4917,3881,787,1040,892,1,7,11
1.72313E+12,-6129,-4942,3894,474,705,751,1,7,11
1.72313E+12,-6090,-4953,3916,452,648,1076,1,7,11
1.72313E+12,-6077,-4952,3924,474,887,1101,1,7,11
1.72313E+12,-6063,-4928,3908,791,889,1107,1,7,11
1.72313E+12,-6058,-4873,3879,871,678,1090,1,7,11
1.72313E+12,-6080,-4571,3865,666,747,1056,1,7,11
1.72313E+12,-6114,-4544,3868,703,1072,758,1,7,11
1.72313E+12,-6455,-4556,3892,724,909,695,1,7,11
1.72313E+12,-6319,-4556,3908,767,985,660,1,7,11
1.72313E+12,-6670,-4719,3883,1128,1005,674,1,7,11
1.72313E+12,-6684,-4311,3575,942,994,687,1,7,11
1.72313E+12,-6696,-4434,3512,944,982,670,1,7,11
1.72313E+12,-6752,-4064,3463,927,978,659,1,7,11
1.72313E+12,-6561,-4196,3643,904,975,673,1,7,11
1.72313E+12,-6949,-4103,3591,1094,996,700,1,7,11
1.72313E+12,-6835,-3744,3302,752,988,1029,1,7,11
1.72313E+12,-7214,-3917,3294,641,923,1141,1,7,11
1.72313E+12,-7292,-3857,3313,783,1050,1013,1,7,11
1.72313E+12,-7048,-3560,3322,443,860,1379,1,7,11
1.72313E+12,-7274,-3523,3319,632,402,1168,1,7,11
1.72313E+12,-7238,-3518,3600,575,229,1392,1,7,11
1.72313E+12,-7200,-3489,3638,555,352,1311,1,7,11
1.72313E+12,-7172,-3710,3676,561,275,948,1,7,11
1.72313E+12,-6875,-3615,3682,606,-26,1109,1,7,11
1.72313E+12,-6807,-3299,3457,613,-33,756,1,7,11
1.72313E+12,-6980,-3231,3461,385,274,656,1,7,11
1.72313E+12,-6925,-3433,3475,396,138,795,1,7,11
1.72313E+12,-6629,-3383,3474,384,563,413,1,7,11
1.72313E+12,-6918,-3377,3501,585,771,253,1,7,11
1.72313E+12,-6995,-3379,3500,565,693,371,1,7,11
1.72313E+12,-6815,-3371,3464,529,1069,-27,1,7,11
1.72313E+12,-7199,-3379,3686,200,898,71,1,7,11
1.72313E+12,-7084,-3366,3640,380,908,-303,1,7,11
1.72313E+12,-7465,-3367,3620,256,1090,-130,1,7,11
1.72313E+12,-7308,-3375,3605,-108,693,-165,1,7,11
1.72313E+12,-7384,-3379,3319,52,503,-166,1,7,11
1.72313E+12,-7423,-3366,3304,-301,525,-130,1,7,11
1.72313E+12,-7682,-3371,3308,-154,281,-337,1,7,11
1.72313E+12,-7394,-3330,3274,-516,-322,32,1,7,11
1.72313E+12,-7346,-3033,3248,-388,-519,97,1,7,11
1.72313E+12,-7302,-3010,3236,-777,-414,-87,1,7,11
1.72313E+12,-7535,-3000,3234,-659,-771,-24,1,7,11
1.72313E+12,-7512,-3014,3252,-1029,-849,308,1,7,11
1.72313E+12,-7495,-3016,3270,-1110,-880,368,1,7,11
1.72313E+12,-7502,-3032,3289,-908,-877,166,1,7,11
1.72313E+12,-7513,-3024,3291,-924,-861,220,1,7,11
1.72313E+12,-7505,-2997,3281,-938,-853,513,1,7,11
1.72313E+12,-7492,-2965,3280,-966,-837,516,1,7,11
1.72313E+12,-7478,-3196,3285,-991,-838,239,1,7,11
1.72313E+12,-7454,-3177,3279,-1298,-862,196,1,7,11
1.72313E+12,-7164,-3180,3282,-1362,-650,148,1,7,11
1.72313E+12,-7096,-3186,3274,-1166,-707,350,1,7,11
1.72313E+12,-7289,-3193,3282,-1228,-764,294,1,7,11
1.72313E+12,-7203,-3186,3289,-1274,-1084,-4,1,7,11
1.72313E+12,-6827,-3171,3276,-1571,-902,-42,1,7,11
1.72313E+12,-6960,-3162,3289,-1644,-975,-98,1,7,11
1.72313E+12,-6568,-3182,3595,-1477,-1302,80,1,7,11
1.72313E+12,-6744,-2995,3706,-1841,-1332,-291,1,7,11
1.72313E+12,-6744,-3029,3551,-1879,-1329,-381,1,7,11
1.72313E+12,-6767,-3036,3893,-1825,-1331,-140,1,7,11
1.72313E+12,-6582,-3022,3721,-1503,-1328,-380,1,7,11
1.72313E+12,-6942,-2999,3821,-1429,-1301,-326,1,7,11
1.72313E+12,-6789,-2988,4194,-1572,-1300,13,1,7,11
1.72313E+12,-6873,-2984,4039,-1236,-1316,105,1,7,11
1.72313E+12,-7211,-2987,4397,-1160,-1326,-78,1,7,11
1.72313E+12,-7290,-2974,4452,-1321,-1324,-6,1,7,11
1.72313E+12,-7095,-2974,4251,-1007,-1308,309,1,7,11
1.72313E+12,-7148,-2974,4291,-969,-1020,363,1,7,11
1.72313E+12,-7445,-2999,4299,-951,-983,150,1,7,11
1.72313E+12,-7446,-2975,4267,-955,-928,172,1,7,11
1.72313E+12,-7466,-2978,4256,-1012,-1100,161,1,7,11
1.72313E+12,-7437,-2972,4466,-1312,-1026,162,1,7,11
1.72313E+12,-7112,-3000,4412,-1392,-705,146,1,7,11
1.72313E+12,-7249,-3064,4370,-1233,-665,357,1,7,11
1.72313E+12,-6856,-3413,4093,-1586,-893,267,1,7,11
1.72313E+12,-6967,-3291,4084,-1656,-868,-116,1,7,11
1.72313E+12,-6580,-3688,4354,-1414,-838,12,1,7,11
1.72313E+12,-6708,-3571,4382,-1629,-807,-349,1,7,11
1.72313E+12,-6344,-3943,4409,-1255,-485,-148,1,7,11
1.72313E+12,-6500,-3751,4423,-1338,-390,-133,1,7,11
1.72313E+12,-6435,-3823,4433,-920,-254,-325,1,7,11
1.72313E+12,-6300,-4387,4639,-1295,-259,-346,1,7,11
1.72313E+12,-6734,-4261,4548,-494,123,326,1,7,11
1.72313E+12,-6226,-3492,4222,-105,28,775,1,7,11
1.72313E+12,-6076,-3949,4363,-524,208,606,1,7,11
1.72313E+12,-6492,-3884,4370,-381,399,853,1,7,11
1.72313E+12,-6457,-3508,4063,-345,467,748,1,7,11
1.72313E+12,-6344,-3684,4053,-326,874,1049,1,7,11
1.72313E+12,-6676,-3311,3988,-290,664,1132,1,7,11
1.72313E+12,-6749,-3237,4190,-323,709,1136,1,7,11
1.72313E+12,-6616,-3443,4150,-364,736,1106,1,7,11
1.72313E+12,-6991,-3399,4102,-150,733,1058,1,7,11
1.72313E+12,-6844,-3404,3799,-192,697,736,1,7,11
1.72313E+12,-7206,-3417,3782,-235,889,666,1,7,11
1.72313E+12,-7250,-3246,3795,-543,811,849,1,7,11
1.72313E+12,-7064,-3595,3834,-531,508,508,1,7,11
1.72313E+12,-7077,-3665,4100,-190,433,446,1,7,11
1.72313E+12,-7079,-3475,4102,-340,628,626,1,7,11
1.72313E+12,-7050,-3502,3825,62,562,575,1,7,11
1.72313E+12,-7234,-3507,3815,-67,252,525,1,7,11
1.72313E+12,-7170,-3482,3812,343,247,228,1,7,11
1.72313E+12,-6838,-3674,3811,531,535,206,1,7,11
1.72313E+12,-6815,-3641,3828,465,636,185,1,7,11
1.72313E+12,-6828,-3297,3768,680,476,206,1,7,11
1.72313E+12,-6810,-3238,3712,1057,802,223,1,7,11
1.72313E+12,-7032,-3444,3927,1116,843,203,1,7,11
1.72313E+12,-6978,-3422,3934,1115,863,363,1,7,11
1.72313E+12,-6976,-3407,3927,1125,881,-37,1,7,11
1.72313E+12,-6790,-3386,3924,902,893,81,1,7,11
1.72313E+12,-6826,-3061,3875,975,648,-262,1,7,11
1.72313E+12,-6853,-2990,3551,1308,647,-312,1,7,11
1.72313E+12,-6897,-2950,3505,1338,694,-312,1,7,11
1.72313E+12,-7193,-3174,3460,1348,748,-296,1,7,11
1.72313E+12,-7244,-3161,3685,1340,1119,-277,1,7,11
1.72313E+12,-7045,-3147,3656,1330,945,6,1,7,11
1.72313E+12,-7092,-3110,3605,1354,1011,37,1,7,11
1.72313E+12,-7158,-2805,3310,1343,1322,38,1,7,11
1.72313E+12,-7492,-2772,3284,1318,1351,26,1,7,11
1.72313E+12,-7306,-2736,3233,1309,1366,21,1,7,11
1.72313E+12,-7395,-2942,3430,1280,1397,16,1,7,11
1.72313E+12,-7738,-2883,3365,981,1163,42,1,7,11
1.72313E+12,-7790,-2848,3061,901,1160,70,1,7,11
1.72313E+12,-7578,-2854,3054,1060,1397,65,1,7,11
1.72313E+12,-7603,-2874,3047,744,1337,45,1,7,11
1.72313E+12,-7591,-2884,3008,702,998,-272,1,7,11
1.72313E+12,-7573,-2908,3004,657,905,-367,1,7,11
1.72313E+12,-7786,-2928,2994,892,1069,-227,1,7,11
1.72313E+12,-7749,-2708,2985,862,722,-617,1,7,11
1.72313E+12,-7694,-2739,2968,857,885,-485,1,7,11
1.72313E+12,-7406,-2777,2982,832,809,-874,1,7,11
1.72313E+12,-7390,-2815,3006,827,484,-725,1,7,11
1.72313E+12,-7397,-3102,3045,856,550,-1068,1,7,11
1.72313E+12,-7391,-3094,3054,841,178,-1075,1,7,11
1.72313E+12,-7370,-3081,3065,794,-16,-1048,1,7,11
1.72313E+12,-7358,-2809,3338,449,118,-1028,1,7,11
1.72313E+12,-7358,-3092,3374,622,-257,-730,1,7,11
1.72313E+12,-7342,-3113,3420,543,-379,-672,1,7,11
1.72313E+12,-7302,-3140,3209,221,-248,-872,1,7,11
1.72313E+12,-7506,-3178,3252,155,-625,-834,1,7,11
1.72313E+12,-7435,-2959,3303,359,-479,-817,1,7,11
1.72313E+12,-7112,-3001,3614,308,-815,-825,1,7,11
1.72313E+12,-7052,-3043,3684,269,-873,-852,1,7,11
1.72313E+12,-7267,-3333,3511,-5,-649,-645,1,7,11
1.72313E+12,-7233,-3352,3844,266,-679,-705,1,7,11
1.72313E+12,-7196,-3374,3904,282,-707,-1048,1,7,11
1.72313E+12,-7176,-3406,3956,293,-735,-908,1,7,11
1.72313E+12,-6848,-3445,3752,310,-1067,-1294,1,7,11
1.72313E+12,-7020,-3247,3799,313,-1132,-1247,1,7,11
1.72313E+12,-6612,-3637,4121,344,-1005,-1882,1,7,11
1.72313E+12,-6539,-3664,4132,166,-1295,-2160,1,7,11
1.72313E+12,-6774,-3654,4119,217,-1010,-2409,1,7,11
1.72313E+12,-6650,-3481,4142,233,-1076,-2221,1,7,11
1.72313E+12,-6929,-3480,3831,216,-738,-2337,1,7,11
1.72313E+12,-6979,-3510,3821,373,-880,-2163,1,7,11
1.72313E+12,-6988,-3545,3799,289,-792,-1916,1,7,11
1.72313E+12,-6964,-3565,3757,-56,-456,-1645,1,7,11
1.72313E+12,-6927,-3848,3717,74,-632,-1392,1,7,11
1.72313E+12,-6928,-3924,3956,-347,-557,-901,1,7,11
1.72313E+12,-6634,-3714,3915,-213,-523,-642,1,7,11
1.72313E+12,-6602,-3779,3889,-627,-222,-434,1,7,11
1.72313E+12,-6551,-4104,3860,-486,-199,-214,1,7,11
1.72313E+12,-6703,-4151,3552,-842,-199,-278,1,7,11
1.72313E+12,-6345,-4189,3528,-724,-205,89,1,7,11
1.72313E+12,-6276,-3985,3537,-1114,-210,113,1,7,11
1.72313E+12,-6488,-4011,3561,-958,-222,75,1,7,11
1.72313E+12,-6288,-4056,3892,-1300,-220,-275,1,7,11
1.72313E+12,-6400,-4087,3949,-1328,-518,-339,1,7,11
1.72313E+12,-6775,-4091,3748,-1330,-611,-351,1,7,11
1.72313E+12,-6635,-4068,3790,-1326,-510,-306,1,7,11
1.72313E+12,-6986,-4033,3835,-1357,-696,21,1,7,11
1.72313E+12,-7039,-4019,4135,-1400,-935,-104,1,7,11
1.72313E+12,-6995,-4006,4169,-1213,-1198,286,1,7,11
1.72313E+12,-6935,-4038,3994,-1564,-1420,372,1,7,11
1.72313E+12,-6593,-4053,4076,-1620,-1881,177,1,7,11
1.72313E+12,-6759,-4071,4413,-1658,-1779,173,1,7,11
1.72313E+12,-6688,-4074,4229,-1655,-2155,147,1,7,11
1.72313E+12,-6355,-4060,4286,-1640,-2002,362,1,7,11
1.72313E+12,-6523,-4040,4311,-1610,-2337,318,1,7,11
1.72313E+12,-6427,-4017,4317,-1598,-2373,263,1,7,11
1.72313E+12,-6104,-3997,4304,-1606,-2349,-66,1,7,11
1.72313E+12,-6047,-3982,4293,-1628,-2306,-112,1,7,11
1.72313E+12,-6258,-3969,4296,-1413,-1961,103,1,7,11
1.72313E+12,-6257,-3973,4336,-1466,-2102,85,1,7,11
1.72313E+12,-6239,-3984,4623,-1489,-1762,126,1,7,11
1.72313E+12,-6191,-3993,4648,-1498,-1687,-86,1,7,11
1.72313E+12,-6189,-4012,4658,-1521,-1860,-63,1,7,11
1.72313E+12,-5877,-4043,4669,-1803,-1525,-25,1,7,11
1.72313E+12,-5835,-4086,4678,-1831,-1466,-24,1,7,11
1.72313E+12,-5794,-4389,4689,-1870,-1658,-45,1,7,11
1.72313E+12,-6015,-4456,4715,-1919,-1590,-88,1,7,11
1.72313E+12,-5974,-4281,4493,-1693,-1268,116,1,7,11
1.72313E+12,-5944,-4336,4528,-1687,-1172,56,1,7,11
1.72313E+12,-5945,-4650,4558,-1905,-1318,15,1,7,11
1.72313E+12,-5941,-4673,4556,-1827,-945,12,1,7,11
1.72313E+12,-5969,-4702,4532,-1509,-1064,22,1,7,11
1.72313E+12,-5988,-4736,4516,-1454,-688,66,1,7,11
1.72313E+12,-5993,-4522,4501,-1661,-840,115,1,7,11
1.72313E+12,-5981,-4564,4488,-1601,-487,-95,1,7,11
1.72313E+12,-5968,-4597,4734,-1267,-396,-65,1,7,11
1.72313E+12,-5965,-4885,4726,-1175,-559,-52,1,7,11
1.72313E+12,-5965,-4901,4711,-1331,-234,-45,1,7,11
1.72313E+12,-5959,-4928,4703,-984,-178,-51,1,7,11
1.72313E+12,-5976,-4965,4682,-1128,-131,-74,1,7,11
1.72313E+12,-5966,-4983,4653,-757,-368,-109,1,7,11
1.72313E+12,-5962,-4991,4642,-660,-344,97,1,7,11
1.72313E+12,-5961,-4745,4631,-837,-312,38,1,7,11
1.72313E+12,-5944,-4743,4342,-490,-295,-265,1,7,11
1.72313E+12,-5943,-4741,4320,-635,47,-285,1,7,11
1.72313E+12,-5930,-4741,4302,-564,96,-281,1,7,11
1.72313E+12,-5893,-4747,4282,-252,126,-277,1,7,11
1.72313E+12,-5600,-4772,4292,-234,-110,-307,1,7,11
1.72313E+12,-5581,-4771,4301,-182,-20,-343,1,7,11
1.72313E+12,-5583,-4780,4326,-361,314,-131,1,7,11
1.72313E+12,-5588,-4774,4328,-269,133,-143,1,7,11
1.72313E+12,-5588,-4781,4340,-110,211,-144,1,7,11
1.72313E+12,-5585,-4781,4347,261,543,-377,1,7,11
1.72313E+12,-5551,-4780,4337,128,617,-353,1,7,11
1.72313E+12,-5750,-4761,4308,514,461,-356,1,7,11
1.72313E+12,-5736,-4754,4296,605,862,-154,1,7,11
1.72313E+12,-5750,-4761,4307,446,760,-208,1,7,11
1.72313E+12,-5515,-4742,4302,807,1144,-252,1,7,11
1.72313E+12,-5561,-4967,4284,656,1018,-557,1,7,11
1.72313E+12,-5629,-4951,4276,722,1395,-593,1,7,11
1.72313E+12,-5947,-4916,4244,1058,1230,-592,1,7,11
1.72313E+12,-5996,-4897,4225,1107,1547,-567,1,7,11
1.72313E+12,-5791,-4876,4446,902,1594,-528,1,7,11
1.72313E+12,-5827,-4606,4414,931,1610,-226,1,7,11
1.72313E+12,-5852,-4591,4380,943,1617,-197,1,7,11
1.72313E+12,-5884,-4601,4367,926,1605,-189,1,7,11
1.72313E+12,-6168,-4608,4357,925,1568,-189,1,7,11
1.72313E+12,-6175,-4608,4090,914,1240,-201,1,7,11
1.72313E+12,-6183,-4603,4090,907,1157,-234,1,7,11
1.72313E+12,-6159,-4602,4083,1147,1304,-532,1,7,11
1.72313E+12,-5875,-4577,4063,1140,940,-584,1,7,11
1.72313E+12,-5863,-4563,4056,1107,1124,-403,1,7,11
1.72313E+12,-5886,-4544,4054,1083,1071,-439,1,7,11
1.72313E+12,-5875,-4487,4037,1061,1025,-431,1,7,11
1.72313E+12,-6192,-4734,4064,726,1026,-425,1,7,11
1.72313E+12,-6237,-4694,4067,685,757,-620,1,7,11
1.72313E+12,-6054,-4706,4360,877,743,-552,1,7,11
1.72313E+12,-6071,-4679,4362,878,694,-189,1,7,11
1.72313E+12,-6068,-4660,4375,872,663,-364,1,7,11
1.72313E+12,-6088,-4643,4391,656,685,-322,1,7,11
1.72313E+12,-6134,-4342,4416,729,691,-284,1,7,11
1.72313E+12,-6417,-4281,4436,1046,885,39,1,7,11
1.72313E+12,-6412,-4231,4459,1058,490,127,1,7,11
1.72313E+12,-6126,-4477,4253,1043,607,-48,1,7,11
1.72313E+12,-6401,-4451,4277,1075,519,264,1,7,11
1.72313E+12,-6132,-4367,4268,1110,176,327,1,7,11
1.72313E+12,-6143,-4037,4262,1078,146,357,1,7,11
1.72313E+12,-6406,-4223,4260,758,371,135,1,7,11
1.72313E+12,-6429,-4114,4224,671,363,155,1,7,11
1.72313E+12,-6465,-3827,4231,783,382,145,1,7,11
1.72313E+12,-6489,-3818,4229,625,378,140,1,7,11
1.72313E+12,-6497,-3817,4224,209,361,378,1,7,11
1.72313E+12,-6513,-4097,4240,312,324,335,1,7,11
1.72313E+12,-6506,-4117,4266,-83,282,290,1,7,11
1.72313E+12,-6506,-4155,4276,5,-21,-19,1,7,11
1.72313E+12,-6487,-4209,4285,-332,-87,-60,1,7,11
1.72313E+12,-6455,-4017,4299,-139,120,-105,1,7,11
1.72313E+12,-6429,-4067,4297,-190,102,101,1,7,11
1.72313E+12,-6406,-4365,4284,-226,104,63,1,7,11
1.72313E+12,-6131,-4388,4270,-253,126,26,1,7,11
1.72313E+12,-6128,-4427,4274,-550,-109,-259,1,7,11
1.72313E+12,-6101,-4473,4283,-567,-93,-268,1,7,11
1.72313E+12,-6074,-4255,4287,-556,-81,-277,1,7,11
1.72313E+12,-6051,-4273,4282,-528,-58,-282,1,7,11
1.72313E+12,-6023,-4291,4271,-237,-24,-288,1,7,11
1.72313E+12,-6271,-4303,4262,-211,270,-296,1,7,11
1.72313E+12,-6262,-4300,4235,-185,301,-307,1,7,11
1.72313E+12,-6017,-4303,4476,-182,348,-345,1,7,11
1.72313E+12,-6035,-4297,4453,-163,377,-367,1,7,11
1.72313E+12,-6045,-4303,4437,-160,137,-132,1,7,11
1.72313E+12,-6051,-4328,4418,-161,131,-131,1,7,11
1.72313E+12,-6061,-4311,4400,-139,128,-377,1,7,11
1.72313E+12,-6080,-4304,4391,-146,377,-353,1,7,11
1.72313E+12,-6074,-4313,4382,-163,354,-310,1,7,11
1.72313E+12,-6073,-4337,4372,-176,342,-261,1,7,11
1.72313E+12,-6065,-4352,4360,-194,310,36,1,7,11
1.72313E+12,-6075,-4615,4357,-208,273,62,1,7,11
1.72313E+12,-6097,-4630,4373,-229,-31,82,1,7,11
1.72313E+12,-6107,-4633,4376,-223,-99,125,1,7,11
1.72313E+12,-6084,-4651,4405,-232,74,-92,1,7,11
1.72313E+12,-6077,-4649,4414,-222,6,-49,1,7,11
1.72313E+12,-6030,-4663,4430,-211,-316,9,1,7,11
1.72313E+12,-6253,-4647,4430,-166,-365,296,1,7,11
1.72313E+12,-6242,-4632,4430,-156,-375,313,1,7,11
1.72313E+12,-6233,-4612,4425,-152,-363,323,1,7,11
1.72313E+12,-6244,-4331,4427,-160,-340,329,1,7,11
1.72313E+12,-6252,-4306,4426,-174,-308,343,1,7,11
1.72313E+12,-6263,-4299,4437,-205,-277,356,1,7,11
1.72313E+12,-6266,-4287,4438,-216,0,383,1,7,11
1.72313E+12,-6022,-4278,4446,-229,28,150,1,7,11
1.72313E+12,-6269,-4277,4449,-248,53,163,1,7,11
1.72313E+12,-6036,-4275,4448,-517,88,165,1,7,11
1.72313E+12,-6032,-4270,4442,-531,106,167,1,7,11
1.72313E+12,-6047,-4270,4445,-547,-115,149,1,7,11
1.72313E+12,-6067,-4276,4456,-548,-83,137,1,7,11
1.72313E+12,-6073,-4266,4445,-533,-48,128,1,7,11
1.72313E+12,-6083,-4242,4439,-514,-13,383,1,7,11
1.72313E+12,-6088,-4237,4448,-513,274,130,1,7,11
1.72313E+12,-6101,-4457,4421,-234,310,140,1,7,11
1.72313E+12,-6126,-4429,4401,-240,346,146,1,7,11
1.72313E+12,-6412,-4406,4351,-517,364,165,1,7,11
1.72313E+12,-6435,-4395,4088,-566,360,183,1,7,11
1.72313E+12,-6446,-4396,4076,-615,343,193,1,7,11
1.72313E+12,-6463,-4396,4059,-393,316,196,1,7,11
1.72313E+12,-6502,-4403,4064,-439,271,204,1,7,11
1.72313E+12,-6516,-4411,4054,-438,-26,227,1,7,11
1.72313E+12,-6514,-4410,4047,-431,-74,514,1,7,11
1.72313E+12,-6508,-4417,4036,-428,-99,522,1,7,11
1.72313E+12,-6500,-4416,4028,-408,-118,527,1,7,11
1.72313E+12,-6501,-4417,4018,-390,-111,253,1,7,11
1.72313E+12,-6518,-4411,4011,-619,-102,234,1,7,11
1.72313E+12,-6518,-4400,4007,-599,-104,216,1,7,11
1.72313E+12,-6526,-4400,4004,-584,-103,192,1,7,11
1.72313E+12,-6284,-4395,4012,-564,-105,163,1,7,11
1.72313E+12,-6290,-4394,4023,-543,-117,139,1,7,11
1.72313E+12,-6277,-4386,4019,-528,120,368,1,7,11
1.72313E+12,-6274,-4379,4020,-526,119,327,1,7,11
1.72313E+12,-6290,-4376,4029,-249,126,293,1,7,11
1.72313E+12,-6294,-4094,4012,-224,127,279,1,7,11
1.72313E+12,-6303,-4069,3988,-228,-127,270,1,7,11
1.72313E+12,-6304,-4061,3979,-254,118,278,1,7,11
1.72313E+12,-6288,-4065,4223,-543,101,292,1,7,11
1.72313E+12,-6285,-4078,3981,-574,92,292,1,7,11
1.72313E+12,-6525,-4096,3991,-584,77,293,1,7,11
1.72313E+12,-6512,-4366,4006,-582,85,279,1,7,11
1.72313E+12,-6511,-4378,4011,-554,111,259,1,7,11
1.72313E+12,-6519,-4368,4007,-515,-126,-15,1,7,11
1.72313E+12,-6522,-4356,3995,-227,-102,-23,1,7,11
1.72313E+12,-6528,-4357,3979,-212,-87,-31,1,7,11
1.72313E+12,-6296,-4063,4201,-195,-67,-30,1,7,11
1.72313E+12,-6297,-4060,4201,-211,-53,-13,1,7,11
1.72313E+12,-6313,-4050,4210,-221,-36,264,1,7,11
1.72313E+12,-6329,-4037,4199,-219,-32,298,1,7,11
1.72313E+12,-6360,-4003,4186,-210,-29,330,1,7,11
1.72313E+12,-6384,-3979,4172,-209,-35,365,1,7,11
1.72313E+12,-6400,-3972,4168,-227,-62,146,1,7,11
1.72313E+12,-6396,-3984,4159,-518,-128,170,1,7,11
1.72313E+12,-6398,-3984,4164,-529,92,153,1,7,11
1.72313E+12,-6664,-3992,4174,-537,64,382,1,7,11
1.72313E+12,-6669,-3983,4171,-528,38,358,1,7,11
1.72313E+12,-6680,-3988,4173,-522,22,338,1,7,11
1.72313E+12,-6666,-3975,4161,-245,18,328,1,7,11
1.72313E+12,-6396,-3969,4161,-236,31,312,1,7,11
1.72313E+12,-6367,-3969,4165,-213,48,297,1,7,11
1.72313E+12,-6345,-3976,4165,-193,86,266,1,7,11
1.72313E+12,-6335,-3990,4181,-162,-123,-26,1,7,11
1.72313E+12,-6337,-4009,4195,-365,-71,-73,1,7,11
1.72313E+12,-6352,-3995,4181,-287,-19,-117,1,7,11
1.72313E+12,-6376,-4219,4150,23,287,95,1,7,11
1.72313E+12,-6673,-4198,4144,43,323,67,1,7,11
1.72313E+12,-6699,-4183,4134,56,337,63,1,7,11
1.72313E+12,-6717,-4173,4125,64,340,70,1,7,11
1.72313E+12,-6728,-4167,4126,64,331,83,1,7,11
1.72313E+12,-6739,-4157,4120,63,316,103,1,7,11
1.72313E+12,-6732,-4150,4123,55,293,-127,1,7,11
1.72313E+12,-6720,-4141,4122,48,276,-105,1,7,11
1.72313E+12,-6716,-4145,4129,29,270,-83,1,7,11
1.72313E+12,-6715,-4146,4120,19,277,-52,1,7,11
1.72313E+12,-6723,-4137,4106,5,284,-9,1,7,11
1.72313E+12,-6732,-4129,3831,-266,306,304,1,7,11
1.72313E+12,-6738,-4115,3816,-290,327,129,1,7,11
1.72313E+12,-6735,-4136,3811,-331,351,221,1,7,11
1.72313E+12,-6704,-4159,3823,-371,364,615,1,7,11
1.72313E+12,-6685,-4171,3827,-370,371,415,1,7,11
1.72313E+12,-6688,-4171,3820,-355,129,442,1,7,11
1.72313E+12,-6703,-4141,3813,-332,144,452,1,7,11
1.72313E+12,-6714,-4133,3823,-313,155,448,1,7,11
1.72313E+12,-6731,-4112,3819,-290,164,430,1,7,11
1.72313E+12,-6760,-4106,3826,-269,171,394,1,7,11
1.72313E+12,-6776,-3821,3830,25,159,609,1,7,11
1.72313E+12,-6545,-3787,3816,47,150,544,1,7,11
1.72313E+12,-6571,-3749,3824,62,137,219,1,7,11
1.72313E+12,-6595,-3719,3822,62,372,159,1,7,11
1.72313E+12,-6610,-3947,3818,61,352,360,1,7,11
1.72313E+12,-6625,-3931,3811,56,338,303,1,7,11
1.72313E+12,-6641,-3914,3810,52,326,-1,1,7,11
1.72313E+12,-6654,-3901,3793,44,310,-42,1,7,11
1.72313E+12,-6923,-3892,3791,25,290,-68,1,7,11
1.72313E+12,-6654,-3885,3775,4,265,-80,1,7,11
1.72313E+12,-6649,-3885,3762,-279,-10,-96,1,7,11
1.72313E+12,-6642,-3900,3755,-308,-26,-109,1,7,11
1.72313E+12,-6638,-3901,3752,-324,-36,-115,1,7,11
1.72313E+12,-6637,-3896,3744,-347,-42,-120,1,7,11
1.72313E+12,-6924,-3901,3736,-361,-38,-106,1,7,11
1.72313E+12,-6934,-3908,3737,-359,-46,-58,1,7,11
1.72313E+12,-6933,-3915,3738,-349,-50,258,1,7,11
1.72313E+12,-6940,-3912,3728,-336,-47,318,1,7,11
1.72313E+12,-6927,-3921,3717,-314,-48,377,1,7,11
1.72313E+12,-6653,-3917,3715,-291,-34,160,1,7,11
1.72313E+12,-6913,-3909,3966,-263,-9,183,1,7,11
1.72313E+12,-6921,-3889,3959,12,260,191,1,7,11
1.72313E+12,-6928,-3897,3955,21,-1,185,1,7,11
1.72313E+12,-6916,-3886,3943,30,-16,148,1,7,11
1.72313E+12,-6926,-3890,3716,18,-44,279,1,7,11
1.72313E+12,-6931,-3884,3730,39,-70,-73,1,7,11
1.72313E+12,-6938,-3869,3730,59,-98,97,1,7,11
1.72313E+12,-6936,-3860,3735,66,-118,24,1,7,11
1.72313E+12,-6941,-3866,3751,61,-122,-287,1,7,11
1.72313E+12,-6937,-3881,3769,90,-108,-309,1,7,11
1.72313E+12,-6937,-3864,3753,-115,-76,-304,1,7,11
1.72313E+12,-6941,-3850,3753,-100,-38,-285,1,7,11
1.72313E+12,-6944,-3577,3759,-93,-14,8,1,7,11
1.72313E+12,-6938,-3569,3755,-103,-4,43,1,7,11
1.72313E+12,-6948,-3549,3757,-124,-5,64,1,7,11
1.72313E+12,-6972,-3545,3760,109,-19,82,1,7,11
1.72313E+12,-6976,-3524,3743,93,-47,99,1,7,11
1.72313E+12,-6993,-3521,3750,67,-76,115,1,7,11
1.72313E+12,-6990,-3504,3731,52,-120,-114,1,7,11
1.72313E+12,-6981,-3512,3747,14,97,-108,1,7,11
1.72313E+12,-6960,-3534,3770,-273,57,-126,1,7,11
1.72313E+12,-6946,-3537,3783,-276,31,102,1,7,11
1.72313E+12,-6933,-3534,3792,-273,9,64,1,7,11
1.72313E+12,-6954,-3518,3802,-270,-258,21,1,7,11
1.72313E+12,-6977,-3492,3790,-268,-265,-263,1,7,11
1.72313E+12,-6981,-3466,3776,-278,-284,-267,1,7,11
1.72313E+12,-6982,-3461,3759,-325,-304,-263,1,7,11
1.72313E+12,-6972,-3486,3786,-148,-330,4,1,7,11
1.72313E+12,-6933,-3529,3834,-231,-362,9,1,7,11
1.72313E+12,-6645,-3583,4137,-535,-138,3,1,7,11
1.72313E+12,-6615,-3859,4147,-526,-150,-285,1,7,11
1.72313E+12,-6624,-3858,4140,-235,-375,-326,1,7,11
1.72313E+12,-6644,-3847,4134,-219,-357,-346,1,7,11
1.72313E+12,-6642,-3855,4122,-228,-324,-345,1,7,11
1.72313E+12,-6625,-3862,4114,-232,-307,-339,1,7,11
1.72313E+12,-6606,-3882,4119,-239,-290,-351,1,7,11
1.72313E+12,-6589,-3901,4128,-225,-269,-378,1,7,11
1.72313E+12,-6583,-3913,4120,-195,8,-161,1,7,11
1.72313E+12,-6577,-3920,4111,-173,27,-200,1,7,11
1.72313E+12,-6567,-3935,4120,-166,37,-233,1,7,11
1.72313E+12,-6558,-3955,4127,-140,47,-254,1,7,11
1.72313E+12,-6544,-3961,4123,-358,55,-519,1,7,11
1.72313E+12,-6530,-3714,4102,-338,71,-533,1,7,11
1.72313E+12,-6783,-3734,4111,-330,92,-539,1,7,11
1.72313E+12,-6779,-3756,4120,-319,99,-530,1,7,11
1.72313E+12,-6764,-3773,4121,-295,107,-255,1,7,11
1.72313E+12,-6747,-3795,4136,-270,121,-238,1,7,11
1.72313E+12,-6747,-3814,4149,32,-103,-226,1,7,11
1.72313E+12,-6745,-3829,4168,93,-70,-201,1,7,11
1.72313E+12,-6742,-3837,4170,-93,-31,-175,1,7,11
1.72313E+12,-6746,-3840,4178,-22,273,-148,1,7,11
1.72313E+12,-6727,-3833,4173,306,316,-381,1,7,11
1.72313E+12,-6720,-3835,4153,364,370,-374,1,7,11
1.72313E+12,-6695,-3835,4133,147,166,-131,1,7,11
1.72313E+12,-6696,-4098,4128,154,231,-176,1,7,11
1.72313E+12,-6710,-4114,4150,170,545,-230,1,7,11
1.72313E+12,-6732,-4105,4138,217,594,-532,1,7,11
1.72313E+12,-6737,-3823,4106,254,624,-563,1,7,11
1.72313E+12,-6753,-3816,3834,514,401,-592,1,7,11
1.72313E+12,-6764,-3818,3827,516,421,-606,1,7,11
1.72313E+12,-6780,-3827,3831,529,438,-618,1,7,11
1.72313E+12,-6784,-3831,3821,555,441,-616,1,7,11
1.72313E+12,-6777,-4106,3826,580,438,-610,1,7,11
1.72313E+12,-6757,-4138,3836,608,432,-606,1,7,11
1.72313E+12,-6735,-4180,4110,406,448,-612,1,7,11
1.72313E+12,-6710,-4209,4105,492,474,-616,1,7,11
1.72313E+12,-6697,-4222,4109,844,777,-638,1,7,11
1.72313E+12,-6695,-3975,4107,693,838,-412,1,7,11
1.72313E+12,-6704,-3973,4098,1062,642,-435,1,7,11
1.72313E+12,-6712,-4200,3812,918,701,-454,1,7,11
1.72313E+12,-6736,-4141,3801,997,753,-468,1,7,11
1.72313E+12,-6755,-4120,3802,1308,1038,-476,1,7,11
1.72313E+12,-6780,-3823,3792,1344,1055,-488,1,7,11
1.72313E+12,-6547,-3758,3781,1348,1054,-505,1,7,11
1.72313E+12,-6579,-3722,3773,1333,1045,-770,1,7,11
1.72313E+12,-6594,-3964,3764,1259,729,-495,1,7,11
1.72313E+12,-6582,-3963,3768,943,696,-485,1,7,11
1.72313E+12,-6572,-3717,3765,1133,685,-486,1,7,11
1.72313E+12,-6562,-3734,3765,1070,679,-484,1,7,11
1.72313E+12,-6563,-3744,3780,760,685,-486,1,7,11
1.72313E+12,-6575,-3761,3769,729,692,-470,1,7,11
1.72313E+12,-6586,-3771,3750,706,700,-445,1,7,11
1.72313E+12,-6600,-3767,3734,688,700,-405,1,7,11
1.72313E+12,-6609,-3757,3714,660,689,-620,1,7,11
1.72313E+12,-6630,-3752,3952,881,675,-586,1,7,11
1.72313E+12,-6631,-3735,3942,845,642,-543,1,7,11
1.72313E+12,-6638,-3722,3941,785,853,-250,1,7,11
1.72313E+12,-6633,-3719,3946,468,792,-219,1,7,11
1.72313E+12,-6635,-3967,3958,403,472,-208,1,7,11
1.72313E+12,-6645,-3955,3715,597,396,-190,1,7,11
1.72313E+12,-6647,-3940,3731,541,573,-174,1,7,11
1.72313E+12,-6921,-3940,3748,230,244,-157,1,7,11
1.72313E+12,-6656,-3931,3729,195,162,-379,1,7,11
1.72313E+12,-6915,-3916,3967,141,366,-357,1,7,11
1.72313E+12,-6929,-3906,3942,338,332,-332,1,7,11
1.72313E+12,-6935,-3907,3923,274,303,-307,1,7,11
1.72313E+12,-6943,-3918,3905,-54,278,-284,1,7,11
1.72313E+12,-6940,-3933,3887,-124,-5,-265,1,7,11
1.72313E+12,-6938,-3959,3901,61,-44,-257,1,7,11
1.72313E+12,-6915,-3733,3912,12,-111,6,1,7,11
1.72313E+12,-6630,-3779,3929,-295,74,-271,1,7,11
1.72313E+12,-6603,-3826,3950,-320,9,-308,1,7,11
1.72313E+12,-6561,-4124,3714,-320,-299,-372,1,7,11
1.72313E+12,-6781,-4170,3734,-293,-334,-198,1,7,11
1.72313E+12,-6740,-4172,3729,37,-353,-529,1,7,11
1.72313E+12,-6698,-4186,3742,65,-372,-604,1,7,11
1.72313E+12,-6384,-4224,3807,78,-145,-436,1,7,11
1.72313E+12,-6348,-3991,4122,108,-157,-806,1,7,11
1.72313E+12,-6353,-4020,4181,-120,-160,-671,1,7,11
1.72313E+12,-6363,-4055,4217,-58,-178,-1025,1,7,11
1.72313E+12,-6379,-3999,4198,305,-196,-1100,1,7,11
1.72313E+12,-6377,-4184,4170,138,-226,-1140,1,7,11
1.72313E+12,-6386,-4130,4133,366,-551,-1113,1,7,11
1.72313E+12,-6732,-3836,4134,325,-522,-747,1,7,11
1.72313E+12,-6746,-3813,4122,-86,-577,-816,1,7,11
1.72313E+12,-6547,-4113,4162,40,-567,-390,1,7,11
1.72313E+12,-6543,-4098,4158,27,-570,-194,1,7,11
1.72313E+12,-6784,-4110,4183,-275,-555,-296,1,7,11
1.72313E+12,-6539,-4121,4188,-321,-561,108,1,7,11
1.72313E+12,-6720,-4186,4200,-130,-609,-3,1,7,11
1.72313E+12,-6397,-4224,4211,-139,-563,300,1,7,11
1.72313E+12,-6302,-3973,4209,-171,-251,-3,1,7,11
1.72313E+12,-6303,-4014,3994,-212,-163,-82,1,7,11
1.72313E+12,-6283,-4024,4004,-193,-380,-124,1,7,11
1.72313E+12,-6494,-4027,3999,-178,-335,104,1,7,11
1.72313E+12,-6509,-4057,4016,-140,17,87,1,7,11
1.72313E+12,-6494,-4028,4007,-335,95,109,1,7,11
1.72313E+12,-6490,-4223,4220,-301,-63,-115,1,7,11
1.72313E+12,-6304,-4025,4006,-299,309,-45,1,7,11
1.72313E+12,-6465,-4190,4169,-265,365,289,1,7,11
1.72313E+12,-6298,-3989,4196,-316,253,282,1,7,11
1.72313E+12,-6293,-4213,4154,-314,546,318,1,7,11
1.72313E+12,-6346,-4221,4160,-345,606,301,1,7,11
1.72313E+12,-6382,-4218,4153,-135,611,292,1,7,11
1.72313E+12,-6679,-4005,4169,-179,599,264,1,7,11
1.72313E+12,-6715,-4011,4142,-161,575,-10,1,7,11
1.72313E+12,-6747,-3982,4100,-162,542,-26,1,7,11
1.72313E+12,-6538,-4000,4099,-223,244,-25,1,7,11
1.72313E+12,-6557,-3992,3814,-224,162,308,1,7,11
1.72313E+12,-6738,-4005,3808,-539,344,339,1,7,11
1.72313E+12,-6732,-4052,4098,-553,306,331,1,7,11
1.72313E+12,-6668,-4038,3816,-254,-2,311,1,7,11
1.72313E+12,-6710,-4031,3799,-196,280,282,1,7,11
1.72313E+12,-6704,-3998,3782,-148,284,295,1,7,11
1.72313E+12,-6701,-3997,3784,-367,322,294,1,7,11
1.72313E+12,-6696,-4210,3756,-318,351,299,1,7,11
1.72313E+12,-6708,-4201,3754,-304,377,292,1,7,11
1.72313E+12,-6723,-4158,3740,-291,372,300,1,7,11
1.72313E+12,-6770,-4176,3770,-317,365,285,1,7,11
1.72313E+12,-6780,-4161,3769,-309,308,291,1,7,11
1.72313E+12,-6532,-4161,3780,-319,-19,274,1,7,11
1.72313E+12,-6537,-4138,3762,-318,-95,-10,1,7,11
1.72313E+12,-6552,-4121,3751,-344,68,-64,1,7,11
1.72313E+12,-6560,-3834,3745,-375,-291,-83,1,7,11
1.72313E+12,-6590,-4101,3782,-172,-161,-93,1,7,11
1.72313E+12,-6597,-4106,3802,-197,-230,-66,1,7,11
1.72313E+12,-6542,-4126,3808,-180,-525,-51,1,7,11
1.72313E+12,-6743,-4130,3805,-173,-540,-72,1,7,11
1.72313E+12,-6670,-4165,3820,-198,-548,-127,1,7,11
1.72313E+12,-6657,-4176,3839,-195,-525,71,1,7,11
1.72313E+12,-6385,-4186,3838,-200,-254,44,1,7,11
1.72313E+12,-6384,-4195,4097,-195,-219,55,1,7,11
1.72313E+12,-6667,-4194,4096,-188,-149,91,1,7,11
1.72313E+12,-6666,-4150,3809,-165,-337,-85,1,7,11
1.72313E+12,-6667,-4194,4115,-232,37,-52,1,7,11
1.72313E+12,-6741,-4210,4170,-159,-104,-1,1,7,11
1.72313E+12,-6541,-4160,4160,-334,-47,309,1,7,11
1.72313E+12,-6606,-4107,4170,-288,-25,364,1,7,11
1.72313E+12,-6922,-3752,4156,-278,-22,170,1,7,11
1.72313E+12,-6940,-3722,4163,-337,-59,238,1,7,11
1.72313E+12,-6959,-3968,4168,-148,-126,554,1,7,11
1.72313E+12,-6916,-3731,4170,-175,16,621,1,7,11
1.72313E+12,-6589,-3726,4160,-201,-325,581,1,7,11
1.72313E+12,-6556,-3968,4164,-222,-131,212,1,7,11
1.72313E+12,-6546,-3968,4165,-248,-212,346,1,7,11
1.72313E+12,-6780,-3954,4157,-518,-580,263,1,7,11
1.72313E+12,-6739,-3942,4148,-552,-415,-64,1,7,11
1.72313E+12,-6713,-3920,4130,-599,-471,-104,1,7,11
1.72313E+12,-6734,-3897,4111,-394,-482,-101,1,7,11
1.72313E+12,-6722,-3855,3824,-461,-474,-22,1,7,11
1.72313E+12,-6709,-3870,4116,-860,-394,288,1,7,11
1.72313E+12,-6758,-3727,4007,-718,-559,349,1,7,11
1.72313E+12,-6723,-3719,4054,-646,-535,202,1,7,11
1.72313E+12,-6768,-3744,4078,-849,-187,514,1,7,11
1.72313E+12,-6735,-3740,4059,-796,-163,545,1,7,11
1.72313E+12,-6725,-3746,4030,-499,-377,254,1,7,11
1.72313E+12,-6725,-3745,4005,-473,-343,181,1,7,11
1.72313E+12,-6718,-3730,4206,-449,-327,351,1,7,11
1.72313E+12,-6530,-3794,3979,-439,-295,269,1,7,11
1.72313E+12,-6703,-3763,4178,-614,-314,-39,1,7,11
1.72313E+12,-6758,-3823,4213,-598,27,69,1,7,11
1.72313E+12,-6775,-3810,4204,-233,45,-260,1,7,11
1.72313E+12,-6549,-3809,4193,-138,73,-333,1,7,11
1.72313E+12,-6547,-3771,4168,-295,62,-350,1,7,11
1.72313E+12,-6563,-3770,4172,-263,54,-374,1,7,11
1.72313E+12,-6594,-3736,4197,17,26,-366,1,7,11
1.72313E+12,-6621,-3723,3982,27,-280,-343,1,7,11
1.72313E+12,-6938,-3906,3975,32,-358,-291,1,7,11
1.72313E+12,-7023,-3583,4082,-196,-793,-98,1,7,11
1.72313E+12,-6975,-3863,4386,-613,-1109,295,1,7,11
1.72313E+12,-6575,-3914,4438,-794,-1169,164,1,7,11
1.72313E+12,-6726,-3715,4245,-713,-1447,515,1,7,11
1.72313E+12,-6399,-3790,4314,-1133,-1666,592,1,7,11
1.72313E+12,-6377,-4109,4641,-1014,-2081,621,1,7,11
1.72313E+12,-6344,-4159,4709,-1379,-2074,410,1,7,11
1.72313E+12,-6304,-4222,4539,-1224,-2239,463,1,7,11
1.72313E+12,-6518,-4019,4898,-1547,-2632,790,1,7,11
1.72313E+12,-6445,-4058,4739,-1531,-2485,885,1,7,11
1.72313E+12,-6106,-4072,4809,-1182,-2518,722,1,7,11
1.72313E+12,-6244,-4035,4850,-1303,-2490,1075,1,7,11
1.72313E+12,-5835,-4216,4846,-917,-2641,1147,1,7,11
1.72313E+12,-5956,-4124,4827,-1086,-2187,909,1,7,11
1.72313E+12,-5586,-3773,4803,-1064,-2164,1136,1,7,11
1.72313E+12,-5524,-3944,4788,-1074,-1795,1063,1,7,11
1.72313E+12,-5749,-3868,4777,-1129,-1387,717,1,7,11
1.72313E+12,-5520,-3584,4780,-968,-703,859,1,7,11
1.72313E+12,-5607,-3577,4801,-1304,-559,507,1,7,11
1.72313E+12,-5939,-3868,4798,-1359,11,425,1,7,11
1.72313E+12,-5787,-3885,4763,-1378,273,592,1,7,11
1.72313E+12,-6145,-3908,4985,-1384,212,515,1,7,11
1.72313E+12,-6262,-3936,4945,-1396,620,190,1,7,11
1.72313E+12,-6127,-3961,4917,-1374,465,168,1,7,11
1.72313E+12,-6478,-3719,4885,-1331,504,189,1,7,11
1.72313E+12,-6284,-3713,4577,-1022,510,227,1,7,11
1.72313E+12,-6335,-3719,4542,-986,488,516,1,7,11
1.72313E+12,-6352,-3722,4501,-942,432,555,1,7,11
1.72313E+12,-6357,-3726,4715,-1152,631,563,1,7,11
1.72313E+12,-6383,-3736,4711,-1126,588,538,1,7,11
1.72313E+12,-6673,-3771,4728,-1069,541,522,1,7,11
1.72313E+12,-6399,-3789,4726,-707,218,522,1,7,11
1.72313E+12,-6370,-3794,4711,-827,172,255,1,7,11
1.72313E+12,-6337,-3777,4699,-439,147,227,1,7,11
1.72313E+12,-6306,-3760,4683,-577,140,187,1,7,11
1.72313E+12,-6278,-3744,4678,-220,142,143,1,7,11
1.72313E+12,-6486,-3745,4694,-139,162,349,1,7,11
1.72313E+12,-6470,-3744,4708,-295,230,289,1,7,11
1.72313E+12,-6461,-3741,4713,68,575,-10,1,7,11
1.72313E+12,-6435,-3713,4681,-67,422,-29,1,7,11
1.72313E+12,-6418,-3931,4621,270,808,-51,1,7,11
1.72313E+12,-6447,-3900,4312,310,708,-76,1,7,11
1.72313E+12,-6500,-3875,4272,318,1116,-97,1,7,11
1.72313E+12,-6322,-3855,4475,325,993,-101,1,7,11
1.72313E+12,-6381,-3573,4415,320,1322,-88,1,7,11
1.72313E+12,-6684,-3577,4373,292,1360,-99,1,7,11
1.72313E+12,-6732,-3850,4091,279,1374,127,1,7,11
1.72313E+12,-6750,-3862,4062,289,1358,90,1,7,11
1.72313E+12,-6767,-3885,4010,310,1334,35,1,7,11
1.72313E+12,-6538,-3900,3980,348,1317,-288,1,7,11
1.72313E+12,-6622,-3868,4186,163,1310,-360,1,7,11
1.72313E+12,-6656,-3567,4126,225,1292,-377,1,7,11
1.72313E+12,-6954,-3545,3819,233,1002,-131,1,7,11
1.72313E+12,-7009,-3522,3788,221,992,-135,1,7,11
1.72313E+12,-6800,-3496,3752,213,958,-372,1,7,11
1.72313E+12,-6844,-3492,3734,183,904,-351,1,7,11
1.72313E+12,-6869,-3483,3714,175,1124,-322,1,7,11
1.72313E+12,-6876,-3494,3954,148,1040,-303,1,7,11
1.72313E+12,-6891,-3524,3940,355,659,-293,1,7,11
1.72313E+12,-6884,-3544,3914,325,813,-267,1,7,11
1.72313E+12,-6859,-3574,3898,283,452,11,1,7,11
1.72313E+12,-6820,-3848,3882,261,610,21,1,7,11
1.72313E+12,-6804,-3876,3889,-39,528,10,1,7,11
1.72313E+12,-6796,-3893,3894,-59,185,-257,1,7,11
1.72313E+12,-6792,-3893,3914,-80,349,-274,1,7,11
1.72313E+12,-6790,-3909,3937,-89,256,-286,1,7,11
1.72313E+12,-6788,-3904,3954,-69,-92,-289,1,7,11
1.72313E+12,-7025,-3893,3720,-66,62,-264,1,7,11
1.72313E+12,-7022,-3886,3748,-61,-257,9,1,7,11
1.72313E+12,-6986,-3874,3772,-35,-320,47,1,7,11
1.72313E+12,-6964,-3856,3802,-13,-330,54,1,7,11
1.72313E+12,-6924,-3573,3805,265,-356,68,1,7,11
1.72313E+12,-6610,-3553,3815,-6,-344,39,1,7,11
1.72313E+12,-6603,-3545,4105,-43,-306,-277,1,7,11
1.72313E+12,-6598,-3529,4126,-73,-263,-332,1,7,11
1.72313E+12,-6636,-3514,4136,-102,54,-382,1,7,11
1.72313E+12,-6654,-3509,4151,115,92,-144,1,7,11
1.72313E+12,-6648,-3533,4174,92,-108,-160,1,7,11
1.72313E+12,-6654,-3508,4160,-119,-48,-173,1,7,11
1.72313E+12,-6639,-3706,4122,120,-57,-169,1,7,11
1.72313E+12,-6589,-3481,4144,-269,-97,-160,1,7,11
1.72313E+12,-6569,-3551,4198,-355,-121,-150,1,7,11
1.72313E+12,-6563,-3864,4005,-299,118,-134,1,7,11
1.72313E+12,-6569,-3573,3968,13,-116,-133,1,7,11
1.72313E+12,-6610,-3537,4191,8,-86,-373,1,7,11
1.72313E+12,-6641,-3506,4162,-285,-77,-321,1,7,11
1.72313E+12,-6921,-3493,4139,-347,-69,8,1,7,11
1.72313E+12,-6936,-3521,4154,-164,-77,98,1,7,11
1.72313E+12,-6914,-3576,4186,-211,-125,-50,1,7,11
1.72313E+12,-6608,-3923,3972,-228,86,277,1,7,11
1.72313E+12,-6555,-3724,3987,-170,64,317,1,7,11
1.72313E+12,-6757,-3771,3996,-356,67,314,1,7,11
1.72313E+12,-6726,-3774,3993,-260,102,283,1,7,11
1.72313E+12,-6715,-3715,4220,91,-104,-13,1,7,11
1.72313E+12,-6728,-3954,4213,-108,-50,-63,1,7,11
1.72313E+12,-6756,-3916,4203,-68,-4,-99,1,7,11
1.72313E+12,-6534,-3873,4204,-49,297,127,1,7,11
1.72313E+12,-6568,-3571,4195,-31,333,109,1,7,11
1.72313E+12,-6595,-3538,4171,-37,356,99,1,7,11
1.72313E+12,-6610,-3506,4170,-64,363,97,1,7,11
1.72313E+12,-6628,-3493,4163,-105,365,92,1,7,11
1.72313E+12,-6641,-3480,4133,123,353,108,1,7,11
1.72313E+12,-6634,-3471,4122,96,331,-124,1,7,11
1.72313E+12,-6636,-3488,4133,48,323,-106,1,7,11
1.72313E+12,-6626,-3516,4152,11,321,-50,1,7,11
1.72313E+12,-6605,-3546,4177,-260,325,-30,1,7,11
1.72313E+12,-6612,-3841,4200,21,356,274,1,7,11
1.72313E+12,-6586,-3854,4190,96,129,332,1,7,11
1.72313E+12,-6578,-3849,4170,-78,182,348,1,7,11
1.72313E+12,-6597,-3567,4137,-13,223,347,1,7,11
1.72313E+12,-6634,-3511,4103,291,520,326,1,7,11
1.72313E+12,-6953,-3704,4102,300,536,306,1,7,11
1.72313E+12,-7022,-3654,4097,284,543,-1,1,7,11
1.72313E+12,-6820,-3601,3826,258,514,-22,1,7,11
1.72313E+12,-6870,-3302,3822,-80,207,-26,1,7,11
1.72313E+12,-6876,-3266,3800,107,379,-14,1,7,11
1.72313E+12,-6864,-3250,3777,12,301,-22,1,7,11
1.72313E+12,-6850,-3251,3762,-342,-43,-33,1,7,11
1.72313E+12,-6825,-3271,3748,-191,-126,-51,1,7,11
1.72313E+12,-6813,-3317,3749,-544,71,-73,1,7,11
1.72313E+12,-6792,-3618,3755,-604,23,-76,1,7,11
1.72313E+12,-7017,-3669,3771,-631,5,-75,1,7,11
1.72313E+12,-7010,-3711,3802,-598,21,-67,1,7,11
1.72313E+12,-6998,-3468,3823,-522,55,-39,1,7,11
1.72313E+12,-6989,-3467,4099,-179,91,-3,1,7,11
1.72313E+12,-6968,-3467,4134,-346,-124,275,1,7,11
1.72313E+12,-6953,-3461,4163,-264,-83,263,1,7,11
1.72313E+12,-6937,-3698,4159,67,-53,-38,1,7,11
1.72313E+12,-6957,-3671,4143,107,-22,-121,1,7,11
1.72313E+12,-6992,-3647,4147,102,-21,44,1,7,11
1.72313E+12,-7040,-3633,4154,83,-50,-283,1,7,11
1.72313E+12,-6790,-3620,4137,64,-108,-322,1,7,11
1.72313E+12,-7040,-3616,4121,28,89,-355,1,7,11
1.72313E+12,-6790,-3631,4133,-275,52,-136,1,7,11
1.72313E+12,-7035,-3645,4140,-301,12,-146,1,7,11
1.72313E+12,-7008,-3668,4151,-315,-279,-154,1,7,11
1.72313E+12,-6974,-3702,4171,-321,-306,-169,1,7,11
1.72313E+12,-6932,-3483,4193,-316,-316,-198,1,7,11
1.72313E+12,-6651,-3490,4213,-286,-299,-513,1,7,11
1.72313E+12,-6917,-3495,3976,-269,-273,-550,1,7,11
1.72313E+12,-6939,-3469,3980,32,2,-554,1,7,11
1.72313E+12,-6966,-3710,3985,49,11,-551,1,7,11
1.72313E+12,-6968,-3668,4214,69,2,-521,1,7,11
1.72313E+12,-6970,-3652,4203,39,0,-518,1,7,11
1.72313E+12,-6968,-3656,4207,-257,-268,-513,1,7,11
1.72313E+12,-6957,-3665,4219,-289,-287,-520,1,7,11
1.72313E+12,-6937,-3687,3981,-325,-319,-549,1,7,11
1.72313E+12,-6656,-3706,3995,-338,-357,-589,1,7,11
1.72313E+12,-6615,-3478,4013,-353,-140,-396,1,7,11
1.72313E+12,-6584,-3509,4027,-358,-164,-464,1,7,11
1.72313E+12,-6560,-3538,4042,-364,-165,-792,1,7,11
1.72313E+12,-6551,-3569,4056,-350,-157,-840,1,7,11
1.72313E+12,-6784,-3848,4072,-331,-155,-865,1,7,11
1.72313E+12,-6767,-3867,4088,-317,-154,-880,1,7,11
1.72313E+12,-6736,-3886,4093,-314,-155,-885,1,7,11
1.72313E+12,-6706,-3909,4095,-306,-158,-882,1,7,11
1.72313E+12,-6680,-3916,4363,-314,-151,-882,1,7,11
1.72313E+12,-6680,-3930,4381,-334,-144,-878,1,7,11
1.72313E+12,-6689,-3937,4398,-350,-146,-860,1,7,11
1.72313E+12,-6695,-3945,4430,-368,-153,-815,1,7,11
1.72313E+12,-6699,-3944,4443,-133,-160,-778,1,7,11
1.72313E+12,-6699,-3953,4460,-147,-172,-476,1,7,11
1.72313E+12,-6670,-3956,4456,-156,-187,-430,1,7,11
1.72313E+12,-6660,-3959,4445,-178,-190,-407,1,7,11
1.72313E+12,-6376,-3965,4440,-230,-203,-391,1,7,11
1.72313E+12,-6356,-3745,4458,-549,-212,-393,1,7,11
1.72313E+12,-6331,-3780,4225,-596,-226,-395,1,7,11
1.72313E+12,-6303,-3872,4285,-400,-235,-425,1,7,11
1.72313E+12,-6523,-4187,4329,-409,-253,-449,1,7,11
1.72313E+12,-6441,-3981,4339,-632,-524,-481,1,7,11
1.72313E+12,-6414,-4010,4608,-564,-232,-811,1,7,11
1.72313E+12,-6143,-4031,4620,-521,-188,-845,1,7,11
1.72313E+12,-6127,-4067,4652,-236,-141,-863,1,7,11
1.72313E+12,-6099,-4374,4691,-182,-355,-863,1,7,11
1.72313E+12,-6061,-4398,4701,-353,-306,-857,1,7,11
1.72313E+12,-6019,-4422,4709,-284,4,-871,1,7,11
1.72313E+12,-6249,-4450,4485,28,64,-894,1,7,11
1.72313E+12,-6240,-4227,4521,88,122,-659,1,7,11
1.72313E+12,-6244,-4239,4544,-99,-68,-680,1,7,11
1.72313E+12,-6033,-4262,4562,-29,-6,-684,1,7,11
1.72313E+12,-6050,-4243,4554,281,283,-659,1,7,11
1.72313E+12,-6059,-4242,4568,294,315,-893,1,7,11
1.72313E+12,-6080,-4264,4592,287,363,-876,1,7,11
1.72313E+12,-6121,-4301,4865,309,155,-838,1,7,11
1.72313E+12,-6132,-4262,4559,377,189,-770,1,7,11
1.72313E+12,-6421,-4250,4518,132,252,-469,1,7,11
1.72313E+12,-6432,-4246,4725,377,557,-400,1,7,11
1.72313E+12,-6412,-4265,4696,341,586,-598,1,7,11
1.72313E+12,-6114,-4296,4681,326,612,-578,1,7,11
1.72313E+12,-6073,-4346,4694,330,634,-604,1,7,11
1.72313E+12,-6264,-4609,4673,146,384,-393,1,7,11
1.72313E+12,-6213,-4615,4664,205,386,-471,1,7,11
1.72313E+12,-5878,-4612,4646,527,621,-801,1,7,11
1.72313E+12,-5788,-4348,4337,594,613,-891,1,7,11
1.72313E+12,-6003,-4331,4301,619,409,-758,1,7,11
1.72313E+12,-5772,-4352,4294,626,497,-1119,1,7,11
1.72313E+12,-5790,-4618,4291,413,833,-905,1,7,11
1.72313E+12,-5805,-4619,4279,465,669,-912,1,7,11
1.72313E+12,-5834,-4620,4246,771,1027,-1151,1,7,11
1.72313E+12,-6145,-4337,4469,827,1139,-1109,1,7,11
1.72313E+12,-6185,-4303,4424,879,977,-1042,1,7,11
1.72313E+12,-6209,-4278,4388,657,1314,-716,1,7,11
1.72313E+12,-6205,-4264,4091,682,1387,-657,1,7,11
1.72313E+12,-6209,-4243,4050,702,1204,-881,1,7,11
1.72313E+12,-6209,-4465,4005,721,1255,-864,1,7,11
1.72313E+12,-6198,-4473,4003,711,1542,-876,1,7,11
1.72313E+12,-6160,-4235,3984,702,1276,-654,1,7,11
1.72313E+12,-5868,-4293,3972,676,1267,-739,1,7,11
1.72313E+12,-5847,-4328,4176,679,1272,-1102,1,7,11
1.72313E+12,-5849,-4346,4132,688,1548,-957,1,7,11
1.72313E+12,-5877,-4350,3830,692,1599,-1299,1,7,11
1.72313E+12,-6172,-4644,3805,670,1662,-1334,1,7,11
1.72313E+12,-6182,-4693,3794,893,1461,-1326,1,7,11
1.72313E+12,-6166,-4723,3771,660,1526,-1298,1,7,11
1.72313E+12,-6147,-4735,3735,705,1857,-1024,1,7,11
1.72313E+12,-5873,-4501,3947,1025,1703,-1284,1,7,11
1.72313E+12,-5878,-4512,3884,1077,2064,-1300,1,7,11
1.72313E+12,-5881,-4502,3578,1139,2156,-1307,1,7,11
1.72313E+12,-5887,-4514,3524,902,1976,-1347,1,7,11
1.72313E+12,-6152,-4556,3468,897,2025,-1375,1,7,11
1.72313E+12,-6180,-4877,3657,1118,2325,-1404,1,7,11
1.72313E+12,-6213,-4953,3593,1029,2343,-1166,1,7,11
1.72313E+12,-6260,-4797,3288,679,2372,-1210,1,7,11
1.72313E+12,-6078,-5181,3253,880,2392,-1249,1,7,11
1.72313E+12,-6108,-5020,3449,879,2357,-1257,1,7,11
1.72313E+12,-6105,-5405,3390,870,2309,-1557,1,7,11
1.72313E+12,-6106,-5499,3043,650,2005,-1637,1,7,11
1.72313E+12,-6101,-5347,2959,659,1928,-1489,1,7,11
1.72313E+12,-6053,-5668,3112,687,2086,-1870,1,7,11
1.72313E+12,-6256,-5658,2717,724,1743,-1760,1,7,11
1.72313E+12,-6205,-5638,2830,697,1664,-2171,1,7,11
1.72313E+12,-6184,-5633,2464,888,1847,-2040,1,7,11
1.72313E+12,-6161,-5360,2635,815,1525,-2366,1,7,11
1.72313E+12,-6164,-5315,2274,788,1482,-2371,1,7,11
1.72313E+12,-6184,-5303,2204,486,1433,-2042,1,7,11
1.72313E+12,-6220,-5268,2385,481,1630,-2164,1,7,11
1.72313E+12,-6272,-5263,2358,471,1557,-1726,1,7,11
1.72313E+12,-6091,-5504,2346,774,1227,-1514,1,7,11
1.72313E+12,-6448,-5278,2372,813,1398,-1263,1,7,11
1.72313E+12,-6295,-5328,2403,885,1297,-1003,1,7,11
1.72313E+12,-6384,-5371,2187,730,923,-758,1,7,11
1.72313E+12,-6733,-5653,2248,1088,1095,-811,1,7,11
1.72313E+12,-6553,-5740,2613,917,741,-637,1,7,11
1.72313E+12,-6589,-5558,2445,1335,871,-252,1,7,11
1.72313E+12,-6569,-5539,2485,1547,477,-201,1,7,11
1.72313E+12,-6577,-5753,2537,1478,387,-239,1,7,11
1.72313E+12,-6608,-5650,2839,1913,560,-543,1,7,11
1.72313E+12,-6640,-5259,2897,1778,197,-567,1,7,11
1.72313E+12,-6639,-5088,2702,2103,299,-564,1,7,11
1.72313E+12,-6620,-5186,2787,2104,-118,-550,1,7,11
1.72313E+12,-6569,-4770,3151,2066,-299,-525,1,7,11
1.72313E+12,-6753,-4890,2946,1727,-230,-256,1,7,11
1.72313E+12,-6700,-4700,3013,1864,-392,-527,1,7,11
1.72313E+12,-6682,-4294,3038,1455,-793,-558,1,7,11
1.72313E+12,-6535,-4474,3340,1257,-656,-571,1,7,11
1.72313E+12,-6639,-4438,3392,1008,-1025,-229,1,7,11
1.72313E+12,-6651,-4392,3403,1030,-1062,-354,1,7,11
1.72313E+12,-6627,-4397,3414,777,-1540,-260,1,7,11
1.72313E+12,-6582,-4429,3426,344,-1516,40,1,7,11
1.72313E+12,-6779,-4235,3455,47,-1743,2,1,7,11
1.72313E+12,-6712,-4327,3250,-209,-1945,-342,1,7,11
1.72313E+12,-6390,-4691,3310,-420,-2398,-178,1,7,11
1.72313E+12,-6487,-4525,3600,-826,-2595,-247,1,7,11
1.72313E+12,-6066,-4869,3660,-725,-2444,-610,1,7,11
1.72313E+12,-6196,-4952,3488,-1095,-2470,-450,1,7,11
1.72313E+12,-5817,-4795,3849,-926,-2445,-510,1,7,11
1.72313E+12,-5951,-5128,3959,-953,-2642,-778,1,7,11
1.72313E+12,-5567,-5189,3788,-945,-2296,-490,1,7,11
1.72313E+12,-5690,-4995,4110,-945,-2197,-435,1,7,11
1.72313E+12,-5313,-5052,4199,-953,-2335,-385,1,7,11
1.72313E+12,-5450,-5090,4009,-967,-1977,-602,1,7,11
1.72313E+12,-5383,-5426,4091,-991,-2118,-623,1,7,11
1.72313E+12,-5109,-5467,4431,-969,-1775,-404,1,7,11
1.72313E+12,-5071,-5504,4251,-941,-1756,-434,1,7,11
1.72313E+12,-5045,-5335,4608,-928,-1748,-482,1,7,11
1.72313E+12,-4997,-5669,4710,-1111,-1775,-494,1,7,11
1.72313E+12,-5178,-5703,4507,-739,-2062,-489,1,7,11
1.72313E+12,-4815,-5696,4537,-874,-2079,-478,1,7,11
1.72313E+12,-4955,-5649,4532,-507,-2076,-464,1,7,11
1.72313E+12,-4586,-5348,4513,-461,-1781,-446,1,7,11
1.72313E+12,-4503,-5322,4512,-443,-1714,-409,1,7,11
1.72313E+12,-4682,-5292,4498,-459,-1901,-607,1,7,11
1.72313E+12,-4621,-5268,4498,-505,-1825,-517,1,7,11
1.72313E+12,-4298,-5268,4502,-835,-1506,-142,1,7,11
1.72313E+12,-4470,-5268,4528,-652,-1472,-258,1,7,11
1.72313E+12,-4080,-5252,4546,-708,-1476,-115,1,7,11
1.72313E+12,-4199,-5483,4581,-746,-1472,-10,1,7,11
1.72313E+12,-3809,-5452,4604,-747,-1475,316,1,7,11
1.72313E+12,-3968,-5446,4605,-747,-1449,352,1,7,11
1.72313E+12,-3774,-5698,4946,-1327,-1607,259,1,7,11
1.72313E+12,-4360,-6490,5449,-1677,-1195,39,1,7,11
1.72313E+12,-4487,-6835,5956,-1722,-1359,14,1,7,11
1.72313E+12,-4747,-7248,6236,-1547,-1324,-120,1,7,11
1.72313E+12,-5137,-6792,6235,-716,-992,139,1,7,11
1.72313E+12,-5230,-6544,5866,-616,-908,820,1,7,11
1.72313E+12,-5132,-6673,5773,-521,-923,1339,1,7,11
1.72313E+12,-4908,-6336,5936,-519,-973,1492,1,7,11
1.72313E+12,-4334,-6517,5575,-564,-1306,1676,1,7,11
1.72313E+12,-3997,-6138,5713,-632,-1334,1852,1,7,11
1.72313E+12,-3756,-6164,5291,-482,-1323,1590,1,7,11
1.72313E+12,-3525,-5989,5419,-845,-1303,997,1,7,11
1.72313E+12,-3710,-5546,5030,-672,-1003,772,1,7,11
1.72313E+12,-3679,-5668,5159,-1029,-952,539,1,7,11
1.72313E+12,-3642,-5650,4818,-932,-1137,377,1,7,11
1.72313E+12,-3648,-5687,4752,-1351,-1049,-9,1,7,11
1.72313E+12,-3676,-5508,4948,-1262,-691,-108,1,7,11
1.72313E+12,-3460,-5889,4922,-1624,-841,51,1,7,11
1.72313E+12,-3551,-5794,4939,-1460,-470,-305,1,7,11
1.72313E+12,-3937,-6210,4979,-1497,-610,-136,1,7,11
1.72313E+12,-4099,-6082,4778,-1447,-247,-180,1,7,11
1.72313E+12,-3986,-6144,4816,-1550,-178,-158,1,7,11
1.72313E+12,-4365,-6416,4813,-1337,-376,-324,1,7,11
1.72313E+12,-4455,-6424,4784,-1132,-342,59,1,7,11
1.72313E+12,-4292,-6493,4767,-756,-307,-80,1,7,11
1.72313E+12,-4635,-6359,4812,-696,-318,261,1,7,11
1.72313E+12,-4617,-6360,4817,-792,-160,329,1,7,11
1.72313E+12,-4461,-6076,4887,-515,-557,366,1,7,11
1.72313E+12,-4040,-5790,4647,-190,-620,321,1,7,11
1.72313E+12,-3998,-5934,4292,-627,-617,-48,1,7,11
1.72313E+12,-4030,-5916,4287,-858,-635,97,1,7,11
1.72313E+12,-4363,-5963,4323,-1062,-417,12,1,7,11
1.72313E+12,-4467,-5791,4640,-930,-463,-287,1,7,11
1.72313E+12,-4271,-5828,4659,-946,-792,-262,1,7,11
1.72313E+12,-4271,-5849,4639,-937,-868,44,1,7,11
1.72313E+12,-4245,-5874,4619,-941,-672,73,1,7,11
1.72313E+12,-4477,-6195,4626,-959,-702,54,1,7,11
1.72313E+12,-4467,-6017,4651,-944,-709,-275,1,7,11
1.72313E+12,-4463,-6071,4664,-901,-711,-134,1,7,11
1.72313E+12,-4452,-6139,4700,-1113,-722,-526,1,7,11
1.72313E+12,-4440,-6438,4728,-1048,-722,-425,1,7,11
1.72313E+12,-4440,-6480,4485,-725,-720,-850,1,7,11
1.72313E+12,-4418,-6494,4726,-893,-735,-736,1,7,11
1.72313E+12,-4356,-6481,4701,-813,-751,-1134,1,7,11
1.72313E+12,-4038,-6468,4691,-501,-753,-1291,1,7,11
1.72313E+12,-4222,-6471,4679,-478,-736,-1197,1,7,11
1.72313E+12,-4123,-6493,4690,-482,-716,-1614,1,7,11
1.72313E+12,-3764,-6278,4703,-494,-688,-1793,1,7,11
1.72313E+12,-3881,-6299,4714,-488,-896,-1717,1,7,11
1.72313E+12,-3529,-6321,4710,-477,-844,-1979,1,7,11
1.72313E+12,-3705,-6367,4731,-471,-772,-2319,1,7,11
1.72313E+12,-3652,-6666,4504,-456,-394,-2220,1,7,11
1.72313E+12,-3316,-6708,4506,-401,-524,-2580,1,7,11
1.72313E+12,-3212,-6754,4502,-592,-141,-2680,1,7,11
1.72313E+12,-3380,-6547,4528,-526,-258,-2515,1,7,11
1.72313E+12,-3336,-6599,4562,-235,-103,-2878,1,7,11
1.72313E+12,-3032,-6616,4567,-162,-111,-2721,1,7,11
1.72313E+12,-3008,-6923,4581,-143,51,-3077,1,7,11
1.72313E+12,-2970,-6969,4575,-141,-371,-3138,1,7,11
1.72313E+12,-3165,-6971,4543,-144,-579,-3156,1,7,11
1.72313E+12,-2751,-7024,4522,-561,-1025,-3106,1,7,11
1.72313E+12,-2898,-6850,4534,-389,-988,-3084,1,7,11
1.72313E+12,-2540,-7169,4521,-411,-1168,-2812,1,7,11
1.72313E+12,-2688,-7203,4501,-406,-1563,-2789,1,7,11
1.72313E+12,-2565,-7264,4507,-415,-1422,-2768,1,7,11
1.72313E+12,-2432,-7062,4516,-389,-1517,-2743,1,7,11
1.72313E+12,-2044,-7067,4510,-595,-1826,-2728,1,7,11
1.72313E+12,-2149,-7093,4511,-564,-1855,-2734,1,7,11
1.72313E+12,-1747,-7123,4535,-544,-1817,-2774,1,7,11
1.72313E+12,-1891,-7152,4565,-515,-1460,-3087,1,7,11
1.72313E+12,-1532,-7155,4866,-218,-1582,-3124,1,7,11
1.72313E+12,-1425,-7148,4890,-176,-1171,-3131,1,7,11
1.72313E+12,-1584,-7153,4920,-163,-1001,-3126,1,7,11
1.72313E+12,-1253,-7168,4949,-142,-1093,-3116,1,7,11
1.72313E+12,-1190,-7168,4944,-376,-716,-3102,1,7,11
1.72313E+12,-1380,-7447,4957,-139,-676,-3092,1,7,11
1.72313E+12,-1344,-7435,4915,-372,-668,-3088,1,7,11
1.72313E+12,-1293,-7163,4866,-148,-715,-2786,1,7,11
1.72313E+12,-967,-7444,4587,-221,-1055,-2718,1,7,11
1.72313E+12,-900,-7481,4582,-523,-1143,-2890,1,7,11
1.72313E+12,-1062,-7532,4588,-567,-998,-2528,1,7,11
1.72313E+12,-694,-7334,4596,-575,-1353,-2680,1,7,11
1.72313E+12,-829,-7334,4557,-536,-1177,-2576,1,7,11
1.72313E+12,-467,-7343,4547,-535,-1192,-2228,1,7,11
1.72313E+12,-611,-7366,4553,-526,-1193,-2371,1,7,11
1.72313E+12,-207,-7382,4547,-253,-1181,-1993,1,7,11
1.72313E+12,-329,-7383,4532,-227,-1371,-2151,1,7,11
1.72313E+12,117,-7407,4538,-232,-1287,-2065,1,7,11
1.72313E+12,-89,-7376,4525,-212,-923,-1757,1,7,11
1.72313E+12,-13,-7339,4520,-209,-1048,-1722,1,7,11
1.72313E+12,266,-7329,4532,-218,-655,-1669,1,7,11
1.72313E+12,278,-7357,4547,-516,-797,-1803,1,7,11
1.72313E+12,301,-7347,4532,-514,-440,-1463,1,7,11
1.72313E+12,360,-7344,4498,-254,-615,-1637,1,7,11
1.72313E+12,377,-7334,4486,-251,-556,-1583,1,7,11
1.72313E+12,149,-7347,4482,-526,-529,-1262,1,7,11
1.72313E+12,203,-7372,4494,-535,-529,-1197,1,7,11
1.72313E+12,252,-7400,4497,-521,-531,-1400,1,7,11
1.72313E+12,556,-7406,4485,-226,-534,-1363,1,7,11
1.72313E+12,556,-7366,4712,-183,-526,-1321,1,7,11
1.72313E+12,607,-7392,4728,-208,-546,-984,1,7,11
1.72313E+12,638,-7405,4732,-192,-556,-921,1,7,11
1.72313E+12,427,-7424,4484,-173,-577,-1104,1,7,11
1.72313E+12,484,-7423,4725,-384,-604,-1041,1,7,11
1.72313E+12,786,-7418,4718,-361,-632,-745,1,7,11
1.72313E+12,805,-7421,4725,-351,-403,-726,1,7,11
1.72313E+12,841,-7687,4728,-338,-449,-716,1,7,11
1.72313E+12,887,-7694,4722,-291,-491,-722,1,7,11
1.72313E+12,646,-7383,4685,26,-491,-736,1,7,11
1.72313E+12,674,-7372,4697,8,-493,-719,1,7,11
1.72313E+12,713,-7353,4703,14,-491,-710,1,7,11
1.72313E+12,1040,-7376,4483,-290,-777,-706,1,7,11
1.72313E+12,1097,-7361,4734,-260,-779,-743,1,7,11
1.72313E+12,1099,-7318,4716,-265,-496,-1043,1,7,11
1.72313E+12,1116,-7308,4723,-292,-471,-1053,1,7,11
1.72313E+12,1112,-7533,4716,-302,-447,-1058,1,7,11
1.72313E+12,1122,-7519,4727,-347,-441,-1031,1,7,11
1.72313E+12,929,-7533,4488,-133,-478,-734,1,7,11
1.72313E+12,1005,-7297,4507,-168,-508,-723,1,7,11
1.72313E+12,1330,-7549,4709,-151,-783,-733,1,7,11
1.72313E+12,1350,-7512,4671,-139,-445,-740,1,7,11
1.72313E+12,1361,-7524,4684,-183,-396,-710,1,7,11
1.72313E+12,1348,-7531,4697,-221,-611,-664,1,7,11
1.72313E+12,1383,-7317,4721,-230,-594,-847,1,7,11
1.72313E+12,1179,-7353,4720,-194,-575,-795,1,7,11
1.72313E+12,1246,-7375,4697,-134,-550,-769,1,7,11
1.72313E+12,1273,-7345,4664,-324,-228,-783,1,7,11
1.72313E+12,1273,-7331,4655,-283,-169,-812,1,7,11
1.72313E+12,1250,-7522,4631,2,-373,-825,1,7,11
1.72313E+12,1246,-7534,4679,-285,-356,-815,1,7,11
1.72313E+12,1537,-7550,4700,-279,-381,-806,1,7,11
1.72313E+12,1579,-7527,4682,13,-134,-815,1,7,11
1.72313E+12,1572,-7491,4657,18,-379,-834,1,7,11
1.72313E+12,1541,-7441,4655,-273,-382,-830,1,7,11
1.72313E+12,1586,-7467,4687,-345,-179,-783,1,7,11
1.72313E+12,1657,-7490,4684,-368,-220,-503,1,7,11
1.72313E+12,1455,-7487,4660,-136,-221,-499,1,7,11
1.72313E+12,1501,-7513,4648,-156,-196,-770,1,7,11
1.72313E+12,1499,-7501,4615,-152,-167,-805,1,7,11
1.72313E+12,1488,-7501,4341,-164,-161,-825,1,7,11
1.72313E+12,1483,-7518,4341,-176,-165,-833,1,7,11
1.72313E+12,1515,-7551,4614,-169,-177,-817,1,7,11
1.72313E+12,1799,-7551,4612,-382,-175,-800,1,7,11
1.72313E+12,1841,-7541,4333,-344,-168,-780,1,7,11
1.72313E+12,1853,-7520,4337,-327,-143,-505,1,7,11
1.72313E+12,1874,-7509,4337,-296,-144,-478,1,7,11
1.72313E+12,1889,-7503,4609,-280,-159,-449,1,7,11
1.72313E+12,1917,-7492,4335,10,-165,-417,1,7,11
1.72313E+12,1675,-7487,4331,11,-162,-391,1,7,11
1.72313E+12,1910,-7477,4340,-262,-146,-607,1,7,11
1.72313E+12,1918,-7480,4623,-281,-188,-551,1,7,11
1.72313E+12,1706,-7491,4633,-285,-247,-247,1,7,11
1.72313E+12,1768,-7497,4605,-262,-544,-218,1,7,11
1.72313E+12,2074,-7486,4298,26,-556,-219,1,7,11
1.72313E+12,2096,-7484,4289,27,-523,-228,1,7,11
1.72313E+12,2150,-7505,4297,9,-233,-237,1,7,11
1.72313E+12,2166,-7508,4289,34,-188,-521,1,7,11
1.72313E+12,2152,-7479,4284,68,-382,-572,1,7,11
1.72313E+12,2144,-7473,4294,85,-335,-591,1,7,11
1.72313E+12,2101,-7165,4282,114,-269,-587,1,7,11
1.72313E+12,2102,-7165,4308,110,-259,-532,1,7,11
1.72313E+12,2121,-7157,4331,85,-269,-225,1,7,11
