timestamp,ax,ay,az,gx,gy,gz,Label1,Label2,Label3
1.72313E+12,-7952,-2377,1095,669,527,190,1,7,11
1.72313E+12,-8032,-2040,1037,940,462,249,1,7,11
1.72313E+12,-7851,-1968,698,1183,856,578,1,7,11
1.72313E+12,-7895,-2151,890,1442,710,580,1,7,11
1.72313E+12,-8197,-2080,820,1685,1068,537,1,7,11
1.72313E+12,-8244,-1772,780,2134,1081,194,1,7,11
1.72313E+12,-8275,-1749,487,2096,1049,357,1,7,11
1.72313E+12,-8316,-1745,479,2209,728,263,1,7,11
1.72313E+12,-8071,-1780,491,2564,874,-80,1,7,11
1.72313E+12,-8313,-2075,494,2678,497,99,1,7,11
1.72313E+12,-8282,-2116,493,2551,385,47,1,7,11
1.72313E+12,-8284,-1926,780,2941,555,6,1,7,11
1.72313E+12,-8278,-1995,812,3118,211,6,1,7,11
1.72313E+12,-8260,-2307,840,3329,147,26,1,7,11
1.72313E+12,-8239,-2330,868,3320,366,71,1,7,11
1.72313E+12,-8218,-2308,882,3576,366,127,1,7,11
1.72313E+12,-7931,-2007,885,3788,383,-67,1,7,11
1.72313E+12,-7902,-1941,652,4193,160,-34,1,7,11
1.72313E+12,-7890,-2147,684,4018,202,-38,1,7,11
1.72313E+12,-7914,-2099,720,4068,246,-66,1,7,11
1.72313E+12,-7924,-1787,750,4088,527,-93,1,7,11
1.72313E+12,-8198,-1727,760,4068,538,-124,1,7,11
1.72313E+12,-8200,-1914,1038,3984,530,108,1,7,11
1.72313E+12,-8205,-1858,1074,3828,249,86,1,7,11
1.72313E+12,-8194,-1821,1104,3873,201,64,1,7,11
1.72313E+12,-7926,-1797,898,3613,137,48,1,7,11
1.72313E+12,-7881,-1525,966,3041,305,33,1,7,11
1.72313E+12,-7829,-1530,1022,2924,-35,11,1,7,11
1.72313E+12,-8052,-1532,1322,2271,-107,3,1,7,11
1.72313E+12,-8002,-1535,1364,2097,83,13,1,7,11
1.72313E+12,-7969,-1530,1390,1659,55,41,1,7,11
1.72313E+12,-7948,-1516,1391,958,58,90,1,7,11
1.72313E+12,-7654,-1503,1390,503,82,-102,1,7,11
1.72313E+12,-7656,-1469,1366,329,-98,-30,1,7,11
1.72313E+12,-7958,-1652,1306,-310,280,356,1,7,11
1.72313E+12,-8021,-1245,934,-423,187,554,1,7,11
1.72313E+12,-7839,-1321,1078,-1126,387,826,1,7,11
1.72313E+12,-7922,-1130,738,-1420,847,1139,1,7,11
1.72313E+12,-8263,-721,728,-2331,766,1221,1,7,11
1.72313E+12,-8101,-869,739,-2772,1124,1823,1,7,11
1.72313E+12,-8143,-843,741,-3646,916,2161,1,7,11
1.72313E+12,-8471,-863,674,-4201,902,2225,1,7,11
1.72313E+12,-8469,-669,864,-4640,1092,2498,1,7,11
1.72313E+12,-8158,-1149,872,-4747,1036,2904,1,7,11
1.72313E+12,-8117,-1386,684,-5002,717,2901,1,7,11
1.72313E+12,-8111,-1563,715,-5009,893,2522,1,7,11
1.72313E+12,-8115,-1633,683,-4759,803,2629,1,7,11
1.72313E+12,-8094,-1652,688,-4652,463,2207,1,7,11
1.72313E+12,-8102,-1412,715,-4053,617,2109,1,7,11
1.72313E+12,-8113,-1413,761,-3716,239,1894,1,7,11
1.72313E+12,-8095,-1414,1075,-3614,266,1467,1,7,11
1.72313E+12,-8280,-1424,1134,-2981,118,1588,1,7,11
1.72313E+12,-7931,-1637,907,-2301,30,1204,1,7,11
1.72313E+12,-7883,-1540,923,-2076,25,1333,1,7,11
1.72313E+12,-7845,-1394,904,-1629,58,962,1,7,11
1.72313E+12,-7856,-947,1142,-998,-128,1100,1,7,11
1.72313E+12,-7920,-758,1133,-723,-61,737,1,7,11
1.72313E+12,-8225,-834,1100,-790,-34,658,1,7,11
1.72313E+12,-8271,-407,1060,-417,-18,859,1,7,11
1.72313E+12,-8275,-520,749,-639,-16,811,1,7,11
1.72313E+12,-8293,-167,701,-413,257,491,1,7,11
1.72313E+12,-8298,-354,654,-486,270,420,1,7,11
1.72313E+12,-8318,-327,866,-847,285,588,1,7,11
1.72313E+12,-8070,-345,839,-688,286,236,1,7,11
1.72313E+12,-8090,-378,820,-749,286,133,1,7,11
1.72313E+12,-8103,-145,796,-768,275,293,1,7,11
1.72313E+12,-8121,-182,790,-1026,-6,-58,1,7,11
1.72313E+12,-8139,-222,786,-734,-46,118,1,7,11
1.72313E+12,-8151,-518,802,-663,-90,42,1,7,11
1.72313E+12,-8160,-542,805,-814,108,-278,1,7,11
1.72313E+12,-8146,-548,799,-444,56,-332,1,7,11
1.72313E+12,-8140,-548,802,-607,23,-382,1,7,11
1.72313E+12,-8138,-538,806,-526,-266,-162,1,7,11
1.72313E+12,-8118,-537,810,-214,-293,-192,1,7,11
1.72313E+12,-8097,-544,825,-178,-314,-228,1,7,11
1.72313E+12,-8082,-553,849,-155,-323,-527,1,7,11
1.72313E+12,-8073,-556,863,-136,-337,-560,1,7,11
1.72313E+12,-8318,-581,891,-145,-344,-587,1,7,11
1.72313E+12,-8306,-608,655,-159,-352,-618,1,7,11
1.72313E+12,-8280,-638,664,-167,-353,-632,1,7,11
1.72313E+12,-8253,-420,659,-175,-332,-402,1,7,11
1.72313E+12,-8242,-459,674,-180,-301,-434,1,7,11
1.72313E+12,-8242,-498,692,-182,-276,-461,1,7,11
1.72313E+12,-8245,-786,696,-171,-260,-472,1,7,11
1.72313E+12,-8257,-807,691,-155,13,-468,1,7,11
1.72313E+12,-8265,-819,697,-153,33,-453,1,7,11
1.72313E+12,-8276,-833,695,-158,49,-433,1,7,11
1.72313E+12,-8278,-846,694,-162,57,-412,1,7,11
1.72313E+12,-8289,-859,697,-159,62,-386,1,7,11
1.72313E+12,-8299,-863,689,-152,60,-604,1,7,11
1.72313E+12,-8303,-871,702,-154,59,-560,1,7,11
1.72313E+12,-8297,-893,723,-166,54,-517,1,7,11
1.72313E+12,-8299,-645,740,-167,46,-222,1,7,11
1.72313E+12,-8301,-651,746,-163,37,-185,1,7,11
1.72313E+12,-8066,-653,751,-172,31,-155,1,7,11
1.72313E+12,-8071,-646,757,-191,14,-376,1,7,11
1.72313E+12,-8314,-651,763,-225,-257,-346,1,7,11
1.72313E+12,-8302,-655,1029,-256,-266,-332,1,7,11
1.72313E+12,-8271,-659,1031,-539,-271,-342,1,7,11
1.72313E+12,-8256,-659,1024,-552,-265,-382,1,7,11
1.72313E+12,-8248,-657,750,-565,15,-177,1,7,11
1.72313E+12,-8239,-659,731,-594,47,-242,1,7,11
1.72313E+12,-8250,-664,718,-389,91,-564,1,7,11
1.72313E+12,-8287,-708,742,-447,116,-626,1,7,11
1.72313E+12,-8313,-729,759,-472,91,-404,1,7,11
1.72313E+12,-8067,-764,1032,-487,56,-416,1,7,11
1.72313E+12,-8089,-1033,1050,-460,25,-403,1,7,11
1.72313E+12,-8081,-1032,1042,-446,-292,-631,1,7,11
1.72313E+12,-8065,-1040,1051,-441,-335,-596,1,7,11
1.72313E+12,-8294,-1045,1055,-436,-359,-573,1,7,11
1.72313E+12,-8272,-1055,1057,-441,-369,-560,1,7,11
1.72313E+12,-8261,-1068,1073,-445,-370,-555,1,7,11
1.72313E+12,-8254,-1084,1095,-451,-374,-550,1,7,11
1.72313E+12,-8235,-1100,1127,-462,-133,-547,1,7,11
1.72313E+12,-8236,-1119,1143,-474,-140,-547,1,7,11
1.72313E+12,-8216,-1074,1127,-447,-132,-519,1,7,11
1.72313E+12,-8270,-1051,1115,-450,-296,-162,1,7,11
1.72313E+12,-8225,-1068,1105,-439,30,-223,1,7,11
1.72313E+12,-8264,-1081,1124,-423,-93,66,1,7,11
1.72313E+12,-8282,-1061,1121,-592,256,-102,1,7,11
1.72313E+12,-8309,-1028,1109,-242,333,-88,1,7,11
1.72313E+12,-8313,-743,1075,-175,137,-73,1,7,11
1.72313E+12,-8316,-711,1045,-156,166,-64,1,7,11
1.72313E+12,-8320,-703,1031,-173,193,-69,1,7,11
1.72313E+12,-8295,-683,1036,-188,191,-108,1,7,11
1.72313E+12,-8084,-679,1042,-222,201,109,1,7,11
1.72313E+12,-8086,-680,1029,-254,149,93,1,7,11
1.72313E+12,-8072,-702,757,-555,360,64,1,7,11
1.72313E+12,-8316,-743,748,-585,326,39,1,7,11
1.72313E+12,-8284,-1029,741,-590,312,14,1,7,11
1.72313E+12,-8268,-1056,750,-606,328,-269,1,7,11
1.72313E+12,-8243,-1099,756,-593,296,23,1,7,11
1.72313E+12,-7933,-1122,746,-585,315,-265,1,7,11
1.72313E+12,-8219,-1120,744,-546,358,3,1,7,11
1.72313E+12,-8226,-1081,738,-248,131,28,1,7,11
1.72313E+12,-8272,-755,736,-211,160,64,1,7,11
1.72313E+12,-8277,-688,740,-212,164,121,1,7,11
1.72313E+12,-8299,-837,750,-248,165,-101,1,7,11
1.72313E+12,-8299,-460,756,-589,144,-78,1,7,11
1.72313E+12,-8294,-622,754,-465,378,-96,1,7,11
1.72313E+12,-8293,-535,762,-880,361,104,1,7,11
1.72313E+12,-8279,-230,752,-1055,349,21,1,7,11
1.72313E+12,-8250,-203,715,-975,348,-337,1,7,11
1.72313E+12,-8194,-242,652,-1161,374,-266,1,7,11
1.72313E+12,-8205,-604,894,-1615,190,-418,1,7,11
1.72313E+12,-8250,-471,858,-1512,224,-804,1,7,11
1.72313E+12,-8279,-841,807,-1863,239,-652,1,7,11
1.72313E+12,-8295,-686,478,-1681,248,-741,1,7,11
1.72313E+12,-8318,-766,418,-1721,522,-1051,1,7,11
1.72313E+12,-8090,-1125,637,-1761,538,-1063,1,7,11
1.72313E+12,-8122,-988,627,-1788,525,-1036,1,7,11
1.72313E+12,-8144,-1375,395,-1777,220,-731,1,7,11
1.72313E+12,-8141,-1223,419,-1706,134,-678,1,7,11
1.72313E+12,-8142,-1558,434,-1858,291,-642,1,7,11
1.72313E+12,-8105,-1614,424,-1477,-75,-864,1,7,11
1.72313E+12,-8317,-1410,425,-1629,96,-849,1,7,11
1.72313E+12,-8277,-1445,416,-1272,34,-840,1,7,11
1.72313E+12,-8242,-1492,439,-1197,1,-842,1,7,11
1.72313E+12,-8217,-1819,511,-1386,-278,-860,1,7,11
1.72313E+12,-8200,-1879,829,-1282,-304,-877,1,7,11
1.72313E+12,-7918,-1897,857,-1137,-320,-882,1,7,11
1.72313E+12,-7876,-1882,863,-750,-325,-884,1,7,11
1.72313E+12,-7859,-1841,872,-657,-301,-644,1,7,11
1.72313E+12,-7840,-1798,892,-865,-273,-662,1,7,11
1.72313E+12,-7826,-1508,654,-860,9,-692,1,7,11
1.72313E+12,-7809,-1490,686,-863,41,-691,1,7,11
1.72313E+12,-8042,-1447,703,-860,61,-676,1,7,11
1.72313E+12,-8024,-1410,704,-878,86,-871,1,7,11
1.72313E+12,-8031,-1630,704,-651,126,-778,1,7,11
1.72313E+12,-7810,-1628,720,-693,-89,-441,1,7,11
1.72313E+12,-7838,-1546,658,-661,-61,-578,1,7,11
1.72313E+12,-7848,-1237,808,-675,257,-179,1,7,11
1.72313E+12,-7861,-1216,454,-742,347,-340,1,7,11
1.72313E+12,-7865,-1215,543,-1072,169,-290,1,7,11
1.72313E+12,-7890,-1253,202,-922,538,-295,1,7,11
1.72313E+12,-7905,-1651,179,-982,550,-372,1,7,11
1.72313E+12,-7917,-1518,148,-899,528,-243,1,7,11
1.72313E+12,-8299,-1694,149,-664,548,-574,1,7,11
1.72313E+12,-8277,-1769,366,-226,512,-589,1,7,11
1.72313E+12,-8267,-2143,378,-18,522,-585,1,7,11
1.72313E+12,-8202,-1961,359,779,514,-521,1,7,11
1.72313E+12,-7865,-2147,331,1793,614,-312,1,7,11
1.72313E+12,-7845,-2099,130,1927,414,92,1,7,11
1.72313E+12,-7811,-1771,175,2292,466,-1,1,7,11
1.72313E+12,-7814,-1905,204,2878,807,210,1,7,11
1.72313E+12,-8053,-1497,185,3136,895,470,1,7,11
1.72313E+12,-8008,-1582,152,3020,754,731,1,7,11
1.72313E+12,-7981,-1393,349,3033,928,978,1,7,11
1.72313E+12,-7955,-958,341,3165,1385,1180,1,7,11
1.72313E+12,-7958,-1078,348,2933,1590,1575,1,7,11
1.72313E+12,-7966,-711,352,2651,1507,1658,1,7,11
1.72313E+12,-8005,-885,347,2340,1916,1419,1,7,11
1.72313E+12,-7831,-830,331,1768,1758,1640,1,7,11
1.72313E+12,-7921,-816,289,1474,2050,1584,1,7,11
1.72313E+12,-8230,-799,114,1231,1774,1269,1,7,11
1.72313E+12,-8315,-505,-278,1005,1746,1213,1,7,11
1.72313E+12,-8132,-497,-137,758,1673,1192,1,7,11
1.72313E+12,-8190,-503,-234,490,1804,1180,1,7,11
1.72313E+12,-8469,-802,-552,244,1414,1158,1,7,11
1.72313E+12,-8499,-804,-616,322,1256,1396,1,7,11
1.72313E+12,-8537,-811,-639,-47,1334,1300,1,7,11
1.72313E+12,-8568,-790,-394,-114,902,916,1,7,11
1.72313E+12,-8518,-497,-411,113,647,951,1,7,11
1.72313E+12,-8486,-468,-407,82,420,785,1,7,11
1.72313E+12,-8171,-462,-395,46,235,405,1,7,11
1.72313E+12,-8106,-490,-605,-265,293,545,1,7,11
1.72313E+12,-8303,-485,-550,-304,-52,161,1,7,11
1.72313E+12,-8266,-478,-250,-322,127,319,1,7,11
1.72313E+12,-8217,-472,-235,-379,80,-12,1,7,11
1.72313E+12,-8223,-474,-216,-204,63,-39,1,7,11
1.72313E+12,-8198,-493,-202,-545,33,-57,1,7,11
1.72313E+12,-7926,-506,-189,-615,23,-86,1,7,11
1.72313E+12,-7928,-776,-184,-412,16,-95,1,7,11
1.72313E+12,-7924,-790,-170,-463,16,-97,1,7,11
1.72313E+12,-7931,-818,-154,-505,16,-87,1,7,11
1.72313E+12,-8206,-844,-144,-772,9,-52,1,7,11
1.72313E+12,-8201,-843,-146,-494,-266,-21,1,7,11
1.72313E+12,-7931,-845,-138,-475,-268,-4,1,7,11
1.72313E+12,-8237,-866,-379,-495,8,271,1,7,11
1.72313E+12,-8209,-839,-129,-475,-291,297,1,7,11
1.72313E+12,-8221,-816,-383,-482,-280,271,1,7,11
1.72313E+12,-8264,-777,-139,-471,-288,266,1,7,11
1.72313E+12,-8275,-448,-154,-470,-309,-16,1,7,11
1.72313E+12,-8294,-630,-161,-511,-328,-58,1,7,11
1.72313E+12,-8308,-529,-155,-841,-351,-116,1,7,11
1.72313E+12,-8075,-162,-376,-711,-381,64,1,7,11
1.72313E+12,-8078,-334,-263,-908,-185,-294,1,7,11
1.72313E+12,-8092,21,88,-1391,-513,-155,1,7,11
1.72313E+12,-8124,89,-64,-1639,-591,-515,1,7,11
1.72313E+12,-8126,-97,257,-1889,-397,-578,1,7,11
1.72313E+12,-8304,-63,273,-2173,-454,-567,1,7,11
1.72313E+12,-8199,-88,-8,-2246,-471,-564,1,7,11
1.72313E+12,-8004,-293,127,-2997,-575,-594,1,7,11
1.72313E+12,-7968,-202,50,-3597,-177,-450,1,7,11
1.72313E+12,-7984,-430,-257,-3900,-196,-809,1,7,11
1.72313E+12,-8044,-693,-264,-3828,-85,-656,1,7,11
1.72313E+12,-7841,-946,-262,-3774,-18,-735,1,7,11
1.72313E+12,-7875,-1155,5,-3514,266,-1045,1,7,11
1.72313E+12,-7875,-1577,3,-3376,262,-1083,1,7,11
1.72313E+12,-7889,-1409,3,-2891,274,-1115,1,7,11
1.72313E+12,-7885,-1426,14,-2370,290,-1114,1,7,11
1.72313E+12,-7874,-1661,24,-1861,324,-1084,1,7,11
1.72313E+12,-7850,-1617,49,-1386,367,-762,1,7,11
1.72313E+12,-7821,-1570,74,-698,163,-679,1,7,11
1.72313E+12,-7823,-1244,86,-563,238,-846,1,7,11
1.72313E+12,-7822,-1393,81,32,555,-484,1,7,11
1.72313E+12,-8060,-1007,35,281,612,-639,1,7,11
1.72313E+12,-7810,-1148,-265,160,419,-549,1,7,11
1.72313E+12,-7837,-1062,-319,211,483,-226,1,7,11
1.72313E+12,-7897,-734,-367,206,796,-156,1,7,11
1.72313E+12,-7935,-674,-153,163,827,-348,1,7,11
1.72313E+12,-8228,-881,-189,352,839,-292,1,7,11
1.72313E+12,-8250,-858,-210,275,827,31,1,7,11
1.72313E+12,-8277,-839,-217,-59,806,84,1,7,11
1.72313E+12,-8298,-829,-217,-128,509,-125,1,7,11
1.72313E+12,-8273,-822,-239,77,441,-89,1,7,11
1.72313E+12,-8267,-826,-250,10,397,-88,1,7,11
1.72313E+12,-8278,-815,-545,-140,579,-108,1,7,11
1.72313E+12,-8296,-808,-551,-221,551,-126,1,7,11
1.72313E+12,-8272,-816,-584,-542,514,120,1,7,11
1.72313E+12,-8251,-821,-629,-605,244,94,1,7,11
1.72313E+12,-8250,-831,-398,-414,239,53,1,7,11
1.72313E+12,-8235,-853,-422,-467,215,-259,1,7,11
1.72313E+12,-8202,-868,-455,-503,184,-313,1,7,11
1.72313E+12,-7895,-895,-502,-793,157,-373,1,7,11
1.72313E+12,-7887,-681,-783,-846,144,-207,1,7,11
1.72313E+12,-7895,-691,-830,-643,355,-573,1,7,11
1.72313E+12,-7934,-656,-892,-716,275,-447,1,7,11
1.72313E+12,-8259,-874,-685,-1115,-103,-846,1,7,11
1.72313E+12,-8086,-820,-733,-1327,-304,-749,1,7,11
1.72313E+12,-8187,-458,-762,-1614,-582,-922,1,7,11
1.72313E+12,-8558,-388,-744,-1780,-716,-1372,1,7,11
1.72313E+12,-8377,-585,-694,-2279,-1222,-1570,1,7,11
1.72313E+12,-8407,-571,-878,-2799,-1762,-1483,1,7,11
1.72313E+12,-8365,-610,-797,-3285,-2268,-1833,1,7,11
1.72313E+12,-8542,-450,-425,-3730,-2933,-1880,1,7,11
1.72313E+12,-8164,-823,-574,-4088,-2981,-1891,1,7,11
1.72313E+12,-8309,-727,-184,-4622,-3403,-1888,1,7,11
1.72313E+12,-7934,-915,-291,-4533,-3456,-1863,1,7,11
1.72313E+12,-7809,-1380,97,-4569,-3406,-1839,1,7,11
1.72313E+12,-7957,-1538,-54,-4718,-2995,-1830,1,7,11
1.72313E+12,-7646,-1465,379,-4275,-2758,-1855,1,7,11
1.72313E+12,-7647,-1810,226,-4025,-2598,-1856,1,7,11
1.72313E+12,-7662,-1900,586,-3555,-2307,-1834,1,7,11
1.72313E+12,-7646,-1734,406,-3456,-1781,-1797,1,7,11
1.72313E+12,-7616,-1790,441,-3076,-1521,-1527,1,7,11
1.72313E+12,-7611,-1776,454,-2466,-1269,-1816,1,7,11
1.72313E+12,-7672,-1759,493,-2212,-1300,-1861,1,7,11
1.72313E+12,-7964,-2050,816,-2032,-897,-1863,1,7,11
1.72313E+12,-7960,-2125,865,-2149,-1073,-1856,1,7,11
1.72313E+12,-7964,-2154,869,-1746,-1028,-1837,1,7,11
1.72313E+12,-7666,-2048,664,-1679,-1038,-1796,1,7,11
1.72313E+12,-7606,-2403,681,-1517,-1046,-1823,1,7,11
1.72313E+12,-7579,-2225,691,-1568,-705,-1839,1,7,11
1.72313E+12,-7606,-2217,670,-1308,-793,-1800,1,7,11
1.72313E+12,-7657,-2251,676,-1097,-610,-1422,1,7,11
1.72313E+12,-7951,-2570,693,-838,-146,-1257,1,7,11
1.72313E+12,-7938,-2607,680,-517,47,-1330,1,7,11
1.72313E+12,-7662,-2609,887,64,271,-1137,1,7,11
1.72313E+12,-7651,-2593,856,353,522,-672,1,7,11
1.72313E+12,-7631,-2609,860,572,502,-462,1,7,11
1.72313E+12,-7621,-2632,852,485,690,-536,1,7,11
1.72313E+12,-7645,-2679,867,866,1078,-160,1,7,11
1.72313E+12,-7617,-2679,833,731,1106,-368,1,7,11
1.72313E+12,-7646,-2470,839,1077,905,-301,1,7,11
1.72313E+12,-7641,-2484,829,978,939,9,1,7,11
1.72313E+12,-7640,-2532,844,1169,1002,78,1,7,11
1.72313E+12,-7602,-2831,818,1454,1342,-33,1,7,11
1.72313E+12,-7769,-2864,500,1788,1222,148,1,7,11
1.72313E+12,-7407,-2867,402,2387,1419,601,1,7,11
1.72313E+12,-7330,-2849,572,2687,1688,824,1,7,11
1.72313E+12,-7302,-2542,513,2929,2010,1094,1,7,11
1.72313E+12,-7308,-2506,196,3121,2584,1387,1,7,11
1.72313E+12,-7361,-2476,158,3038,2891,1451,1,7,11
1.72313E+12,-7415,-2670,130,3221,3154,2145,1,7,11
1.72313E+12,-7735,-2621,380,3656,3436,2402,1,7,11
1.72313E+12,-7760,-2594,129,3569,3258,2578,1,7,11
1.72313E+12,-7789,-2247,343,3916,3274,2627,1,7,11
1.72313E+12,-7591,-2366,278,3953,3244,2573,1,7,11
1.72313E+12,-7652,-1927,-44,3926,3427,2183,1,7,11
1.72313E+12,-7978,-1736,104,3544,3332,2042,1,7,11
1.72313E+12,-8040,-1841,20,3600,2959,1942,1,7,11
1.72313E+12,-8013,-1451,-351,3329,3090,2076,1,7,11
1.72313E+12,-8047,-1573,-206,2765,2759,1721,1,7,11
1.72313E+12,-8056,-1223,-568,2683,2693,1897,1,7,11
1.72313E+12,-7821,-1163,-389,2342,2898,1837,1,7,11
1.72313E+12,-8041,-1153,-452,1782,2831,1798,1,7,11
1.72313E+12,-7978,-1404,-770,1533,2503,1502,1,7,11
1.72313E+12,-7639,-1159,-831,1558,2433,1436,1,7,11
1.72313E+12,-7620,-1403,-874,1380,2642,1596,1,7,11
1.72313E+12,-7622,-1371,-661,1006,2561,1246,1,7,11
1.72313E+12,-7610,-1284,-739,942,2212,1185,1,7,11
1.72313E+12,-7608,-928,-1075,1135,2402,1175,1,7,11
1.72313E+12,-7610,-1082,-912,1079,2349,1218,1,7,11
1.72313E+12,-7558,-727,-1024,762,2038,1563,1,7,11
1.72313E+12,-7728,-656,-1390,680,2016,1637,1,7,11
1.72313E+12,-7394,-858,-1238,847,2034,1414,1,7,11
1.72313E+12,-7354,-819,-1584,488,2327,1658,1,7,11
1.72313E+12,-7329,-791,-1409,397,2362,1626,1,7,11
1.72313E+12,-7303,-508,-1481,575,2383,1586,1,7,11
1.72313E+12,-7552,-469,-1819,515,2405,1277,1,7,11
1.72313E+12,-7309,-388,-1673,223,2414,1237,1,7,11
1.72313E+12,-7317,-526,-2071,202,2417,1225,1,7,11
1.72313E+12,-7356,-164,-2044,131,2425,1236,1,7,11
1.72313E+12,-7384,-319,-2203,291,2408,1262,1,7,11
1.72313E+12,-7422,-224,-2627,-96,2373,1279,1,7,11
1.72313E+12,-7703,76,-2488,45,2328,1537,1,7,11
1.72313E+12,-7771,111,-2831,-322,2038,1251,1,7,11
1.72313E+12,-7606,-111,-2918,-129,1955,1242,1,7,11
1.72313E+12,-7640,-68,-2745,-141,2088,1226,1,7,11
1.72313E+12,-7645,-48,-2806,-137,1699,1191,1,7,11
1.72313E+12,-7623,-27,-3099,-379,1813,1396,1,7,11
1.72313E+12,-7602,-3,-3123,-367,1632,1327,1,7,11
1.72313E+12,-7554,315,-3161,-332,1268,1012,1,7,11
1.72313E+12,-7746,331,-3139,-321,1179,949,1,7,11
1.72313E+12,-7419,312,-3126,-330,1355,1144,1,7,11
1.72313E+12,-7355,272,-3114,-332,1296,1074,1,7,11
1.72313E+12,-7298,256,-3127,-315,996,728,1,7,11
1.72313E+12,-7489,-22,-3139,-327,956,879,1,7,11
1.72313E+12,-7428,-39,-3147,-347,929,501,1,7,11
1.72313E+12,-7142,-69,-3162,-371,921,397,1,7,11
1.72313E+12,-7139,-80,-3163,-372,916,556,1,7,11
1.72313E+12,-7148,-81,-3167,-357,897,213,1,7,11
1.72313E+12,-7150,-69,-3172,-343,1120,150,1,7,11
1.72313E+12,-7113,-19,-2960,-333,1055,129,1,7,11
1.72313E+12,-7101,273,-2984,-134,748,134,1,7,11
1.72313E+12,-7090,297,-2994,-215,689,157,1,7,11
1.72313E+12,-7060,294,-2977,-563,871,179,1,7,11
1.72313E+12,-7274,264,-2954,-617,780,196,1,7,11
1.72313E+12,-7185,260,-2954,-611,407,222,1,7,11
1.72313E+12,-6814,-12,-3187,-616,551,225,1,7,11
1.72313E+12,-6942,-43,-3137,-622,200,186,1,7,11
1.72313E+12,-6568,-53,-2816,-598,132,136,1,7,11
1.72313E+12,-6715,-22,-2771,-537,354,361,1,7,11
1.72313E+12,-6713,311,-2800,-194,171,370,1,7,11
1.72313E+12,-6561,182,-3161,-362,595,233,1,7,11
1.72313E+12,-6631,553,-3030,-362,784,420,1,7,11
1.72313E+12,-6991,608,-3448,-186,755,844,1,7,11
1.72313E+12,-6847,396,-3275,-249,1034,1042,1,7,11
1.72313E+12,-6908,404,-3588,-567,1398,1049,1,7,11
1.72313E+12,-7234,415,-3671,-598,1181,736,1,7,11
1.72313E+12,-7052,456,-3510,-578,1171,648,1,7,11
1.72313E+12,-7118,495,-3572,-579,1376,807,1,7,11
1.72313E+12,-7165,773,-3859,-575,1022,457,1,7,11
1.72313E+12,-7430,799,-3870,-554,1135,634,1,7,11
1.72313E+12,-7160,820,-3875,-530,720,560,1,7,11
1.72313E+12,-7140,827,-3877,-244,827,233,1,7,11
1.72313E+12,-7113,823,-3874,-226,442,181,1,7,11
1.72313E+12,-7087,815,-3868,-220,594,142,1,7,11
1.72313E+12,-7051,797,-3584,-230,246,357,1,7,11
1.72313E+12,-7242,511,-3544,-241,167,303,1,7,11
1.72313E+12,-7187,480,-3508,-239,372,-19,1,7,11
1.72313E+12,-6873,448,-3481,-227,332,-77,1,7,11
1.72313E+12,-6821,417,-3460,-201,318,119,1,7,11
1.72313E+12,-6831,632,-3692,-172,350,61,1,7,11
1.72313E+12,-6844,400,-3694,-366,371,37,1,7,11
1.72313E+12,-6851,398,-3676,-338,133,32,1,7,11
1.72313E+12,-6865,412,-3647,-299,143,34,1,7,11
1.72313E+12,-6868,414,-3602,-257,133,29,1,7,11
1.72313E+12,-6845,433,-3595,70,358,17,1,7,11
1.72313E+12,-7039,453,-3610,120,328,-264,1,7,11
1.72313E+12,-6977,476,-3636,-125,333,-320,1,7,11
1.72313E+12,-6947,511,-3678,106,370,-129,1,7,11
1.72313E+12,-6933,795,-3466,37,158,-181,1,7,11
1.72313E+12,-6951,775,-3469,-323,201,-220,1,7,11
1.72313E+12,-6977,479,-3702,-166,229,-209,1,7,11
1.72313E+12,-6969,445,-3700,-217,209,-163,1,7,11
1.72313E+12,-6939,438,-3472,-227,190,-366,1,7,11
1.72313E+12,-6642,432,-3492,-256,181,-316,1,7,11
1.72313E+12,-6608,427,-3513,-559,186,-271,1,7,11
1.72313E+12,-6589,402,-3528,-593,203,20,1,7,11
1.72313E+12,-6585,403,-3550,-593,224,42,1,7,11
1.72313E+12,-6600,412,-3565,-565,244,67,1,7,11
1.72313E+12,-6633,437,-3576,-520,520,85,1,7,11
1.72313E+12,-6941,460,-3562,-210,532,101,1,7,11
1.72313E+12,-6989,478,-3534,-148,523,116,1,7,11
1.72313E+12,-7007,507,-3510,-313,240,124,1,7,11
1.72313E+12,-6986,801,-3491,17,201,122,1,7,11
1.72313E+12,-6933,835,-3497,52,163,97,1,7,11
1.72313E+12,-6600,851,-3515,36,148,56,1,7,11
1.72313E+12,-6782,852,-3557,-292,153,1,1,7,11
1.72313E+12,-6725,838,-3870,-153,178,-319,1,7,11
1.72313E+12,-6704,811,-3917,-546,217,-380,1,7,11
1.72313E+12,-6742,506,-3936,-414,522,-173,1,7,11
1.72313E+12,-6595,445,-3932,-477,555,-174,1,7,11
1.72313E+12,-6958,394,-3916,-436,545,-355,1,7,11
1.72313E+12,-7036,639,-3895,-558,244,12,1,7,11
1.72313E+12,-6785,416,-3899,-137,165,127,1,7,11
1.72313E+12,-6987,458,-3891,-272,340,-48,1,7,11
1.72313E+12,-6635,488,-3884,42,267,-26,1,7,11
1.72313E+12,-6768,775,-3933,49,-38,-50,1,7,11
1.72313E+12,-6664,812,-3741,1,-39,126,1,7,11
1.72313E+12,-6376,839,-3796,-330,263,30,1,7,11
1.72313E+12,-6671,839,-3819,-161,327,-292,1,7,11
1.72313E+12,-6784,797,-3786,-217,128,-311,1,7,11
1.72313E+12,-6651,483,-3734,-186,144,-268,1,7,11
1.72313E+12,-6963,459,-3938,-320,359,71,1,7,11
1.72313E+12,-6948,470,-3904,89,300,-111,1,7,11
1.72313E+12,-6638,498,-3875,-39,256,-84,1,7,11
1.72313E+12,-6562,812,-3891,304,-14,-92,1,7,11
1.72313E+12,-6735,878,-3930,320,266,-121,1,7,11
1.72313E+12,-6671,646,-3955,-4,325,88,1,7,11
1.72313E+12,-6399,857,-3954,-117,139,35,1,7,11
1.72313E+12,-6687,799,-3941,59,198,0,1,7,11
1.72313E+12,-6707,497,-3931,18,218,-258,1,7,11
1.72313E+12,-6713,479,-3934,3,215,15,1,7,11
1.72313E+12,-6695,482,-3944,-261,202,46,1,7,11
1.72313E+12,-6689,476,-3942,-298,203,76,1,7,11
1.72313E+12,-6701,474,-3929,-340,195,105,1,7,11
1.72313E+12,-6708,471,-3924,-129,173,125,1,7,11
1.72313E+12,-6710,469,-3950,-173,152,-128,1,7,11
1.72313E+12,-6707,507,-3963,-223,141,123,1,7,11
1.72313E+12,-6734,785,-3966,-549,148,107,1,7,11
1.72313E+12,-6744,804,-3738,-611,137,120,1,7,11
1.72313E+12,-6735,803,-3773,-408,379,-107,1,7,11
1.72313E+12,-6734,806,-3794,-455,382,-83,1,7,11
1.72313E+12,-6745,809,-3814,-503,375,-57,1,7,11
1.72313E+12,-6749,820,-3834,-505,359,-32,1,7,11
1.72313E+12,-6737,840,-4101,-487,339,264,1,7,11
1.72313E+12,-6717,850,-4104,-456,316,316,1,7,11
1.72313E+12,-6688,874,-4100,-405,291,369,1,7,11
1.72313E+12,-6390,655,-4109,-602,262,158,1,7,11
1.72313E+12,-6348,677,-4102,-575,-1,187,1,7,11
1.72313E+12,-6331,693,-3823,-550,270,200,1,7,11
1.72313E+12,-6338,721,-3793,-522,287,206,1,7,11
1.72313E+12,-6352,733,-3744,-240,302,208,1,7,11
1.72313E+12,-6358,762,-3721,-196,306,210,1,7,11
1.72313E+12,-6358,1052,-3966,-165,312,214,1,7,11
1.72313E+12,-6335,1073,-3964,-162,323,210,1,7,11
1.72313E+12,-6308,1086,-3744,-161,344,194,1,7,11
1.72313E+12,-6284,1075,-3783,-186,383,156,1,7,11
1.72313E+12,-6516,1066,-4107,-206,173,356,1,7,11
1.72313E+12,-6500,1071,-4189,-212,230,293,1,7,11
1.72313E+12,-6274,1076,-3986,-227,554,-21,1,7,11
1.72313E+12,-6343,1059,-3995,-234,608,-57,1,7,11
1.72313E+12,-6684,766,-3982,-197,619,-65,1,7,11
1.72313E+12,-6534,732,-4190,-352,607,-56,1,7,11
1.72313E+12,-6632,741,-4144,69,549,-16,1,7,11
1.72313E+12,-6628,1045,-4134,-11,183,295,1,7,11
1.72313E+12,-6784,1107,-4170,365,335,325,1,7,11
1.72313E+12,-6393,1151,-4215,142,282,302,1,7,11
1.72313E+12,-6292,925,-4010,358,292,-29,1,7,11
1.72313E+12,-6503,933,-4046,289,339,-118,1,7,11
1.72313E+12,-6281,924,-4032,-40,145,60,1,7,11
1.72313E+12,-6690,1123,-4215,-82,179,20,1,7,11
1.72313E+12,-6724,1109,-4175,-35,136,49,1,7,11
1.72313E+12,-6685,1128,-4154,278,326,75,1,7,11
1.72313E+12,-6359,918,-4160,301,276,71,1,7,11
1.72313E+12,-6282,962,-4180,-4,-7,56,1,7,11
1.72313E+12,-6482,979,-4207,-101,-6,47,1,7,11
1.72313E+12,-6424,961,-4214,26,263,45,1,7,11
1.72313E+12,-6122,909,-4205,-357,282,39,1,7,11
1.72313E+12,-6080,1088,-4215,-185,304,34,1,7,11
1.72313E+12,-6064,1050,-4213,-239,335,29,1,7,11
1.72313E+12,-6077,766,-4220,-532,363,35,1,7,11
1.72313E+12,-6127,753,-4210,-554,133,57,1,7,11
1.72313E+12,-6442,762,-4209,-570,161,123,1,7,11
1.72313E+12,-6488,765,-4208,-591,165,-76,1,7,11
1.72313E+12,-6519,1043,-4221,-631,159,-27,1,7,11
1.72313E+12,-6284,1059,-3994,-419,142,-4,1,7,11
1.72313E+12,-6284,1093,-4049,-466,374,262,1,7,11
1.72313E+12,-6300,1106,-4077,-800,358,-5,1,7,11
1.72313E+12,-6336,1117,-4096,-849,337,-1,1,7,11
1.72313E+12,-6369,1129,-4359,-851,312,291,1,7,11
1.72313E+12,-6375,1147,-4362,-803,281,340,1,7,11
1.72313E+12,-6354,921,-4378,-455,261,378,1,7,11
1.72313E+12,-6333,952,-4374,-611,258,128,1,7,11
1.72313E+12,-6309,983,-4368,-245,-5,364,1,7,11
1.72313E+12,-6288,1007,-4094,-129,-2,324,1,7,11
1.72313E+12,-6514,1292,-4353,-272,258,282,1,7,11
1.72313E+12,-6471,1318,-4356,68,261,-29,1,7,11
1.72313E+12,-6443,1336,-4088,109,269,-97,1,7,11
1.72313E+12,-6428,1355,-4080,123,264,103,1,7,11
1.72313E+12,-6407,1366,-4074,105,-11,62,1,7,11
1.72313E+12,-6422,1346,-4044,64,-23,38,1,7,11
1.72313E+12,-6443,1334,-3997,34,-53,34,1,7,11
1.72313E+12,-6487,1304,-4211,18,-98,43,1,7,11
1.72313E+12,-6488,1312,-4189,50,93,84,1,7,11
1.72313E+12,-6432,1345,-4217,64,37,-119,1,7,11
1.72313E+12,-6097,1358,-3990,15,28,-92,1,7,11
1.72313E+12,-6038,1369,-4031,-317,70,-107,1,7,11
1.72313E+12,-6024,1364,-4064,-149,-116,106,1,7,11
1.72313E+12,-6072,1350,-4077,-224,-30,55,1,7,11
1.72313E+12,-6439,1311,-4056,-523,295,33,1,7,11
1.72313E+12,-6304,1015,-4024,-240,307,53,1,7,11
1.72313E+12,-6382,999,-3998,-154,263,108,1,7,11
1.72313E+12,-6399,1009,-3977,-306,-67,-85,1,7,11
1.72313E+12,-6337,1295,-3989,21,114,-46,1,7,11
1.72313E+12,-6488,1330,-4036,36,64,-57,1,7,11
1.72313E+12,-6104,1357,-4047,-264,63,-118,1,7,11
1.72313E+12,-6089,1365,-4072,-338,103,54,1,7,11
1.72313E+12,-6075,1344,-4063,-162,-97,-266,1,7,11
1.72313E+12,-6122,1298,-4034,-238,-41,-307,1,7,11
1.72313E+12,-6513,1005,-4008,-249,-6,-308,1,7,11
1.72313E+12,-6342,995,-3980,-183,-2,-268,1,7,11
1.72313E+12,-6369,999,-4219,-339,-45,61,1,7,11
1.72313E+12,-6306,1285,-3980,65,97,-88,1,7,11
1.72313E+12,-6457,1332,-4018,110,59,-70,1,7,11
1.72313E+12,-6112,1364,-4036,77,71,-103,1,7,11
1.72313E+12,-6046,1370,-4028,-263,103,100,1,7,11
1.72313E+12,-6026,1341,-4023,-351,-103,40,1,7,11
1.72313E+12,-6082,1311,-4007,-143,-23,3,1,7,11
1.72313E+12,-6458,1023,-4211,-145,279,24,1,7,11
1.72313E+12,-6294,996,-4153,-348,265,106,1,7,11
1.72313E+12,-6305,1008,-4118,2,-50,-46,1,7,11
1.72313E+12,-6489,1297,-4138,77,-123,277,1,7,11
1.72313E+12,-6116,1348,-4192,81,84,269,1,7,11
1.72313E+12,-6031,1405,-3986,13,89,-48,1,7,11
1.72313E+12,-6258,1181,-4031,-351,-118,-120,1,7,11
1.72313E+12,-6038,1213,-4076,-196,-45,85,1,7,11
1.72313E+12,-6403,1220,-4362,-525,295,69,1,7,11
1.72313E+12,-6300,1193,-4078,-547,349,96,1,7,11
1.72313E+12,-6680,1161,-4037,-229,340,-96,1,7,11
1.72313E+12,-6697,1154,-4025,-346,272,-32,1,7,11
1.72313E+12,-6389,1161,-4024,50,-43,-19,1,7,11
1.72313E+12,-6323,1164,-4019,-103,-72,-57,1,7,11
1.72313E+12,-6512,1159,-3996,-39,-76,-120,1,7,11
1.72313E+12,-6443,1399,-3995,268,-68,79,1,7,11
1.72313E+12,-6095,1378,-4000,308,-36,37,1,7,11
1.72313E+12,-6272,1340,-4008,314,287,-260,1,7,11
1.72313E+12,-6220,1307,-4004,300,369,-279,1,7,11
1.72313E+12,-6185,1018,-3999,269,196,-275,1,7,11
1.72313E+12,-6181,1003,-4017,-39,527,-264,1,7,11
1.72313E+12,-6204,1285,-4052,-96,580,14,1,7,11
1.72313E+12,-6020,1336,-4071,65,633,34,1,7,11
1.72313E+12,-6101,1343,-4088,-310,388,74,1,7,11
1.72313E+12,-6436,1324,-4091,-173,613,107,1,7,11
1.72313E+12,-6516,1314,-4366,-517,540,116,1,7,11
1.72313E+12,-6519,1340,-4412,-551,170,109,1,7,11
1.72313E+12,-6509,1386,-4460,-574,317,103,1,7,11
1.72313E+12,-6493,1153,-4225,-625,-28,117,1,7,11
1.72313E+12,-6444,1160,-4244,-417,120,-104,1,7,11
1.72313E+12,-6132,1158,-4263,-447,73,-75,1,7,11
1.72313E+12,-6097,1404,-4273,-460,48,-58,1,7,11
1.72313E+12,-6095,1152,-4269,-436,41,-33,1,7,11
1.72313E+12,-6109,1165,-4265,-387,38,262,1,7,11
1.72313E+12,-6422,1161,-4467,-583,42,299,1,7,11
1.72313E+12,-6498,1159,-4388,-216,20,334,1,7,11
1.72313E+12,-6285,1168,-4054,-320,-286,367,1,7,11
1.72313E+12,-6525,1196,-3992,108,-353,140,1,7,11
1.72313E+12,-6439,1245,-3974,-10,-160,133,1,7,11
1.72313E+12,-6068,1549,-4224,297,-175,328,1,7,11
1.72313E+12,-6239,1570,-3971,265,-144,-35,1,7,11
1.72313E+12,-6177,1558,-3983,-63,-334,113,1,7,11
1.72313E+12,-6153,1278,-4003,123,27,44,1,7,11
1.72313E+12,-6179,1249,-4023,47,-115,12,1,7,11
1.72313E+12,-6219,1212,-4024,-280,-30,17,1,7,11
1.72313E+12,-6256,1177,-4021,-323,279,56,1,7,11
1.72313E+12,-6034,1160,-4037,-316,312,106,1,7,11
1.72313E+12,-6065,1184,-4078,-283,338,-82,1,7,11
1.72313E+12,-6105,1215,-4368,-260,360,-18,1,7,11
1.72313E+12,-6405,1240,-4378,8,377,293,1,7,11
1.72313E+12,-6438,1262,-4384,24,373,335,1,7,11
1.72313E+12,-6449,1538,-4383,54,348,342,1,7,11
1.72313E+12,-6457,1560,-4366,99,317,317,1,7,11
1.72313E+12,-6455,1592,-4359,-100,274,280,1,7,11
1.72313E+12,-6430,1634,-4364,-65,-17,-21,1,7,11
1.72313E+12,-6412,1658,-4357,-77,-30,-83,1,7,11
1.72313E+12,-6130,1661,-4082,-123,-38,116,1,7,11
1.72313E+12,-6108,1627,-4041,55,-44,51,1,7,11
1.72313E+12,-6082,1591,-4021,-266,-44,-268,1,7,11
1.72313E+12,-6052,1561,-4030,-312,-31,-328,1,7,11
1.72313E+12,-6039,1547,-4048,-370,257,-375,1,7,11
1.72313E+12,-6039,1267,-4059,-183,293,-135,1,7,11
1.72313E+12,-6048,1249,-4074,-235,326,-377,1,7,11
1.72313E+12,-6084,1236,-4083,-518,353,-342,1,7,11
1.72313E+12,-6403,1213,-4072,-523,360,-298,1,7,11
1.72313E+12,-6443,1204,-4064,-231,325,19,1,7,11
1.72313E+12,-6417,1207,-4355,-162,259,89,1,7,11
1.72313E+12,-6098,1245,-4396,-360,-37,-124,1,7,11
1.72313E+12,-6046,1270,-4436,-331,-43,-116,1,7,11
1.72313E+12,-6258,1275,-4454,-342,-37,123,1,7,11
1.72313E+12,-6266,1272,-4445,-367,-22,87,1,7,11
1.72313E+12,-6073,1268,-4415,-377,-9,22,1,7,11
1.72313E+12,-6422,1261,-4375,-364,-28,8,1,7,11
1.72313E+12,-6473,1547,-4357,-265,-80,39,1,7,11
1.72313E+12,-6474,1575,-4080,52,-122,90,1,7,11
1.72313E+12,-6434,1598,-4054,81,98,127,1,7,11
1.72313E+12,-6091,1616,-4039,81,71,-119,1,7,11
1.72313E+12,-6254,1626,-4050,33,73,115,1,7,11
1.72313E+12,-6185,1620,-4053,-305,115,80,1,7,11
1.72313E+12,-6148,1594,-4070,-154,-84,46,1,7,11
1.72313E+12,-5884,1556,-4083,-253,-17,13,1,7,11
1.72313E+12,-6169,1255,-4085,-578,295,0,1,7,11
1.72313E+12,-6215,1236,-4373,-583,336,10,1,7,11
1.72313E+12,-6040,1233,-4393,-561,378,43,1,7,11
1.72313E+12,-6133,1239,-4406,-248,132,95,1,7,11
1.72313E+12,-6462,1260,-4410,-163,369,-106,1,7,11
1.72313E+12,-6513,1555,-4392,-313,327,-59,1,7,11
1.72313E+12,-6495,1607,-4373,40,257,-28,1,7,11
1.72313E+12,-6443,1659,-4363,95,-61,-34,1,7,11
1.72313E+12,-6122,1448,-4096,95,-110,-74,1,7,11
1.72313E+12,-6048,1459,-4085,35,117,-127,1,7,11
1.72313E+12,-6230,1439,-4086,-312,114,76,1,7,11
1.72313E+12,-6177,1659,-4092,-151,-116,38,1,7,11
1.72313E+12,-6158,1604,-4084,-248,-70,15,1,7,11
1.72313E+12,-6174,1539,-4069,-587,-36,9,1,7,11
1.72313E+12,-6203,1245,-4073,-617,-14,18,1,7,11
1.72313E+12,-6235,1236,-4082,-603,262,47,1,7,11
1.72313E+12,-6026,1256,-4363,-554,283,90,1,7,11
1.72313E+12,-6079,1552,-4392,-230,304,-99,1,7,11
1.72313E+12,-6115,1601,-4408,-148,311,-23,1,7,11
1.72313E+12,-6419,1644,-4404,-335,307,287,1,7,11
1.72313E+12,-6454,1420,-4370,-275,259,318,1,7,11
1.72313E+12,-6431,1441,-4091,46,-86,308,1,7,11
1.72313E+12,-6108,1475,-4092,97,94,260,1,7,11
1.72313E+12,-6028,1526,-4375,104,59,-77,1,7,11
1.72313E+12,-6207,1806,-4406,43,71,87,1,7,11
1.72313E+12,-6167,1527,-4406,-330,124,-258,1,7,11
1.72313E+12,-6173,1409,-4384,-177,-64,-326,1,7,11
1.72313E+12,-6202,1600,-4368,-204,-13,-376,1,7,11
1.72313E+12,-6047,1573,-4357,-167,278,-146,1,7,11
1.72313E+12,-6111,1568,-4094,-359,288,-338,1,7,11
1.72313E+12,-6128,1566,-4085,-310,265,17,1,7,11
1.72313E+12,-6105,1571,-4072,-229,-66,117,1,7,11
1.72313E+12,-6066,1600,-4078,91,-100,-71,1,7,11
1.72313E+12,-6256,1653,-4362,-120,124,-39,1,7,11
1.72313E+12,-6196,1445,-4391,120,-128,-52,1,7,11
1.72313E+12,-6159,1484,-4409,58,-99,-103,1,7,11
1.72313E+12,-6174,1502,-4415,-289,-49,93,1,7,11
1.72313E+12,-6249,1474,-4386,-376,-12,57,1,7,11
1.72313E+12,-6061,1453,-4374,-138,-6,71,1,7,11
1.72313E+12,-6123,1441,-4095,-380,-13,96,1,7,11
1.72313E+12,-6478,1422,-4055,-344,-31,-124,1,7,11
1.72313E+12,-6509,1409,-4035,-271,-106,-57,1,7,11
1.72313E+12,-6447,1415,-4046,64,59,-5,1,7,11
1.72313E+12,-6089,1428,-4077,99,5,261,1,7,11
1.72313E+12,-6228,1439,-4360,90,-264,-36,1,7,11
1.72313E+12,-6154,1464,-4387,52,37,-115,1,7,11
1.72313E+12,-5859,1497,-4406,-265,113,70,1,7,11
1.72313E+12,-5865,1533,-4430,-341,-56,0,1,7,11
1.72313E+12,-6190,1531,-4429,-160,280,-312,1,7,11
1.72313E+12,-6040,1525,-4412,-198,324,-325,1,7,11
1.72313E+12,-6124,1510,-4387,-213,325,-288,1,7,11
1.72313E+12,-6133,1475,-4355,-212,276,17,1,7,11
1.72313E+12,-6076,1467,-4359,-182,-38,31,1,7,11
1.72313E+12,-6266,1471,-4374,-171,-71,-259,1,7,11
1.72313E+12,-6209,1474,-4394,-185,-84,-315,1,7,11
1.72313E+12,-6183,1479,-4422,-200,-72,-363,1,7,11
1.72313E+12,-6204,1479,-4414,-213,-40,-140,1,7,11
1.72313E+12,-6020,1449,-4355,-217,-16,-140,1,7,11
1.72313E+12,-6077,1411,-4032,-149,-24,-347,1,7,11
1.72313E+12,-6099,1661,-3981,-266,-35,-261,1,7,11
1.72313E+12,-6077,1641,-4204,-117,-51,97,1,7,11
1.72313E+12,-6241,1557,-4202,280,-80,-54,1,7,11
1.72313E+12,-5845,1210,-4221,194,-62,275,1,7,11
1.72313E+12,-5970,1160,-4008,625,294,288,1,7,11
1.72313E+12,-5908,1387,-4041,499,198,-12,1,7,11
1.72313E+12,-5903,1394,-4086,843,618,-86,1,7,11
1.72313E+12,-5925,1220,-4422,893,555,102,1,7,11
1.72313E+12,-5769,1575,-4231,827,674,26,1,7,11
1.72313E+12,-5879,1420,-4302,573,732,-258,1,7,11
1.72313E+12,-6217,1477,-4612,323,738,3,1,7,11
1.72313E+12,-6271,1517,-4649,48,712,22,1,7,11
1.72313E+12,-6059,1794,-4703,-222,646,39,1,7,11
1.72313E+12,-6077,1535,-4492,-470,803,52,1,7,11
1.72313E+12,-6092,1495,-4520,-676,449,68,1,7,11
1.72313E+12,-6090,1446,-4542,-1042,610,108,1,7,11
1.72313E+12,-6076,1659,-4545,-1063,528,-108,1,7,11
1.72313E+12,-6067,1619,-4537,-760,190,-74,1,7,11
1.72313E+12,-6031,1606,-4522,-661,356,-34,1,7,11
1.72313E+12,-6229,1608,-4506,-808,268,258,1,7,11
1.72313E+12,-6152,1618,-4487,-451,-63,279,1,7,11
1.72313E+12,-5819,1646,-4717,-610,-108,289,1,7,11
1.72313E+12,-5787,1661,-4660,-527,-118,299,1,7,11
1.72313E+12,-5791,1658,-4333,-185,-113,311,1,7,11
1.72313E+12,-5792,1412,-4280,-313,-109,316,1,7,11
1.72313E+12,-5811,1431,-4239,72,-92,304,1,7,11
1.72313E+12,-5840,1476,-4444,-60,-84,297,1,7,11
1.72313E+12,-5836,1502,-4429,295,-98,308,1,7,11
1.72313E+12,-5775,1529,-4458,367,-123,337,1,7,11
1.72313E+12,-5946,1832,-4254,374,-116,342,1,7,11
1.72313E+12,-5893,1863,-4301,312,-65,303,1,7,11
1.72313E+12,-5899,1882,-4346,-43,261,-10,1,7,11
1.72313E+12,-5952,1901,-4633,116,332,-63,1,7,11
1.72313E+12,-5818,1908,-4611,27,133,-114,1,7,11
1.72313E+12,-6226,1902,-4330,-269,378,122,1,7,11
1.72313E+12,-6054,1906,-4316,1,304,-101,1,7,11
1.72313E+12,-6037,1910,-4346,20,-41,-52,1,7,11
1.72313E+12,-6222,1914,-4626,10,-108,-46,1,7,11
1.72313E+12,-5822,1912,-4656,-285,110,-89,1,7,11
1.72313E+12,-5765,1882,-4667,-348,98,95,1,7,11
1.72313E+12,-6006,1852,-4647,-159,118,5,1,7,11
1.72313E+12,-6009,1812,-4618,-208,-122,-275,1,7,11
1.72313E+12,-6004,1507,-4337,-235,-127,-270,1,7,11
1.72313E+12,-5988,1494,-4338,-203,125,9,1,7,11
1.72313E+12,-5997,1500,-4335,-170,-108,35,1,7,11
1.72313E+12,-5770,1502,-4322,-142,-82,71,1,7,11
1.72313E+12,-5807,1514,-4305,-353,-56,111,1,7,11
1.72313E+12,-5838,1528,-4285,-295,-53,-103,1,7,11
1.72313E+12,-5822,1821,-4293,23,-77,-82,1,7,11
1.72313E+12,-5781,1862,-4319,45,-102,-91,1,7,11
1.72313E+12,-6002,1879,-4340,1,-126,121,1,7,11
1.72313E+12,-5985,1887,-4615,-329,111,66,1,7,11
1.72313E+12,-5991,1882,-4629,-162,98,28,1,7,11
1.72313E+12,-5790,1875,-4613,-241,102,9,1,7,11
1.72313E+12,-6168,1847,-4309,-533,100,31,1,7,11
1.72313E+12,-6250,1841,-4306,-232,52,108,1,7,11
1.72313E+12,-6264,1847,-4315,-156,-261,-78,1,7,11
1.72313E+12,-6239,1864,-4325,-361,-313,-53,1,7,11
1.72313E+12,-6159,1865,-4344,-334,-354,-64,1,7,11
1.72313E+12,-5813,1864,-4628,-333,-362,-121,1,7,11
1.72313E+12,-6000,1858,-4655,-344,-328,46,1,7,11
1.72313E+12,-6003,1835,-4647,-365,-262,-303,1,7,11
1.72313E+12,-5788,1818,-4625,-372,46,-357,1,7,11
1.72313E+12,-5866,1526,-4315,-356,75,-370,1,7,11
1.72313E+12,-6180,1508,-4277,-281,63,-337,1,7,11
1.72313E+12,-6210,1515,-4254,78,35,-287,1,7,11
1.72313E+12,-6191,1792,-4262,-87,0,19,1,7,11
1.72313E+12,-5875,1822,-4275,-50,-281,32,1,7,11
1.72313E+12,-5821,1839,-4303,-63,-289,0,1,7,11
1.72313E+12,-5808,1861,-4313,-99,-276,-317,1,7,11
1.72313E+12,-5846,1861,-4279,122,-262,-370,1,7,11
1.72313E+12,-6178,1852,-4231,108,-267,-136,1,7,11
1.72313E+12,-6236,1836,-4441,-126,-309,-367,1,7,11
1.72313E+12,-6214,1821,-4438,-71,-375,-321,1,7,11
1.72313E+12,-5888,1802,-4463,-30,-158,-304,1,7,11
1.72313E+12,-5813,1530,-4474,-19,-156,-325,1,7,11
1.72313E+12,-5764,1533,-4247,-25,-372,-366,1,7,11
1.72313E+12,-6014,1529,-4257,-66,-312,-148,1,7,11
1.72313E+12,-5810,1503,-4478,127,10,-172,1,7,11
1.72313E+12,-6164,1490,-4447,96,54,-171,1,7,11
1.72313E+12,-6263,1496,-4420,100,53,-140,1,7,11
1.72313E+12,-6067,1520,-4411,-127,-258,-335,1,7,11
1.72313E+12,-6040,1809,-4433,-106,-333,-263,1,7,11
1.72313E+12,-6194,1811,-4458,106,-176,65,1,7,11
1.72313E+12,-5858,1805,-4229,37,-177,28,1,7,11
1.72313E+12,-5833,1795,-4235,-279,-134,-297,1,7,11
1.72313E+12,-5886,1518,-4225,-332,-325,-129,1,7,11
1.72313E+12,-6258,1504,-4445,-346,-275,-184,1,7,11
1.72313E+12,-6133,1481,-4378,-316,-264,-184,1,7,11
1.72313E+12,-6467,1456,-4071,7,-314,-145,1,7,11
1.72313E+12,-6427,1444,-4064,102,-149,-360,1,7,11
1.72313E+12,-6077,1429,-4087,-86,-204,-373,1,7,11
1.72313E+12,-6237,1652,-4363,-58,-218,-178,1,7,11
1.72313E+12,-6182,1614,-4367,-48,-195,-254,1,7,11
1.72313E+12,-6145,1579,-4360,-33,-163,-565,1,7,11
1.72313E+12,-5862,1537,-4083,-29,-384,-598,1,7,11
1.72313E+12,-5878,1262,-4056,-24,-337,-619,1,7,11
1.72313E+12,-6212,1252,-4003,-20,-294,-621,1,7,11
1.72313E+12,-6034,1253,-4213,258,-294,-565,1,7,11
1.72313E+12,-6065,1265,-4195,291,-313,-221,1,7,11
1.72313E+12,-6067,1547,-4204,312,-318,-130,1,7,11
1.72313E+12,-6042,1585,-3983,313,-298,-291,1,7,11
1.72313E+12,-6256,1589,-4056,259,1,24,1,7,11
1.72313E+12,-6253,1586,-4393,-73,65,36,1,7,11
1.72313E+12,-6021,1591,-4232,104,116,11,1,7,11
1.72313E+12,-6094,1596,-4293,22,-93,-297,1,7,11
1.72313E+12,-6461,1581,-4301,-296,-81,-336,1,7,11
1.72313E+12,-6317,1541,-4274,-304,-115,-338,1,7,11
1.72313E+12,-6662,1259,-4228,17,68,-320,1,7,11
1.72313E+12,-6732,1249,-4414,126,-272,-308,1,7,11
1.72313E+12,-6725,1250,-4354,260,-377,-306,1,7,11
1.72313E+12,-6394,1229,-4016,369,-215,-353,1,7,11
1.72313E+12,-6287,1192,-4183,204,-537,-202,1,7,11
1.72313E+12,-6444,1386,-4104,528,-579,-627,1,7,11
1.72313E+12,-6142,1320,-3790,593,-597,-820,1,7,11
1.72313E+12,-6087,1019,-3822,422,-611,-700,1,7,11
1.72313E+12,-6044,985,-4137,465,-595,-1045,1,7,11
1.72313E+12,-6050,940,-4195,463,-540,-1075,1,7,11
1.72313E+12,-6065,1145,-3989,447,-231,-1025,1,7,11
1.72313E+12,-6052,1111,-4052,439,-179,-667,1,7,11
1.72313E+12,-6047,1086,-4086,430,-367,-811,1,7,11
1.72313E+12,-6092,1065,-4080,409,-291,-447,1,7,11
1.72313E+12,-6426,1054,-4039,385,16,-610,1,7,11
1.72313E+12,-6515,1069,-3991,636,30,-523,1,7,11
1.72313E+12,-6332,1090,-4199,618,12,-193,1,7,11
1.72313E+12,-6663,1106,-4147,610,-288,-144,1,7,11
1.72313E+12,-6695,1151,-4142,629,-361,-353,1,7,11
1.72313E+12,-6711,940,-4142,607,-158,-332,1,7,11
1.72313E+12,-6697,960,-4171,551,-205,-336,1,7,11
1.72313E+12,-6668,939,-4193,205,-237,-363,1,7,11
1.72313E+12,-6389,906,-3982,365,-251,-164,1,7,11
1.72313E+12,-6386,1098,-3981,268,-253,-517,1,7,11
1.72313E+12,-6392,1044,-3971,127,-533,-560,1,7,11
1.72313E+12,-6388,740,-4203,67,-547,-571,1,7,11
1.72313E+12,-6400,730,-4180,47,-542,-544,1,7,11
1.72313E+12,-6666,725,-4144,51,-534,-212,1,7,11
1.72313E+12,-6664,733,-4100,69,-532,-360,1,7,11
1.72313E+12,-6382,749,-3818,82,-521,22,1,7,11
1.72313E+12,-6348,760,-3792,77,-246,-119,1,7,11
1.72313E+12,-6322,1026,-3760,60,-226,-32,1,7,11
1.72313E+12,-6317,1036,-3748,47,-208,285,1,7,11
1.72313E+12,-6343,1052,-3731,36,-179,324,1,7,11
1.72313E+12,-6388,1061,-3951,22,-155,353,1,7,11
1.72313E+12,-6695,1051,-3915,27,-146,129,1,7,11
1.72313E+12,-6701,1045,-3906,69,-161,172,1,7,11
1.72313E+12,-6667,765,-3919,121,-166,196,1,7,11
1.72313E+12,-6368,753,-3954,-91,-140,187,1,7,11
1.72313E+12,-6294,752,-3751,-80,-352,154,1,7,11
1.72313E+12,-6511,763,-3802,-115,-272,344,1,7,11
1.72313E+12,-6523,1024,-3827,72,95,268,1,7,11
1.72313E+12,-6336,758,-3823,0,-58,-65,1,7,11
1.72313E+12,-6697,745,-3788,-286,-6,-120,1,7,11
1.72313E+12,-6550,745,-3736,-272,-2,93,1,7,11
1.72313E+12,-6918,767,-3914,40,-33,60,1,7,11
1.72313E+12,-6978,1103,-3914,124,-113,50,1,7,11
1.72313E+12,-6949,901,-3932,-71,43,52,1,7,11
1.72313E+12,-6572,923,-3966,-71,-279,22,1,7,11
1.72313E+12,-6758,903,-3724,125,-291,-284,1,7,11
1.72313E+12,-6701,1117,-3723,51,-266,-356,1,7,11
1.72313E+12,-6686,1052,-3958,-274,44,-133,1,7,11
1.72313E+12,-6711,726,-3918,-331,103,-141,1,7,11
1.72313E+12,-6747,697,-3880,-341,-119,-373,1,7,11
1.72313E+12,-6764,684,-3867,-314,-127,-338,1,7,11
1.72313E+12,-6774,699,-3855,-266,117,-303,1,7,11
1.72313E+12,-6750,730,-3870,15,104,-264,1,7,11
1.72313E+12,-6699,1025,-3902,20,106,21,1,7,11
1.72313E+12,-6392,1054,-3946,-271,-119,30,1,7,11
1.72313E+12,-6366,1051,-3959,-337,-70,22,1,7,11
1.72313E+12,-6385,761,-3959,-146,-30,5,1,7,11
1.72313E+12,-6665,730,-3962,-169,-17,7,1,7,11
1.72313E+12,-6690,711,-3720,-160,-17,18,1,7,11
1.72313E+12,-6723,708,-3715,-137,-14,41,1,7,11
1.72313E+12,-6757,694,-3959,-359,-24,75,1,7,11
1.72313E+12,-6763,695,-3961,-302,-44,119,1,7,11
1.72313E+12,-6739,705,-3720,10,-55,-119,1,7,11
1.72313E+12,-6725,718,-3731,49,-51,127,1,7,11
1.72313E+12,-6709,738,-3759,63,-37,104,1,7,11
1.72313E+12,-6702,754,-3777,41,-19,70,1,7,11
1.72313E+12,-6700,758,-3800,11,-2,42,1,7,11
1.72313E+12,-6704,750,-3803,-280,263,27,1,7,11
1.72313E+12,-6737,724,-3776,-321,268,13,1,7,11
1.72313E+12,-6544,687,-3725,-340,-2,11,1,7,11
1.72313E+12,-6621,653,-3945,-304,-46,36,1,7,11
1.72313E+12,-6633,664,-3949,35,-122,95,1,7,11
1.72313E+12,-6533,686,-3961,114,55,-111,1,7,11
1.72313E+12,-6703,711,-3717,-125,18,-105,1,7,11
1.72313E+12,-6396,728,-3728,90,24,116,1,7,11
1.72313E+12,-6393,738,-3739,19,70,42,1,7,11
1.72313E+12,-6689,739,-3731,-307,123,12,1,7,11
1.72313E+12,-6781,714,-3963,-360,-83,-260,1,7,11
1.72313E+12,-6621,700,-3925,-371,-96,21,1,7,11
1.72313E+12,-6654,710,-3902,-273,98,77,1,7,11
1.72313E+12,-6621,743,-3906,24,61,119,1,7,11
1.72313E+12,-6549,1030,-3906,90,4,-126,1,7,11
1.72313E+12,-6718,1060,-3931,109,-281,111,1,7,11
1.72313E+12,-6381,1069,-3947,82,5,67,1,7,11
1.72313E+12,-6342,1059,-3957,-308,64,5,1,7,11
1.72313E+12,-6346,1054,-3960,-152,118,-302,1,7,11
1.72313E+12,-6396,765,-3936,-241,-101,-340,1,7,11
1.72313E+12,-6732,727,-3925,-524,-90,-346,1,7,11
1.72313E+12,-6558,705,-3914,-521,-87,-307,1,7,11
1.72313E+12,-6624,699,-3890,-159,-96,24,1,7,11
1.72313E+12,-6625,710,-3902,-308,-127,101,1,7,11
1.72313E+12,-6571,749,-3929,36,103,-110,1,7,11
1.72313E+12,-6753,1035,-3952,72,96,-111,1,7,11
1.72313E+12,-6674,1051,-3965,53,108,103,1,7,11
1.72313E+12,-6368,1056,-3722,-258,-115,30,1,7,11
1.72313E+12,-6375,1053,-3721,-314,-62,-301,1,7,11
1.72313E+12,-6707,1026,-3951,-356,-12,-348,1,7,11
1.72313E+12,-6576,725,-3893,-362,265,-341,1,7,11
1.72313E+12,-6935,711,-3853,-295,-28,-281,1,7,11
1.72313E+12,-6960,714,-3855,56,-103,49,1,7,11
1.72313E+12,-6918,735,-3871,-121,65,103,1,7,11
1.72313E+12,-6572,759,-3908,-88,-257,119,1,7,11
1.72313E+12,-6732,1031,-3933,-113,-285,80,1,7,11
1.72313E+12,-6678,1039,-3956,89,-268,-258,1,7,11
1.72313E+12,-6699,1057,-3720,45,39,-344,1,7,11
1.72313E+12,-6568,1062,-3955,12,109,-148,1,7,11
1.72313E+12,-6963,1072,-3923,28,-122,-144,1,7,11
1.72313E+12,-7022,1073,-3885,72,105,-347,1,7,11
1.72313E+12,-6993,1073,-3869,125,62,-305,1,7,11
1.72313E+12,-6923,1052,-3852,-99,30,-301,1,7,11
1.72313E+12,-6553,1029,-3856,-87,12,-338,1,7,11
1.72313E+12,-6713,754,-3880,-120,40,-144,1,7,11
1.72313E+12,-6385,721,-3884,46,90,-202,1,7,11
1.72313E+12,-6343,655,-3886,-328,-109,-248,1,7,11
1.72313E+12,-6320,836,-3872,-169,-54,-249,1,7,11
1.72313E+12,-6309,502,-3867,-245,-4,-218,1,7,11
1.72313E+12,-6305,461,-3869,-544,283,-176,1,7,11
1.72313E+12,-6345,448,-3886,-579,311,-132,1,7,11
1.72313E+12,-6677,450,-3894,-609,333,-320,1,7,11
1.72313E+12,-6751,460,-3911,-621,328,34,1,7,11
1.72313E+12,-6540,478,-3928,-624,299,-122,1,7,11
1.72313E+12,-6594,479,-3932,-628,263,-44,1,7,11
1.72313E+12,-6617,501,-3945,-604,-51,271,1,7,11
1.72313E+12,-6627,787,-3721,-561,-96,310,1,7,11
1.72313E+12,-6644,824,-3744,-516,127,327,1,7,11
1.72313E+12,-6924,867,-3749,-202,96,332,1,7,11
1.72313E+12,-6913,655,-3760,-383,50,340,1,7,11
1.72313E+12,-6645,698,-3757,-314,19,334,1,7,11
1.72313E+12,-6631,741,-3754,-262,-263,332,1,7,11
1.72313E+12,-6619,1035,-3729,33,-281,334,1,7,11
1.72313E+12,-6617,1067,-3955,57,-294,346,1,7,11
1.72313E+12,-6622,1079,-3909,74,-306,379,1,7,11
1.72313E+12,-6627,1095,-3863,82,-320,150,1,7,11
1.72313E+12,-6636,1119,-3560,103,-368,184,1,7,11
1.72313E+12,-6642,1144,-3508,116,-151,227,1,7,11
1.72313E+12,-6619,913,-3483,127,-202,541,1,7,11
1.72313E+12,-6557,924,-3475,119,-254,586,1,7,11
1.72313E+12,-6745,921,-3485,83,-542,585,1,7,11
1.72313E+12,-6681,916,-3510,37,-538,535,1,7,11
1.72313E+12,-6398,932,-3528,-10,-235,192,1,7,11
1.72313E+12,-6712,950,-3517,-312,-144,351,1,7,11
1.72313E+12,-6572,947,-3472,-315,-312,292,1,7,11
1.72313E+12,-6957,940,-3685,-258,1,277,1,7,11
1.72313E+12,-6788,948,-3635,104,12,282,1,7,11
1.72313E+12,-6794,973,-3638,-33,-276,269,1,7,11
1.72313E+12,-6990,1005,-3669,287,-322,-51,1,7,11
1.72313E+12,-6648,1290,-3462,276,-332,102,1,7,11
1.72313E+12,-6584,1299,-3490,-65,-307,-277,1,7,11
1.72313E+12,-6549,1280,-3492,75,-265,-374,1,7,11
1.72313E+12,-6546,979,-3468,-276,42,-160,1,7,11
1.72313E+12,-6622,1057,-3597,7,94,-279,1,7,11
1.72313E+12,-6572,1057,-3619,89,79,43,1,7,11
1.72313E+12,-6766,1086,-3666,-127,101,73,1,7,11
1.72313E+12,-6725,1115,-3708,113,-106,76,1,7,11
1.72313E+12,-6713,1139,-3489,73,-46,56,1,7,11
1.72313E+12,-6765,1149,-3499,30,272,28,1,7,11
1.72313E+12,-6601,902,-3500,16,307,5,1,7,11
1.72313E+12,-6971,910,-3477,42,306,8,1,7,11
1.72313E+12,-6796,928,-3691,103,260,38,1,7,11
1.72313E+12,-6802,947,-3677,-86,-75,66,1,7,11
1.72313E+12,-7003,969,-3687,-44,106,61,1,7,11
1.72313E+12,-6654,979,-3459,-70,58,14,1,7,11
1.72313E+12,-6550,953,-3469,76,59,-340,1,7,11
1.72313E+12,-6733,1135,-3481,-358,-95,-531,1,7,11
1.72313E+12,-6773,1076,-3485,-196,262,-625,1,7,11
1.72313E+12,-6618,761,-3466,-241,345,-402,1,7,11
1.72313E+12,-7016,714,-3693,-212,130,-609,1,7,11
1.72313E+12,-6853,704,-3673,-360,356,-223,1,7,11
1.72313E+12,-6867,702,-3669,8,278,-324,1,7,11
1.72313E+12,-6785,724,-3691,102,-77,65,1,7,11
1.72313E+12,-6923,732,-3469,-128,115,127,1,7,11
1.72313E+12,-6562,728,-3498,109,95,116,1,7,11
1.72313E+12,-6776,731,-3519,64,118,48,1,7,11
1.72313E+12,-6536,740,-3522,21,-99,-277,1,7,11
1.72313E+12,-6584,753,-3505,-260,-68,-320,1,7,11
1.72313E+12,-6656,753,-3458,-272,-56,-330,1,7,11
1.72313E+12,-6968,757,-3678,7,-89,-312,1,7,11
1.72313E+12,-6966,1037,-3692,53,97,-277,1,7,11
1.72313E+12,-6913,1075,-3465,60,36,-257,1,7,11
1.72313E+12,-6603,1097,-3491,-259,12,-269,1,7,11
1.72313E+12,-6577,1082,-3498,-356,15,-288,1,7,11
1.72313E+12,-6565,1038,-3493,-183,31,-302,1,7,11
1.72313E+12,-6557,742,-3477,-218,56,-309,1,7,11
1.72313E+12,-6580,727,-3712,-218,101,-312,1,7,11
1.72313E+12,-6615,722,-3695,-189,-119,-307,1,7,11
1.72313E+12,-6929,722,-3676,-146,-89,-286,1,7,11
1.72313E+12,-6986,726,-3653,-343,-80,0,1,7,11
1.72313E+12,-7027,740,-3624,-272,-97,34,1,7,11
1.72313E+12,-7019,760,-3618,44,116,60,1,7,11
1.72313E+12,-6982,1027,-3614,71,74,62,1,7,11
1.72313E+12,-6916,1038,-3629,72,47,46,1,7,11
1.72313E+12,-6592,1044,-3650,30,51,6,1,7,11
1.72313E+12,-6531,1041,-3666,-302,87,-296,1,7,11
1.72313E+12,-6771,1026,-3681,-140,-116,-350,1,7,11
1.72313E+12,-6532,752,-3691,-237,-55,-370,1,7,11
1.72313E+12,-6590,727,-3706,-559,287,-377,1,7,11
1.72313E+12,-6961,711,-3692,-586,326,-362,1,7,11
1.72313E+12,-6809,705,-3679,-504,318,-283,1,7,11
1.72313E+12,-6853,712,-3669,-132,274,79,1,7,11
1.72313E+12,-6824,734,-3690,-263,-49,-98,1,7,11
1.72313E+12,-6987,1026,-3470,78,-110,-88,1,7,11
1.72313E+12,-6637,1058,-3490,87,125,95,1,7,11
1.72313E+12,-6603,1069,-3496,47,-106,-276,1,7,11
1.72313E+12,-6614,1085,-3508,9,-45,-377,1,7,11
1.72313E+12,-6928,1085,-3518,-280,292,-189,1,7,11
1.72313E+12,-6797,1071,-3486,-299,366,-222,1,7,11
1.72313E+12,-6906,1039,-3678,-282,360,-197,1,7,11
1.72313E+12,-7185,759,-3644,34,269,-154,1,7,11
1.72313E+12,-6858,748,-3646,92,-113,-137,1,7,11
1.72313E+12,-6999,750,-3677,98,38,-173,1,7,11
1.72313E+12,-6624,742,-3463,46,-265,-231,1,7,11
1.72313E+12,-6544,714,-3461,-293,13,-532,1,7,11
1.72313E+12,-6766,662,-3459,-354,71,-544,1,7,11
1.72313E+12,-6777,876,-3683,-369,-112,-516,1,7,11
1.72313E+12,-6577,830,-3628,-347,-53,-214,1,7,11
1.72313E+12,-6639,810,-3327,-274,-43,-150,1,7,11
1.72313E+12,-6923,831,-3321,84,-58,-315,1,7,11
1.72313E+12,-6646,870,-3592,-98,-79,25,1,7,11
1.72313E+12,-6582,661,-3632,-82,-102,68,1,7,11
1.72313E+12,-6765,696,-3678,125,-99,46,1,7,11
1.72313E+12,-6751,724,-3707,30,-55,-276,1,7,11
1.72313E+12,-6782,741,-3463,-324,-5,-342,1,7,11
1.72313E+12,-6606,755,-3700,-144,309,-375,1,7,11
1.72313E+12,-6980,735,-3647,-180,344,-366,1,7,11
1.72313E+12,-6807,709,-3618,-153,325,-319,1,7,11
1.72313E+12,-6787,707,-3631,-360,278,-280,1,7,11
1.72313E+12,-6963,691,-3665,-345,-13,-296,1,7,11
1.72313E+12,-6635,895,-3461,-353,-1,-370,1,7,11
1.72313E+12,-6600,873,-3500,-348,322,-187,1,7,11
1.72313E+12,-6578,825,-3526,-317,151,-233,1,7,11
1.72313E+12,-6588,498,-3522,-264,244,-516,1,7,11
1.72313E+12,-6602,395,-3518,87,576,-514,1,7,11
1.72313E+12,-6611,605,-3506,-46,638,-213,1,7,11
1.72313E+12,-6565,595,-3515,349,421,-133,1,7,11
1.72313E+12,-6757,600,-3549,208,439,-295,1,7,11
1.72313E+12,-6710,612,-3570,520,454,67,1,7,11
1.72313E+12,-6686,394,-3864,537,461,115,1,7,11
1.72313E+12,-6688,432,-3894,244,444,-118,1,7,11
1.72313E+12,-6712,474,-3915,148,384,-108,1,7,11
1.72313E+12,-6534,506,-3923,282,598,-103,1,7,11
1.72313E+12,-6612,791,-3931,98,528,-60,1,7,11
1.72313E+12,-6640,809,-3940,44,187,-9,1,7,11
1.72313E+12,-6932,799,-3921,-354,368,265,1,7,11
1.72313E+12,-6961,789,-3916,-272,291,259,1,7,11
1.72313E+12,-6965,805,-3932,-595,-32,258,1,7,11
1.72313E+12,-6957,819,-3966,-395,-73,266,1,7,11
1.72313E+12,-6955,818,-3729,-420,-80,286,1,7,11
1.72313E+12,-6944,815,-3735,-400,-82,323,1,7,11
1.72313E+12,-6928,816,-3737,-596,-82,358,1,7,11
1.72313E+12,-6919,823,-3748,-256,-90,383,1,7,11
1.72313E+12,-6641,843,-3751,-176,-118,131,1,7,11
1.72313E+12,-6635,857,-3742,-367,98,359,1,7,11
1.72313E+12,-6626,886,-3725,-297,43,323,1,7,11
1.72313E+12,-6615,669,-3965,16,-274,295,1,7,11
1.72313E+12,-6587,708,-3941,47,-332,280,1,7,11
1.72313E+12,-6563,725,-3905,52,-381,272,1,7,11
1.72313E+12,-6574,735,-3855,51,-161,266,1,7,11
1.72313E+12,-6606,758,-3540,58,-199,269,1,7,11
1.72313E+12,-6635,1028,-3476,70,-248,286,1,7,11
1.72313E+12,-6613,1054,-3459,98,-556,326,1,7,11
1.72313E+12,-6567,1072,-3466,109,-579,369,1,7,11
1.72313E+12,-6754,1082,-3491,82,-567,139,1,7,11
1.72313E+12,-6684,1078,-3510,19,-516,146,1,7,11
1.72313E+12,-6377,1063,-3535,-319,-170,148,1,7,11
1.72313E+12,-6385,1030,-3547,-141,-296,151,1,7,11
1.72313E+12,-6701,746,-3551,-172,92,179,1,7,11
1.72313E+12,-6566,666,-3495,-164,-53,232,1,7,11
1.72313E+12,-7001,647,-3467,22,-24,387,1,7,11
1.72313E+12,-6800,677,-3457,-51,-70,490,1,7,11
1.72313E+12,-7033,748,-3494,376,108,812,1,7,11
1.72313E+12,-6956,1082,-3530,215,49,798,1,7,11
1.72313E+12,-6630,1151,-3546,236,17,467,1,7,11
1.72313E+12,-6579,961,-3557,212,8,618,1,7,11
1.72313E+12,-6533,1004,-3562,156,17,512,1,7,11
1.72313E+12,-6774,1020,-3552,323,46,148,1,7,11
1.72313E+12,-6549,1017,-3516,-34,88,298,1,7,11
1.72313E+12,-6606,1003,-3486,-102,106,-42,1,7,11
1.72313E+12,-6915,988,-3464,112,94,-89,1,7,11
1.72313E+12,-6938,965,-3709,81,60,-103,1,7,11
1.72313E+12,-6655,943,-3458,49,15,-106,1,7,11
1.72313E+12,-6593,912,-3467,1,-273,119,1,7,11
1.72313E+12,-6552,908,-3482,-300,-268,55,1,7,11
1.72313E+12,-6542,914,-3483,-358,19,-269,1,7,11
1.72313E+12,-6583,917,-3464,-156,61,-326,1,7,11
1.72313E+12,-6653,907,-3679,-182,89,-340,1,7,11
1.72313E+12,-6974,896,-3645,-166,90,-308,1,7,11
1.72313E+12,-6998,1146,-3629,-381,63,6,1,7,11
1.72313E+12,-6966,1150,-3622,-335,37,65,1,7,11
1.72313E+12,-6643,1145,-3625,-321,32,91,1,7,11
1.72313E+12,-6566,1134,-3649,-340,53,67,1,7,11
1.72313E+12,-6758,1119,-3682,-377,101,11,1,7,11
1.72313E+12,-6741,1119,-3708,-168,-78,-314,1,7,11
1.72313E+12,-6757,1125,-3486,-217,-14,-372,1,7,11
1.72313E+12,-6621,1107,-3469,-517,298,-159,1,7,11
1.72313E+12,-7007,1082,-3700,-246,306,-383,1,7,11
1.72313E+12,-6820,1074,-3676,-155,-33,-292,1,7,11
1.72313E+12,-6815,1090,-3676,-299,117,54,1,7,11
1.72313E+12,-6994,1130,-3687,43,27,113,1,7,11
1.72313E+12,-6642,916,-3458,64,-275,114,1,7,11
1.72313E+12,-6570,940,-3466,21,-273,70,1,7,11
1.72313E+12,-6541,936,-3465,-313,17,2,1,7,11
1.72313E+12,-6567,919,-3694,-380,60,-310,1,7,11
1.72313E+12,-6609,1150,-3668,-149,88,-327,1,7,11
1.72313E+12,-6629,1143,-3659,-134,104,-301,1,7,11
1.72313E+12,-6621,1140,-3678,-371,-128,5,1,7,11
1.72313E+12,-6598,1134,-3693,-381,-97,52,1,7,11
1.72313E+12,-6592,1118,-3699,-154,-67,61,1,7,11
1.72313E+12,-6603,1090,-3683,-170,-45,36,1,7,11
1.72313E+12,-6623,1077,-3676,-141,-35,7,1,7,11
1.72313E+12,-6921,1091,-3682,-341,-29,-266,1,7,11
1.72313E+12,-6987,1119,-3672,-276,-29,-260,1,7,11
1.72313E+12,-6791,1142,-3649,38,-55,37,1,7,11
1.72313E+12,-6792,896,-3631,93,-118,84,1,7,11
1.72313E+12,-6991,1146,-3628,120,76,101,1,7,11
1.72313E+12,-6915,901,-3651,126,42,57,1,7,11
1.72313E+12,-6617,913,-3673,90,48,-276,1,7,11
1.72313E+12,-6609,907,-3688,39,81,-355,1,7,11
1.72313E+12,-6922,904,-3689,19,-116,-156,1,7,11
1.72313E+12,-7037,917,-3661,40,-67,-159,1,7,11
1.72313E+12,-6850,928,-3636,84,-79,-367,1,7,11
1.72313E+12,-6829,915,-3642,-122,-116,-306,1,7,11
1.72313E+12,-7010,908,-3669,-86,117,-274,1,7,11
1.72313E+12,-6922,1141,-3690,-92,115,-300,1,7,11
1.72313E+12,-6590,1093,-3699,109,127,-356,1,7,11
1.72313E+12,-6534,1024,-3690,39,-115,-151,1,7,11
1.72313E+12,-6769,701,-3674,-272,-97,-169,1,7,11
1.72313E+12,-6764,655,-3670,-292,-78,-142,1,7,11
1.72313E+12,-6765,889,-3671,-303,-60,-337,1,7,11
1.72313E+12,-6529,641,-3669,-313,-44,-275,1,7,11
1.72313E+12,-6581,652,-3661,-332,-32,52,1,7,11
1.72313E+12,-6650,684,-3668,-349,-30,127,1,7,11
1.72313E+12,-6980,738,-3638,-367,-45,-60,1,7,11
1.72313E+12,-7039,760,-3640,-372,-82,262,1,7,11
1.72313E+12,-6808,1059,-3652,-371,-126,327,1,7,11
1.72313E+12,-6799,1094,-3664,-383,95,361,1,7,11
1.72313E+12,-6788,1117,-3669,-147,66,350,1,7,11
1.72313E+12,-7022,1137,-3685,-168,33,313,1,7,11
1.72313E+12,-6986,1143,-3709,-178,0,265,1,7,11
1.72313E+12,-6950,1144,-3462,-186,-260,-55,1,7,11
1.72313E+12,-6942,1136,-3467,-182,8,-112,1,7,11
1.72313E+12,-6952,1136,-3471,-147,30,86,1,7,11
1.72313E+12,-6995,1138,-3706,-344,57,67,1,7,11
1.72313E+12,-6809,899,-3664,-257,78,68,1,7,11
1.72313E+12,-6869,937,-3605,119,36,95,1,7,11
1.72313E+12,-6890,959,-3293,-24,-305,-125,1,7,11
1.72313E+12,-6830,991,-3272,325,-162,-110,1,7,11
1.72313E+12,-6990,1011,-3256,334,-513,108,1,7,11
1.72313E+12,-6634,1007,-3244,239,-569,24,1,7,11
1.72313E+12,-6557,982,-3238,-79,-565,-315,1,7,11
1.72313E+12,-6778,944,-3221,44,-498,-363,1,7,11
1.72313E+12,-6533,904,-3213,-378,-141,-361,1,7,11
1.72313E+12,-6582,1111,-3443,-164,-290,-319,1,7,11
1.72313E+12,-6624,1076,-3441,-207,42,15,1,7,11
1.72313E+12,-6639,1074,-3209,-179,112,99,1,7,11
1.72313E+12,-6628,1074,-3262,-153,-71,-84,1,7,11
1.72313E+12,-6610,1087,-3322,-140,266,-35,1,7,11
1.72313E+12,-6629,1115,-3627,-143,356,-22,1,7,11
1.72313E+12,-6971,1137,-3618,-159,165,-36,1,7,11
1.72313E+12,-6816,1139,-3589,-142,157,-55,1,7,11
1.72313E+12,-6907,899,-3322,-316,356,-65,1,7,11
1.72313E+12,-7230,932,-3296,55,270,-51,1,7,11
1.72313E+12,-7224,981,-3292,-96,-97,-32,1,7,11
1.72313E+12,-6873,1015,-3305,-43,67,-42,1,7,11
1.72313E+12,-7015,1284,-3323,-54,39,-104,1,7,11
1.72313E+12,-6928,1022,-3323,-121,78,47,1,7,11
1.72313E+12,-6625,994,-3290,44,-105,-327,1,7,11
1.72313E+12,-6633,957,-3273,-295,-25,-174,1,7,11
1.72313E+12,-6946,913,-3229,-355,289,-238,1,7,11
1.72313E+12,-7006,1133,-3455,-372,306,-252,1,7,11
1.72313E+12,-7022,1121,-3206,-351,278,-213,1,7,11
1.72313E+12,-6966,1123,-3247,-352,-16,-157,1,7,11
1.72313E+12,-6934,1112,-3295,-139,-23,-132,1,7,11
1.72313E+12,-6653,1108,-3587,-198,-21,-374,1,7,11
1.72313E+12,-6936,1107,-3590,-517,259,-360,1,7,11
1.72313E+12,-7005,1104,-3312,-551,274,-334,1,7,11
1.72313E+12,-6835,1091,-3282,-526,260,-293,1,7,11
1.72313E+12,-6801,1105,-3293,-325,-117,88,1,7,11
1.72313E+12,-6989,1120,-3587,1,124,70,1,7,11
1.72313E+12,-6934,1126,-3627,29,-110,14,1,7,11
1.72313E+12,-6630,1144,-3695,39,-71,-315,1,7,11
1.72313E+12,-6931,1145,-3468,21,263,-150,1,7,11
1.72313E+12,-6800,1145,-3696,12,317,-199,1,7,11
1.72313E+12,-6908,1121,-3608,41,303,-193,1,7,11
1.72313E+12,-7233,1112,-3324,106,-18,-149,1,7,11
1.72313E+12,-7209,1115,-3292,-62,-117,-349,1,7,11
1.72313E+12,-6856,1132,-3290,-8,45,-311,1,7,11
1.72313E+12,-6984,1142,-3291,-15,-259,-321,1,7,11
1.72313E+12,-6636,1093,-3281,-81,12,-366,1,7,11
1.72313E+12,-6581,1028,-3268,89,48,-147,1,7,11
1.72313E+12,-6779,692,-3251,4,81,-168,1,7,11
1.72313E+12,-6776,640,-3251,-323,121,-171,1,7,11
1.72313E+12,-6545,872,-3255,-371,-94,-154,1,7,11
1.72313E+12,-6583,868,-3264,-152,-57,-325,1,7,11
1.72313E+12,-6642,887,-3273,-172,-23,22,1,7,11
1.72313E+12,-7001,657,-3253,-180,276,126,1,7,11
1.72313E+12,-6832,697,-3225,-163,266,-18,1,7,11
1.72313E+12,-6870,753,-3231,-132,-34,336,1,7,11
1.72313E+12,-6875,1068,-3235,-381,-81,135,1,7,11
1.72313E+12,-6858,1126,-3254,-160,-124,131,1,7,11
1.72313E+12,-6856,909,-3273,-225,92,333,1,7,11
1.72313E+12,-6841,937,-3286,-545,55,275,1,7,11
1.72313E+12,-6797,954,-3594,-594,22,-38,1,7,11
1.72313E+12,-7013,966,-3663,-635,25,-110,1,7,11
1.72313E+12,-7017,972,-3711,-420,68,60,1,7,11
1.72313E+12,-6797,984,-3486,-435,114,0,1,7,11
1.72313E+12,-6832,962,-3471,-428,-121,-277,1,7,11
1.72313E+12,-6857,911,-3705,-395,122,-292,1,7,11
1.72313E+12,-6907,1126,-3646,-564,72,-333,1,7,11
1.72313E+12,-7200,1137,-3596,-161,-287,-373,1,7,11
1.72313E+12,-7218,900,-3265,-266,-152,-149,1,7,11
1.72313E+12,-7181,908,-3208,119,-544,-154,1,7,11
1.72313E+12,-6825,907,-3429,-40,-393,-139,1,7,11
1.72313E+12,-6979,1137,-3407,-11,-427,-148,1,7,11
1.72313E+12,-6639,1103,-3389,-37,-417,-179,1,7,11
1.72313E+12,-6600,1069,-3357,-102,-624,-210,1,7,11
1.72313E+12,-6622,1047,-3059,79,-550,-208,1,7,11
1.72313E+12,-6947,758,-3008,18,-227,-150,1,7,11
1.72313E+12,-7007,731,-2967,10,-189,-284,1,7,11
1.72313E+12,-7005,717,-2983,44,-171,116,1,7,11
1.72313E+12,-6965,716,-3039,66,-131,-16,1,7,11
1.72313E+12,-6925,739,-3360,52,-316,302,1,7,11
1.72313E+12,-6916,1041,-3420,1,40,312,1,7,11
1.72313E+12,-6966,1090,-3413,-319,-108,294,1,7,11
1.72313E+12,-6900,1111,-3386,-343,-14,275,1,7,11
1.72313E+12,-7288,1129,-3356,-266,-24,307,1,7,11
1.72313E+12,-7111,1143,-3063,108,-92,359,1,7,11
1.72313E+12,-7094,927,-3069,-11,62,144,1,7,11
1.72313E+12,-7263,966,-3353,327,-285,382,1,7,11
1.72313E+12,-7172,1007,-3377,335,-330,287,1,7,11
1.72313E+12,-6832,1020,-3384,269,-337,-93,1,7,11
1.72313E+12,-7033,1006,-3374,-83,-302,44,1,7,11
1.72313E+12,-7024,980,-3355,85,17,-309,1,7,11
1.72313E+12,-6822,948,-3052,26,81,-358,1,7,11
1.72313E+12,-6909,908,-3000,5,104,-351,1,7,11
1.72313E+12,-7187,1116,-2988,27,77,-303,1,7,11
1.72313E+12,-6886,1082,-3002,67,40,-266,1,7,11
1.72313E+12,-6821,1070,-3045,93,34,-269,1,7,11
1.72313E+12,-7033,1076,-3070,89,62,-297,1,7,11
1.72313E+12,-7024,1082,-3366,65,110,-329,1,7,11
1.72313E+12,-6808,1090,-3374,48,-85,-351,1,7,11
1.72313E+12,-7174,1111,-3369,63,-39,-349,1,7,11
1.72313E+12,-7041,1132,-3363,111,-43,-311,1,7,11
1.72313E+12,-7083,1144,-3342,-78,-97,21,1,7,11
1.72313E+12,-7071,1145,-3344,-4,101,76,1,7,11
1.72313E+12,-7273,1149,-3367,315,61,95,1,7,11
1.72313E+12,-7220,1125,-3393,335,38,68,1,7,11
1.72313E+12,-6883,1089,-3420,308,13,16,1,7,11
1.72313E+12,-6804,1024,-3425,-22,-259,-322,1,7,11
1.72313E+12,-7031,686,-3392,-98,3,-146,1,7,11
1.72313E+12,-7035,885,-3342,119,14,-178,1,7,11
1.72313E+12,-6794,846,-3061,109,15,-157,1,7,11
1.72313E+12,-6803,822,-3037,121,18,-350,1,7,11
1.72313E+12,-6834,819,-3008,-121,31,-270,1,7,11
1.72313E+12,-6882,836,-2972,-115,28,68,1,7,11
1.72313E+12,-7195,860,-3172,125,6,-126,1,7,11
1.72313E+12,-7234,893,-3145,115,-298,-78,1,7,11
1.72313E+12,-7235,690,-3148,107,-336,-43,1,7,11
1.72313E+12,-7229,751,-3179,74,-340,-13,1,7,11
1.72313E+12,-7222,1027,-2946,5,-316,-9,1,7,11
1.72313E+12,-7226,1046,-2963,-277,-280,-13,1,7,11
1.72313E+12,-7225,1068,-2992,-281,11,-14,1,7,11
1.72313E+12,-7209,1086,-3017,-280,43,-10,1,7,11
1.72313E+12,-7206,1091,-3028,-274,88,-8,1,7,11
1.72313E+12,-7212,1102,-3052,3,-121,264,1,7,11
1.72313E+12,-7213,1118,-3060,21,-91,283,1,7,11
1.72313E+12,-7210,1130,-3054,38,-81,283,1,7,11
1.72313E+12,-7241,1123,-3000,52,-93,260,1,7,11
1.72313E+12,-7241,1126,-2969,108,105,-5,1,7,11
1.72313E+12,-7236,1126,-2948,-90,36,-23,1,7,11
1.72313E+12,-7210,1135,-2948,-40,-295,-42,1,7,11
1.72313E+12,-7170,1148,-3199,-38,-358,-67,1,7,11
1.72313E+12,-6881,1149,-3196,-79,-136,-96,1,7,11
1.72313E+12,-6864,1149,-3189,110,-138,-127,1,7,11
1.72313E+12,-6864,1139,-3177,46,-376,105,1,7,11
1.72313E+12,-6900,1121,-3154,-267,-346,99,1,7,11
1.72313E+12,-7224,1117,-3131,-275,-314,127,1,7,11
1.72313E+12,-7292,1134,-3106,7,-294,-77,1,7,11
1.72313E+12,-7076,1142,-3088,44,-294,-6,1,7,11
1.72313E+12,-7057,1142,-3092,84,-307,311,1,7,11
1.72313E+12,-7262,1131,-3088,101,-304,344,1,7,11
1.72313E+12,-7201,1124,-3119,111,-275,332,1,7,11
1.72313E+12,-6896,1132,-3139,95,34,274,1,7,11
1.72313E+12,-6887,898,-3164,62,110,-65,1,7,11
1.72313E+12,-7194,899,-3137,13,-68,102,1,7,11
1.72313E+12,-7279,1151,-3091,-261,-32,45,1,7,11
1.72313E+12,-7094,1151,-2806,24,-44,42,1,7,11
1.72313E+12,-7109,929,-2792,69,-95,62,1,7,11
1.72313E+12,-7098,943,-2801,87,100,77,1,7,11
1.72313E+12,-7289,956,-2814,81,41,88,1,7,11
1.72313E+12,-7218,956,-3098,32,3,86,1,7,11
1.72313E+12,-7173,946,-3099,-300,-260,53,1,7,11
1.72313E+12,-6892,921,-3085,-134,17,34,1,7,11
1.72313E+12,-6891,1138,-2813,-203,73,30,1,7,11
1.72313E+12,-6909,1098,-2798,-252,115,40,1,7,11
1.72313E+12,-7178,1083,-2807,-253,-126,50,1,7,11
1.72313E+12,-7189,1074,-3081,-233,-102,79,1,7,11
1.72313E+12,-7194,1085,-3109,-212,-79,87,1,7,11
1.72313E+12,-7201,1090,-3127,-195,-38,92,1,7,11
1.72313E+12,-7214,1102,-3151,-178,-6,107,1,7,11
1.72313E+12,-7234,1109,-3161,-151,266,113,1,7,11
1.72313E+12,-7256,1100,-3170,-380,-2,105,1,7,11
1.72313E+12,-7286,1098,-3172,-330,-22,83,1,7,11
1.72313E+12,-7094,1120,-3156,0,-47,64,1,7,11
1.72313E+12,-7167,901,-3117,76,-94,70,1,7,11
1.72313E+12,-7457,931,-2816,-116,85,99,1,7,11
1.72313E+12,-7168,958,-2791,-82,-266,-122,1,7,11
1.72313E+12,-7081,962,-2786,-97,-345,122,1,7,11
1.72313E+12,-7239,958,-2791,106,-370,63,1,7,11
1.72313E+12,-7174,955,-2797,27,-333,-267,1,7,11
1.72313E+12,-6889,936,-2791,-324,2,-322,1,7,11
1.72313E+12,-6903,901,-2765,-158,91,-348,1,7,11
1.72313E+12,-7198,1112,-2752,-210,-96,-342,1,7,11
1.72313E+12,-7216,1069,-2763,-208,-60,-309,1,7,11
1.72313E+12,-7194,1059,-2808,-173,-37,-267,1,7,11
1.72313E+12,-7172,1052,-3100,-162,260,9,1,7,11
1.72313E+12,-7186,1056,-3131,-155,305,8,1,7,11
1.72313E+12,-7233,1068,-3136,-130,329,13,1,7,11
1.72313E+12,-7069,1084,-3114,-334,315,19,1,7,11
1.72313E+12,-7438,1128,-2805,25,-2,55,1,7,11
1.72313E+12,-7494,960,-2781,-106,-119,-120,1,7,11
1.72313E+12,-7449,1282,-2780,-43,4,-39,1,7,11
1.72313E+12,-7085,1316,-2779,-50,-343,-21,1,7,11
1.72313E+12,-7250,1304,-2759,-124,-369,-75,1,7,11
1.72313E+12,-6902,1266,-2744,36,-355,86,1,7,11
1.72313E+12,-6834,975,-2736,-309,-291,-283,1,7,11
1.72313E+12,-6846,940,-2751,-378,62,-159,1,7,11
1.72313E+12,-7176,904,-2750,-189,-26,-226,1,7,11
1.72313E+12,-7285,1132,-2730,-186,297,-243,1,7,11
1.72313E+12,-7140,1106,-2719,-137,308,-193,1,7,11
1.72313E+12,-7427,1101,-2732,-311,258,-355,1,7,11
1.72313E+12,-7146,1104,-2759,16,-52,-278,1,7,11
1.72313E+12,-7096,1107,-2792,44,-102,11,1,7,11
1.72313E+12,-7279,1085,-2812,35,117,4,1,7,11
1.72313E+12,-7222,1052,-3085,12,113,-296,1,7,11
1.72313E+12,-7196,1053,-3099,1,-116,-352,1,7,11
1.72313E+12,-7198,1065,-3097,-268,-68,-138,1,7,11
1.72313E+12,-7260,1071,-2812,-297,-25,-156,1,7,11
1.72313E+12,-7061,1080,-2801,-301,-26,-383,1,7,11
1.72313E+12,-7093,1084,-2798,-295,-49,-331,1,7,11
1.72313E+12,-7102,1083,-2805,-290,-89,-287,1,7,11
1.72313E+12,-7056,1079,-3089,-294,-128,-259,1,7,11
1.72313E+12,-7263,1065,-3109,-319,120,-259,1,7,11
1.72313E+12,-7232,1046,-3120,-339,-117,-276,1,7,11
1.72313E+12,-7220,1047,-3120,-340,-90,-291,1,7,11
1.72313E+12,-7264,1033,-3084,-338,-59,-314,1,7,11
1.72313E+12,-7089,1030,-2772,-292,-57,-323,1,7,11
1.72313E+12,-7425,1065,-2732,68,-87,-306,1,7,11
1.72313E+12,-7463,1113,-2713,-82,120,-257,1,7,11
1.72313E+12,-7436,1150,-2704,-27,54,44,1,7,11
1.72313E+12,-7093,913,-2717,-39,0,47,1,7,11
1.72313E+12,-7259,908,-2738,-114,-268,8,1,7,11
1.72313E+12,-7187,1126,-2758,22,12,-307,1,7,11
1.72313E+12,-6865,1067,-2785,-366,57,-361,1,7,11
1.72313E+12,-6847,756,-2810,-222,-122,-152,1,7,11
1.72313E+12,-6873,719,-3085,-552,-42,-175,1,7,11
1.72313E+12,-7203,687,-3077,-586,288,-171,1,7,11
1.72313E+12,-7065,664,-2799,-546,331,-379,1,7,11
1.72313E+12,-7437,684,-2781,-169,330,-269,1,7,11
1.72313E+12,-7509,705,-2759,-278,275,123,1,7,11
1.72313E+12,-7500,750,-2759,126,-77,-26,1,7,11
1.72313E+12,-7432,1063,-2769,-37,82,-3,1,7,11
1.72313E+12,-7105,1107,-2776,-18,15,-57,1,7,11
1.72313E+12,-7282,1139,-2793,-61,-271,107,1,7,11
1.72313E+12,-7235,1151,-2787,100,5,9,1,7,11
1.72313E+12,-7247,1134,-2738,-264,52,-315,1,7,11
1.72313E+12,-7044,1080,-2920,-345,87,-330,1,7,11
1.72313E+12,-7071,1006,-2924,-360,82,-291,1,7,11
1.72313E+12,-7296,723,-2700,-348,72,9,1,7,11
1.72313E+12,-7240,719,-2752,-348,91,27,1,7,11
1.72313E+12,-7168,723,-2801,-374,-116,21,1,7,11
1.72313E+12,-6909,745,-3080,-169,-33,9,1,7,11
1.72313E+12,-7261,725,-2790,-234,316,-267,1,7,11
1.72313E+12,-7133,709,-2757,-244,361,29,1,7,11
1.72313E+12,-7472,730,-2736,-144,283,113,1,7,11
1.72313E+12,-7499,755,-2721,-264,-79,-63,1,7,11
1.72313E+12,-7466,1053,-2757,-89,62,-13,1,7,11
1.72313E+12,-7130,1083,-2778,-42,-277,-4,1,7,11
1.72313E+12,-7295,1095,-2786,-70,-306,-43,1,7,11
1.72313E+12,-7223,1099,-2794,-126,-286,-112,1,7,11
1.72313E+12,-7191,1101,-2785,69,42,84,1,7,11
1.72313E+12,-7206,1089,-2760,14,-126,42,1,7,11
1.72313E+12,-7289,1070,-2711,-268,-48,21,1,7,11
1.72313E+12,-7133,1066,-2920,13,-27,40,1,7,11
1.72313E+12,-7452,1070,-2889,56,-58,84,1,7,11
1.72313E+12,-7450,1080,-2881,87,-120,124,1,7,11
1.72313E+12,-7122,1085,-2889,96,85,-123,1,7,11
1.72313E+12,-7277,1094,-2943,68,90,92,1,7,11
1.72313E+12,-7222,1101,-2722,27,-109,48,1,7,11
1.72313E+12,-7218,1101,-2730,-291,-36,0,1,7,11
1.72313E+12,-7258,1074,-2704,-347,282,-294,1,7,11
1.72313E+12,-7054,1043,-2942,-366,299,-306,1,7,11
1.72313E+12,-7068,762,-2691,-355,270,-293,1,7,11
1.72313E+12,-7045,743,-2756,-355,-22,-283,1,7,11
1.72313E+12,-7259,724,-2810,-380,-53,-282,1,7,11
1.72313E+12,-7237,705,-3141,-166,-64,-298,1,7,11
1.72313E+12,-7246,701,-3186,-202,-52,-301,1,7,11
1.72313E+12,-7067,702,-3192,-213,-30,-287,1,7,11
1.72313E+12,-7147,726,-3154,-182,-9,6,1,7,11
1.72313E+12,-7478,1032,-3097,-340,-12,70,1,7,11
1.72313E+12,-7521,1083,-2765,54,-24,-84,1,7,11
1.72313E+12,-7490,1148,-2709,-54,-54,-51,1,7,11
1.72313E+12,-7158,966,-2929,312,-106,-86,1,7,11
1.72313E+12,-7064,1008,-2898,337,-124,69,1,7,11
1.72313E+12,-7245,1016,-2891,282,-110,-325,1,7,11
1.72313E+12,-7176,988,-2910,88,-73,-186,1,7,11
1.72313E+12,-6882,909,-2933,-332,-2,-524,1,7,11
1.72313E+12,-6887,1062,-2944,-214,331,-549,1,7,11
1.72313E+12,-6894,679,-2703,-563,133,-518,1,7,11
1.72313E+12,-6898,810,-2719,-600,177,-192,1,7,11
1.72313E+12,-6875,460,-2754,-570,204,-364,1,7,11
1.72313E+12,-6866,638,-2791,-248,224,-286,1,7,11
1.72313E+12,-6853,624,-3079,-152,227,45,1,7,11
1.72313E+12,-6856,389,-3109,-307,230,113,1,7,11
1.72313E+12,-6876,445,-3130,40,243,-73,1,7,11
1.72313E+12,-6911,786,-3142,108,519,270,1,7,11
1.72313E+12,-7241,872,-3117,-119,544,347,1,7,11
1.72313E+12,-7100,735,-2791,-122,532,176,1,7,11
1.72313E+12,-7447,1044,-2733,92,221,197,1,7,11
1.72313E+12,-7491,1116,-2691,72,160,215,1,7,11
1.72313E+12,-7497,935,-2692,55,374,207,1,7,11
1.72313E+12,-7479,1002,-2712,13,366,195,1,7,11
1.72313E+12,-7429,1305,-2753,-293,128,169,1,7,11
1.72313E+12,-7123,1309,-2791,-361,162,370,1,7,11
1.72313E+12,-7060,1300,-3098,-139,193,291,1,7,11
1.72313E+12,-7250,1017,-3158,-146,232,-74,1,7,11
1.72313E+12,-7201,986,-2973,-384,539,72,1,7,11
1.72313E+12,-7184,939,-3005,-347,611,-282,1,7,11
1.72313E+12,-7200,1137,-3000,-277,418,-343,1,7,11
1.72313E+12,-7198,1090,-2975,81,447,-368,1,7,11
1.72313E+12,-6905,1051,-2945,-77,450,-371,1,7,11
1.72313E+12,-6842,743,-3133,-32,449,-373,1,7,11
1.72313E+12,-6979,697,-3078,-29,441,-139,1,7,11
1.72313E+12,-6572,681,-3079,-70,472,-195,1,7,11
1.72313E+12,-6699,690,-3103,79,827,-527,1,7,11
1.72313E+12,-6340,722,-3159,-323,721,-563,1,7,11
1.72313E+12,-6512,722,-2980,-237,930,-532,1,7,11
1.72313E+12,-6286,724,-3052,-640,1196,-200,1,7,11
1.72313E+12,-6393,712,-3397,-464,1418,-313,1,7,11
1.72313E+12,-6553,716,-3243,-445,1807,-128,1,7,11
1.72313E+12,-6940,745,-3630,-610,1830,323,1,7,11
1.72313E+12,-6802,1049,-3496,-230,1504,223,1,7,11
1.72313E+12,-6854,1137,-3915,-343,1615,580,1,7,11
1.72313E+12,-6879,981,-4106,15,1180,605,1,7,11
1.72313E+12,-6877,1348,-4196,76,986,584,1,7,11
1.72313E+12,-6853,1153,-4003,-125,1043,558,1,7,11
1.72313E+12,-6858,1170,-4007,-88,885,539,1,7,11
1.72313E+12,-6867,1174,-4224,-15,484,544,1,7,11
1.72313E+12,-6852,1160,-4146,346,604,564,1,7,11
1.72313E+12,-6828,1388,-3781,219,214,572,1,7,11
1.72313E+12,-6821,1347,-3912,587,350,556,1,7,11
1.72313E+12,-6790,1312,-3527,450,-26,524,1,7,11
1.72313E+12,-6994,1281,-3657,810,120,221,1,7,11
1.72313E+12,-6943,1004,-3279,861,43,354,1,7,11
1.72313E+12,-6612,984,-3439,869,2,263,1,7,11
1.72313E+12,-6546,945,-3367,834,6,-95,1,7,11
1.72313E+12,-6751,920,-3332,785,-121,74,1,7,11
1.72313E+12,-6682,912,-3371,497,279,13,1,7,11
1.72313E+12,-6399,900,-3422,392,218,-305,1,7,11
1.72313E+12,-6702,1142,-3222,547,414,-367,1,7,11
1.72313E+12,-6774,1130,-3299,191,806,-141,1,7,11
1.72313E+12,-6582,1116,-3642,353,882,-144,1,7,11
1.72313E+12,-6642,1110,-3489,271,648,-153,1,7,11
1.72313E+12,-6942,1104,-3842,-67,870,-156,1,7,11
1.72313E+12,-6964,1075,-3923,101,791,-163,1,7,11
1.72313E+12,-6982,1035,-3718,37,443,-175,1,7,11
1.72313E+12,-7006,753,-3764,7,577,-181,1,7,11
1.72313E+12,-7014,726,-3767,-271,172,-172,1,7,11
1.72313E+12,-6984,708,-3767,-277,267,-151,1,7,11
1.72313E+12,-6943,693,-3750,-281,127,-382,1,7,11
1.72313E+12,-6637,697,-3730,-274,14,-345,1,7,11
1.72313E+12,-6584,706,-3715,-278,-324,-310,1,7,11
1.72313E+12,-6780,725,-3959,-294,-378,-279,1,7,11
1.72313E+12,-6732,752,-3939,-322,-138,-262,1,7,11
1.72313E+12,-6739,1036,-3924,-360,-382,30,1,7,11
1.72313E+12,-6721,1069,-3719,-380,-131,93,1,7,11
1.72313E+12,-6693,1071,-3727,-186,-359,92,1,7,11
1.72313E+12,-6706,1058,-3735,-230,-282,45,1,7,11
1.72313E+12,-6727,1052,-3723,-222,77,22,1,7,11
1.72313E+12,-6743,767,-3952,-192,-64,7,1,7,11
1.72313E+12,-6731,721,-3921,-166,286,-287,1,7,11
1.72313E+12,-6712,683,-3929,-142,349,-384,1,7,11
1.72313E+12,-6709,644,-3925,-379,383,-242,1,7,11
1.72313E+12,-6721,880,-3925,-349,144,-616,1,7,11
1.72313E+12,-6730,874,-3932,-331,142,-393,1,7,11
1.72313E+12,-6730,865,-3950,-323,378,-392,1,7,11
1.72313E+12,-6719,848,-3720,-326,359,-618,1,7,11
1.72313E+12,-6707,828,-3742,-324,353,-584,1,7,11
1.72313E+12,-6719,833,-3761,-309,349,-544,1,7,11
1.72313E+12,-6731,824,-3777,-318,342,-235,1,7,11
1.72313E+12,-6760,811,-3787,-324,333,-166,1,7,11
1.72313E+12,-6782,789,-3798,-307,315,-344,1,7,11
1.72313E+12,-6547,780,-3795,-276,292,-285,1,7,11
1.72313E+12,-6581,778,-3782,27,265,-260,1,7,11
1.72313E+12,-6630,798,-3752,83,-27,4,1,7,11
1.72313E+12,-6628,832,-3733,-109,-90,19,1,7,11
1.72313E+12,-6587,879,-3737,-64,111,19,1,7,11
1.72313E+12,-6767,658,-3758,-66,71,-260,1,7,11
1.72313E+12,-6690,687,-3800,-121,70,-311,1,7,11
1.72313E+12,-6666,701,-3824,32,113,-371,1,7,11
1.72313E+12,-6728,662,-3801,-349,-91,-171,1,7,11
1.72313E+12,-6595,858,-3958,-156,-80,-196,1,7,11
1.72313E+12,-6978,803,-3865,-140,124,-162,1,7,11
1.72313E+12,-7029,778,-3553,-307,8,-326,1,7,11
1.72313E+12,-6972,825,-3559,83,-382,41,1,7,11
1.72313E+12,-6530,861,-3581,-90,-202,121,1,7,11
1.72313E+12,-6646,874,-3871,-93,-211,-96,1,7,11
1.72313E+12,-6284,867,-3922,101,-141,-93,1,7,11
1.72313E+12,-6495,855,-3956,13,89,-120,1,7,11
1.72313E+12,-6514,840,-3730,-316,261,126,1,7,11
1.72313E+12,-6363,826,-3731,-139,150,-115,1,7,11
1.72313E+12,-6755,796,-3937,-164,220,-47,1,7,11
1.72313E+12,-6614,508,-3878,-156,182,303,1,7,11
1.72313E+12,-6927,502,-3849,-353,313,141,1,7,11
1.72313E+12,-6645,811,-3872,-267,-98,207,1,7,11
1.72313E+12,-6572,654,-3937,23,38,230,1,7,11
1.72313E+12,-6756,725,-3739,-276,-273,216,1,7,11
1.72313E+12,-6683,757,-3761,-352,-268,158,1,7,11
1.72313E+12,-6665,767,-3779,-185,48,366,1,7,11
1.72313E+12,-6744,755,-3752,-223,117,305,1,7,11
1.72313E+12,-6579,733,-3714,-209,-119,292,1,7,11
1.72313E+12,-6925,712,-3913,-149,120,299,1,7,11
1.72313E+12,-6985,686,-3863,-307,61,316,1,7,11
1.72313E+12,-6958,695,-3843,68,-288,320,1,7,11
1.72313E+12,-6620,741,-3842,-89,-363,296,1,7,11
1.72313E+12,-6757,1045,-3881,-64,-138,-10,1,7,11
1.72313E+12,-6675,1081,-3908,-111,-351,-87,1,7,11
1.72313E+12,-6395,1102,-3925,61,-259,104,1,7,11
1.72313E+12,-6659,1103,-3915,-292,101,62,1,7,11
1.72313E+12,-6741,1064,-3880,-384,-61,33,1,7,11
1.72313E+12,-6604,765,-3568,-176,-30,24,1,7,11
1.72313E+12,-6961,751,-3511,-161,-82,49,1,7,11
1.72313E+12,-7005,747,-3488,-367,64,99,1,7,11
1.72313E+12,-6944,1032,-3507,-306,-319,-107,1,7,11
1.72313E+12,-6585,1075,-3550,-294,-384,-91,1,7,11
1.72313E+12,-6746,1108,-3849,-340,-377,-112,1,7,11
1.72313E+12,-6693,1120,-3872,-166,-318,100,1,7,11
1.72313E+12,-6695,1098,-3860,-249,29,62,1,7,11
1.72313E+12,-6754,1072,-3853,-546,115,44,1,7,11
1.72313E+12,-6637,1053,-3547,-548,-75,35,1,7,11
1.72313E+12,-7030,1047,-3511,-228,-94,69,1,7,11
1.72313E+12,-6800,1075,-3513,-372,64,-117,1,7,11
1.72313E+12,-6989,1115,-3531,-287,-280,-74,1,7,11
1.72313E+12,-6639,1129,-3555,-264,-327,-72,1,7,11
1.72313E+12,-6733,1125,-3575,-283,-340,-97,1,7,11
1.72313E+12,-6660,1101,-3845,-343,-308,113,1,7,11
1.72313E+12,-6381,1080,-3849,-166,11,63,1,7,11
1.72313E+12,-6681,1060,-3579,-243,122,45,1,7,11
1.72313E+12,-6784,1027,-3543,-558,-90,55,1,7,11
1.72313E+12,-6651,744,-3499,-576,-97,96,1,7,11
1.72313E+12,-6995,744,-3462,-462,102,-84,1,7,11
1.72313E+12,-7007,1030,-3707,-333,15,256,1,7,11
1.72313E+12,-6935,1102,-3480,33,-318,317,1,7,11
1.72313E+12,-6580,912,-3520,65,-352,319,1,7,11
1.72313E+12,-6768,939,-3532,23,-346,261,1,7,11
1.72313E+12,-6745,947,-3534,-291,-310,-68,1,7,11
1.72313E+12,-6764,958,-3521,-334,-261,119,1,7,11
1.72313E+12,-6575,951,-3514,-364,54,69,1,7,11
1.72313E+12,-6921,954,-3491,-363,92,49,1,7,11
1.72313E+12,-7002,935,-3462,-347,95,45,1,7,11
1.72313E+12,-7039,900,-3689,-294,58,50,1,7,11
1.72313E+12,-7015,1146,-3691,58,10,46,1,7,11
1.72313E+12,-6961,1145,-3706,-106,-275,30,1,7,11
1.72313E+12,-6653,1142,-3463,-39,-273,3,1,7,11
1.72313E+12,-6623,1130,-3464,-7,14,-276,1,7,11
1.72313E+12,-6595,1099,-3466,-4,48,-274,1,7,11
1.72313E+12,-6539,1061,-3462,-18,71,-266,1,7,11
1.72313E+12,-6745,1025,-3459,-46,101,-263,1,7,11
1.72313E+12,-6720,736,-3696,-58,-118,2,1,7,11
1.72313E+12,-6726,731,-3678,-69,-78,19,1,7,11
1.72313E+12,-6753,726,-3649,-89,-48,39,1,7,11
1.72313E+12,-6781,757,-3658,-107,-41,55,1,7,11
1.72313E+12,-6605,1046,-3660,83,-35,87,1,7,11
1.72313E+12,-6945,1065,-3639,13,-46,120,1,7,11
1.72313E+12,-7002,1113,-3640,-298,-81,-84,1,7,11
1.72313E+12,-6787,1142,-3626,-375,-114,-44,1,7,11
1.72313E+12,-7025,902,-3636,-193,92,-7,1,7,11
1.72313E+12,-6964,897,-3691,-525,68,-1,1,7,11
1.72313E+12,-6650,1149,-3507,-610,94,-43,1,7,11
1.72313E+12,-6941,1103,-3520,-460,-101,-117,1,7,11
1.72313E+12,-7021,1051,-3505,-490,-73,103,1,7,11
1.72313E+12,-6789,1034,-3497,-404,-81,-122,1,7,11
1.72313E+12,-7039,1049,-3501,-533,-106,-71,1,7,11
1.72313E+12,-7026,1085,-3500,-142,126,-28,1,7,11
1.72313E+12,-7005,1122,-3472,-279,95,263,1,7,11
1.72313E+12,-6977,910,-3463,75,59,275,1,7,11
1.72313E+12,-6947,954,-3692,-113,22,256,1,7,11
1.72313E+12,-6643,999,-3669,-71,-272,-33,1,7,11
1.72313E+12,-6590,1283,-3655,-76,-305,-78,1,7,11
1.72313E+12,-6552,1289,-3626,-119,-325,123,1,7,11
1.72313E+12,-6784,1284,-3592,82,-345,80,1,7,11
1.72313E+12,-6758,1021,-3326,37,-351,57,1,7,11
1.72313E+12,-6752,1010,-3313,-258,-329,64,1,7,11
1.72313E+12,-6756,1003,-3311,-287,-290,98,1,7,11
1.72313E+12,-6751,999,-3318,-314,10,-107,1,7,11
1.72313E+12,-6764,974,-3321,-346,61,-68,1,7,11
1.72313E+12,-6536,962,-3595,-346,115,-41,1,7,11
1.72313E+12,-6591,972,-3615,-320,-78,-22,1,7,11
1.72313E+12,-6914,994,-3653,-293,-32,257,1,7,11
1.72313E+12,-6972,1014,-3683,-275,-4,280,1,7,11
1.72313E+12,-7025,1017,-3697,-258,266,292,1,7,11
1.72313E+12,-6806,1011,-3694,29,-8,284,1,7,11
1.72313E+12,-6811,1004,-3684,72,-54,-5,1,7,11
1.72313E+12,-6805,994,-3665,121,-104,-57,1,7,11
1.72313E+12,-6794,990,-3647,-73,112,-116,1,7,11
1.72313E+12,-7008,995,-3652,-12,84,80,1,7,11
1.72313E+12,-6974,987,-3646,257,92,6,1,7,11
1.72313E+12,-6970,991,-3632,-8,107,-307,1,7,11
1.72313E+12,-6961,990,-3624,-47,115,-342,1,7,11
1.72313E+12,-6954,962,-3611,-112,105,-358,1,7,11
1.72313E+12,-6919,929,-3614,86,74,-353,1,7,11
1.72313E+12,-6646,1120,-3605,25,55,-355,1,7,11
1.72313E+12,-6639,1110,-3605,4,34,-345,1,7,11
1.72313E+12,-6926,1113,-3593,-259,35,-327,1,7,11
1.72313E+12,-7030,1120,-3301,9,29,-284,1,7,11
1.72313E+12,-6839,1131,-3271,41,9,40,1,7,11
1.72313E+12,-6805,1150,-3273,105,-311,-100,1,7,11
1.72313E+12,-6978,921,-3301,-98,-144,-94,1,7,11
1.72313E+12,-6915,957,-3327,-98,-151,114,1,7,11
1.72313E+12,-6629,981,-3610,115,-372,56,1,7,11
1.72313E+12,-6628,991,-3636,61,-310,6,1,7,11
1.72313E+12,-6942,977,-3618,-260,30,-288,1,7,11
1.72313E+12,-6802,933,-3290,-301,77,-311,1,7,11
1.72313E+12,-6883,897,-3213,-272,44,-291,1,7,11
1.72313E+12,-6873,1140,-3422,55,-285,8,1,7,11
1.72313E+12,-6802,896,-3422,123,-346,38,1,7,11
1.72313E+12,-6970,924,-3454,-98,-365,44,1,7,11
1.72313E+12,-6628,961,-3249,-119,-322,29,1,7,11
1.72313E+12,-6605,976,-3286,59,19,-260,1,7,11
1.72313E+12,-6635,956,-3297,-264,106,-284,1,7,11
1.72313E+12,-6966,940,-3299,-279,-85,-290,1,7,11
1.72313E+12,-6828,927,-3261,-259,-51,-274,1,7,11
1.72313E+12,-7176,927,-3225,64,-91,23,1,7,11
1.72313E+12,-7169,943,-3453,-119,82,78,1,7,11
1.72313E+12,-6827,953,-3210,-76,2,117,1,7,11
1.72313E+12,-6981,962,-3247,-77,-307,100,1,7,11
1.72313E+12,-6925,943,-3264,115,-294,45,1,7,11
1.72313E+12,-6652,906,-3256,-285,6,1,1,7,11
1.72313E+12,-6917,1118,-3237,-357,52,-275,1,7,11
1.72313E+12,-6937,1075,-3221,-377,87,-276,1,7,11
1.72313E+12,-6986,1062,-3221,-361,125,-267,1,7,11
1.72313E+12,-7040,1068,-3227,-331,-103,20,1,7,11
1.72313E+12,-6824,1088,-3239,-291,-91,61,1,7,11
1.72313E+12,-6848,1110,-3237,-258,-86,97,1,7,11
1.72313E+12,-6846,1138,-3248,41,-102,118,1,7,11
1.72313E+12,-6843,901,-3244,73,-122,106,1,7,11
1.72313E+12,-6846,908,-3233,100,109,75,1,7,11
1.72313E+12,-6842,909,-3219,-127,82,41,1,7,11
1.72313E+12,-6824,915,-3215,-97,56,11,1,7,11
1.72313E+12,-6809,921,-3455,-97,41,-276,1,7,11
1.72313E+12,-6805,923,-3444,122,31,-304,1,7,11
1.72313E+12,-6788,919,-3448,71,18,-323,1,7,11
1.72313E+12,-7034,903,-3443,5,19,-329,1,7,11
1.72313E+12,-7014,1135,-3443,-311,18,-318,1,7,11
1.72313E+12,-6996,1102,-3433,-353,38,-304,1,7,11
1.72313E+12,-6986,1061,-3421,-376,67,-289,1,7,11
1.72313E+12,-6981,1044,-3424,-364,96,-274,1,7,11
1.72313E+12,-6981,1019,-3424,-333,-124,-270,1,7,11
1.72313E+12,-6999,777,-3450,-280,-94,-277,1,7,11
1.72313E+12,-7030,1049,-3215,39,-67,-283,1,7,11
1.72313E+12,-6837,1072,-3232,83,-47,-274,1,7,11
1.72313E+12,-6889,1093,-3217,112,-47,-248,1,7,11
1.72313E+12,-7212,1104,-3433,-124,-80,41,1,7,11
1.72313E+12,-7227,1121,-3398,-86,105,76,1,7,11
1.72313E+12,-7205,1139,-3380,-62,29,98,1,7,11
1.72313E+12,-6884,1139,-3383,-58,-287,102,1,7,11
1.72313E+12,-6805,1129,-3394,-80,-314,74,1,7,11
1.72313E+12,-6983,1112,-3408,-124,-291,24,1,7,11
1.72313E+12,-6942,1104,-3438,75,37,-291,1,7,11
1.72313E+12,-6980,1085,-3451,5,-126,-344,1,7,11
1.72313E+12,-6813,1070,-3433,-306,-62,-349,1,7,11
1.72313E+12,-6903,1054,-3400,-332,-49,-304,1,7,11
1.72313E+12,-7198,1036,-3364,-321,-93,27,1,7,11
1.72313E+12,-7169,1039,-3355,-280,90,98,1,7,11
1.72313E+12,-6848,1062,-3373,5,38,-124,1,7,11
1.72313E+12,-6791,1089,-3388,9,33,-123,1,7,11
1.72313E+12,-7015,1112,-3413,-266,61,115,1,7,11
1.72313E+12,-6999,1116,-3414,-292,114,87,1,7,11
1.72313E+12,-7030,1096,-3391,-310,-85,56,1,7,11
1.72313E+12,-6811,1082,-3370,-287,-58,44,1,7,11
1.72313E+12,-6814,1081,-3372,8,-59,43,1,7,11
1.72313E+12,-6804,1091,-3392,26,-57,26,1,7,11
1.72313E+12,-6814,1092,-3403,-261,-50,-261,1,7,11
1.72313E+12,-6858,1083,-3400,-295,-72,-304,1,7,11
1.72313E+12,-6894,1063,-3396,-332,-104,-320,1,7,11
1.72313E+12,-7196,1059,-3384,-350,116,-311,1,7,11
1.72313E+12,-7209,1061,-3365,-349,74,-276,1,7,11
1.72313E+12,-6888,1042,-3343,-298,16,69,1,7,11
1.72313E+12,-6827,1039,-3360,-268,20,90,1,7,11
1.72313E+12,-6785,1038,-3395,-265,48,87,1,7,11
1.72313E+12,-7018,1033,-3420,-283,89,61,1,7,11
1.72313E+12,-7033,767,-3439,-316,-121,26,1,7,11
1.72313E+12,-6820,766,-3205,-328,-89,-258,1,7,11
1.72313E+12,-7176,1024,-3210,-328,-68,-266,1,7,11
1.72313E+12,-7269,1037,-3439,-287,-89,19,1,7,11
1.72313E+12,-7072,1040,-3388,20,89,69,1,7,11
1.72313E+12,-7066,1052,-3347,92,-284,107,1,7,11
1.72313E+12,-7271,1079,-3070,-98,-150,101,1,7,11
1.72313E+12,-7211,1096,-3057,-68,-235,68,1,7,11
1.72313E+12,-6883,1114,-3347,-63,-538,36,1,7,11
1.72313E+12,-6832,1121,-3376,-102,-529,-257,1,7,11
1.72313E+12,-6834,1094,-3378,83,-232,-298,1,7,11
1.72313E+12,-6885,1050,-3359,17,-201,-330,1,7,11
1.72313E+12,-7222,737,-3053,-269,-202,-346,1,7,11
1.72313E+12,-7261,688,-3020,23,-243,-348,1,7,11
1.72313E+12,-7279,663,-3026,104,-548,-352,1,7,11
1.72313E+12,-7260,665,-3064,-69,-587,-353,1,7,11
1.72313E+12,-7235,697,-3373,-17,-604,-367,1,7,11
1.72313E+12,-7234,733,-3410,260,-606,-131,1,7,11
1.72313E+12,-7287,758,-3406,256,-586,-143,1,7,11
1.72313E+12,-7155,1030,-3340,260,-586,-135,1,7,11
1.72313E+12,-7498,1039,-2998,308,-411,-345,1,7,11
1.72313E+12,-7511,1040,-3183,373,-791,-315,1,7,11
1.72313E+12,-7473,1035,-3135,189,-655,-321,1,7,11
1.72313E+12,-7153,1030,-3107,247,-749,-346,1,7,11
1.72313E+12,-7079,759,-3123,533,-1048,-134,1,7,11
1.72313E+12,-7272,708,-3119,520,-1026,-164,1,7,11
1.72313E+12,-7239,865,-3089,229,-716,-190,1,7,11
1.72313E+12,-7227,511,-2813,230,-660,-187,1,7,11
1.72313E+12,-7219,440,-2779,527,-877,-170,1,7,11
1.72313E+12,-7233,397,-2745,560,-855,-150,1,7,11
1.72313E+12,-7240,633,-2706,589,-850,-353,1,7,11
1.72313E+12,-7242,387,-2943,607,-849,-302,1,7,11
1.72313E+12,-7291,409,-2914,599,-834,-266,1,7,11
1.72313E+12,-7112,436,-2820,581,-836,51,1,7,11
1.72313E+12,-7155,464,-2499,565,-865,116,1,7,11
1.72313E+12,-7450,493,-2433,511,-890,-77,1,7,11
1.72313E+12,-7474,775,-2624,206,-647,-72,1,7,11
1.72313E+12,-7451,808,-2592,141,-658,-72,1,7,11
1.72313E+12,-7146,823,-2574,290,-885,-79,1,7,11
1.72313E+12,-7132,803,-2270,-101,-803,-106,1,7,11
1.72313E+12,-7141,791,-2249,66,-468,-105,1,7,11
1.72313E+12,-7132,792,-2240,3,-637,-87,1,7,11
1.72313E+12,-7149,787,-2253,-314,-539,-74,1,7,11
1.72313E+12,-7153,798,-2274,-351,-182,-40,1,7,11
1.72313E+12,-7165,789,-2279,-374,-331,-1,1,7,11
1.72313E+12,-7451,776,-2267,-373,21,291,1,7,11
1.72313E+12,-7461,492,-2274,-326,85,325,1,7,11
1.72313E+12,-7452,484,-2299,27,126,341,1,7,11
1.72313E+12,-7435,508,-2606,-117,-94,335,1,7,11
1.72313E+12,-7452,792,-2644,-46,-58,302,1,7,11
1.72313E+12,-7499,827,-2651,-18,-43,268,1,7,11
1.72313E+12,-7299,861,-2649,260,-77,-10,1,7,11
1.72313E+12,-7340,651,-2640,265,112,-11,1,7,11
1.72313E+12,-7362,676,-2612,-12,22,263,1,7,11
1.72313E+12,-7341,674,-2602,-27,-337,301,1,7,11
1.72313E+12,-7527,666,-2623,-52,-155,335,1,7,11
1.72313E+12,-7453,659,-2652,-95,-166,333,1,7,11
1.72313E+12,-7426,669,-2441,116,-374,301,1,7,11
1.72313E+12,-7448,688,-2455,47,-294,263,1,7,11
1.72313E+12,-7302,662,-2655,-298,48,-27,1,7,11
1.72313E+12,-7420,891,-2579,-309,67,-22,1,7,11
1.72313E+12,-7752,878,-2255,15,19,271,1,7,11
1.72313E+12,-7770,890,-2212,127,-323,305,1,7,11
1.72313E+12,-7716,677,-2230,-24,-157,322,1,7,11
1.72313E+12,-7358,717,-2272,270,-214,303,1,7,11
1.72313E+12,-7527,728,-2291,-20,-224,-30,1,7,11
1.72313E+12,-7489,707,-2289,-95,-203,-116,1,7,11
1.72313E+12,-7464,679,-2296,88,-162,79,1,7,11
1.72313E+12,-7500,664,-2296,39,-360,23,1,7,11
1.72313E+12,-7326,656,-2263,4,-320,3,1,7,11
1.72313E+12,-7416,645,-2221,-262,-320,28,1,7,11
1.72313E+12,-7735,879,-2190,22,-363,95,1,7,11
1.72313E+12,-7713,861,-2180,82,-180,-76,1,7,11
1.72313E+12,-7397,842,-2191,127,-230,-33,1,7,11
1.72313E+12,-7299,848,-2227,-105,-514,-20,1,7,11
1.72313E+12,-7514,865,-2257,-107,-518,-60,1,7,11
1.72313E+12,-7529,895,-2278,-122,-242,-100,1,7,11
1.72313E+12,-7368,654,-2234,107,-166,-121,1,7,11
1.72313E+12,-7746,664,-2405,86,-155,-93,1,7,11
1.72313E+12,-7587,684,-2336,-97,-208,-25,1,7,11
1.72313E+12,-7604,731,-2048,-26,-568,304,1,7,11
1.72313E+12,-7553,1031,-2307,262,-426,344,1,7,11
1.72313E+12,-7737,1062,-2320,-28,-512,337,1,7,11
1.72313E+12,-7421,1058,-2309,-118,-812,298,1,7,11
1.72313E+12,-7378,1042,-2316,44,-826,-8,1,7,11
1.72313E+12,-7348,1035,-2317,-281,-812,-60,1,7,11
1.72313E+12,-7347,1024,-2036,-355,-774,-124,1,7,11
1.72313E+12,-7400,749,-1976,-156,-478,65,1,7,11
1.72313E+12,-7758,709,-2134,-171,-455,38,1,7,11
1.72313E+12,-7807,700,-2075,-358,-485,60,1,7,11
1.72313E+12,-7788,722,-2059,-270,-790,84,1,7,11
1.72313E+12,-7739,737,-2060,37,-818,87,1,7,11
1.72313E+12,-7685,739,-2055,46,-817,72,1,7,11
1.72313E+12,-7380,733,-2054,38,-787,51,1,7,11
1.72313E+12,-7358,725,-1790,16,-467,19,1,7,11
1.72313E+12,-7369,723,-2053,8,-395,-282,1,7,11
1.72313E+12,-7422,735,-2053,5,-563,-333,1,7,11
1.72313E+12,-7784,732,-1765,10,-225,-378,1,7,11
1.72313E+12,-7628,738,-1735,60,-194,-133,1,7,11
1.72313E+12,-7677,748,-1718,-124,-192,-376,1,7,11
1.72313E+12,-7674,761,-1727,-52,-203,-351,1,7,11
1.72313E+12,-7616,748,-1720,-29,-212,-341,1,7,11
1.72313E+12,-7808,703,-1686,-50,-220,-351,1,7,11
1.72313E+12,-7733,882,-1902,-79,-219,-354,1,7,11
1.72313E+12,-7381,813,-1884,-90,-206,-345,1,7,11
1.72313E+12,-7301,495,-1866,-101,-147,-346,1,7,11
1.72313E+12,-7523,450,-1841,-102,-309,-350,1,7,11
1.72313E+12,-7523,426,-1824,-72,49,-344,1,7,11
1.72313E+12,-7548,438,-1836,-28,-97,-333,1,7,11
1.72313E+12,-7356,462,-1856,270,272,-310,1,7,11
1.72313E+12,-7709,488,-1872,309,366,-281,1,7,11
1.72313E+12,-7800,771,-1886,332,150,12,1,7,11
1.72313E+12,-7602,804,-1915,339,320,33,1,7,11
1.72313E+12,-7648,830,-1674,295,-42,29,1,7,11
1.72313E+12,-7945,862,-1672,-26,100,42,1,7,11
1.72313E+12,-7968,876,-1909,-113,-258,74,1,7,11
1.72313E+12,-7964,876,-1896,57,-347,-128,1,7,11
1.72313E+12,-7657,864,-1909,-282,-154,-80,1,7,11
1.72313E+12,-7624,844,-1891,-132,-178,-66,1,7,11
1.72313E+12,-7616,815,-1862,-214,-180,-65,1,7,11
1.72313E+12,-7613,796,-1842,-235,-174,-48,1,7,11
1.72313E+12,-7614,791,-1826,-205,-144,-5,1,7,11
1.72313E+12,-7608,804,-1834,-378,-352,309,1,7,11
1.72313E+12,-7595,826,-1844,-273,-300,360,1,7,11
1.72313E+12,-7580,851,-1850,77,5,376,1,7,11
1.72313E+12,-7568,883,-1853,-95,47,348,1,7,11
1.72313E+12,-7571,667,-1850,-21,68,285,1,7,11
1.72313E+12,-7594,693,-1834,293,72,-51,1,7,11
1.72313E+12,-7620,738,-1816,354,47,-120,1,7,11
1.72313E+12,-7634,1045,-1793,136,2,86,1,7,11
1.72313E+12,-7633,1074,-1511,137,-319,60,1,7,11
1.72313E+12,-7598,1081,-1509,366,-132,59,1,7,11
1.72313E+12,-7712,758,-1512,-51,-176,52,1,7,11
1.72313E+12,-7410,725,-1516,108,-378,31,1,7,11
1.72313E+12,-7392,709,-1521,10,-284,18,1,7,11
1.72313E+12,-7698,692,-1495,-361,81,4,1,7,11
1.72313E+12,-7795,661,-1452,-187,-95,21,1,7,11
1.72313E+12,-7621,642,-1436,-198,-69,62,1,7,11
1.72313E+12,-7670,888,-1441,-152,-71,121,1,7,11
1.72313E+12,-7661,892,-1467,-341,-90,-79,1,7,11
1.72313E+12,-7615,646,-1494,-296,-94,-60,1,7,11
1.72313E+12,-7586,644,-1517,-263,-70,-79,1,7,11
1.72313E+12,-7567,649,-1794,19,-29,-108,1,7,11
1.72313E+12,-7577,652,-1803,37,268,109,1,7,11
1.72313E+12,-7614,654,-1525,68,304,68,1,7,11
1.72313E+12,-7646,649,-1499,101,295,50,1,7,11
1.72313E+12,-7651,658,-1485,-113,-5,33,1,7,11
1.72313E+12,-7647,675,-1487,-94,-48,11,1,7,11
1.72313E+12,-7641,699,-1492,-106,-81,-261,1,7,11
1.72313E+12,-7637,718,-1498,103,-99,-268,1,7,11
1.72313E+12,-7619,732,-1508,39,-112,-261,1,7,11
1.72313E+12,-7614,738,-1496,-297,-111,-259,1,7,11
1.72313E+12,-7626,720,-1477,-374,-112,4,1,7,11
1.72313E+12,-7625,683,-1459,-153,-122,12,1,7,11
1.72313E+12,-7593,889,-1454,-148,-128,23,1,7,11
1.72313E+12,-7800,853,-1476,-367,-110,16,1,7,11
1.72313E+12,-7767,819,-1524,-324,-62,5,1,7,11
1.72313E+12,-7729,801,-1797,-279,-3,4,1,7,11
1.72313E+12,-7728,800,-1842,-261,321,-257,1,7,11
1.72313E+12,-7766,799,-1866,-265,129,1,1,7,11
1.72313E+12,-7568,814,-1869,-274,149,9,1,7,11
1.72313E+12,-7664,828,-1833,-277,128,34,1,7,11
1.72313E+12,-7998,863,-1530,16,306,85,1,7,11
1.72313E+12,-8028,653,-1492,74,-55,-108,1,7,11
1.72313E+12,-8003,721,-1497,126,93,-46,1,7,11
1.72313E+12,-7662,743,-1504,-109,8,-17,1,7,11
1.72313E+12,-7567,1030,-1521,104,-275,-48,1,7,11
1.72313E+12,-7745,1035,-1529,14,13,-113,1,7,11
1.72313E+12,-7699,738,-1528,-351,86,55,1,7,11
1.72313E+12,-7706,688,-1524,-165,-76,-278,1,7,11
1.72313E+12,-7741,643,-1524,-193,260,-350,1,7,11
1.72313E+12,-7578,850,-1475,-176,291,-156,1,7,11
1.72313E+12,-7949,836,-1452,-374,278,-158,1,7,11
1.72313E+12,-8030,863,-1477,-282,-36,-348,1,7,11
1.72313E+12,-8025,654,-1522,63,-128,-257,1,7,11
1.72313E+12,-7935,683,-1798,81,52,61,1,7,11
1.72313E+12,-7607,703,-1793,34,-263,76,1,7,11
1.72313E+12,-7800,704,-1527,-286,-296,40,1,7,11
1.72313E+12,-7766,710,-1515,-342,-294,4,1,7,11
1.72313E+12,-7780,733,-1474,-384,49,-286,1,7,11
1.72313E+12,-7571,743,-1661,-174,103,-294,1,7,11
1.72313E+12,-7595,735,-1616,-214,113,-284,1,7,11
1.72313E+12,-7571,740,-1628,-215,101,-277,1,7,11
1.72313E+12,-7782,721,-1421,-251,105,-309,1,7,11
1.72313E+12,-7758,699,-1468,-561,-111,-130,1,7,11
1.72313E+12,-7774,685,-1520,-613,-38,-218,1,7,11
1.72313E+12,-7565,664,-1827,-400,297,-550,1,7,11
1.72313E+12,-7670,890,-1825,-425,364,-625,1,7,11
1.72313E+12,-8056,865,-1819,-635,378,-413,1,7,11
1.72313E+12,-7899,868,-1816,-514,329,-409,1,7,11
1.72313E+12,-7906,868,-1835,-376,-27,-386,1,7,11
1.72313E+12,-7865,862,-1848,-265,-119,-401,1,7,11
1.72313E+12,-8060,868,-1881,79,64,-438,1,7,11
1.72313E+12,-7995,834,-1884,88,39,-470,1,7,11
1.72313E+12,-7680,510,-1858,64,34,-489,1,7,11
1.72313E+12,-7601,404,-1828,51,43,-476,1,7,11
1.72313E+12,-7779,557,-1528,54,62,-443,1,7,11
1.72313E+12,-7690,201,-1465,81,83,-390,1,7,11
1.72313E+12,-7337,135,-1435,-117,122,-572,1,7,11
1.72313E+12,-7534,362,-1424,-53,-61,-239,1,7,11
1.72313E+12,-7507,371,-1428,-3,274,-164,1,7,11
1.72313E+12,-7519,149,-1444,258,370,-355,1,7,11
1.72313E+12,-7346,193,-1451,-26,205,-284,1,7,11
1.72313E+12,-7699,242,-1662,-69,514,78,1,7,11
1.72313E+12,-7553,542,-1644,-120,518,-54,1,7,11
1.72313E+12,-7616,591,-1632,112,208,338,1,7,11
1.72313E+12,-7639,405,-1661,96,142,202,1,7,11
1.72313E+12,-7640,485,-1460,50,352,542,1,7,11
1.72313E+12,-7651,803,-1494,-310,334,566,1,7,11
1.72313E+12,-7937,832,-1518,-190,326,548,1,7,11
1.72313E+12,-7956,834,-1799,-567,312,248,1,7,11
1.72313E+12,-7977,823,-1824,-406,293,182,1,7,11
1.72313E+12,-8012,809,-1849,-444,272,363,1,7,11
1.72313E+12,-8023,811,-1858,-417,-26,305,1,7,11
1.72313E+12,-8031,801,-1854,-633,-42,268,1,7,11
1.72313E+12,-8025,809,-1850,-562,-59,-12,1,7,11
1.72313E+12,-7969,829,-1869,-219,-82,-67,1,7,11
1.72313E+12,-7918,845,-1894,-137,-99,-91,1,7,11
1.72313E+12,-7614,852,-1899,-340,-109,108,1,7,11
1.72313E+12,-7573,854,-1903,-309,-109,17,1,7,11
1.72313E+12,-7801,847,-1902,-291,-101,-278,1,7,11
1.72313E+12,-7573,843,-1866,-269,-71,-289,1,7,11
1.72313E+12,-7616,853,-1832,14,-83,-275,1,7,11
1.72313E+12,-7637,860,-1535,45,115,21,1,7,11
1.72313E+12,-7593,875,-1521,64,29,61,1,7,11
1.72313E+12,-7778,887,-1525,46,-294,85,1,7,11
1.72313E+12,-7756,656,-1808,-621,-82,38,1,7,11
1.72313E+12,-7617,644,-1490,-456,-35,80,1,7,11
1.72313E+12,-7960,873,-1432,-476,-51,-105,1,7,11
1.72313E+12,-7995,855,-1423,-421,-116,-37,1,7,11
1.72313E+12,-7977,865,-1439,-600,76,-9,1,7,11
1.72313E+12,-7940,888,-1460,-539,36,-27,1,7,11
1.72313E+12,-7616,883,-1496,-250,25,-76,1,7,11
1.72313E+12,-7556,857,-1525,-238,70,100,1,7,11
1.72313E+12,-7765,828,-1819,-218,-104,9,1,7,11
1.72313E+12,-7780,796,-1807,-211,271,-342,1,7,11
1.72313E+12,-7628,771,-1487,-182,361,-145,1,7,11
1.72313E+12,-7991,769,-1425,-353,367,-384,1,7,11
1.72313E+12,-8002,799,-1428,28,293,-310,1,7,11
1.72313E+12,-7944,853,-1479,107,-43,-258,1,7,11
1.72313E+12,-7613,640,-1526,92,-95,3,1,7,11
1.72313E+12,-7806,655,-1816,10,-114,-281,1,7,11
1.72313E+12,-7750,655,-1853,-345,-88,-302,1,7,11
1.72313E+12,-7733,646,-1860,-190,-20,-315,1,7,11
1.72313E+12,-7560,882,-1810,-532,316,-325,1,7,11
1.72313E+12,-7662,871,-1486,-547,316,-284,1,7,11
1.72313E+12,-7959,872,-1438,-245,-7,49,1,7,11
1.72313E+12,-7654,877,-1454,-191,-107,118,1,7,11
1.72313E+12,-7564,874,-1477,-173,87,-116,1,7,11
1.72313E+12,-7738,856,-1495,-198,82,109,1,7,11
1.72313E+12,-7419,836,-1515,-213,124,49,1,7,11
1.72313E+12,-7411,834,-1808,-203,-50,-284,1,7,11
1.72313E+12,-7728,852,-1805,-189,318,-347,1,7,11
1.72313E+12,-7659,867,-1524,-171,157,-132,1,7,11
1.72313E+12,-7988,890,-1526,-314,168,-344,1,7,11
1.72313E+12,-7986,654,-1533,3,139,-304,1,7,11
1.72313E+12,-7677,671,-1803,37,369,-293,1,7,11
1.72313E+12,-7587,655,-1825,50,369,-304,1,7,11
1.72313E+12,-7696,875,-1844,34,163,-330,1,7,11
1.72313E+12,-7511,768,-1824,-266,540,-368,1,7,11
1.72313E+12,-7060,387,-1523,-266,777,-159,1,7,11
1.72313E+12,-7177,516,-1462,59,1141,-210,1,7,11
1.72313E+12,-6832,187,-1449,-33,1580,-237,1,7,11
1.72313E+12,-7016,208,-1793,173,2059,-208,1,7,11
1.72313E+12,-6802,251,-1888,525,2296,-169,1,7,11
1.72313E+12,-7218,547,-1755,531,2923,-383,1,7,11
1.72313E+12,-7446,622,-2152,202,3105,-340,1,7,11
1.72313E+12,-7681,451,-2024,293,2808,-332,1,7,11
1.72313E+12,-7644,768,-2376,77,2821,-358,1,7,11
1.72313E+12,-8034,840,-2229,-349,2197,-354,1,7,11
1.72313E+12,-7813,655,-2620,-237,2054,-322,1,7,11
1.72313E+12,-8019,697,-2496,-402,1439,-257,1,7,11
1.72313E+12,-7667,686,-2836,-830,1176,64,1,7,11
1.72313E+12,-7576,884,-2868,-719,1008,113,1,7,11
1.72313E+12,-7761,815,-2877,-1033,899,-111,1,7,11
1.72313E+12,-7418,777,-2895,-753,1088,-82,1,7,11
1.72313E+12,-7355,774,-2924,-705,1066,-86,1,7,11
1.72313E+12,-7344,796,-2935,-671,1061,-103,1,7,11
1.72313E+12,-7410,793,-2909,-895,1027,-125,1,7,11
1.72313E+12,-7746,803,-2892,-798,666,-101,1,7,11
1.72313E+12,-7777,865,-2913,-409,496,-45,1,7,11
1.72313E+12,-7804,679,-2922,-583,569,256,1,7,11
1.72313E+12,-7764,707,-2934,-547,343,308,1,7,11
1.72313E+12,-7365,702,-2689,-555,121,323,1,7,11
1.72313E+12,-7456,671,-2934,-586,-286,-21,1,7,11
1.72313E+12,-7084,653,-2914,-596,-355,72,1,7,11
1.72313E+12,-7292,649,-2901,-583,-360,-362,1,7,11
1.72313E+12,-7058,649,-2869,-569,-316,-226,1,7,11
1.72313E+12,-7170,654,-2515,-542,-262,-516,1,7,11
1.72313E+12,-7486,662,-2471,-229,20,-212,1,7,11
1.72313E+12,-7478,662,-2471,-158,13,-305,1,7,11
1.72313E+12,-7142,657,-2495,-359,-259,46,1,7,11
1.72313E+12,-7285,643,-2535,-349,31,83,1,7,11
1.72313E+12,-7210,874,-2560,-149,-128,47,1,7,11
1.72313E+12,-7193,854,-2840,-202,263,-277,1,7,11
1.72313E+12,-7245,837,-2849,-253,157,-343,1,7,11
1.72313E+12,-7077,829,-2850,-532,529,-136,1,7,11
1.72313E+12,-7162,858,-2864,-253,600,-146,1,7,11
1.72313E+12,-7498,643,-2850,-521,613,-373,1,7,11
1.72313E+12,-7541,660,-2840,-558,553,-310,1,7,11
1.72313E+12,-7495,666,-2861,-608,195,25,1,7,11
1.72313E+12,-7165,651,-2901,-427,383,65,1,7,11
1.72313E+12,-7117,888,-2938,-495,368,72,1,7,11
1.72313E+12,-7091,874,-2708,-791,378,62,1,7,11
1.72313E+12,-7120,864,-2703,-804,147,36,1,7,11
1.72313E+12,-7444,857,-2927,-773,151,24,1,7,11
1.72313E+12,-7518,849,-2881,-456,373,46,1,7,11
1.72313E+12,-7319,851,-2834,-605,305,102,1,7,11
1.72313E+12,-7523,870,-2844,-155,-87,-52,1,7,11
1.72313E+12,-7437,643,-2887,-337,101,-40,1,7,11
1.72313E+12,-7093,672,-2935,-332,73,-90,1,7,11
1.72313E+12,-7062,695,-2707,-139,95,87,1,7,11
1.72313E+12,-7061,711,-2738,-220,122,17,1,7,11
1.72313E+12,-7115,713,-2751,-570,-97,-293,1,7,11
1.72313E+12,-7467,709,-2729,-390,-81,-322,1,7,11
1.72313E+12,-7305,733,-2734,-415,-118,-307,1,7,11
1.72313E+12,-7381,1040,-2721,-451,68,2,1,7,11
1.72313E+12,-7412,1024,-2927,-785,-315,55,1,7,11
1.72313E+12,-7395,751,-2913,-800,-221,113,1,7,11
1.72313E+12,-7309,742,-2935,-805,-615,-84,1,7,11
1.72313E+12,-7449,733,-2693,-841,-447,-80,1,7,11
1.72313E+12,-7113,715,-2942,-879,-474,-120,1,7,11
1.72313E+12,-7110,711,-2891,-892,-440,95,1,7,11
1.72313E+12,-7435,700,-2555,-858,-405,72,1,7,11
1.72313E+12,-7516,704,-2480,-485,-391,85,1,7,11
1.72313E+12,-7325,744,-2661,-575,-394,127,1,7,11
1.72313E+12,-7339,1057,-2594,-147,-406,-67,1,7,11
1.72313E+12,-7297,1106,-2296,-266,-423,-18,1,7,11
1.72313E+12,-7474,1139,-2283,57,-434,-6,1,7,11
1.72313E+12,-7123,908,-2283,53,-427,-55,1,7,11
1.72313E+12,-7067,922,-2270,-272,-392,109,1,7,11
1.72313E+12,-7054,912,-2272,-378,-608,28,1,7,11
1.72313E+12,-7064,1103,-2276,-228,-572,-284,1,7,11
1.72313E+12,-7108,1071,-2285,-555,-522,-297,1,7,11
1.72313E+12,-7434,1078,-2298,-572,-188,-295,1,7,11
1.72313E+12,-7531,1073,-2265,-567,-144,-275,1,7,11
1.72313E+12,-7342,1067,-2208,-489,-384,19,1,7,11
1.72313E+12,-7370,1066,-2411,-370,-139,48,1,7,11
1.72313E+12,-7333,1078,-2403,16,-164,67,1,7,11
1.72313E+12,-7509,1086,-2187,93,-168,57,1,7,11
1.72313E+12,-7434,1089,-2210,99,-383,4,1,7,11
1.72313E+12,-7135,1085,-2217,45,-297,-313,1,7,11
1.72313E+12,-7438,750,-2398,-350,-85,-324,1,7,11
1.72313E+12,-7471,709,-2360,-346,-16,2,1,7,11
1.72313E+12,-7450,703,-2390,-297,277,93,1,7,11
1.72313E+12,-7159,711,-2191,-278,337,-118,1,7,11
1.72313E+12,-7160,713,-2225,-299,149,-122,1,7,11
1.72313E+12,-7487,726,-2257,-310,201,92,1,7,11
1.72313E+12,-7361,761,-2270,-280,214,65,1,7,11
1.72313E+12,-7731,1078,-2260,42,182,85,1,7,11
1.72313E+12,-7575,1130,-2230,108,363,-124,1,7,11
1.72313E+12,-7577,927,-2207,-77,-23,-69,1,7,11
1.72313E+12,-7747,958,-2214,-49,94,-58,1,7,11
1.72313E+12,-7550,975,-2253,-76,-266,-115,1,7,11
1.72313E+12,-7430,957,-2291,23,-292,-280,1,7,11
1.72313E+12,-7099,907,-2568,-382,35,-381,1,7,11
1.72313E+12,-7097,1101,-2304,-520,-112,-204,1,7,11
1.72313E+12,-7454,1034,-2264,-599,-5,-250,1,7,11
1.72313E+12,-7342,732,-2218,-565,301,-218,1,7,11
1.72313E+12,-7705,731,-2188,-191,291,-362,1,7,11
1.72313E+12,-7718,762,-2195,-307,-15,36,1,7,11
1.72313E+12,-7365,757,-2223,45,-78,-109,1,7,11
1.72313E+12,-7529,762,-2261,104,-97,-93,1,7,11
1.72313E+12,-7456,1039,-2566,-124,-88,110,1,7,11
1.72313E+12,-7157,1062,-2606,118,-56,14,1,7,11
1.72313E+12,-7427,1088,-2623,100,-3,-343,1,7,11
1.72313E+12,-7537,1093,-2582,78,317,-157,1,7,11
1.72313E+12,-7413,1091,-2269,95,304,-165,1,7,11
1.72313E+12,-7751,1079,-2236,-119,-44,-130,1,7,11
1.72313E+12,-7739,1061,-2255,-78,82,-323,1,7,11
1.72313E+12,-7403,1051,-2299,-87,-274,-289,1,7,11
1.72313E+12,-7322,1034,-2579,106,-319,-291,1,7,11
1.72313E+12,-7516,720,-2565,21,-331,-322,1,7,11
1.72313E+12,-7486,664,-2283,-279,-309,-354,1,7,11
1.72313E+12,-7490,879,-2249,-265,-261,-370,1,7,11
1.72313E+12,-7544,871,-2242,33,41,-365,1,7,11
1.72313E+12,-7323,644,-2242,88,52,-319,1,7,11
1.72313E+12,-7360,665,-2239,117,51,3,1,7,11
1.72313E+12,-7336,686,-2237,-124,31,87,1,7,11
1.72313E+12,-7321,689,-2195,-126,18,-102,1,7,11
1.72313E+12,-7551,677,-2432,-116,6,-98,1,7,11
1.72313E+12,-7530,697,-2428,-70,15,127,1,7,11
1.72313E+12,-7529,745,-2177,-20,59,73,1,7,11
1.72313E+12,-7306,1068,-2192,260,109,24,1,7,11
1.72313E+12,-7371,1131,-2417,-49,-109,-262,1,7,11
1.72313E+12,-7728,1130,-2324,108,-113,-258,1,7,11
1.72313E+12,-7762,1091,-2012,66,51,49,1,7,11
1.72313E+12,-7413,1063,-2046,55,-317,80,1,7,11
1.72313E+12,-7547,1059,-2363,11,-356,45,1,7,11
1.72313E+12,-7466,1043,-2407,-330,-311,-279,1,7,11
1.72313E+12,-7158,745,-2430,-160,44,-335,1,7,11
1.72313E+12,-7430,695,-2188,-210,-72,-375,1,7,11
1.72313E+12,-7488,653,-2186,-200,301,-131,1,7,11
1.72313E+12,-7297,892,-2199,-151,357,-130,1,7,11
1.72313E+12,-7340,890,-2213,-354,357,-365,1,7,11
1.72313E+12,-7350,642,-2237,-320,312,-331,1,7,11
1.72313E+12,-7323,889,-2283,-302,-5,-303,1,7,11
1.72313E+12,-7525,884,-2605,-292,-54,-288,1,7,11
1.72313E+12,-7523,881,-2647,-287,-62,-303,1,7,11
1.72313E+12,-7312,877,-2626,-275,-55,-320,1,7,11
1.72313E+12,-7396,893,-2579,45,-57,-321,1,7,11
1.72313E+12,-7732,699,-2277,-91,-71,-292,1,7,11
1.72313E+12,-7557,754,-2181,264,-90,-257,1,7,11
1.72313E+12,-7806,1071,-2367,368,114,39,1,7,11
1.72313E+12,-7716,1119,-2334,159,75,42,1,7,11
1.72313E+12,-7347,1120,-2320,131,71,-285,1,7,11
1.72313E+12,-7524,1076,-2317,288,110,-152,1,7,11
1.72313E+12,-7484,737,-2326,-92,-92,-530,1,7,11
1.72313E+12,-7449,891,-2362,53,-29,-605,1,7,11
1.72313E+12,-7428,782,-2428,-301,303,-623,1,7,11
1.72313E+12,-7432,401,-2199,-382,138,-594,1,7,11
1.72313E+12,-7445,548,-2211,-142,203,-527,1,7,11
1.72313E+12,-7441,233,-2237,-338,244,-173,1,7,11
1.72313E+12,-7439,225,-2264,5,536,-336,1,7,11
1.72313E+12,-7453,246,-2276,109,569,3,1,7,11
1.72313E+12,-7461,550,-2282,-59,587,72,1,7,11
1.72313E+12,-7473,626,-2264,266,587,110,1,7,11
1.72313E+12,-7539,412,-2220,293,596,123,1,7,11
1.72313E+12,-7353,462,-2184,332,567,-115,1,7,11
1.72313E+12,-7378,772,-2430,380,231,-112,1,7,11
1.72313E+12,-7377,832,-2199,376,186,124,1,7,11
1.72313E+12,-7361,642,-2272,334,161,99,1,7,11
1.72313E+12,-7347,674,-2581,-37,173,60,1,7,11
1.72313E+12,-7385,659,-2589,69,200,17,1,7,11
1.72313E+12,-7417,644,-2588,-288,195,11,1,7,11
1.72313E+12,-7416,640,-2619,-354,161,21,1,7,11
1.72313E+12,-7400,869,-2638,-136,130,25,1,7,11
1.72313E+12,-7356,874,-2687,-372,357,40,1,7,11
1.72313E+12,-7315,846,-2448,-371,349,39,1,7,11
1.72313E+12,-7549,818,-2440,-342,343,22,1,7,11
1.72313E+12,-7540,796,-2674,-272,328,3,1,7,11
1.72313E+12,-7516,801,-2656,92,295,-268,1,7,11
1.72313E+12,-7480,824,-2661,-55,262,-282,1,7,11
1.72313E+12,-7451,847,-2662,278,-6,-296,1,7,11
1.72313E+12,-7426,889,-2668,329,-3,-311,1,7,11
1.72313E+12,-7427,659,-2669,341,274,-313,1,7,11
1.72313E+12,-7453,665,-2665,332,291,-299,1,7,11
1.72313E+12,-7486,656,-2673,308,292,-264,1,7,11
1.72313E+12,-7502,895,-2675,262,273,21,1,7,11
1.72313E+12,-7515,876,-2679,-65,-14,34,1,7,11
1.72313E+12,-7541,866,-2678,112,-57,35,1,7,11
1.72313E+12,-7299,844,-2668,20,-106,51,1,7,11
1.72313E+12,-7305,813,-2675,-324,109,78,1,7,11
1.72313E+12,-7547,794,-2434,-138,87,107,1,7,11
1.72313E+12,-7550,501,-2688,-213,90,127,1,7,11
1.72313E+12,-7297,466,-2676,-252,93,-106,1,7,11
1.72313E+12,-7310,428,-2680,-244,106,-80,1,7,11
1.72313E+12,-7317,396,-2671,-203,-118,-52,1,7,11
1.72313E+12,-7332,628,-2652,-143,-97,-41,1,7,11
1.72313E+12,-7352,394,-2640,-313,-92,-36,1,7,11
1.72313E+12,-7355,423,-2634,45,-104,-35,1,7,11
1.72313E+12,-7330,456,-2637,-125,-128,-48,1,7,11
1.72313E+12,-7301,489,-2640,-62,122,-82,1,7,11
1.72313E+12,-7542,523,-2651,-16,-126,-98,1,7,11
1.72313E+12,-7535,807,-2667,261,-101,114,1,7,11
1.72313E+12,-7544,826,-2670,263,-81,63,1,7,11
1.72313E+12,-7308,832,-2667,-7,-87,9,1,7,11
1.72313E+12,-7320,823,-2674,-44,-110,-294,1,7,11
1.72313E+12,-7308,814,-2685,-84,109,-327,1,7,11
1.72313E+12,-7305,788,-2683,119,75,-327,1,7,11
1.72313E+12,-7298,496,-2683,61,27,-310,1,7,11
1.72313E+12,-7532,473,-2446,36,-258,-279,1,7,11
1.72313E+12,-7531,456,-2479,34,-264,-257,1,7,11
1.72313E+12,-7316,430,-2489,38,-275,12,1,7,11
1.72313E+12,-7367,407,-2506,64,-319,31,1,7,11
1.72313E+12,-7417,633,-2537,100,-146,30,1,7,11
1.72313E+12,-7791,610,-2884,-88,-526,-261,1,7,11
1.72313E+12,-8005,617,-3118,294,-466,-347,1,7,11
1.72313E+12,-8470,608,-3354,129,-717,-256,1,7,11
1.72313E+12,-9059,558,-3212,245,-1183,-625,1,7,11
1.72313E+12,-9176,549,-3242,775,-1968,-603,1,7,11
1.72313E+12,-9131,632,-3249,1090,-3150,-543,1,7,11
1.72313E+12,-8836,450,-3386,1004,-3963,-523,1,7,11
1.72313E+12,-8405,454,-3136,1292,-4304,-526,1,7,11
1.72313E+12,-8251,414,-2533,1002,-4885,-590,1,7,11
1.72313E+12,-7939,587,-2376,956,-4980,-422,1,7,11
1.72313E+12,-7697,242,-1721,962,-4932,-474,1,7,11
1.72313E+12,-7483,188,-1659,1005,-4520,-501,1,7,11
1.72313E+12,-7104,368,-1321,981,-4272,-789,1,7,11
1.72313E+12,-7278,279,-1030,980,-3999,-782,1,7,11
1.72313E+12,-7218,-38,-812,1010,-3958,-475,1,7,11
1.72313E+12,-7181,-60,-398,1293,-3639,-406,1,7,11
1.72313E+12,-7217,-37,-251,1292,-3046,-611,1,7,11
1.72313E+12,-7086,-5,-350,1004,-2712,-547,1,7,11
1.72313E+12,-7519,285,65,995,-2446,-193,1,7,11
1.72313E+12,-7404,331,-85,1007,-2264,-293,1,7,11
1.72313E+12,-7704,376,-51,1010,-2404,-128,1,7,11
1.72313E+12,-7732,131,-6,949,-2032,-10,1,7,11
1.72313E+12,-7734,373,280,1134,-1930,326,1,7,11
1.72313E+12,-7721,341,283,1058,-2069,362,1,7,11
1.72313E+12,-7721,327,258,722,-1904,357,1,7,11
1.72313E+12,-7762,326,-11,872,-1427,317,1,7,11
1.72313E+12,-7618,320,260,502,-1171,261,1,7,11
1.72313E+12,-8041,309,327,412,-926,-23,1,7,11
1.72313E+12,-7930,300,158,387,-749,-14,1,7,11
1.72313E+12,-8293,324,517,425,-647,263,1,7,11
1.72313E+12,-8089,349,535,489,-852,300,1,7,11
1.72313E+12,-8319,381,530,803,-830,333,1,7,11
1.72313E+12,-8246,161,253,824,-799,356,1,7,11
1.72313E+12,-7923,182,239,808,-498,350,1,7,11
1.72313E+12,-7871,208,220,494,-424,323,1,7,11
1.72313E+12,-7819,226,199,397,-557,271,1,7,11
1.72313E+12,-7838,228,224,535,-196,-58,1,7,11
1.72313E+12,-7936,219,550,130,-362,-114,1,7,11
1.72313E+12,-8287,241,617,378,-335,-113,1,7,11
1.72313E+12,-8310,538,397,157,-369,-63,1,7,11
1.72313E+12,-8278,572,399,173,-156,-10,1,7,11
1.72313E+12,-8210,585,394,141,-190,287,1,7,11
1.72313E+12,-7874,560,629,317,-210,287,1,7,11
1.72313E+12,-7809,249,609,-32,-198,264,1,7,11
1.72313E+12,-8010,197,579,-111,-140,-20,1,7,11
1.72313E+12,-7945,162,527,89,-283,-46,1,7,11
1.72313E+12,-7676,145,231,19,-98,-85,1,7,11
1.72313E+12,-8011,383,227,-294,357,-117,1,7,11
1.72313E+12,-7863,375,203,-292,250,-125,1,7,11
1.72313E+12,-8267,140,211,-258,613,-123,1,7,11
1.72313E+12,-8149,220,176,83,392,-88,1,7,11
1.72313E+12,-8519,566,155,-120,635,-39,1,7,11
1.72313E+12,-8327,625,151,-99,549,280,1,7,11
1.72313E+12,-8557,394,138,-109,154,322,1,7,11
1.72313E+12,-8491,403,377,101,270,311,1,7,11
1.72313E+12,-8145,633,130,23,-110,-14,1,7,11
1.72313E+12,-8075,587,134,-306,79,-110,1,7,11
1.72313E+12,-8280,532,145,-361,74,64,1,7,11
1.72313E+12,-8223,189,175,-140,118,-281,1,7,11
1.72313E+12,-8197,151,177,-130,-68,-326,1,7,11
1.72313E+12,-8225,366,197,-366,274,-352,1,7,11
1.72313E+12,-8267,346,199,-312,330,-339,1,7,11
1.72313E+12,-8283,364,175,10,350,-315,1,7,11
1.72313E+12,-8315,381,168,40,355,-300,1,7,11
1.72313E+12,-8071,131,138,57,327,-285,1,7,11
1.72313E+12,-8314,139,375,64,286,-279,1,7,11
1.72313E+12,-8309,132,377,53,-14,-280,1,7,11
1.72313E+12,-8302,377,371,63,-60,-273,1,7,11
1.72313E+12,-8312,130,382,75,-97,-272,1,7,11
1.72313E+12,-8072,149,131,86,121,-257,1,7,11
1.72313E+12,-8070,184,142,85,91,35,1,7,11
1.72313E+12,-8307,198,152,76,76,82,1,7,11
1.72313E+12,-8290,187,166,60,74,115,1,7,11
1.72313E+12,-8269,165,168,53,77,120,1,7,11
1.72313E+12,-8270,166,162,61,80,96,1,7,11
1.72313E+12,-8250,181,148,61,87,75,1,7,11
1.72313E+12,-8239,174,143,28,105,56,1,7,11
1.72313E+12,-8224,146,130,-257,-125,46,1,7,11
1.72313E+12,-8214,128,130,-273,-90,32,1,7,11
1.72313E+12,-8220,362,380,-263,-55,11,1,7,11
1.72313E+12,-8243,347,378,24,-26,-260,1,7,11
1.72313E+12,-8268,359,379,68,-13,-270,1,7,11
1.72313E+12,-8068,383,377,110,-5,-264,1,7,11
1.72313E+12,-8109,175,147,-100,-26,26,1,7,11
1.72313E+12,-8162,219,204,-86,-59,62,1,7,11
1.72313E+12,-8187,224,241,-69,111,119,1,7,11
1.72313E+12,-8113,239,244,-29,10,-89,1,7,11
1.72313E+12,-8287,253,219,257,-313,-66,1,7,11
1.72313E+12,-8216,248,202,-73,-337,-120,1,7,11
1.72313E+12,-7910,221,210,94,-291,70,1,7,11
1.72313E+12,-7890,160,201,11,40,-300,1,7,11
1.72313E+12,-7928,143,197,-283,-67,-350,1,7,11
1.72313E+12,-8240,370,207,-298,274,-375,1,7,11
1.72313E+12,-8311,360,218,-263,330,-368,1,7,11
1.72313E+12,-8103,376,227,61,343,-325,1,7,11
1.72313E+12,-8122,150,220,-124,315,-267,1,7,11
1.72313E+12,-8113,198,190,-72,276,47,1,7,11
1.72313E+12,-8091,215,165,-78,-35,85,1,7,11
1.72313E+12,-8295,218,157,-98,-80,105,1,7,11
1.72313E+12,-8247,209,158,125,-98,102,1,7,11
1.72313E+12,-8216,191,171,97,-92,84,1,7,11
1.72313E+12,-8201,196,175,87,-71,54,1,7,11
1.72313E+12,-8234,204,199,68,-37,33,1,7,11
1.72313E+12,-8251,221,210,69,-25,38,1,7,11
1.72313E+12,-8245,223,209,56,-10,54,1,7,11
1.72313E+12,-8246,198,204,26,265,69,1,7,11
1.72313E+12,-8239,165,183,-263,277,77,1,7,11
1.72313E+12,-8223,137,156,-300,288,59,1,7,11
1.72313E+12,-8228,131,379,-327,309,29,1,7,11
1.72313E+12,-8270,380,367,-356,332,0,1,7,11
1.72313E+12,-8096,369,380,-355,334,5,1,7,11
1.72313E+12,-8150,379,141,-301,301,57,1,7,11
1.72313E+12,-8172,151,159,42,257,-124,1,7,11
1.72313E+12,-8164,182,164,107,-60,-57,1,7,11
1.72313E+12,-8128,210,180,-120,-119,-13,1,7,11
1.72313E+12,-8076,231,175,-114,97,265,1,7,11
1.72313E+12,-8264,245,161,112,72,-7,1,7,11
1.72313E+12,-8194,244,155,34,93,-37,1,7,11
1.72313E+12,-7878,200,167,-319,-105,-69,1,7,11
1.72313E+12,-7845,133,180,-130,-26,-111,1,7,11
1.72313E+12,-7860,331,179,-380,317,109,1,7,11
1.72313E+12,-7893,323,138,-325,133,78,1,7,11
1.72313E+12,-8235,344,380,-260,196,54,1,7,11
1.72313E+12,-8081,134,377,87,212,71,1,7,11
1.72313E+12,-8157,190,383,-79,186,-127,1,7,11
1.72313E+12,-8161,247,130,-3,361,-60,1,7,11
1.72313E+12,-8112,559,366,276,257,-34,1,7,11
1.72313E+12,-8222,589,256,27,101,93,1,7,11
1.72313E+12,-8211,552,272,-358,-96,45,1,7,11
1.72313E+12,-8306,202,315,-206,-23,0,1,7,11
1.72313E+12,-8090,359,283,36,-100,120,1,7,11
1.72313E+12,-8095,366,279,72,-102,-107,1,7,11
1.72313E+12,-8103,150,283,119,-95,-66,1,7,11
1.72313E+12,-8152,191,352,-107,-100,-13,1,7,11
1.72313E+12,-8139,216,150,-51,86,310,1,7,11
1.72313E+12,-8069,244,160,281,12,360,1,7,11
1.72313E+12,-8244,528,166,320,-294,344,1,7,11
1.72313E+12,-7911,565,142,316,-313,275,1,7,11
1.72313E+12,-7879,577,144,258,-288,-70,1,7,11
1.72313E+12,-7873,570,161,-73,8,111,1,7,11
1.72313E+12,-7895,551,162,127,62,60,1,7,11
1.72313E+12,-7926,520,147,93,111,32,1,7,11
1.72313E+12,-8215,250,359,90,-100,24,1,7,11
1.72313E+12,-8255,236,317,78,-58,35,1,7,11
1.72313E+12,-8264,216,279,57,-45,39,1,7,11
1.72313E+12,-8305,186,-1,26,-41,15,1,7,11
1.72313E+12,-8119,179,-21,34,-65,-263,1,7,11
1.72313E+12,-8463,199,-8,74,-105,-267,1,7,11
1.72313E+12,-8542,254,281,-108,86,32,1,7,11
1.72313E+12,-8552,564,316,-26,-275,121,1,7,11
1.72313E+12,-8522,583,366,279,-141,-63,1,7,11
1.72313E+12,-8450,592,128,305,-544,-40,1,7,11
1.72313E+12,-8090,598,375,288,-420,-92,1,7,11
1.72313E+12,-8283,589,135,-34,-478,61,1,7,11
1.72313E+12,-8232,589,147,-98,-482,-279,1,7,11
1.72313E+12,-8217,561,170,69,-445,-341,1,7,11
1.72313E+12,-8241,518,212,7,-385,-373,1,7,11
1.72313E+12,-8289,231,231,4,-581,-379,1,7,11
1.72313E+12,-8093,223,241,12,-256,-376,1,7,11
1.72313E+12,-8117,236,238,42,-221,-330,1,7,11
1.72313E+12,-8093,238,254,50,-216,-311,1,7,11
1.72313E+12,-8109,218,545,39,-211,-324,1,7,11
1.72313E+12,-8108,218,548,52,-237,-333,1,7,11
1.72313E+12,-8146,238,553,93,-251,-359,1,7,11
1.72313E+12,-8164,235,558,94,-561,-371,1,7,11
1.72313E+12,-8180,214,560,101,-604,-371,1,7,11
1.72313E+12,-8181,202,545,114,-627,-355,1,7,11
1.72313E+12,-8458,193,533,101,-628,-357,1,7,11
1.72313E+12,-8497,172,525,77,-609,-365,1,7,11
1.72313E+12,-8557,154,221,89,-589,-341,1,7,11
1.72313E+12,-8325,134,140,87,-557,-294,1,7,11
1.72313E+12,-8363,357,344,52,-230,-268,1,7,11
1.72313E+12,-8386,335,311,13,-169,22,1,7,11
1.72313E+12,-8432,272,323,-291,-375,36,1,7,11
1.72313E+12,-8719,-371,398,18,-414,-273,1,7,11
1.72313E+12,-8565,-164,768,-126,-659,-336,1,7,11
1.72313E+12,-8260,-202,674,-42,-1133,-210,1,7,11
1.72313E+12,-7824,-220,905,265,-1021,-542,1,7,11
1.72313E+12,-7606,-254,1380,321,-1190,-580,1,7,11
1.72313E+12,-7404,-227,1540,602,-1188,-565,1,7,11
1.72313E+12,-7480,-369,1663,835,-1310,-522,1,7,11
1.72313E+12,-7080,43,1508,765,-1079,-220,1,7,11
1.72313E+12,-7284,-57,1853,1147,-487,-202,1,7,11
1.72313E+12,-7291,140,1861,1021,-344,-157,1,7,11
1.72313E+12,-7046,590,1822,1320,322,-370,1,7,11
1.72313E+12,-7128,496,1449,1297,781,-343,1,7,11
1.72313E+12,-7534,881,1249,918,1009,-340,1,7,11
1.72313E+12,-7740,705,1014,684,1426,-336,1,7,11
1.72313E+12,-7654,736,743,601,1757,-353,1,7,11
1.72313E+12,-7879,673,785,-82,1993,-152,1,7,11
1.72313E+12,-8078,792,633,-201,2352,-184,1,7,11
1.72313E+12,-8532,637,246,-485,2332,-182,1,7,11
1.72313E+12,-8394,234,355,-662,1942,-382,1,7,11
1.72313E+12,-8783,348,261,-1053,1763,-331,1,7,11
1.72313E+12,-8829,-27,-36,-1126,1496,33,1,7,11
1.72313E+12,-8831,-86,-49,-1140,1232,-104,1,7,11
1.72313E+12,-8789,-125,-31,-1143,936,282,1,7,11
1.72313E+12,-8817,69,301,-1124,685,347,1,7,11
1.72313E+12,-8783,55,335,-713,623,254,1,7,11
1.72313E+12,-8422,125,363,-798,358,636,1,7,11
1.72313E+12,-8341,-46,163,-409,-105,493,1,7,11
1.72313E+12,-8167,295,255,-582,-277,883,1,7,11
1.72313E+12,-7970,-84,178,-163,0,1064,1,7,11
1.72313E+12,-8133,352,532,288,-1202,-707,1,7,11
1.72313E+12,-8075,894,293,-551,-2662,-1758,1,7,11
1.72313E+12,-7931,329,498,-1210,-2993,-1827,1,7,11
1.72313E+12,-7655,-33,817,-1543,-2971,-1432,1,7,11
1.72313E+12,-7718,-81,825,-1640,-1971,-1279,1,7,11
1.72313E+12,-7739,-108,837,-1743,-564,-1187,1,7,11
1.72313E+12,-7760,-82,501,-1949,1301,-1810,1,7,11
1.72313E+12,-7604,281,455,-2042,1983,-3119,1,7,11
1.72313E+12,-7975,-128,626,-2388,2578,-4927,1,7,11
1.72313E+12,-7595,-119,308,-2644,2482,-7016,1,7,11
1.72313E+12,-8028,-362,-50,-3576,3167,-8716,1,7,11
1.72313E+12,-8265,-783,-24,-5141,2985,-9889,1,7,11
1.72313E+12,-8328,-1022,314,-5956,2471,-10535,1,7,11
1.72313E+12,-8541,-1553,-109,-6253,1846,-10099,1,7,11
1.72313E+12,-8358,-2168,297,-6096,1088,-9303,1,7,11
1.72313E+12,-8518,-2271,303,-5099,-24,-7921,1,7,11
1.72313E+12,-8168,-2263,-34,-4395,-241,-6593,1,7,11
1.72313E+12,-8453,-2573,-104,-3738,-665,-5385,1,7,11
1.72313E+12,-8088,-2385,-292,-3932,-1474,-4117,1,7,11
1.72313E+12,-7809,-1878,-606,-5445,-2339,-3339,1,7,11
1.72313E+12,-8062,-2113,-177,-8045,-2652,-2490,1,7,11
1.72313E+12,-8197,-2444,44,-9402,-2839,-1490,1,7,11
1.72313E+12,-7912,-2756,-128,-9601,-2698,-382,1,7,11
1.72313E+12,-8023,-2772,-81,-9281,-2549,965,1,7,11
1.72313E+12,-8005,-2941,-40,-8326,-2305,1955,1,7,11
1.72313E+12,-7865,-2839,296,-7807,-1741,2930,1,7,11
1.72313E+12,-8316,-2560,184,-6371,-1786,3459,1,7,11
1.72313E+12,-8115,-2461,173,-4595,-2424,4304,1,7,11
1.72313E+12,-8128,-2637,594,-2532,-3392,4566,1,7,11
1.72313E+12,-8157,-2659,803,-259,-5158,4059,1,7,11
1.72313E+12,-8032,-2455,440,2711,-6861,2551,1,7,11
1.72313E+12,-7422,-2823,1097,4964,-7741,666,1,7,11
1.72313E+12,-6645,-2809,422,9763,-6581,-3120,1,7,11
1.72313E+12,-8123,-1350,96,8730,-4060,-3228,1,7,11
1.72313E+12,-7584,-1947,468,5656,-3337,-2288,1,7,11
1.72313E+12,-8035,-2166,716,3828,-1961,-2017,1,7,11
1.72313E+12,-8042,-2313,975,2712,-1555,-1747,1,7,11
1.72313E+12,-7824,-2365,1169,2029,-1129,-1858,1,7,11
1.72313E+12,-7809,-2414,1568,1899,-892,-1534,1,7,11
1.72313E+12,-7809,-2415,1438,1426,-456,-1513,1,7,11
1.72313E+12,-7810,-2387,1808,1550,-594,-1516,1,7,11
1.72313E+12,-7829,-2368,1908,1175,-522,-1533,1,7,11
1.72313E+12,-8060,-2320,1761,1333,-244,-1802,1,7,11
1.72313E+12,-8055,-2329,2058,938,-218,-1819,1,7,11
1.72313E+12,-8043,-2337,2111,1096,-212,-1795,1,7,11
1.72313E+12,-7986,-2343,2106,740,-222,-1503,1,7,11
1.72313E+12,-7664,-2394,2103,829,-198,-1501,1,7,11
1.72313E+12,-7644,-2257,2101,402,-144,-1512,1,7,11
1.72313E+12,-7646,-2675,1788,582,-350,-1502,1,7,11
1.72313E+12,-7587,-2820,1674,560,-350,-1501,1,7,11
1.72313E+12,-7732,-2750,1878,202,-327,-1800,1,7,11
1.72313E+12,-7710,-2959,1664,287,-284,-1904,1,7,11
1.72313E+12,-7409,-3369,1684,-24,-284,-1810,1,7,11
1.72313E+12,-7396,-3257,1729,280,-309,-2132,1,7,11
1.72313E+12,-7406,-3612,2050,369,-343,-2152,1,7,11
1.72313E+12,-7688,-3614,1788,631,-178,-2118,1,7,11
1.72313E+12,-7795,-3261,2075,503,-187,-1750,1,7,11
1.72313E+12,-7773,-3204,2149,503,-550,-1827,1,7,11
1.72313E+12,-7705,-3247,1999,469,-398,-1641,1,7,11
1.72313E+12,-7305,-3238,2044,779,-494,-1221,1,7,11
1.72313E+12,-7144,-3210,2310,810,-785,-1408,1,7,11
1.72313E+12,-7285,-3218,2335,809,-511,-1400,1,7,11
1.72313E+12,-7207,-3216,2345,821,-457,-1157,1,7,11
1.72313E+12,-7200,-3446,2351,839,-609,-1401,1,7,11
1.72313E+12,-7221,-3404,2365,793,-245,-1348,1,7,11
1.72313E+12,-7221,-3422,2397,409,-172,-987,1,7,11
1.72313E+12,-7186,-3213,2176,537,-383,-1135,1,7,11
1.72313E+12,-6905,-3295,2242,165,-342,-1031,1,7,11
1.72313E+12,-6869,-3623,2294,371,-313,-682,1,7,11
1.72313E+12,-6840,-3663,2580,353,-285,-863,1,7,11
1.72313E+12,-6845,-3460,2619,325,16,-802,1,7,11
1.72313E+12,-6892,-3528,2655,334,66,-462,1,7,11
1.72313E+12,-7190,-3528,2624,134,-126,-608,1,7,11
1.72313E+12,-7231,-3507,2577,158,-49,-229,1,7,11
1.72313E+12,-7246,-3489,2284,340,280,-369,1,7,11
1.72313E+12,-7250,-3518,2273,-42,356,-278,1,7,11
1.72313E+12,-7252,-3848,2273,117,172,49,1,7,11
1.72313E+12,-7228,-3864,2209,96,234,87,1,7,11
1.72313E+12,-7266,-3894,2183,58,600,90,1,7,11
1.72313E+12,-7072,-3921,2179,43,422,102,1,7,11
1.72313E+12,-7147,-3948,2178,35,478,124,1,7,11
1.72313E+12,-7458,-3956,2427,48,497,-87,1,7,11
1.72313E+12,-7496,-3936,2407,71,483,-47,1,7,11
1.72313E+12,-7535,-3898,2400,96,452,264,1,7,11
1.72313E+12,-7299,-3848,2404,107,391,320,1,7,11
1.72313E+12,-7528,-3548,2389,-124,542,363,1,7,11
1.72313E+12,-7494,-3510,2348,119,193,382,1,7,11
1.72313E+12,-7470,-3494,2318,55,132,383,1,7,11
1.72313E+12,-7452,-3489,2042,-269,334,364,1,7,11
1.72313E+12,-7439,-3494,2014,-330,298,340,1,7,11
1.72313E+12,-7447,-3479,1983,-357,296,331,1,7,11
1.72313E+12,-7487,-3479,1996,-137,314,340,1,7,11
1.72313E+12,-7299,-3493,2046,-150,326,371,1,7,11
1.72313E+12,-7352,-3485,2337,-354,308,171,1,7,11
1.72313E+12,-7345,-3660,2038,-263,260,232,1,7,11
1.72313E+12,-7499,-3623,1970,56,-48,526,1,7,11
1.72313E+12,-7479,-3586,2167,52,-57,513,1,7,11
1.72313E+12,-7515,-3304,2157,7,-12,164,1,7,11
1.72313E+12,-7767,-3315,2323,69,-10,374,1,7,11
1.72313E+12,-7713,-3254,2023,-89,-58,136,1,7,11
1.72313E+12,-7396,-3207,1991,-62,-86,368,1,7,11
1.72313E+12,-7329,-3438,1951,-82,-105,306,1,7,11
1.72313E+12,-7528,-3435,1922,123,-92,-29,1,7,11
1.72313E+12,-7509,-3442,2161,64,-47,-109,1,7,11
1.72313E+12,-7521,-3209,2168,19,276,92,1,7,11
1.72313E+12,-7536,-3232,1920,1,327,74,1,7,11
1.72313E+12,-7535,-3237,2172,7,359,70,1,7,11
1.72313E+12,-7542,-3236,2170,4,375,77,1,7,11
1.72313E+12,-7311,-3244,1938,-264,377,79,1,7,11
1.72313E+12,-7335,-3258,1958,-264,358,86,1,7,11
1.72313E+12,-7345,-3248,1959,20,326,99,1,7,11
1.72313E+12,-7307,-3231,2168,77,279,116,1,7,11
1.72313E+12,-7548,-3217,2121,46,292,122,1,7,11
1.72313E+12,-7533,-3221,2095,-278,323,118,1,7,11
1.72313E+12,-7312,-3248,2107,-360,370,102,1,7,11
1.72313E+12,-7379,-3291,2155,-156,132,87,1,7,11
1.72313E+12,-7710,-3594,1948,-136,356,91,1,7,11
1.72313E+12,-7723,-3320,1936,-296,277,123,1,7,11
1.72313E+12,-7692,-3304,2159,37,-63,-103,1,7,11
1.72313E+12,-7382,-3275,2137,58,123,-93,1,7,11
1.72313E+12,-7325,-3270,2122,23,84,-113,1,7,11
1.72313E+12,-7524,-3273,2123,-336,94,79,1,7,11
1.72313E+12,-7529,-3299,1924,-147,-114,40,1,7,11
1.72313E+12,-7386,-3600,2003,-378,-28,36,1,7,11
1.72313E+12,-7692,-3588,2018,-277,-49,81,1,7,11
1.72313E+12,-7687,-3300,1996,73,-107,-122,1,7,11
1.72313E+12,-7380,-3261,1962,-120,83,-79,1,7,11
1.72313E+12,-7313,-3229,1925,-126,41,-65,1,7,11
1.72313E+12,-7506,-3221,2162,56,33,-94,1,7,11
1.72313E+12,-7475,-3226,2148,-291,69,94,1,7,11
1.72313E+12,-7491,-3235,2171,-368,-126,19,1,7,11
1.72313E+12,-7301,-3253,1956,-157,-62,-296,1,7,11
1.72313E+12,-7384,-3274,2025,-145,-29,-302,1,7,11
1.72313E+12,-7423,-3266,2037,-338,-59,-269,1,7,11
1.72313E+12,-7413,-3238,2014,-279,-115,26,1,7,11
1.72313E+12,-7371,-3214,1973,-263,86,52,1,7,11
1.72313E+12,-7330,-3454,1940,-292,47,61,1,7,11
1.72313E+12,-7530,-3456,2166,-351,23,63,1,7,11
1.72313E+12,-7475,-3211,2136,-167,32,59,1,7,11
1.72313E+12,-7452,-3239,2128,-233,71,52,1,7,11
1.72313E+12,-7460,-3282,2132,-531,-128,44,1,7,11
1.72313E+12,-7490,-3309,2149,-531,-71,32,1,7,11
1.72313E+12,-7548,-3594,1921,-237,-18,33,1,7,11
