timestamp,ax,ay,az,gx,gy,gz,Label1,Label2,Label3
1.72313E+12,-5119,-5537,4429,-679,-394,-17,1,7,11
1.72313E+12,-5080,-5536,4415,-840,-632,-106,1,7,11
1.72313E+12,-5040,-5530,4400,-502,-598,68,1,7,11
1.72313E+12,-5007,-5516,4374,-439,-547,-258,1,7,11
1.72313E+12,-5233,-5754,4092,-401,-234,-318,1,7,11
1.72313E+12,-5218,-5739,4077,-385,-161,-361,1,7,11
1.72313E+12,-5212,-5731,4063,-388,-340,-380,1,7,11
1.72313E+12,-5225,-5717,4056,-406,-271,-132,1,7,11
1.72313E+12,-5232,-5714,4044,-427,36,-383,1,7,11
1.72313E+12,-5243,-5720,4033,-465,70,-370,1,7,11
1.72313E+12,-5009,-5722,4018,-771,74,-350,1,7,11
1.72313E+12,-5046,-5711,4011,-826,52,-325,1,7,11
1.72313E+12,-5081,-5712,4012,-894,8,-274,1,7,11
1.72313E+12,-5105,-5737,4013,-706,-313,49,1,7,11
1.72313E+12,-5112,-5751,4007,-1026,-139,107,1,7,11
1.72313E+12,-5113,-5760,3978,-1092,-225,-112,1,7,11
1.72313E+12,-5108,-5523,3969,-909,-554,-104,1,7,11
1.72313E+12,-5113,-5564,3983,-993,-602,-82,1,7,11
1.72313E+12,-5109,-5600,3986,-1309,-412,-62,1,7,11
1.72313E+12,-5098,-5608,4214,-1328,-450,-45,1,7,11
1.72313E+12,-5074,-5621,4198,-1353,-464,-14,1,7,11
1.72313E+12,-5068,-5894,4200,-1373,-444,284,1,7,11
1.72313E+12,-5064,-5892,4178,-1349,-422,334,1,7,11
1.72313E+12,-5055,-5891,4151,-1336,-389,370,1,7,11
1.72313E+12,-5058,-5900,4145,-1342,-607,138,1,7,11
1.72313E+12,-5057,-5926,4138,-1330,-593,146,1,7,11
1.72313E+12,-5049,-5929,4129,-1287,-590,140,1,7,11
1.72313E+12,-5049,-5917,3831,-988,-577,136,1,7,11
1.72313E+12,-5045,-5908,3804,-959,-565,142,1,7,11
1.72313E+12,-5045,-5928,3802,-952,-555,138,1,7,11
1.72313E+12,-5038,-5955,3822,-926,-558,138,1,7,11
1.72313E+12,-5028,-6009,4122,-1127,-572,147,1,7,11
1.72313E+12,-5036,-5848,4186,-765,-592,153,1,7,11
1.72313E+12,-5001,-5882,4161,-815,-404,377,1,7,11
1.72313E+12,-5175,-6152,4108,-389,-428,308,1,7,11
1.72313E+12,-4846,-5883,3795,-243,-416,-58,1,7,11
1.72313E+12,-4754,-5840,3715,-150,-613,66,1,7,11
1.72313E+12,-4748,-5807,3938,-134,-211,-337,1,7,11
1.72313E+12,-4801,-5779,3944,-135,-293,-203,1,7,11
1.72313E+12,-4859,-5996,3935,-382,-128,-526,1,7,11
1.72313E+12,-5193,-5973,3940,-135,285,-536,1,7,11
1.72313E+12,-5240,-5950,3919,-154,383,-247,1,7,11
1.72313E+12,-5023,-5960,3917,-195,196,-189,1,7,11
1.72313E+12,-5057,-5986,3947,-211,228,-130,1,7,11
1.72313E+12,-5068,-5769,3952,-215,210,-338,1,7,11
1.72313E+12,-5051,-5795,3930,-199,157,-302,1,7,11
1.72313E+12,-5049,-5820,3923,-185,365,-281,1,7,11
1.72313E+12,-5052,-5840,3897,-160,313,-258,1,7,11
1.72313E+12,-5032,-5877,3898,-378,262,26,1,7,11
1.72313E+12,-5237,-6178,3891,-332,-38,42,1,7,11
1.72313E+12,-5198,-6184,3894,7,-29,28,1,7,11
1.72313E+12,-5162,-6197,3895,-128,276,9,1,7,11
1.72313E+12,-5157,-6205,3912,286,366,-273,1,7,11
1.72313E+12,-5135,-6185,3922,200,197,-289,1,7,11
1.72313E+12,-4846,-6161,3957,605,552,-311,1,7,11
1.72313E+12,-4857,-6130,3728,769,440,-341,1,7,11
1.72313E+12,-5180,-5826,3748,696,870,-361,1,7,11
1.72313E+12,-5199,-5801,3766,1127,1033,-361,1,7,11
1.72313E+12,-5009,-5975,3783,1292,930,-347,1,7,11
1.72313E+12,-5026,-5918,3779,1171,1308,-324,1,7,11
1.72313E+12,-5033,-5609,3768,1252,1156,-305,1,7,11
1.72313E+12,-5057,-5559,3748,1550,1237,-305,1,7,11
1.72313E+12,-5080,-5546,3740,1274,1565,-318,1,7,11
1.72313E+12,-5412,-5527,3734,1247,1621,-338,1,7,11
1.72313E+12,-5437,-5519,3736,1206,1641,-339,1,7,11
1.72313E+12,-5447,-5531,3736,1171,1637,-346,1,7,11
1.72313E+12,-5450,-5521,3722,1398,1608,-362,1,7,11
1.72313E+12,-5461,-5518,3956,1389,1590,-133,1,7,11
1.72313E+12,-5486,-5541,3718,1369,1591,-176,1,7,11
1.72313E+12,-5501,-5532,3713,1379,1574,-210,1,7,11
1.72313E+12,-5274,-5547,3722,1394,1544,-214,1,7,11
1.72313E+12,-5282,-5553,3739,1153,1245,-220,1,7,11
1.72313E+12,-5300,-5564,3789,1171,1191,-216,1,7,11
1.72313E+12,-5306,-5565,3824,1218,1363,-208,1,7,11
1.72313E+12,-5304,-5543,3837,1275,1284,-197,1,7,11
1.72313E+12,-5301,-5528,4111,1578,964,-163,1,7,11
1.72313E+12,-5257,-5745,4111,1631,1144,-137,1,7,11
1.72313E+12,-5478,-5722,4146,1415,1105,-383,1,7,11
1.72313E+12,-5436,-5708,4191,1465,1084,-375,1,7,11
1.72313E+12,-5377,-5711,3995,1529,1092,-380,1,7,11
1.72313E+12,-5067,-5700,4031,1883,1143,-150,1,7,11
1.72313E+12,-5246,-5709,4062,1728,971,-196,1,7,11
1.72313E+12,-5177,-5760,4370,2097,1347,-540,1,7,11
1.72313E+12,-5138,-5560,4392,2022,1258,-411,1,7,11
1.72313E+12,-5136,-5589,4398,2246,1470,-813,1,7,11
1.72313E+12,-5146,-5586,4408,2477,1669,-717,1,7,11
1.72313E+12,-5160,-5605,4406,2937,2104,-1151,1,7,11
1.72313E+12,-5229,-5603,4414,3163,2042,-1315,1,7,11
1.72313E+12,-5061,-5557,4407,3389,2211,-1193,1,7,11
1.72313E+12,-5402,-5733,4398,3307,2582,-1560,1,7,11
1.72313E+12,-5464,-5663,4396,3662,2629,-1648,1,7,11
1.72313E+12,-5259,-5337,4390,3707,2636,-1480,1,7,11
1.72313E+12,-5298,-5297,4406,3692,2618,-1816,1,7,11
1.72313E+12,-5353,-5491,4418,3663,2575,-1901,1,7,11
1.72313E+12,-5652,-5430,4434,3601,2251,-1712,1,7,11
1.72313E+12,-5670,-5381,4229,3243,2413,-1745,1,7,11
1.72313E+12,-5647,-5083,4264,3376,2044,-1758,1,7,11
1.72313E+12,-5355,-5050,4298,2986,1954,-1761,1,7,11
1.72313E+12,-5332,-5018,4347,3101,2146,-1755,1,7,11
1.72313E+12,-5318,-4995,4659,2872,2082,-1731,1,7,11
1.72313E+12,-5306,-5007,4731,2467,1781,-1685,1,7,11
1.72313E+12,-5296,-5019,4535,2613,1735,-1864,1,7,11
1.72313E+12,-5251,-5034,4561,2569,1687,-1507,1,7,11
1.72313E+12,-5449,-5060,4572,2219,1908,-1414,1,7,11
1.72313E+12,-5396,-5081,4571,2181,1906,-1606,1,7,11
1.72313E+12,-5383,-5090,4570,2399,1698,-1574,1,7,11
1.72313E+12,-5500,-4787,4726,1730,2066,-1002,1,7,11
1.72313E+12,-5306,-4784,4495,1821,1756,-960,1,7,11
1.72313E+12,-5343,-4760,4511,1430,1904,-943,1,7,11
1.72313E+12,-5661,-4767,4567,1540,1806,-941,1,7,11
1.72313E+12,-5717,-4761,4865,1188,1443,-933,1,7,11
1.72313E+12,-5750,-4761,4918,1358,1603,-934,1,7,11
1.72313E+12,-5540,-4773,4976,1309,1264,-916,1,7,11
1.72313E+12,-5564,-4786,4753,1021,1191,-1128,1,7,11
1.72313E+12,-5583,-4788,4793,997,1156,-1083,1,7,11
1.72313E+12,-5570,-4758,4809,988,1406,-1030,1,7,11
1.72313E+12,-5540,-4946,4810,958,1200,-725,1,7,11
1.72313E+12,-5531,-4883,4824,901,1543,-657,1,7,11
1.72313E+12,-5506,-4566,4825,1095,1630,-820,1,7,11
1.72313E+12,-5740,-4542,4819,745,1444,-465,1,7,11
1.72313E+12,-5697,-4577,4801,645,1471,-638,1,7,11
1.72313E+12,-5672,-4879,4762,826,1486,-606,1,7,11
1.72313E+12,-5671,-4914,4970,814,1491,-621,1,7,11
1.72313E+12,-5678,-4951,4925,847,1476,-399,1,7,11
1.72313E+12,-5696,-4989,4891,642,1456,-458,1,7,11
1.72313E+12,-5750,-4813,4884,698,1445,-772,1,7,11
1.72313E+12,-5528,-4819,4594,1083,1662,-826,1,7,11
1.72313E+12,-5590,-5141,4871,901,1661,-877,1,7,11
1.72313E+12,-5947,-5223,4932,1021,1660,-890,1,7,11
1.72313E+12,-5991,-5207,4921,1169,1616,-896,1,7,11
1.72313E+12,-5776,-5002,4963,1254,1576,-881,1,7,11
1.72313E+12,-5970,-5245,4946,1418,1188,-896,1,7,11
1.72313E+12,-5928,-5218,4922,1467,1393,-667,1,7,11
1.72313E+12,-5608,-5191,4883,1483,1346,-711,1,7,11
1.72313E+12,-5560,-5190,4871,1458,1339,-1025,1,7,11
1.72313E+12,-5540,-5148,4588,1437,1352,-1068,1,7,11
1.72313E+12,-5752,-4831,4560,1645,1362,-1083,1,7,11
1.72313E+12,-5701,-4780,4550,1567,1371,-1078,1,7,11
1.72313E+12,-5645,-4975,4521,1236,1385,-1041,1,7,11
1.72313E+12,-5327,-4905,4723,1404,1393,-722,1,7,11
1.72313E+12,-5261,-4866,4667,1014,1384,-895,1,7,11
1.72313E+12,-5440,-4603,4620,1120,1347,-813,1,7,11
1.72313E+12,-5395,-4885,4313,720,1315,-487,1,7,11
1.72313E+12,-5120,-4940,4282,857,1283,-418,1,7,11
1.72313E+12,-5431,-4737,4265,770,995,-640,1,7,11
1.72313E+12,-5273,-4772,4244,474,949,-605,1,7,11
1.72313E+12,-5373,-4786,4478,480,1139,-557,1,7,11
1.72313E+12,-5697,-4783,4436,496,1052,-241,1,7,11
1.72313E+12,-5737,-4788,4432,487,691,-215,1,7,11
1.72313E+12,-5578,-4783,4446,465,853,-244,1,7,11
1.72313E+12,-5925,-4742,4437,467,490,-539,1,7,11
1.72313E+12,-6001,-4969,4442,436,401,-560,1,7,11
1.72313E+12,-5820,-4972,4451,635,577,-566,1,7,11
1.72313E+12,-5825,-4985,4445,584,210,-566,1,7,11
1.72313E+12,-5782,-4987,4422,543,136,-604,1,7,11
1.72313E+12,-5987,-4988,4403,247,375,-431,1,7,11
1.72313E+12,-5965,-4987,4385,193,383,-778,1,7,11
1.72313E+12,-5906,-4757,4382,380,171,-661,1,7,11
1.72313E+12,-5619,-4814,4382,310,192,-715,1,7,11
1.72313E+12,-5580,-5140,4389,267,255,-752,1,7,11
1.72313E+12,-5544,-5204,4394,269,533,-1031,1,7,11
1.72313E+12,-5510,-5248,4396,295,572,-1058,1,7,11
1.72313E+12,-5714,-5049,4414,298,563,-1104,1,7,11
1.72313E+12,-5679,-5094,4436,319,541,-914,1,7,11
1.72313E+12,-5374,-5403,4449,329,246,-978,1,7,11
1.72313E+12,-5345,-5429,4468,345,210,-1312,1,7,11
1.72313E+12,-5335,-5449,4238,360,181,-1384,1,7,11
1.72313E+12,-5314,-5459,4240,380,150,-1393,1,7,11
1.72313E+12,-5296,-5466,4237,129,371,-1370,1,7,11
1.72313E+12,-5270,-5474,4232,131,358,-1313,1,7,11
1.72313E+12,-5491,-5486,4231,376,345,-978,1,7,11
1.72313E+12,-5465,-5493,4478,347,342,-1151,1,7,11
1.72313E+12,-5437,-5485,4467,314,319,-1073,1,7,11
1.72313E+12,-5431,-5486,4225,258,285,-753,1,7,11
1.72313E+12,-5426,-5467,4466,-40,-9,-695,1,7,11
1.72313E+12,-5439,-5458,4464,124,-48,-896,1,7,11
1.72313E+12,-5443,-5475,4224,37,-104,-838,1,7,11
1.72313E+12,-5431,-5262,4244,-305,79,-801,1,7,11
1.72313E+12,-5383,-5294,4251,-360,-271,-790,1,7,11
1.72313E+12,-5084,-5321,4242,-151,-344,-824,1,7,11
1.72313E+12,-5087,-5330,4230,-192,-135,-883,1,7,11
1.72313E+12,-5088,-5325,4478,-243,-180,-666,1,7,11
1.72313E+12,-5093,-5340,4479,-564,-219,-677,1,7,11
1.72313E+12,-5094,-5356,4474,-627,-516,-652,1,7,11
1.72313E+12,-5054,-5646,4226,-422,-565,-858,1,7,11
1.72313E+12,-5236,-5724,4240,-457,-614,-816,1,7,11
1.72313E+12,-5181,-5520,4254,-443,-629,-809,1,7,11
1.72313E+12,-5154,-5562,4270,-407,-621,-815,1,7,11
1.72313E+12,-5147,-5575,4286,-625,-631,-823,1,7,11
1.72313E+12,-5150,-5582,4297,-607,-416,-824,1,7,11
1.72313E+12,-5158,-5585,4331,-611,-470,-804,1,7,11
1.72313E+12,-5158,-5585,4612,-626,-799,-486,1,7,11
1.72313E+12,-5136,-5596,4638,-398,-877,-389,1,7,11
1.72313E+12,-4813,-5603,4641,-446,-703,-532,1,7,11
1.72313E+12,-4985,-5907,4675,-782,-756,-171,1,7,11
1.72313E+12,-4912,-5976,4722,-848,-1031,-352,1,7,11
1.72313E+12,-4574,-5761,4481,-868,-1038,-297,1,7,11
1.72313E+12,-4497,-5777,4730,-881,-763,-259,1,7,11
1.72313E+12,-4687,-5794,4714,-882,-712,26,1,7,11
1.72313E+12,-4645,-5801,4694,-876,-890,48,1,7,11
1.72313E+12,-4628,-5809,4684,-861,-794,73,1,7,11
1.72313E+12,-4623,-5793,4663,-854,-449,103,1,7,11
1.72313E+12,-4639,-5807,4682,-882,-633,-117,1,7,11
1.72313E+12,-4644,-5855,4718,-661,-614,-81,1,7,11
1.72313E+12,-4657,-6162,4489,-651,-621,-76,1,7,11
1.72313E+12,-4679,-6188,4499,-853,-640,-68,1,7,11
1.72313E+12,-4688,-6194,4491,-792,-411,-50,1,7,11
1.72313E+12,-4677,-6183,4710,-480,-435,-30,1,7,11
1.72313E+12,-4652,-6180,4669,-446,-433,-15,1,7,11
1.72313E+12,-4613,-6177,4649,-436,-414,-8,1,7,11
1.72313E+12,-4298,-6234,4644,-449,-625,-30,1,7,11
1.72313E+12,-4256,-6267,4638,-447,-547,-101,1,7,11
1.72313E+12,-4267,-6026,4615,-401,-176,64,1,7,11
1.72313E+12,-4292,-6018,4318,-600,-315,-287,1,7,11
1.72313E+12,-4338,-6268,4269,-580,59,-155,1,7,11
1.72313E+12,-4637,-6220,4452,-561,-33,-204,1,7,11
1.72313E+12,-4672,-6177,4366,-591,313,-215,1,7,11
1.72313E+12,-4703,-6206,4050,-413,382,-197,1,7,11
1.72313E+12,-4483,-6263,3997,-475,176,-166,1,7,11
1.72313E+12,-4532,-6066,4194,-775,217,-133,1,7,11
1.72313E+12,-4602,-6101,4138,-803,241,-341,1,7,11
1.72313E+12,-4927,-6123,3827,-826,230,-265,1,7,11
1.72313E+12,-4754,-6405,3796,-849,194,106,1,7,11
1.72313E+12,-4820,-6450,3778,-853,370,-3,1,7,11
1.72313E+12,-5125,-6510,3789,-823,264,171,1,7,11
1.72313E+12,-5123,-6290,3792,-492,117,598,1,7,11
1.72313E+12,-4847,-6295,3803,-415,-294,468,1,7,11
1.72313E+12,-4819,-6282,3835,-601,-197,807,1,7,11
1.72313E+12,-4766,-6487,4118,-527,-612,839,1,7,11
1.72313E+12,-4979,-6127,4135,-200,-479,834,1,7,11
1.72313E+12,-4948,-6261,4146,-154,-820,807,1,7,11
1.72313E+12,-4920,-6161,4174,-150,-878,775,1,7,11
1.72313E+12,-4881,-5803,4213,-162,-673,477,1,7,11
1.72313E+12,-4587,-5999,4017,-208,-713,416,1,7,11
1.72313E+12,-4569,-5985,4087,-525,-738,595,1,7,11
1.72313E+12,-4563,-5993,4413,-588,-758,253,1,7,11
1.72313E+12,-4569,-5767,4228,-423,-1041,161,1,7,11
1.72313E+12,-4573,-5804,4313,-781,-1072,337,1,7,11
1.72313E+12,-4579,-5849,4659,-894,-1099,271,1,7,11
1.72313E+12,-4574,-5857,4690,-730,-1124,-23,1,7,11
1.72313E+12,-4538,-5867,4677,-1104,-1134,-38,1,7,11
1.72313E+12,-4499,-5881,4652,-978,-1115,-43,1,7,11
1.72313E+12,-4703,-6147,4333,-1339,-1077,-37,1,7,11
1.72313E+12,-4679,-6156,4278,-1174,-745,-21,1,7,11
1.72313E+12,-4681,-6194,4287,-1253,-644,256,1,7,11
1.72313E+12,-4717,-6254,4311,-1255,-813,296,1,7,11
1.72313E+12,-4679,-6207,4247,-1406,-785,332,1,7,11
1.72313E+12,-4671,-6162,4237,-1341,-487,346,1,7,11
1.72313E+12,-4692,-5858,4250,-984,-462,372,1,7,11
1.72313E+12,-4693,-5769,4243,-1124,-470,147,1,7,11
1.72313E+12,-4711,-5963,4248,-1052,-493,189,1,7,11
1.72313E+12,-4728,-5932,4257,-751,-796,229,1,7,11
1.72313E+12,-4510,-5955,4317,-758,-836,252,1,7,11
1.72313E+12,-4587,-5971,4616,-763,-882,523,1,7,11
1.72313E+12,-4898,-5970,4643,-1040,-696,546,1,7,11
1.72313E+12,-4945,-5933,4647,-1094,-1035,566,1,7,11
1.72313E+12,-4974,-5895,4643,-928,-1118,607,1,7,11
1.72313E+12,-4983,-5585,4608,-1298,-952,408,1,7,11
1.72313E+12,-4991,-5533,4303,-1204,-1303,470,1,7,11
1.72313E+12,-4743,-5517,4276,-1655,-1408,793,1,7,11
1.72313E+12,-4756,-5511,4458,-1859,-1279,862,1,7,11
1.72313E+12,-4743,-5522,4409,-2065,-1412,683,1,7,11
1.72313E+12,-4743,-5530,4388,-2009,-1801,758,1,7,11
1.72313E+12,-4744,-5564,4077,-2196,-1675,1095,1,7,11
1.72313E+12,-4737,-5623,4053,-2619,-2056,912,1,7,11
1.72313E+12,-4980,-6009,4033,-2502,-1925,976,1,7,11
1.72313E+12,-4949,-5831,4015,-2871,-2047,1020,1,7,11
1.72313E+12,-4931,-6153,4011,-2693,-2397,1312,1,7,11
1.72313E+12,-4895,-6191,3990,-2717,-2213,1356,1,7,11
1.72313E+12,-4608,-6227,3980,-2725,-2263,1394,1,7,11
1.72313E+12,-4569,-6235,4208,-2705,-2291,1195,1,7,11
1.72313E+12,-4512,-6244,4183,-2921,-2299,1227,1,7,11
1.72313E+12,-4708,-6237,4152,-2872,-2267,1241,1,7,11
1.72313E+12,-4632,-6215,4120,-2513,-2223,1238,1,7,11
1.72313E+12,-4302,-6196,4109,-2443,-2425,1218,1,7,11
1.72313E+12,-4226,-6177,3837,-2623,-2371,1182,1,7,11
1.72313E+12,-4400,-5882,3811,-2283,-2327,1377,1,7,11
1.72313E+12,-4076,-5836,3794,-2202,-2020,1294,1,7,11
1.72313E+12,-4032,-5804,3792,-2382,-1961,954,1,7,11
1.72313E+12,-4030,-5820,3821,-2321,-2142,1130,1,7,11
1.72313E+12,-4087,-6146,4183,-2006,-2063,1069,1,7,11
1.72313E+12,-4458,-6235,4058,-2135,-1736,1031,1,7,11
1.72313E+12,-4349,-6051,4428,-1689,-1920,1025,1,7,11
1.72313E+12,-4520,-6106,4285,-1485,-1841,1066,1,7,11
1.72313E+12,-4912,-6422,4643,-1559,-1515,898,1,7,11
1.72313E+12,-4773,-6504,4503,-1408,-1440,1009,1,7,11
1.72313E+12,-4863,-6325,4599,-996,-1623,1372,1,7,11
1.72313E+12,-5189,-6394,4936,-1109,-1543,1203,1,7,11
1.72313E+12,-5219,-6689,4737,-713,-1228,1267,1,7,11
1.72313E+12,-5210,-6688,4758,-844,-1173,1551,1,7,11
1.72313E+12,-5178,-6659,4755,-478,-1364,1546,1,7,11
1.72313E+12,-5121,-6330,4974,-638,-1294,1253,1,7,11
1.72313E+12,-4773,-6454,4895,-553,-962,1187,1,7,11
1.72313E+12,-4929,-6032,4533,-239,-1118,1351,1,7,11
1.72313E+12,-4518,-5800,4628,-220,-754,934,1,7,11
1.72313E+12,-4676,-5928,4262,-226,-648,1064,1,7,11
1.72313E+12,-4343,-5569,4430,-515,-781,675,1,7,11
1.72313E+12,-4312,-5520,4366,-569,-596,790,1,7,11
1.72313E+12,-4611,-5734,4064,-631,-215,393,1,7,11
1.72313E+12,-4689,-5705,4027,-449,-383,539,1,7,11
1.72313E+12,-4519,-5709,4027,-777,-331,204,1,7,11
1.72313E+12,-4878,-5518,4053,-842,-304,157,1,7,11
1.72313E+12,-4963,-5566,4078,-871,-317,135,1,7,11
1.72313E+12,-4786,-5624,4356,-877,-346,382,1,7,11
1.72313E+12,-4834,-5909,4361,-853,-147,383,1,7,11
1.72313E+12,-5124,-5928,4363,-822,-200,146,1,7,11
1.72313E+12,-5132,-5945,4367,-789,-249,169,1,7,11
1.72313E+12,-5125,-5958,4356,-504,-545,197,1,7,11
1.72313E+12,-4840,-5974,4358,-474,-573,218,1,7,11
1.72313E+12,-4830,-5974,4360,-442,-572,226,1,7,11
1.72313E+12,-4804,-5959,4359,-397,-571,231,1,7,11
1.72313E+12,-4792,-5922,4083,-622,-552,225,1,7,11
1.72313E+12,-4797,-5899,4071,-627,-518,232,1,7,11
1.72313E+12,-4790,-5901,4084,-408,-231,244,1,7,11
1.72313E+12,-4781,-5909,4360,-451,-202,249,1,7,11
1.72313E+12,-4771,-5932,4364,-504,-167,243,1,7,11
1.72313E+12,-4772,-5959,4382,-821,-384,230,1,7,11
1.72313E+12,-4771,-5974,4376,-877,-354,224,1,7,11
1.72313E+12,-4779,-5971,4360,-672,-316,229,1,7,11
1.72313E+12,-4823,-5934,4068,-709,0,252,1,7,11
1.72313E+12,-5151,-5918,4039,-755,77,581,1,7,11
1.72313E+12,-5215,-5947,4022,-1044,-113,436,1,7,11
1.72313E+12,-4994,-5989,3988,-1039,-80,784,1,7,11
1.72313E+12,-5011,-5998,4201,-731,-79,812,1,7,11
1.72313E+12,-5002,-5990,4142,-692,-106,819,1,7,11
1.72313E+12,-5238,-5763,4123,-678,121,804,1,7,11
1.72313E+12,-5220,-5815,4121,-895,65,493,1,7,11
1.72313E+12,-5219,-5832,4102,-805,-275,399,1,7,11
1.72313E+12,-5213,-5837,3829,-440,-377,550,1,7,11
1.72313E+12,-5187,-5849,3828,-600,-242,205,1,7,11
1.72313E+12,-5155,-5838,3805,-252,-603,378,1,7,11
1.72313E+12,-5132,-5815,3800,-167,-401,322,1,7,11
1.72313E+12,-5146,-5794,3824,-329,-386,334,1,7,11
1.72313E+12,-5194,-5982,3829,60,-554,171,1,7,11
1.72313E+12,-5034,-5942,4117,-69,-137,608,1,7,11
1.72313E+12,-5405,-5893,4145,320,39,849,1,7,11
1.72313E+12,-5253,-5577,4144,184,-73,935,1,7,11
1.72313E+12,-5307,-5528,4151,536,317,1350,1,7,11
1.72313E+12,-5338,-5748,4169,608,224,1191,1,7,11
1.72313E+12,-5343,-5726,4181,410,537,1201,1,7,11
1.72313E+12,-5334,-5685,4184,435,551,1381,1,7,11
1.72313E+12,-5356,-5362,4183,422,527,951,1,7,11
1.72313E+12,-5651,-5293,4182,619,227,741,1,7,11
1.72313E+12,-5692,-5479,4190,537,168,800,1,7,11
1.72313E+12,-5715,-5439,4204,194,369,396,1,7,11
1.72313E+12,-5722,-5407,4205,373,340,545,1,7,11
1.72313E+12,-5718,-5382,4209,290,339,218,1,7,11
1.72313E+12,-5701,-5094,4198,-41,333,173,1,7,11
1.72313E+12,-5661,-5101,4195,106,338,138,1,7,11
1.72313E+12,-5651,-5117,4207,8,373,354,1,7,11
1.72313E+12,-5659,-5383,4206,-311,128,326,1,7,11
1.72313E+12,-5652,-5407,4210,-367,144,319,1,7,11
1.72313E+12,-5674,-5415,4212,-138,167,310,1,7,11
1.72313E+12,-5713,-5439,3968,-160,168,313,1,7,11
1.72313E+12,-5745,-5439,4215,-156,381,319,1,7,11
1.72313E+12,-5515,-5433,4204,-163,328,323,1,7,11
1.72313E+12,-5541,-5414,4178,-160,256,332,1,7,11
1.72313E+12,-5555,-5396,4166,-177,-80,351,1,7,11
1.72313E+12,-5561,-5396,4169,-211,102,367,1,7,11
1.72313E+12,-5568,-5397,4172,-231,26,378,1,7,11
1.72313E+12,-5570,-5389,4174,-231,-307,381,1,7,11
1.72313E+12,-5561,-5119,4171,-245,-373,373,1,7,11
1.72313E+12,-5529,-5097,4203,-565,-622,286,1,7,11
1.72313E+12,-5514,-5380,4209,-628,-411,-32,1,7,11
1.72313E+12,-5523,-5390,3970,-417,-455,-128,1,7,11
1.72313E+12,-5548,-5378,4220,-442,-494,37,1,7,11
1.72313E+12,-5540,-5099,4197,-475,-789,-276,1,7,11
1.72313E+12,-5506,-5101,4192,-787,-796,-318,1,7,11
1.72313E+12,-5717,-5383,4218,-829,-782,-344,1,7,11
1.72313E+12,-5679,-5414,4214,-846,-492,-365,1,7,11
1.72313E+12,-5371,-5423,4208,-828,-447,-366,1,7,11
1.72313E+12,-5334,-5441,4193,-824,-610,-342,1,7,11
1.72313E+12,-5307,-5463,4187,-815,-241,-296,1,7,11
1.72313E+12,-5264,-5496,4197,-816,-378,23,1,7,11
1.72313E+12,-5267,-5254,4204,-810,3,77,1,7,11
1.72313E+12,-5279,-5263,4189,-787,-104,-104,1,7,11
1.72313E+12,-5320,-5259,4178,-503,-39,-68,1,7,11
1.72313E+12,-5374,-5497,4151,-498,-19,-33,1,7,11
1.72313E+12,-5695,-5489,4136,-771,-33,258,1,7,11
1.72313E+12,-5752,-5502,4146,-801,-87,295,1,7,11
1.72313E+12,-5547,-5257,4166,-809,85,314,1,7,11
1.72313E+12,-5583,-5504,4162,-783,-279,328,1,7,11
1.72313E+12,-5608,-5495,4153,-497,-135,341,1,7,11
1.72313E+12,-5618,-5490,4164,-475,-239,356,1,7,11
1.72313E+12,-5603,-5487,4170,-444,-585,371,1,7,11
1.72313E+12,-5587,-5491,4189,-409,-630,128,1,7,11
1.72313E+12,-5558,-5503,4203,-621,-386,137,1,7,11
1.72313E+12,-5516,-5255,4210,-567,-620,139,1,7,11
1.72313E+12,-5719,-5284,4218,-245,-564,377,1,7,11
1.72313E+12,-5698,-5300,3977,-135,-204,257,1,7,11
1.72313E+12,-5665,-5455,4195,-305,-171,-116,1,7,11
1.72313E+12,-5340,-5434,4176,-348,-134,110,1,7,11
1.72313E+12,-5342,-5419,4192,-131,-323,87,1,7,11
1.72313E+12,-5347,-5410,4213,-139,-262,93,1,7,11
1.72313E+12,-5326,-5387,4188,-143,105,107,1,7,11
1.72313E+12,-5314,-5118,4172,-164,-79,98,1,7,11
1.72313E+12,-5329,-5096,4133,-216,-10,75,1,7,11
1.72313E+12,-5359,-5103,4120,-550,310,55,1,7,11
1.72313E+12,-5660,-5382,4111,-631,367,56,1,7,11
1.72313E+12,-5701,-5404,4109,-447,169,80,1,7,11
1.72313E+12,-5744,-5443,4108,-511,190,115,1,7,11
1.72313E+12,-5514,-5469,3834,-774,184,-94,1,7,11
1.72313E+12,-5527,-5480,3815,-510,156,-50,1,7,11
1.72313E+12,-5538,-5257,3784,-505,129,-5,1,7,11
1.72313E+12,-5542,-5289,3766,-493,355,287,1,7,11
1.72313E+12,-5535,-5329,3755,-472,318,315,1,7,11
1.72313E+12,-5526,-5366,3746,-433,284,339,1,7,11
1.72313E+12,-5520,-5653,3728,-634,261,354,1,7,11
1.72313E+12,-5509,-5666,3714,-581,-13,368,1,7,11
1.72313E+12,-5509,-5654,3955,-534,-30,378,1,7,11
1.72313E+12,-5739,-5374,3946,-241,-53,129,1,7,11
1.72313E+12,-5715,-5333,3924,-217,-74,133,1,7,11
1.72313E+12,-5695,-5316,3920,-219,-82,140,1,7,11
1.72313E+12,-5710,-5273,3926,-225,-77,147,1,7,11
1.72313E+12,-5734,-5493,3933,-226,-65,192,1,7,11
1.72313E+12,-5738,-5456,3919,-211,-57,519,1,7,11
1.72313E+12,-5724,-5444,3921,-207,-43,595,1,7,11
1.72313E+12,-5735,-5433,3924,-174,-26,405,1,7,11
1.72313E+12,-5741,-5401,3920,-377,-28,458,1,7,11
1.72313E+12,-5521,-5388,3923,-333,-6,504,1,7,11
1.72313E+12,-5566,-5388,3950,-285,272,805,1,7,11
1.72313E+12,-5601,-5381,3961,30,293,848,1,7,11
1.72313E+12,-5908,-5379,3725,88,322,885,1,7,11
1.72313E+12,-5969,-5404,3743,-128,347,666,1,7,11
1.72313E+12,-5828,-5270,3802,110,147,697,1,7,11
1.72313E+12,-6232,-5703,4216,87,194,735,1,7,11
1.72313E+12,-6249,-5661,3978,-71,383,736,1,7,11
1.72313E+12,-6148,-5278,4191,308,333,737,1,7,11
1.72313E+12,-6009,-5409,4119,152,302,730,1,7,11
1.72313E+12,-5903,-5027,3798,146,294,687,1,7,11
1.72313E+12,-5587,-5175,3755,370,301,869,1,7,11
1.72313E+12,-5567,-4833,3749,327,302,799,1,7,11
1.72313E+12,-5578,-4978,3730,292,310,474,1,7,11
1.72313E+12,-5617,-4886,3732,259,323,455,1,7,11
1.72313E+12,-5891,-4563,3742,-28,358,454,1,7,11
1.72313E+12,-5934,-4530,3768,-57,165,473,1,7,11
1.72313E+12,-5970,-4534,3803,-63,221,489,1,7,11
1.72313E+12,-5778,-4570,4113,-53,553,489,1,7,11
1.72313E+12,-5870,-4590,4167,-12,629,490,1,7,11
1.72313E+12,-6219,-4894,4208,-1,437,491,1,7,11
1.72313E+12,-6084,-4989,4016,-16,775,490,1,7,11
1.72313E+12,-6129,-4784,4059,-5,806,461,1,7,11
1.72313E+12,-6135,-4821,4069,265,843,638,1,7,11
1.72313E+12,-6107,-4834,4048,312,867,543,1,7,11
1.72313E+12,-6071,-4804,3981,375,889,172,1,7,11
1.72313E+12,-6060,-4776,4182,154,657,304,1,7,11
1.72313E+12,-6042,-4979,4117,199,663,-58,1,7,11
1.72313E+12,-6040,-4928,3803,241,675,123,1,7,11
1.72313E+12,-6044,-4868,3747,541,686,94,1,7,11
1.72313E+12,-6026,-4568,3940,575,690,100,1,7,11
1.72313E+12,-6018,-4536,3903,591,700,116,1,7,11
1.72313E+12,-6263,-4503,3861,601,699,-124,1,7,11
1.72313E+12,-6020,-4488,3843,597,705,-118,1,7,11
1.72313E+12,-6076,-4494,3853,593,725,-103,1,7,11
1.72313E+12,-6143,-4497,3865,631,738,-63,1,7,11
1.72313E+12,-6451,-4494,3862,448,750,259,1,7,11
1.72313E+12,-6461,-4486,3581,808,762,333,1,7,11
1.72313E+12,-6448,-4703,3530,663,1051,131,1,7,11
1.72313E+12,-6456,-4679,3491,749,1122,159,1,7,11
1.72313E+12,-6456,-4655,3703,1093,928,164,1,7,11
1.72313E+12,-6455,-4655,3676,931,986,139,1,7,11
1.72313E+12,-6445,-4656,3648,1020,1304,340,1,7,11
1.72313E+12,-6447,-4651,3625,1375,1365,211,1,7,11
1.72313E+12,-6469,-4653,3609,1226,1185,115,1,7,11
1.72313E+12,-6502,-4657,3605,1596,1299,28,1,7,11
1.72313E+12,-6276,-4653,3600,1458,1620,-308,1,7,11
1.72313E+12,-6307,-4621,3324,1842,1418,-382,1,7,11
1.72313E+12,-6344,-4311,3282,1745,1456,-186,1,7,11
1.72313E+12,-6398,-4248,3268,1779,1479,-229,1,7,11
1.72313E+12,-6727,-4442,3262,1765,1467,-251,1,7,11
1.72313E+12,-6536,-4383,3271,1713,1415,-249,1,7,11
1.72313E+12,-6587,-4066,3284,1891,1590,-218,1,7,11
1.72313E+12,-6628,-4015,3290,1528,1229,-160,1,7,11
1.72313E+12,-6643,-3987,3281,1651,1372,-348,1,7,11
1.72313E+12,-6654,-4218,3275,1251,1009,-280,1,7,11
1.72313E+12,-6643,-4185,3231,1376,896,49,1,7,11
1.72313E+12,-6914,-4165,3204,969,1079,119,1,7,11
1.72313E+12,-6933,-4185,3202,686,683,-32,1,7,11
1.72313E+12,-6919,-4206,3201,856,863,-20,1,7,11
1.72313E+12,-6655,-4216,3445,801,807,-47,1,7,11
1.72313E+12,-6913,-4222,3438,503,508,-102,1,7,11
1.72313E+12,-6923,-3969,3448,469,477,76,1,7,11
1.72313E+12,-6955,-3990,3227,460,464,-269,1,7,11
1.72313E+12,-6990,-4024,3267,490,453,-358,1,7,11
1.72313E+12,-7020,-4045,3305,814,442,-194,1,7,11
1.72313E+12,-7005,-4056,3592,649,408,-549,1,7,11
1.72313E+12,-6960,-4057,3604,751,634,-413,1,7,11
1.72313E+12,-6918,-4052,3602,1090,620,-806,1,7,11
1.72313E+12,-6616,-4042,3591,1147,611,-691,1,7,11
1.72313E+12,-6583,-4051,3597,896,617,-1074,1,7,11
1.72313E+12,-6563,-4084,3622,897,630,-916,1,7,11
1.72313E+12,-6540,-4368,3648,911,638,-980,1,7,11
1.72313E+12,-6751,-4391,3639,927,389,-1024,1,7,11
1.72313E+12,-6731,-4420,3645,929,420,-1317,1,7,11
1.72313E+12,-6723,-4440,3642,937,451,-1337,1,7,11
1.72313E+12,-6723,-4467,3643,936,468,-1345,1,7,11
1.72313E+12,-6723,-4228,3641,931,476,-1340,1,7,11
1.72313E+12,-6715,-4232,3625,926,469,-1323,1,7,11
1.72313E+12,-6701,-4234,3612,909,456,-1306,1,7,11
1.72313E+12,-6690,-4231,3595,1133,437,-1291,1,7,11
1.72313E+12,-6695,-4236,3600,1089,414,-1021,1,7,11
1.72313E+12,-6677,-4255,3602,1043,623,-1005,1,7,11
1.72313E+12,-6671,-4271,3606,726,564,-1007,1,7,11
1.72313E+12,-6664,-4293,3616,667,237,-1021,1,7,11
1.72313E+12,-6667,-4326,3648,843,168,-1308,1,7,11
1.72313E+12,-6689,-4621,3682,510,350,-1339,1,7,11
1.72313E+12,-6668,-4660,3711,464,260,-1366,1,7,11
1.72313E+12,-6388,-4701,3483,419,-83,-1180,1,7,11
1.72313E+12,-6368,-4486,3516,386,91,-1238,1,7,11
1.72313E+12,-6346,-4524,3534,632,28,-1548,1,7,11
1.72313E+12,-6298,-4536,3539,393,-315,-1588,1,7,11
1.72313E+12,-6516,-4565,3564,398,-361,-1623,1,7,11
1.72313E+12,-6471,-4584,3848,414,-153,-1649,1,7,11
1.72313E+12,-6417,-4871,3869,421,-195,-1416,1,7,11
1.72313E+12,-6127,-4899,3891,442,-213,-1445,1,7,11
1.72313E+12,-6078,-4904,3897,469,-237,-1466,1,7,11
1.72313E+12,-6017,-4918,3907,469,-254,-1507,1,7,11
1.72313E+12,-6243,-4927,3922,454,-249,-1819,1,7,11
1.72313E+12,-6225,-4932,3932,445,-237,-1865,1,7,11
1.72313E+12,-6208,-4933,3954,430,-227,-1883,1,7,11
1.72313E+12,-6158,-4966,3967,637,-232,-1860,1,7,11
1.72313E+12,-5859,-4749,3741,603,-234,-1828,1,7,11
1.72313E+12,-5798,-4804,3764,574,-244,-1530,1,7,11
1.72313E+12,-5984,-5133,3781,559,-252,-1502,1,7,11
1.72313E+12,-5944,-5189,3784,563,-235,-1512,1,7,11
1.72313E+12,-5928,-5222,3793,577,-209,-1524,1,7,11
1.72313E+12,-5892,-5002,3813,572,-184,-1529,1,7,11
1.72313E+12,-5609,-5042,4102,573,-164,-1536,1,7,11
1.72313E+12,-5563,-5077,4139,577,-152,-1794,1,7,11
1.72313E+12,-5523,-5075,4147,598,-148,-1815,1,7,11
1.72313E+12,-5719,-5075,4158,588,-150,-1826,1,7,11
1.72313E+12,-5646,-5078,4171,564,-163,-1847,1,7,11
1.72313E+12,-5311,-5099,4166,533,-182,-1885,1,7,11
1.72313E+12,-5294,-5391,4159,242,-168,-1684,1,7,11
1.72313E+12,-5303,-5436,4166,202,-142,-1722,1,7,11
1.72313E+12,-5321,-5493,4205,155,-129,-1716,1,7,11
1.72313E+12,-5296,-5383,3999,363,-137,-1670,1,7,11
1.72313E+12,-5283,-5710,4035,357,-382,-1878,1,7,11
1.72313E+12,-5500,-5527,4066,374,-364,-1813,1,7,11
1.72313E+12,-5468,-5589,4357,165,-335,-1478,1,7,11
1.72313E+12,-5437,-5893,4376,214,-290,-1591,1,7,11
1.72313E+12,-5096,-5907,4357,534,-259,-1226,1,7,11
1.72313E+12,-5006,-5949,4367,534,26,-1162,1,7,11
1.72313E+12,-5223,-5766,4417,248,59,-1396,1,7,11
1.72313E+12,-5202,-5791,4436,213,62,-1404,1,7,11
1.72313E+12,-5175,-5775,4431,191,54,-1158,1,7,11
1.72313E+12,-5137,-6002,4420,167,45,-1390,1,7,11
1.72313E+12,-4796,-5972,4388,383,28,-1349,1,7,11
1.72313E+12,-4955,-5962,4358,303,22,-1332,1,7,11
1.72313E+12,-4884,-5986,4094,-67,39,-1352,1,7,11
1.72313E+12,-4876,-5768,4372,103,68,-1387,1,7,11
1.72313E+12,-4875,-5802,4384,58,91,-1154,1,7,11
1.72313E+12,-4871,-5824,4389,39,102,-1405,1,7,11
1.72313E+12,-4608,-5842,4390,36,107,-1368,1,7,11
1.72313E+12,-4586,-5871,4407,36,104,-1297,1,7,11
1.72313E+12,-4549,-5885,4397,57,111,-955,1,7,11
1.72313E+12,-4495,-5875,4373,79,-124,-1128,1,7,11
1.72313E+12,-4702,-6146,4364,55,-81,-1066,1,7,11
1.72313E+12,-4725,-6209,4410,2,-17,-1040,1,7,11
1.72313E+12,-4535,-6117,4272,-349,260,-1043,1,7,11
1.72313E+12,-4581,-6134,4328,-319,-71,-1087,1,7,11
1.72313E+12,-4564,-6029,4283,-283,53,-1149,1,7,11
1.72313E+12,-4492,-6188,4458,-286,-337,-929,1,7,11
1.72313E+12,-4667,-5868,4400,-354,-176,-959,1,7,11
1.72313E+12,-4352,-5839,4359,-172,-215,-975,1,7,11
1.72313E+12,-4345,-5862,4355,-254,-200,-980,1,7,11
1.72313E+12,-4622,-6191,4391,-564,-172,-953,1,7,11
1.72313E+12,-4617,-6215,4405,-586,-173,-929,1,7,11
1.72313E+12,-4632,-6037,4235,-625,-167,-902,1,7,11
1.72313E+12,-4644,-6078,4270,-629,-176,-1119,1,7,11
1.72313E+12,-4609,-6116,4300,-611,-216,-1089,1,7,11
1.72313E+12,-4323,-6423,4329,-614,-524,-1072,1,7,11
1.72313E+12,-4296,-6472,4608,-619,-564,-1070,1,7,11
1.72313E+12,-4264,-6484,4615,-616,-596,-1063,1,7,11
1.72313E+12,-4467,-6473,4347,-610,-387,-1040,1,7,11
1.72313E+12,-4376,-6467,4316,-621,-463,-734,1,7,11
1.72313E+12,-4013,-6463,4285,-630,-494,-679,1,7,11
1.72313E+12,-4167,-6492,4263,-391,-498,-881,1,7,11
1.72313E+12,-3837,-6276,4262,-405,-475,-841,1,7,11
1.72313E+12,-3823,-6332,4289,-397,-432,-808,1,7,11
1.72313E+12,-3830,-6336,4289,-592,-413,-503,1,7,11
1.72313E+12,-3823,-6331,4283,-552,-419,-442,1,7,11
1.72313E+12,-3831,-6337,4290,-534,-432,-625,1,7,11
1.72313E+12,-3839,-6349,4293,-255,-468,-551,1,7,11
1.72313E+12,-3814,-6347,4279,-245,-785,-228,1,7,11
1.72313E+12,-3794,-6365,4278,-521,-836,-182,1,7,11
1.72313E+12,-3779,-6392,4292,-539,-871,-145,1,7,11
1.72313E+12,-3766,-6389,4296,-534,-647,-367,1,7,11
1.72313E+12,-3732,-6381,4292,-533,-689,-331,1,7,11
1.72313E+12,-3956,-6361,4275,-545,-725,-290,1,7,11
1.72313E+12,-3924,-6355,4278,-588,-751,10,1,7,11
1.72313E+12,-3904,-6354,4294,-636,-1030,62,1,7,11
1.72313E+12,-3901,-6353,4310,-414,-1050,-109,1,7,11
1.72313E+12,-3899,-6353,4292,-426,-1061,276,1,7,11
1.72313E+12,-3880,-6343,4269,-437,-1066,176,1,7,11
1.72313E+12,-3861,-6355,4261,-487,-1043,539,1,7,11
1.72313E+12,-3845,-6667,4268,-794,-743,627,1,7,11
1.72313E+12,-3546,-6669,4251,-823,-720,463,1,7,11
1.72313E+12,-3536,-6680,4238,-853,-689,455,1,7,11
1.72313E+12,-3571,-6677,4477,-642,-841,426,1,7,11
1.72313E+12,-3954,-6710,4250,-734,-471,437,1,7,11
1.72313E+12,-3750,-6715,4254,-702,-441,492,1,7,11
1.72313E+12,-3777,-6690,4479,-892,-424,829,1,7,11
1.72313E+12,-3804,-6690,4232,-852,-406,667,1,7,11
1.72313E+12,-3815,-6678,4250,-801,-411,755,1,7,11
1.72313E+12,-3816,-6387,4252,-491,-419,1072,1,7,11
1.72313E+12,-3838,-6369,4268,-455,-410,1122,1,7,11
1.72313E+12,-4115,-6325,4274,-414,-407,897,1,7,11
1.72313E+12,-4135,-6292,4287,-396,-402,920,1,7,11
1.72313E+12,-4172,-6500,4289,-638,-639,944,1,7,11
1.72313E+12,-4188,-6459,4277,-386,-626,984,1,7,11
1.72313E+12,-4217,-6442,4288,-413,-596,1281,1,7,11
1.72313E+12,-3987,-6449,4304,-451,-572,1327,1,7,11
1.72313E+12,-4011,-6462,4317,-465,-553,1375,1,7,11
1.72313E+12,-4074,-6440,4311,-447,-244,1160,1,7,11
1.72313E+12,-4447,-6432,4331,-424,-151,1222,1,7,11
1.72313E+12,-4332,-6422,4649,-616,-328,1581,1,7,11
1.72313E+12,-4651,-6409,4705,-526,-325,1442,1,7,11
1.72313E+12,-4626,-6069,4696,-178,-136,1518,1,7,11
1.72313E+12,-4300,-6252,4702,-195,-251,1523,1,7,11
1.72313E+12,-4473,-6198,4705,-578,-426,1429,1,7,11
1.72313E+12,-4412,-6171,4714,-776,-879,1260,1,7,11
1.72313E+12,-4399,-5883,4704,-756,-1088,1315,1,7,11
1.72313E+12,-4391,-5859,4687,-1007,-1297,1142,1,7,11
1.72313E+12,-4385,-5842,4655,-1274,-1230,754,1,7,11
1.72313E+12,-4381,-5865,4329,-1758,-1479,657,1,7,11
1.72313E+12,-4394,-6170,4281,-1948,-1532,688,1,7,11
1.72313E+12,-4398,-6216,4453,-2341,-1812,752,1,7,11
1.72313E+12,-4412,-6025,4395,-2186,-1813,1084,1,7,11
1.72313E+12,-4480,-6063,4359,-2246,-1503,961,1,7,11
1.72313E+12,-4299,-6077,4075,-2265,-1458,1336,1,7,11
1.72313E+12,-4348,-6083,4026,-2239,-1438,1224,1,7,11
1.72313E+12,-4648,-6085,3980,-2210,-1425,1640,1,7,11
1.72313E+12,-4662,-6093,4206,-2195,-1423,1808,1,7,11
1.72313E+12,-4673,-6096,4160,-2192,-1430,1674,1,7,11
1.72313E+12,-4671,-6116,4128,-2200,-1443,1761,1,7,11
1.72313E+12,-4694,-6141,4115,-2219,-1456,2064,1,7,11
1.72313E+12,-4729,-6429,4114,-2222,-1477,2096,1,7,11
1.72313E+12,-4513,-6439,4119,-2189,-1517,2114,1,7,11
1.72313E+12,-4590,-6414,4119,-2387,-1810,2120,1,7,11
1.72313E+12,-4906,-6105,4101,-2324,-1871,2143,1,7,11
1.72313E+12,-4929,-6051,3832,-2037,-1684,1925,1,7,11
1.72313E+12,-4944,-6251,3805,-2011,-1739,1962,1,7,11
1.72313E+12,-4964,-6199,3784,-2006,-1776,1998,1,7,11
1.72313E+12,-4957,-5880,3756,-2025,-2074,2025,1,7,11
1.72313E+12,-4956,-5832,3734,-2328,-2095,2034,1,7,11
1.72313E+12,-4966,-5797,3730,-2388,-2098,2027,1,7,11
1.72313E+12,-4977,-5787,3743,-2180,-2096,2003,1,7,11
1.72313E+12,-4988,-5762,3742,-2186,-2094,1968,1,7,11
1.72313E+12,-4985,-6001,3737,-2431,-2071,1931,1,7,11
1.72313E+12,-4798,-5827,3810,-2191,-1750,2143,1,7,11
1.72313E+12,-5131,-6147,4145,-2425,-1666,2090,1,7,11
1.72313E+12,-5216,-6189,4220,-2353,-1869,1715,1,7,11
1.72313E+12,-5039,-6188,4014,-1975,-1823,1890,1,7,11
1.72313E+12,-5095,-6161,4031,-2066,-1516,1831,1,7,11
1.72313E+12,-5103,-5864,4037,-1834,-1482,1528,1,7,11
1.72313E+12,-5114,-5840,4070,-1455,-1424,1477,1,7,11
1.72313E+12,-5119,-5802,4354,-1563,-1624,1414,1,7,11
1.72313E+12,-5118,-6007,4365,-1408,-1559,1593,1,7,11
1.72313E+12,-5118,-5922,4361,-1001,-1233,1255,1,7,11
1.72313E+12,-5378,-5581,4361,-1142,-1162,1175,1,7,11
1.72313E+12,-5119,-5526,4386,-1055,-1349,1345,1,7,11
1.72313E+12,-5108,-5753,4412,-712,-1024,992,1,7,11
1.72313E+12,-5098,-5717,4434,-873,-954,1132,1,7,11
1.72313E+12,-5080,-5666,4426,-793,-1148,765,1,7,11
1.72313E+12,-5072,-5648,4444,-507,-1061,661,1,7,11
1.72313E+12,-5075,-5662,4469,-497,-706,830,1,7,11
1.72313E+12,-5096,-5691,4264,-494,-857,494,1,7,11
1.72313E+12,-5098,-5720,4296,-467,-777,415,1,7,11
1.72313E+12,-5077,-5730,4303,-430,-450,590,1,7,11
1.72313E+12,-5046,-5719,4294,-398,-638,255,1,7,11
1.72313E+12,-5011,-5719,4286,-637,-564,172,1,7,11
1.72313E+12,-5239,-5723,4281,-623,-236,339,1,7,11
1.72313E+12,-5220,-5729,4272,-614,-164,-7,1,7,11
1.72313E+12,-5229,-5729,4267,-605,-354,-90,1,7,11
1.72313E+12,-5245,-5735,4269,-594,-314,104,1,7,11
1.72313E+12,-5245,-5701,4236,-570,-306,56,1,7,11
1.72313E+12,-5247,-5683,4471,-554,-304,26,1,7,11
1.72313E+12,-5008,-5652,4459,-551,-305,14,1,7,11
1.72313E+12,-5055,-5370,4460,-552,-308,37,1,7,11
1.72313E+12,-5087,-5363,4458,-549,-323,84,1,7,11
1.72313E+12,-5410,-5691,4433,-553,-341,-90,1,7,11
1.72313E+12,-5285,-5586,4295,-398,-305,-9,1,7,11
1.72313E+12,-5249,-5682,4236,-636,-173,271,1,7,11
1.72313E+12,-5454,-5661,4434,-575,-214,311,1,7,11
1.72313E+12,-5416,-5315,4091,-606,-198,349,1,7,11
1.72313E+12,-5382,-5320,4039,-411,-210,374,1,7,11
1.72313E+12,-5401,-5345,4004,-507,-186,379,1,7,11
1.72313E+12,-5439,-5694,4010,-644,-144,378,1,7,11
1.72313E+12,-5447,-5705,3984,-650,-382,353,1,7,11
1.72313E+12,-5433,-5727,4201,-644,-357,326,1,7,11
1.72313E+12,-5426,-5737,4151,-878,-325,295,1,7,11
1.72313E+12,-5439,-5751,4099,-863,-278,262,1,7,11
1.72313E+12,-5471,-5505,3801,-842,26,-28,1,7,11
1.72313E+12,-5502,-5524,3767,-819,69,-55,1,7,11
1.72313E+12,-5286,-5545,3752,-781,113,-70,1,7,11
1.72313E+12,-5316,-5574,3752,-484,-111,-76,1,7,11
1.72313E+12,-5315,-5589,3740,-439,-98,-78,1,7,11
1.72313E+12,-5295,-5593,3717,-389,-89,-95,1,7,11
1.72313E+12,-5278,-5579,3943,-599,-87,-124,1,7,11
1.72313E+12,-5501,-5562,3914,-573,-103,98,1,7,11
1.72313E+12,-5467,-5551,3891,-570,125,53,1,7,11
1.72313E+12,-5419,-5550,3863,-580,92,-257,1,7,11
1.72313E+12,-5399,-5569,3860,-594,76,-314,1,7,11
1.72313E+12,-5116,-5584,3858,-587,63,-356,1,7,11
1.72313E+12,-5091,-5601,3856,-563,72,-132,1,7,11
1.72313E+12,-5069,-5612,3576,-525,91,-154,1,7,11
1.72313E+12,-5061,-5616,3567,-244,122,-175,1,7,11
1.72313E+12,-5068,-5610,3562,-220,-98,-180,1,7,11
1.72313E+12,-5078,-5619,3567,-195,-51,-163,1,7,11
1.72313E+12,-5100,-5620,3567,-157,258,-133,1,7,11
1.72313E+12,-5385,-5628,3560,-384,311,-334,1,7,11
1.72313E+12,-5408,-5893,3563,-350,356,-264,1,7,11
1.72313E+12,-5409,-5900,3557,-316,383,55,1,7,11
1.72313E+12,-5410,-5902,3556,-290,151,102,1,7,11
1.72313E+12,-5421,-5901,3557,-267,173,-116,1,7,11
1.72313E+12,-5430,-5894,3547,12,188,-89,1,7,11
1.72313E+12,-5442,-5628,3539,17,192,-66,1,7,11
1.72313E+12,-5457,-5616,3547,3,184,-50,1,7,11
1.72313E+12,-5469,-5607,3563,-270,168,-30,1,7,11
1.72313E+12,-5468,-5606,3560,-282,148,-7,1,7,11
1.72313E+12,-5469,-5597,3555,-294,129,270,1,7,11
1.72313E+12,-5461,-5608,3558,-305,129,297,1,7,11
1.72313E+12,-5464,-5613,3563,-306,146,320,1,7,11
1.72313E+12,-5483,-5599,3553,-283,167,347,1,7,11
1.72313E+12,-5270,-5590,3563,-260,202,377,1,7,11
1.72313E+12,-5311,-5574,3578,31,236,190,1,7,11
1.72313E+12,-5339,-5540,3583,82,513,244,1,7,11
1.72313E+12,-5369,-5515,3570,-125,525,552,1,7,11
1.72313E+12,-5657,-5724,3556,-48,534,599,1,7,11
1.72313E+12,-5692,-5681,3537,-21,536,384,1,7,11
1.72313E+12,-5732,-5690,3553,-32,536,415,1,7,11
1.72313E+12,-5515,-5688,3569,-38,518,434,1,7,11
1.72313E+12,-5528,-5653,3561,-28,226,436,1,7,11
1.72313E+12,-5537,-5640,3552,-30,205,432,1,7,11
1.72313E+12,-5558,-5639,3534,-43,207,427,1,7,11
1.72313E+12,-5579,-5663,3508,-78,222,425,1,7,11
1.72313E+12,-5577,-5673,3477,-103,239,406,1,7,11
1.72313E+12,-5567,-5668,3670,118,532,619,1,7,11
1.72313E+12,-5562,-5374,3620,87,573,570,1,7,11
1.72313E+12,-5561,-5319,3291,46,603,523,1,7,11
1.72313E+12,-5568,-5275,3226,-273,628,240,1,7,11
1.72313E+12,-5583,-5493,3436,-342,639,233,1,7,11
1.72313E+12,-5594,-5469,3379,-156,626,234,1,7,11
1.72313E+12,-5584,-5468,3334,-236,590,236,1,7,11
1.72313E+12,-5570,-5466,3055,-566,538,228,1,7,11
1.72313E+12,-5550,-5476,3045,-638,212,210,1,7,11
1.72313E+12,-5553,-5490,3052,-424,136,183,1,7,11
1.72313E+12,-5574,-5251,3069,-453,319,164,1,7,11
1.72313E+12,-5602,-5270,3364,-458,-8,163,1,7,11
1.72313E+12,-5911,-5312,3443,-435,-66,174,1,7,11
1.72313E+12,-5975,-5333,3287,-614,-119,199,1,7,11
1.72313E+12,-5835,-5276,3684,-165,56,255,1,7,11
1.72313E+12,-6177,-5470,3521,-294,-262,565,1,7,11
1.72313E+12,-6251,-5397,3874,73,-340,622,1,7,11
1.72313E+12,-6057,-5082,3965,-85,-177,402,1,7,11
1.72313E+12,-6135,-5025,3793,259,-252,422,1,7,11
1.72313E+12,-6467,-5234,4140,309,-579,440,1,7,11
1.72313E+12,-6525,-5165,4212,353,-402,452,1,7,11
1.72313E+12,-6521,-4825,3995,138,-488,453,1,7,11
1.72313E+12,-6482,-4990,4012,153,-806,442,1,7,11
1.72313E+12,-6429,-4929,4025,379,-840,410,1,7,11
1.72313E+12,-6099,-4876,4033,324,-868,603,1,7,11
1.72313E+12,-6017,-4591,4036,-11,-875,244,1,7,11
1.72313E+12,-6210,-4573,4040,-92,-857,369,1,7,11
1.72313E+12,-6160,-4535,4029,95,-824,-35,1,7,11
1.72313E+12,-5863,-4500,4013,24,-774,82,1,7,11
1.72313E+12,-5835,-4734,4009,-303,-456,-293,1,7,11
1.72313E+12,-5816,-4486,4008,-370,-387,-138,1,7,11
1.72313E+12,-5796,-4507,4014,-156,-585,-227,1,7,11
1.72313E+12,-5778,-4532,4019,-189,-538,-575,1,7,11
1.72313E+12,-5781,-4570,4042,-207,-236,-403,1,7,11
1.72313E+12,-5797,-4603,4070,-220,-205,-471,1,7,11
1.72313E+12,-5804,-4895,4096,-230,-196,-774,1,7,11
1.72313E+12,-5808,-4969,4378,-253,-198,-808,1,7,11
1.72313E+12,-5785,-4762,4404,-531,-214,-834,1,7,11
1.72313E+12,-5761,-4818,4416,-553,-234,-857,1,7,11
1.72313E+12,-5984,-4858,4421,-570,-250,-871,1,7,11
1.72313E+12,-5947,-5142,4414,-584,-253,-871,1,7,11
1.72313E+12,-5901,-5158,4387,-590,-242,-852,1,7,11
1.72313E+12,-5591,-5175,4358,-609,-222,-834,1,7,11
1.72313E+12,-5532,-5179,4086,-385,-188,-819,1,7,11
1.72313E+12,-5739,-5169,4058,-414,-157,-816,1,7,11
1.72313E+12,-5715,-5154,4031,-470,-380,-815,1,7,11
1.72313E+12,-5704,-5134,4008,-779,-352,-810,1,7,11
1.72313E+12,-5715,-5130,3996,-833,-322,-779,1,7,11
1.72313E+12,-5736,-5171,4006,-870,-303,-463,1,7,11
1.72313E+12,-5744,-5208,4003,-685,-306,-398,1,7,11
1.72313E+12,-5532,-5072,4024,-718,-297,-573,1,7,11
1.72313E+12,-5566,-5436,4057,-750,-318,-241,1,7,11
1.72313E+12,-5581,-5502,4071,-701,-362,-181,1,7,11
1.72313E+12,-5577,-5295,4059,-879,-158,-378,1,7,11
1.72313E+12,-5572,-5364,4051,-783,-202,-305,1,7,11
1.72313E+12,-5549,-5671,4041,-406,-251,20,1,7,11
1.72313E+12,-5508,-5718,4026,-514,-549,79,1,7,11
1.72313E+12,-5717,-5758,4007,-326,-572,-128,1,7,11
1.72313E+12,-5673,-5511,3976,-124,-570,-96,1,7,11
1.72313E+12,-5645,-5755,4187,324,-543,-67,1,7,11
1.72313E+12,-5643,-5737,4171,237,-229,-28,1,7,11
1.72313E+12,-5638,-5691,4162,405,-163,287,1,7,11
1.72313E+12,-5366,-5646,4145,804,-340,361,1,7,11
1.72313E+12,-5321,-5321,4097,684,8,180,1,7,11
1.72313E+12,-5251,-5472,3770,1040,105,245,1,7,11
1.72313E+12,-5420,-5097,3941,1085,-35,547,1,7,11
1.72313E+12,-5102,-5014,3864,1060,367,569,1,7,11
1.72313E+12,-5053,-5204,3538,746,513,567,1,7,11
1.72313E+12,-5043,-5196,3516,652,410,550,1,7,11
1.72313E+12,-5069,-5248,3547,812,807,522,1,7,11
1.72313E+12,-5094,-5045,3576,776,650,234,1,7,11
1.72313E+12,-5103,-5088,3565,782,717,182,1,7,11
1.72313E+12,-5393,-5418,3562,791,1047,129,1,7,11
1.72313E+12,-5485,-5317,3583,488,1138,330,1,7,11
1.72313E+12,-5686,-5605,3732,386,999,299,1,7,11
1.72313E+12,-5615,-5780,4134,426,1296,269,1,7,11
1.72313E+12,-5964,-5775,4151,822,1282,-14,1,7,11
1.72313E+12,-5761,-5966,4106,709,1312,268,1,7,11
1.72313E+12,-5829,-5933,3813,767,1390,356,1,7,11
1.72313E+12,-5876,-5890,3759,1033,1197,215,1,7,11
1.72313E+12,-6150,-5578,3952,724,1224,563,1,7,11
1.72313E+12,-6159,-5533,3859,860,1227,600,1,7,11
1.72313E+12,-5875,-5718,3558,460,1177,588,1,7,11
1.72313E+12,-5818,-5635,3483,520,1353,523,1,7,11
1.72313E+12,-6005,-5333,3695,295,975,168,1,7,11
1.72313E+12,-5910,-5274,3640,99,1057,290,1,7,11
1.72313E+12,-5573,-5469,3602,-324,880,-114,1,7,11
1.72313E+12,-5512,-5412,3307,-214,453,14,1,7,11
1.72313E+12,-5736,-5106,3272,-590,551,-324,1,7,11
1.72313E+12,-5729,-5075,3246,-453,159,-347,1,7,11
1.72313E+12,-5719,-5063,3211,-827,287,-322,1,7,11
1.72313E+12,-5735,-5109,3434,-690,-60,-238,1,7,11
1.72313E+12,-5506,-5388,3401,-1115,113,84,1,7,11
1.72313E+12,-5534,-5413,3340,-968,70,-104,1,7,11
1.72313E+12,-5583,-5439,3059,-1337,53,-48,1,7,11
1.72313E+12,-5986,-5258,3054,-1189,52,305,1,7,11
1.72313E+12,-5826,-5312,3050,-1300,18,129,1,7,11
1.72313E+12,-6154,-5660,3062,-1620,-294,215,1,7,11
1.72313E+12,-6226,-5538,3361,-1411,-366,536,1,7,11
1.72313E+12,-6029,-5920,3419,-1414,-207,569,1,7,11
1.72313E+12,-6088,-5784,3239,-1637,-582,573,1,7,11
1.72313E+12,-6077,-5776,3286,-1235,-508,564,1,7,11
1.72313E+12,-6191,-5587,3222,-1290,-730,514,1,7,11
1.72313E+12,-5821,-5519,3254,-925,-1135,238,1,7,11
1.72313E+12,-5951,-5745,3268,-1040,-1285,250,1,7,11
1.72313E+12,-5571,-5677,3241,-661,-1153,213,1,7,11
1.72313E+12,-5509,-5372,3244,-853,-1214,143,1,7,11
1.72313E+12,-5740,-5347,3293,-819,-1228,330,1,7,11
1.72313E+12,-5757,-5326,3634,-781,-1205,294,1,7,11
1.72313E+12,-5742,-5312,3459,-456,-1193,306,1,7,11
1.72313E+12,-5698,-5311,3531,-615,-1173,319,1,7,11
1.72313E+12,-5662,-5304,3579,-239,-1381,306,1,7,11
1.72313E+12,-5669,-5311,3885,-378,-1297,280,1,7,11
1.72313E+12,-5711,-5294,3922,-267,-937,-4,1,7,11
1.72313E+12,-5757,-5257,3947,79,-1086,-9,1,7,11
1.72313E+12,-5527,-5463,3722,-126,-711,259,1,7,11
1.72313E+12,-5548,-5421,3745,-102,-845,294,1,7,11
1.72313E+12,-5566,-5381,3772,-87,-472,323,1,7,11
1.72313E+12,-5580,-5090,3790,-84,-626,340,1,7,11
1.72313E+12,-5588,-5054,3797,-75,-544,337,1,7,11
1.72313E+12,-5593,-5007,3794,-79,-226,306,1,7,11
1.72313E+12,-5609,-5220,3792,-97,-184,263,1,7,11
1.72313E+12,-5612,-5191,3781,-123,-168,-45,1,7,11
1.72313E+12,-5899,-5187,3794,89,-157,-113,1,7,11
1.72313E+12,-5922,-5187,3810,45,-164,77,1,7,11
1.72313E+12,-5937,-5205,3827,-262,-187,10,1,7,11
1.72313E+12,-5947,-5226,4129,-306,-220,-321,1,7,11
1.72313E+12,-5954,-5248,4192,-321,-539,-168,1,7,11
1.72313E+12,-5945,-5234,4211,-298,-606,-236,1,7,11
1.72313E+12,-5923,-5230,4223,-299,-416,-558,1,7,11
1.72313E+12,-5913,-5233,3983,-317,-489,-626,1,7,11
1.72313E+12,-5629,-5229,3990,-341,-831,-437,1,7,11
1.72313E+12,-5595,-5227,3988,-137,-655,-770,1,7,11
1.72313E+12,-5553,-5230,4000,-192,-720,-847,1,7,11
1.72313E+12,-5509,-5002,4028,-253,-1028,-661,1,7,11
1.72313E+12,-5714,-5051,4071,-565,-1067,-727,1,7,11
1.72313E+12,-5652,-5101,4374,-578,-1096,-1051,1,7,11
1.72313E+12,-5339,-5391,4395,-560,-1090,-1124,1,7,11
1.72313E+12,-5284,-5422,4403,-547,-1060,-928,1,7,11
1.72313E+12,-5497,-5463,4418,-534,-757,-985,1,7,11
1.72313E+12,-5459,-5498,4436,-514,-698,-1291,1,7,11
1.72313E+12,-5427,-5292,4467,-239,-884,-1332,1,7,11
1.72313E+12,-5384,-5328,4228,-211,-827,-1368,1,7,11
1.72313E+12,-5103,-5356,4231,-187,-769,-1408,1,7,11
1.72313E+12,-5076,-5363,4470,-161,-456,-1183,1,7,11
1.72313E+12,-5029,-5644,4463,-168,-414,-1207,1,7,11
1.72313E+12,-5199,-5711,4227,-192,-390,-1273,1,7,11
1.72313E+12,-5157,-5748,4225,-191,-613,-1588,1,7,11
1.72313E+12,-5131,-5522,4470,-171,-593,-1632,1,7,11
1.72313E+12,-5121,-5576,4228,-179,-577,-1414,1,7,11
1.72313E+12,-5130,-5624,4258,-186,-571,-1443,1,7,11
1.72313E+12,-5136,-5904,4281,-167,-578,-1443,1,7,11
1.72313E+12,-4853,-5939,4294,-144,-580,-1662,1,7,11
1.72313E+12,-4837,-5962,4304,-354,-566,-1629,1,7,11
1.72313E+12,-4776,-5976,4290,-324,-565,-1602,1,7,11
1.72313E+12,-4987,-5987,4293,-318,-548,-1598,1,7,11
1.72313E+12,-4966,-6009,4310,-322,-254,-1609,1,7,11
1.72313E+12,-4956,-6005,4311,-320,-221,-1607,1,7,11
1.72313E+12,-4944,-6014,4322,-326,-205,-1573,1,7,11
1.72313E+12,-4924,-5773,4331,-324,-205,-1256,1,7,11
1.72313E+12,-4871,-5782,4335,-329,-223,-1174,1,7,11
1.72313E+12,-4563,-5800,4339,-345,-246,-1348,1,7,11
1.72313E+12,-4507,-5829,4337,-373,-523,-1292,1,7,11
1.72313E+12,-4707,-5850,4327,-149,-543,-998,1,7,11
1.72313E+12,-4662,-6149,4609,-195,-540,-969,1,7,11
1.72313E+12,-4625,-6186,4615,-204,-544,-937,1,7,11
1.72313E+12,-4316,-6218,4334,-196,-551,-1139,1,7,11
1.72313E+12,-4264,-6249,4327,-198,-540,-1078,1,7,11
1.72313E+12,-4471,-6022,4321,-191,-251,-753,1,7,11
1.72313E+12,-4423,-6037,4313,-176,-209,-681,1,7,11
1.72313E+12,-4365,-6073,4305,-182,-155,-868,1,7,11
1.72313E+12,-4065,-6110,4304,-172,-345,-815,1,7,11
1.72313E+12,-4035,-6142,4311,-149,-279,-785,1,7,11
1.72313E+12,-4009,-6411,4307,-378,32,-780,1,7,11
1.72313E+12,-4010,-6409,4302,-352,91,-787,1,7,11
1.72313E+12,-4021,-6409,4295,-334,-121,-785,1,7,11
1.72313E+12,-4035,-6414,4300,-324,-90,-784,1,7,11
1.72313E+12,-4036,-6414,4293,-321,-82,-775,1,7,11
1.72313E+12,-4038,-6417,4295,-328,-78,-770,1,7,11
1.72313E+12,-4041,-6417,4286,-331,-88,-772,1,7,11
1.72313E+12,-4058,-6419,4280,-330,-100,-778,1,7,11
1.72313E+12,-4065,-6435,4284,-341,127,-772,1,7,11
1.72313E+12,-4088,-6448,4297,-351,92,-495,1,7,11
1.72313E+12,-4073,-6470,4303,-363,31,-449,1,7,11
1.72313E+12,-4050,-6483,4309,-376,-279,-435,1,7,11
1.72313E+12,-4048,-6497,4325,-377,-300,-433,1,7,11
1.72313E+12,-4060,-6487,4327,-360,-313,-431,1,7,11
1.72313E+12,-4059,-6485,4346,-343,-334,-410,1,7,11
1.72313E+12,-4014,-6487,4347,-330,-374,-628,1,7,11
1.72313E+12,-3984,-6492,4612,-326,-160,-617,1,7,11
1.72313E+12,-4187,-6498,4610,-325,-182,-612,1,7,11
1.72313E+12,-4141,-6514,4350,-343,-192,-624,1,7,11
1.72313E+12,-4115,-6515,4614,-355,-198,-638,1,7,11
1.72313E+12,-3827,-6527,4613,-376,-211,-387,1,7,11
1.72313E+12,-3793,-6288,4612,-147,-217,-396,1,7,11
1.72313E+12,-3771,-6323,4628,-180,-215,-403,1,7,11
1.72313E+12,-3761,-6362,4656,-188,-208,-402,1,7,11
1.72313E+12,-3759,-6373,4662,-159,-204,-388,1,7,11
1.72313E+12,-3758,-6364,4653,-377,-200,-604,1,7,11
1.72313E+12,-3732,-6375,4651,-359,-207,-540,1,7,11
1.72313E+12,-3943,-6374,4633,-342,-213,-239,1,7,11
1.72313E+12,-3912,-6380,4636,-355,-185,-215,1,7,11
1.72313E+12,-3905,-6389,4661,-365,-147,-211,1,7,11
1.72313E+12,-3900,-6392,4680,-356,-373,-220,1,7,11
1.72313E+12,-3905,-6383,4682,-347,-351,-231,1,7,11
1.72313E+12,-3921,-6371,4689,-352,-335,-247,1,7,11
1.72313E+12,-3939,-6380,4700,-377,-350,-515,1,7,11
1.72313E+12,-3946,-6383,4715,-134,-373,-535,1,7,11
1.72313E+12,-3946,-6382,4721,-156,-142,-544,1,7,11
1.72313E+12,-3945,-6373,4720,-173,-165,-541,1,7,11
1.72313E+12,-3933,-6346,4700,-184,-203,-514,1,7,11
1.72313E+12,-3920,-6349,4719,-224,-231,-201,1,7,11
1.72313E+12,-3918,-6363,4722,-255,-523,-376,1,7,11
1.72313E+12,-3890,-6350,4693,-517,-572,-281,1,7,11
1.72313E+12,-3852,-6349,4677,-535,-615,73,1,7,11
1.72313E+12,-3556,-6339,4674,-576,-385,-61,1,7,11
1.72313E+12,-3520,-6331,4689,-616,-394,10,1,7,11
1.72313E+12,-3477,-6300,4679,-392,-628,329,1,7,11
1.72313E+12,-3690,-6282,4669,-429,-580,136,1,7,11
1.72313E+12,-3667,-6500,4641,-452,-256,194,1,7,11
1.72313E+12,-3651,-6457,4346,-490,-195,252,1,7,11
1.72313E+12,-3655,-6410,4309,-792,-142,564,1,7,11
1.72313E+12,-3667,-6108,4245,-848,-350,633,1,7,11
1.72313E+12,-3704,-6108,4445,-694,-303,470,1,7,11
1.72313E+12,-3517,-6417,4414,-1082,-257,835,1,7,11
1.72313E+12,-3878,-6301,4429,-978,42,708,1,7,11
1.72313E+12,-3743,-6689,4437,-1345,58,1102,1,7,11
1.72313E+12,-4117,-6761,4404,-1163,56,989,1,7,11
1.72313E+12,-3981,-6563,4357,-1244,60,1161,1,7,11
1.72313E+12,-4073,-6575,4022,-1570,51,1605,1,7,11
1.72313E+12,-4419,-6585,4200,-1661,48,1794,1,7,11
1.72313E+12,-4248,-6545,3839,-1506,40,1733,1,7,11
1.72313E+12,-4313,-6759,3765,-1904,7,1920,1,7,11
1.72313E+12,-4639,-6720,3712,-2053,-314,2352,1,7,11
1.72313E+12,-4697,-6671,3917,-1928,-169,2259,1,7,11
1.72313E+12,-4736,-6338,3864,-2308,-598,2653,1,7,11
1.72313E+12,-4735,-6501,3549,-2427,-836,2503,1,7,11
1.72313E+12,-4733,-6418,3484,-2568,-1103,2828,1,7,11
1.72313E+12,-4731,-6111,3661,-2482,-1384,2874,1,7,11
1.72313E+12,-4716,-6084,3281,-2694,-1419,2889,1,7,11
1.72313E+12,-4707,-6102,3419,-2978,-1684,2863,1,7,11
1.72313E+12,-4716,-6450,3363,-3316,-2173,2548,1,7,11
1.72313E+12,-4507,-6346,3362,-3893,-2381,2463,1,7,11
1.72313E+12,-4572,-6749,3381,-4119,-2577,2616,1,7,11
1.72313E+12,-4898,-6569,3353,-4212,-2504,2262,1,7,11
1.72313E+12,-4968,-6563,3012,-3981,-2897,2191,1,7,11
1.72313E+12,-4804,-6571,2964,-4015,-2705,2428,1,7,11
1.72313E+12,-5158,-6554,3197,-3993,-2733,2224,1,7,11
1.72313E+12,-5006,-6776,3183,-4190,-2753,2584,1,7,11
1.72313E+12,-5028,-6736,3167,-3789,-2771,2528,1,7,11
1.72313E+12,-5012,-6380,3094,-3924,-2797,2900,1,7,11
1.72313E+12,-5213,-6512,2752,-3876,-3102,2717,1,7,11
1.72313E+12,-5138,-6446,2691,-3937,-3165,2732,1,7,11
1.72313E+12,-4821,-6443,2932,-3817,-2976,2942,1,7,11
1.72313E+12,-4773,-6494,2942,-4207,-3064,2558,1,7,11
1.72313E+12,-4767,-6301,2923,-4013,-3379,2638,1,7,11
1.72313E+12,-4813,-6333,2873,-3985,-3377,2208,1,7,11
1.72313E+12,-5139,-6331,2559,-4161,-3069,2327,1,7,11
1.72313E+12,-5229,-6330,2515,-3794,-2957,1991,1,7,11
1.72313E+12,-5082,-6326,2501,-3923,-2803,1973,1,7,11
1.72313E+12,-5424,-6320,2487,-3504,-2899,2001,1,7,11
1.72313E+12,-5500,-6496,2687,-3296,-2463,2036,1,7,11
1.72313E+12,-5637,-6406,2668,-3382,-2272,2370,1,7,11
1.72313E+12,-5735,-6080,2685,-2962,-2356,2396,1,7,11
1.72313E+12,-5557,-6263,2679,-2796,-1976,2223,1,7,11
1.72313E+12,-5622,-6210,2685,-2885,-2139,2268,1,7,11
1.72313E+12,-5934,-6171,2456,-2480,-2041,2280,1,7,11
1.72313E+12,-5984,-5851,2487,-2561,-1752,2253,1,7,11
1.72313E+12,-6014,-5789,2536,-2355,-1752,2208,1,7,11
1.72313E+12,-5763,-5998,2836,-2069,-1778,2410,1,7,11
1.72313E+12,-6014,-5946,2886,-1848,-1787,2333,1,7,11
1.72313E+12,-6001,-5616,2907,-1591,-1775,1976,1,7,11
1.72313E+12,-5614,-5313,2789,-827,-1854,1243,1,7,11
1.72313E+12,-5890,-5301,3139,-418,-1484,1285,1,7,11
1.72313E+12,-5939,-5273,2971,-229,-1609,1099,1,7,11
1.72313E+12,-5991,-5489,3041,-278,-1214,705,1,7,11
1.72313E+12,-5770,-5412,3341,-88,-1342,857,1,7,11
1.72313E+12,-5813,-5082,3365,309,-941,785,1,7,11
1.72313E+12,-5867,-5011,3402,132,-1056,477,1,7,11
1.72313E+12,-6185,-5211,3211,160,-693,443,1,7,11
1.72313E+12,-6233,-5176,3285,168,-644,418,1,7,11
1.72313E+12,-6254,-5134,3589,174,-652,394,1,7,11
1.72313E+12,-6259,-4822,3639,154,-689,629,1,7,11
1.72313E+12,-6247,-4760,3669,366,-768,609,1,7,11
1.72313E+12,-6230,-4950,3684,284,-1114,592,1,7,11
1.72313E+12,-6227,-4902,3462,-99,-953,586,1,7,11
1.72313E+12,-6216,-4874,3518,-257,-1328,597,1,7,11
1.72313E+12,-6198,-4875,3849,-190,-1209,618,1,7,11
1.72313E+12,-6171,-4898,3917,-634,-1620,399,1,7,11
1.72313E+12,-5854,-4928,3726,-814,-1517,444,1,7,11
1.72313E+12,-5772,-4747,3808,-734,-1906,474,1,7,11
1.72313E+12,-5954,-4801,4116,-1110,-1743,476,1,7,11
1.72313E+12,-5627,-4832,4148,-950,-2051,456,1,7,11
1.72313E+12,-5575,-5123,4179,-1299,-2051,417,1,7,11
1.72313E+12,-5555,-5154,4184,-1367,-1744,637,1,7,11
1.72313E+12,-5555,-5165,4182,-1174,-1667,604,1,7,11
1.72313E+12,-5594,-5174,4179,-1248,-1840,575,1,7,11
1.72313E+12,-5909,-5198,4183,-1579,-1509,564,1,7,11
1.72313E+12,-5947,-5227,4190,-1632,-1453,575,1,7,11
1.72313E+12,-5963,-5000,4189,-1646,-1412,595,1,7,11
1.72313E+12,-5950,-5026,4166,-1633,-1646,615,1,7,11
1.72313E+12,-5938,-5037,4137,-1595,-1620,614,1,7,11
1.72313E+12,-5932,-5055,4123,-1573,-1600,595,1,7,11
1.72313E+12,-5926,-5087,4136,-1546,-1602,565,1,7,11
1.72313E+12,-5937,-5081,4126,-1229,-1624,506,1,7,11
1.72313E+12,-5986,-5048,4127,-1385,-1426,223,1,7,11
1.72313E+12,-5782,-5011,4129,-1357,-1523,222,1,7,11
1.72313E+12,-5842,-5230,4152,-1360,-1665,241,1,7,11
1.72313E+12,-6151,-5216,4205,-1161,-2129,539,1,7,11
1.72313E+12,-6149,-5215,3995,-1231,-2393,602,1,7,11
1.72313E+12,-5831,-5204,4011,-1562,-2658,433,1,7,11
1.72313E+12,-5971,-5235,4063,-1421,-2897,789,1,7,11
1.72313E+12,-5580,-5020,4370,-1519,-3076,867,1,7,11
1.72313E+12,-5697,-5032,4391,-1840,-3199,678,1,7,11
1.72313E+12,-5307,-5033,4397,-1665,-3031,710,1,7,11
1.72313E+12,-5453,-5076,4433,-1774,-3071,709,1,7,11
1.72313E+12,-5114,-5390,4459,-2107,-3341,676,1,7,11
1.72313E+12,-5050,-5499,4279,-1993,-3060,813,1,7,11
1.72313E+12,-5029,-5311,4321,-2042,-3050,487,1,7,11
1.72313E+12,-5020,-5336,4347,-2314,-3036,419,1,7,11
1.72313E+12,-5006,-5334,4349,-2332,-3025,621,1,7,11
1.72313E+12,-5010,-5364,4646,-2375,-2992,600,1,7,11
1.72313E+12,-5244,-5659,4693,-2408,-2959,608,1,7,11
1.72313E+12,-5218,-5691,4724,-2417,-3173,636,1,7,11
1.72313E+12,-5177,-5707,4718,-2426,-3129,410,1,7,11
1.72313E+12,-4856,-5753,4711,-2208,-3086,426,1,7,11
1.72313E+12,-4748,-5566,4707,-2265,-2745,397,1,7,11
1.72313E+12,-4971,-5620,4714,-2287,-2931,611,1,7,11
1.72313E+12,-4920,-5936,4718,-2282,-2884,563,1,7,11
1.72313E+12,-4867,-5999,4733,-2246,-2834,518,1,7,11
1.72313E+12,-4552,-5801,4518,-2431,-2521,212,1,7,11
1.72313E+12,-4495,-5849,4567,-2033,-2464,158,1,7,11
1.72313E+12,-4720,-5873,4876,-2081,-2649,365,1,7,11
1.72313E+12,-4722,-5867,4925,-1837,-2298,333,1,7,11
1.72313E+12,-4508,-5813,4965,-1570,-2187,335,1,7,11
1.72313E+12,-4511,-6005,4990,-1329,-2335,380,1,7,11
1.72313E+12,-4722,-5959,4753,-1138,-1954,186,1,7,11
1.72313E+12,-4677,-5937,4752,-745,-1787,225,1,7,11
1.72313E+12,-4646,-5891,4750,-657,-1848,235,1,7,11
1.72313E+12,-4624,-5628,4780,-648,-1661,210,1,7,11
1.72313E+12,-4347,-5898,4817,-657,-1217,150,1,7,11
1.72313E+12,-4337,-5904,4806,-650,-1020,331,1,7,11
1.72313E+12,-4348,-5900,4784,-894,-1068,263,1,7,11
1.72313E+12,-4340,-5936,4777,-647,-867,-49,1,7,11
1.72313E+12,-4305,-5961,4986,-870,-414,-110,1,7,11
1.72313E+12,-4267,-6007,4947,-837,-202,81,1,7,11
1.72313E+12,-4480,-5826,4913,-512,19,0,1,7,11
1.72313E+12,-4447,-6166,4900,-640,261,-353,1,7,11
1.72313E+12,-4418,-6066,4607,-118,504,-603,1,7,11
1.72313E+12,-4386,-6064,4569,554,737,-467,1,7,11
1.72313E+12,-4373,-6044,4541,715,982,-845,1,7,11
1.72313E+12,-4402,-6043,4588,1346,1212,-713,1,7,11
1.72313E+12,-4451,-6064,4944,1460,1658,-1088,1,7,11
1.72313E+12,-4477,-6025,4768,2141,1816,-951,1,7,11
1.72313E+12,-4470,-6206,4823,2274,1719,-1330,1,7,11
1.72313E+12,-4452,-6152,5172,2846,2161,-1204,1,7,11
1.72313E+12,-4431,-5858,5020,3127,2371,-1620,1,7,11
1.72313E+12,-4415,-5828,5119,3418,2626,-1530,1,7,11
1.72313E+12,-4395,-5785,5454,3476,2912,-1709,1,7,11
1.72313E+12,-4405,-5960,5487,3792,3001,-2159,1,7,11
1.72313E+12,-4453,-5511,5250,4074,3645,-2349,1,7,11
1.72313E+12,-4239,-5689,5285,4261,3751,-2370,1,7,11
1.72313E+12,-4253,-5681,5296,4639,4085,-2567,1,7,11
1.72313E+12,-4289,-5671,5264,4486,4685,-2767,1,7,11
1.72313E+12,-4339,-5660,5484,4629,5195,-2954,1,7,11
1.72313E+12,-4666,-5659,5413,4950,5503,-3385,1,7,11
1.72313E+12,-4495,-5657,5093,4991,5518,-3269,1,7,11
1.72313E+12,-4577,-5637,5001,4745,5988,-3645,1,7,11
1.72313E+12,-4917,-5373,5213,4959,5884,-3480,1,7,11
1.72313E+12,-4972,-5333,5140,4924,6206,-3548,1,7,11
1.72313E+12,-4753,-5286,4804,4866,6219,-3584,1,7,11
1.72313E+12,-4809,-5289,4755,4503,6206,-3580,1,7,11
1.72313E+12,-5130,-5286,4976,4661,6146,-3539,1,7,11
1.72313E+12,-5166,-5490,4901,4312,6012,-3492,1,7,11
1.72313E+12,-5196,-5424,4573,4431,5605,-3680,1,7,11
1.72313E+12,-5016,-5394,4564,4222,5723,-3595,1,7,11
1.72313E+12,-5114,-5120,4578,3756,5285,-3227,1,7,11
1.72313E+12,-5445,-5100,4601,3560,5055,-3339,1,7,11
1.72313E+12,-5481,-5060,4589,3634,4798,-3179,1,7,11
1.72313E+12,-5256,-5052,4604,3442,4560,-2734,1,7,11
1.72313E+12,-5263,-5020,4580,3014,4325,-2549,1,7,11
1.72313E+12,-5279,-5248,4539,3090,4373,-2637,1,7,11
1.72313E+12,-5289,-5209,4734,2898,4192,-2219,1,7,11
1.72313E+12,-5282,-5196,4664,2666,3793,-2317,1,7,11
1.72313E+12,-5290,-5238,4631,2426,3939,-2174,1,7,11
1.72313E+12,-5286,-5038,4349,1986,3840,-2058,1,7,11
1.72313E+12,-5280,-5070,4295,2114,3501,-1721,1,7,11
1.72313E+12,-5277,-5100,4245,1756,3684,-1665,1,7,11
1.72313E+12,-5268,-5393,4460,1674,3609,-1885,1,7,11
1.72313E+12,-5491,-5432,4401,1873,3276,-1873,1,7,11
1.72313E+12,-5457,-5462,4354,1831,3455,-1878,1,7,11
1.72313E+12,-5411,-5489,4050,1802,3371,-1902,1,7,11
1.72313E+12,-5117,-5258,4016,1523,3029,-1692,1,7,11
1.72313E+12,-5077,-5268,4207,1491,3100,-2058,1,7,11
1.72313E+12,-5069,-5273,4176,1455,2743,-2101,1,7,11
1.72313E+12,-5068,-5306,4161,1644,2898,-2125,1,7,11
1.72313E+12,-5092,-5639,4162,1553,2553,-2134,1,7,11
1.72313E+12,-5400,-5758,4197,1198,2470,-2126,1,7,11
1.72313E+12,-5463,-5896,3982,1363,2636,-2112,1,7,11
1.72313E+12,-5249,-6001,3991,1303,2270,-2093,1,7,11
1.72313E+12,-5269,-5783,3969,1011,2414,-2075,1,7,11
1.72313E+12,-5497,-5766,4148,977,2307,-1788,1,7,11
1.72313E+12,-5448,-6011,3832,927,1971,-1753,1,7,11
1.72313E+12,-5417,-5972,3749,905,1922,-1715,1,7,11
1.72313E+12,-5406,-5944,3731,920,2141,-1915,1,7,11
1.72313E+12,-5386,-5922,3936,979,2093,-1842,1,7,11
1.72313E+12,-5105,-5630,3892,1329,1780,-1514,1,7,11
1.72313E+12,-5093,-5541,3860,1181,1734,-1437,1,7,11
1.72313E+12,-5119,-5726,3578,1273,1701,-1602,1,7,11
1.72313E+12,-5400,-5675,3563,1576,1665,-1230,1,7,11
1.72313E+12,-5421,-5643,3572,1572,1878,-1290,1,7,11
1.72313E+12,-5455,-5642,3852,1230,1818,-909,1,7,11
1.72313E+12,-5476,-5663,3894,1404,1512,-1050,1,7,11
1.72313E+12,-5495,-5697,3924,1325,1455,-701,1,7,11
1.72313E+12,-5254,-5726,3950,1005,1662,-880,1,7,11
1.72313E+12,-5267,-5748,3716,951,1610,-815,1,7,11
1.72313E+12,-5278,-5757,3961,910,1548,-507,1,7,11
1.72313E+12,-5283,-5739,3936,1113,1230,-465,1,7,11
1.72313E+12,-5282,-5734,3926,1050,1171,-428,1,7,11
1.72313E+12,-5269,-5724,3913,731,1356,-402,1,7,11
1.72313E+12,-5497,-5714,3897,674,1020,-386,1,7,11
1.72313E+12,-5472,-5707,3887,871,951,-629,1,7,11
1.72313E+12,-5458,-5725,3889,814,1143,-616,1,7,11
1.72313E+12,-5442,-5744,3889,773,1076,-610,1,7,11
1.72313E+12,-5435,-5512,3892,482,759,-600,1,7,11
1.72313E+12,-5433,-5530,3903,451,705,-584,1,7,11
1.72313E+12,-5425,-5567,3917,424,648,-560,1,7,11
1.72313E+12,-5399,-5595,3924,419,844,-537,1,7,11
1.72313E+12,-5101,-5609,3919,433,783,-526,1,7,11
1.72313E+12,-5063,-5607,3912,447,477,-529,1,7,11
1.72313E+12,-5034,-5610,3908,448,446,-541,1,7,11
1.72313E+12,-5033,-5628,3902,435,426,-553,1,7,11
1.72313E+12,-5046,-5912,3903,417,412,-562,1,7,11
1.72313E+12,-5065,-5955,3919,632,406,-569,1,7,11
1.72313E+12,-5095,-5997,3927,588,405,-571,1,7,11
1.72313E+12,-5383,-5782,3930,539,403,-570,1,7,11
1.72313E+12,-5421,-5811,3940,224,402,-559,1,7,11
1.72313E+12,-5467,-5852,3965,149,406,-537,1,7,11
1.72313E+12,-5258,-6151,3731,331,405,-245,1,7,11
1.72313E+12,-5304,-6184,3743,279,392,-199,1,7,11
1.72313E+12,-5325,-6190,3751,-15,620,-143,1,7,11
1.72313E+12,-5320,-6183,3750,-45,582,-337,1,7,11
1.72313E+12,-5291,-6164,3747,-65,532,-276,1,7,11
1.72313E+12,-5503,-5869,3738,-67,214,29,1,7,11
1.72313E+12,-5452,-5824,3732,-64,150,71,1,7,11
1.72313E+12,-5392,-5769,3730,-55,330,103,1,7,11
1.72313E+12,-5060,-5976,3721,-40,-11,118,1,7,11
1.72313E+12,-5206,-5944,3719,-31,-87,118,1,7,11
1.72313E+12,-5156,-5931,3721,-2,85,80,1,7,11
1.72313E+12,-5121,-5922,3730,271,53,40,1,7,11
1.72313E+12,-4855,-5937,3764,276,40,5,1,7,11
1.72313E+12,-5122,-5950,3785,296,43,-275,1,7,11
1.72313E+12,-5145,-5963,3805,319,80,-286,1,7,11
1.72313E+12,-5194,-5980,4100,342,-104,-270,1,7,11
1.72313E+12,-5244,-5994,4145,383,-17,24,1,7,11
1.72313E+12,-5013,-5995,4156,194,322,72,1,7,11
1.72313E+12,-5003,-5996,4136,250,146,116,1,7,11
1.72313E+12,-5005,-6015,4140,525,241,-120,1,7,11
1.72313E+12,-5012,-5776,4162,547,590,-123,1,7,11
1.72313E+12,-5016,-6015,4157,588,398,109,1,7,11
1.72313E+12,-5011,-5990,4135,623,448,73,1,7,11
1.72313E+12,-5015,-5962,4115,396,489,33,1,7,11
1.72313E+12,-5020,-5937,4107,421,777,-257,1,7,11
1.72313E+12,-5034,-5917,4102,443,807,-280,1,7,11
1.72313E+12,-5045,-5896,4096,467,828,-291,1,7,11
1.72313E+12,-5055,-5618,4096,492,854,-288,1,7,11
1.72313E+12,-5070,-5613,4126,775,887,-277,1,7,11
1.72313E+12,-5105,-5607,4160,809,678,-263,1,7,11
1.72313E+12,-5411,-5610,4196,868,724,21,1,7,11
1.72313E+12,-5475,-5560,4003,1079,1068,78,1,7,11
1.72313E+12,-5476,-5521,4004,1134,1087,71,1,7,11
1.72313E+12,-5475,-5746,4023,905,1098,57,1,7,11
1.72313E+12,-5460,-5709,4034,929,1097,38,1,7,11
1.72313E+12,-5442,-5674,4048,949,1090,10,1,7,11
1.72313E+12,-5424,-5640,4043,963,1088,-284,1,7,11
1.72313E+12,-5416,-5348,4053,961,1093,-327,1,7,11
1.72313E+12,-5412,-5318,4049,947,1093,-371,1,7,11
1.72313E+12,-5421,-5278,4061,929,1108,-156,1,7,11
1.72313E+12,-5451,-5258,4087,905,1134,-177,1,7,11
1.72313E+12,-5481,-5494,4375,910,1147,-180,1,7,11
1.72313E+12,-5483,-5467,4373,939,1151,-174,1,7,11
1.72313E+12,-5471,-5457,4378,960,905,-171,1,7,11
1.72313E+12,-5473,-5434,4373,962,927,-189,1,7,11
1.72313E+12,-5491,-5426,4390,952,954,-210,1,7,11
1.72313E+12,-5501,-5418,4416,947,967,-235,1,7,11
1.72313E+12,-5498,-5406,4416,939,974,-527,1,7,11
1.72313E+12,-5260,-5403,4455,916,993,-569,1,7,11
1.72313E+12,-5281,-5398,4470,911,1000,-616,1,7,11
1.72313E+12,-5303,-5363,4450,912,1004,-407,1,7,11
1.72313E+12,-5301,-5094,4431,1149,996,-454,1,7,11
1.72313E+12,-5306,-5084,4417,1051,978,-794,1,7,11
1.72313E+12,-5326,-5071,4416,714,967,-857,1,7,11
1.72313E+12,-5362,-5060,4415,645,946,-644,1,7,11
1.72313E+12,-5641,-5058,4398,833,913,-671,1,7,11
1.72313E+12,-5654,-5062,4384,489,1121,-690,1,7,11
1.72313E+12,-5655,-5078,4371,386,1056,-709,1,7,11
1.72313E+12,-5675,-5108,4382,532,738,-743,1,7,11
1.72313E+12,-5697,-5120,4379,202,663,-1032,1,7,11
1.72313E+12,-5716,-5392,4370,380,831,-1056,1,7,11
1.72313E+12,-5720,-5417,4356,308,469,-1068,1,7,11
1.72313E+12,-5721,-5459,4357,-34,621,-1072,1,7,11
1.72313E+12,-5728,-5483,4357,-99,515,-1081,1,7,11
1.72313E+12,-5732,-5500,4352,100,148,-1074,1,7,11
1.72313E+12,-5700,-5270,4353,40,277,-1058,1,7,11
1.72313E+12,-5657,-5296,4095,-274,-107,-1054,1,7,11
1.72313E+12,-5357,-5320,4354,-313,50,-1053,1,7,11
1.72313E+12,-5316,-5352,4086,-345,-286,-1049,1,7,11
1.72313E+12,-5257,-5376,4061,-371,-344,-1049,1,7,11
1.72313E+12,-5444,-5661,4056,-157,-378,-1050,1,7,11
1.72313E+12,-5394,-5679,4049,-183,-137,-1051,1,7,11
1.72313E+12,-5099,-5719,4059,-207,-133,-1030,1,7,11
1.72313E+12,-5070,-5518,4086,-212,-131,-744,1,7,11
1.72313E+12,-5028,-5541,4352,-182,-133,-711,1,7,11
1.72313E+12,-5245,-5559,4363,-144,-130,-667,1,7,11
1.72313E+12,-5196,-5569,4353,-345,-382,-871,1,7,11
1.72313E+12,-5143,-5600,4355,-318,-370,-830,1,7,11
1.72313E+12,-4835,-5895,4377,-286,-342,-825,1,7,11
1.72313E+12,-4804,-5919,4377,26,-312,-843,1,7,11
1.72313E+12,-4758,-5931,4370,70,-285,-884,1,7,11
1.72313E+12,-4976,-5960,4380,73,-264,-701,1,7,11
1.72313E+12,-4975,-5982,4404,71,17,-1045,1,7,11
1.72313E+12,-4757,-5980,4422,94,39,-1118,1,7,11
1.72313E+12,-4800,-5969,4435,120,48,-1152,1,7,11
1.72313E+12,-4803,-5999,4442,121,31,-1124,1,7,11
1.72313E+12,-4747,-6005,4449,121,-271,-1117,1,7,11
1.72313E+12,-4738,-6010,4438,126,7,-1137,1,7,11
1.72313E+12,-4750,-6008,4435,126,43,-897,1,7,11
1.72313E+12,-4763,-5766,4440,107,78,-1151,1,7,11
1.72313E+12,-4747,-5788,4450,96,99,-1127,1,7,11
1.72313E+12,-4971,-5816,4454,91,114,-1098,1,7,11
1.72313E+12,-4927,-5824,4460,84,115,-1089,1,7,11
1.72313E+12,-4896,-5853,4468,75,119,-1085,1,7,11
1.72313E+12,-4607,-5865,4471,88,118,-1082,1,7,11
1.72313E+12,-4561,-5882,4459,88,99,-1076,1,7,11
1.72313E+12,-4521,-6164,4468,74,83,-1078,1,7,11
1.72313E+12,-4506,-6169,4460,71,67,-1072,1,7,11
1.72313E+12,-4510,-6177,4464,52,47,-1045,1,7,11
1.72313E+12,-4508,-6187,4476,41,20,-737,1,7,11
1.72313E+12,-4493,-6210,4232,26,-274,-662,1,7,11
1.72313E+12,-4712,-6235,4233,35,-314,-850,1,7,11
1.72313E+12,-4698,-6235,4233,57,-334,-796,1,7,11
1.72313E+12,-4668,-6232,4235,64,-364,-485,1,7,11
1.72313E+12,-4627,-6240,4248,54,-135,-458,1,7,11
1.72313E+12,-4617,-6258,4279,35,-147,-455,1,7,11
1.72313E+12,-4627,-6259,4304,47,-158,-459,1,7,11
1.72313E+12,-4620,-6253,4304,66,-174,-444,1,7,11
1.72313E+12,-4346,-6247,4306,65,-186,-418,1,7,11
1.72313E+12,-4307,-6251,4316,48,-202,-397,1,7,11
1.72313E+12,-4254,-6257,4314,31,-215,-397,1,7,11
1.72313E+12,-4454,-6025,4319,-258,-206,-419,1,7,11
1.72313E+12,-4413,-6052,4320,-278,-174,-464,1,7,11
1.72313E+12,-4381,-6077,4335,-282,-381,-770,1,7,11
1.72313E+12,-4367,-6092,4336,-267,-322,-811,1,7,11
1.72313E+12,-4377,-6108,4347,6,-260,-830,1,7,11
1.72313E+12,-4373,-6108,4345,23,33,-832,1,7,11
1.72313E+12,-4362,-6117,4611,21,63,-833,1,7,11
1.72313E+12,-4094,-6111,4614,20,78,-831,1,7,11
1.72313E+12,-4082,-6113,4345,8,84,-832,1,7,11
1.72313E+12,-4080,-6126,4348,-273,90,-824,1,7,11
1.72313E+12,-4083,-6405,4626,-296,78,-804,1,7,11
1.72313E+12,-4043,-6432,4628,-309,31,-774,1,7,11
1.72313E+12,-4022,-6446,4620,-318,19,-504,1,7,11
1.72313E+12,-3999,-6465,4618,-335,3,-487,1,7,11
1.72313E+12,-3971,-6483,4623,-344,-270,-478,1,7,11
1.72313E+12,-4217,-6497,4632,-345,-266,-469,1,7,11
1.72313E+12,-4217,-6507,4633,-333,-258,-459,1,7,11
1.72313E+12,-4211,-6506,4635,-316,2,-448,1,7,11
1.72313E+12,-4196,-6507,4629,-311,-260,-428,1,7,11
1.72313E+12,-4163,-6273,4633,-314,-263,-419,1,7,11
1.72313E+12,-4137,-6284,4633,-316,8,-428,1,7,11
1.72313E+12,-4138,-6304,4656,-315,41,-442,1,7,11
1.72313E+12,-4118,-6330,4676,-295,51,-450,1,7,11
1.72313E+12,-3838,-6338,4698,-267,53,-466,1,7,11
1.72313E+12,-3825,-6324,4692,22,61,-486,1,7,11
1.72313E+12,-3827,-6291,4680,39,80,-498,1,7,11
1.72313E+12,-3817,-6276,4672,24,88,-489,1,7,11
1.72313E+12,-3792,-6519,4674,-259,83,-479,1,7,11
1.72313E+12,-3785,-6525,4680,-292,95,-462,1,7,11
1.72313E+12,-3781,-6525,4672,-304,117,-420,1,7,11
1.72313E+12,-3768,-6524,4670,-305,-117,-619,1,7,11
1.72313E+12,-3755,-6520,4658,-309,-105,-551,1,7,11
1.72313E+12,-3738,-6523,4645,-326,-98,-229,1,7,11
1.72313E+12,-3727,-6282,4643,-340,-88,-168,1,7,11
1.72313E+12,-3725,-6293,4650,-344,-70,-365,1,7,11
1.72313E+12,-3961,-6306,4643,-338,-64,-314,1,7,11
1.72313E+12,-3945,-6328,4649,-341,-51,-275,1,7,11
1.72313E+12,-3943,-6356,4653,-341,-25,5,1,7,11
1.72313E+12,-3954,-6361,4652,-320,261,16,1,7,11
1.72313E+12,-3715,-6361,4650,-296,300,43,1,7,11
1.72313E+12,-3726,-6347,4632,-275,328,85,1,7,11
1.72313E+12,-3743,-6355,4631,-282,349,-127,1,7,11
1.72313E+12,-3742,-6337,4614,-282,356,-83,1,7,11
1.72313E+12,-3724,-6361,4608,-307,366,-47,1,7,11
1.72313E+12,-3723,-6369,4346,-307,134,-26,1,7,11
1.72313E+12,-3736,-6374,4341,-303,169,-4,1,7,11
1.72313E+12,-3754,-6360,4336,-291,204,271,1,7,11
1.72313E+12,-3781,-6348,4326,-276,236,296,1,7,11
1.72313E+12,-3807,-6344,4322,-275,515,335,1,7,11
1.72313E+12,-3828,-6341,4321,-273,522,369,1,7,11
1.72313E+12,-4110,-6303,4295,-262,528,145,1,7,11
1.72313E+12,-4122,-6299,4293,-269,528,188,1,7,11
1.72313E+12,-4146,-6294,4308,-290,523,234,1,7,11
1.72313E+12,-4168,-6301,4325,-296,248,548,1,7,11
1.72313E+12,-4186,-6285,4321,-281,227,410,1,7,11
1.72313E+12,-4179,-6512,4292,-258,214,488,1,7,11
1.72313E+12,-4166,-6503,4279,8,236,818,1,7,11
1.72313E+12,-4184,-6501,4276,2,533,878,1,7,11
1.72313E+12,-4203,-6494,4276,14,561,674,1,7,11
1.72313E+12,-3969,-6483,4276,27,597,712,1,7,11
1.72313E+12,-4001,-6468,4287,45,636,733,1,7,11
1.72313E+12,-4053,-6440,4309,62,419,755,1,7,11
1.72313E+12,-4392,-6410,4342,85,450,1045,1,7,11
1.72313E+12,-4460,-6120,4623,111,442,1099,1,7,11
1.72313E+12,-4254,-6080,4639,-126,404,1146,1,7,11
1.72313E+12,-4281,-6033,4627,-109,615,925,1,7,11
1.72313E+12,-4290,-6214,4316,-119,562,952,1,7,11
1.72313E+12,-4305,-6185,4276,57,517,958,1,7,11
1.72313E+12,-4322,-6171,4256,-307,212,941,1,7,11
1.72313E+12,-4615,-6175,4269,-153,175,914,1,7,11
1.72313E+12,-4658,-6191,4282,-233,133,1150,1,7,11
1.72313E+12,-4722,-6217,4306,-531,355,1136,1,7,11
1.72313E+12,-4532,-6216,4308,-525,312,1145,1,7,11
1.72313E+12,-4572,-6214,4294,-518,-2,920,1,7,11
1.72313E+12,-4587,-6214,4277,-255,-77,955,1,7,11
1.72313E+12,-4584,-6201,4244,-245,95,973,1,7,11
1.72313E+12,-4590,-6191,4463,-237,22,975,1,7,11
1.72313E+12,-4571,-6189,4433,-248,-310,974,1,7,11
1.72313E+12,-4561,-6211,4407,-255,-369,955,1,7,11
1.72313E+12,-4547,-6249,4401,-232,-157,925,1,7,11
1.72313E+12,-4545,-6262,4381,-143,-168,1132,1,7,11
1.72313E+12,-4552,-6271,4361,-291,-139,1087,1,7,11
1.72313E+12,-4560,-6262,4352,79,-339,1037,1,7,11
1.72313E+12,-4561,-6223,4093,-61,-266,719,1,7,11
1.72313E+12,-4566,-6190,4368,296,88,653,1,7,11
1.72313E+12,-4577,-5872,4361,135,-59,832,1,7,11
1.72313E+12,-4600,-5815,4385,181,319,493,1,7,11
1.72313E+12,-4897,-6015,4420,211,172,414,1,7,11
1.72313E+12,-4942,-5949,4434,227,521,599,1,7,11
1.72313E+12,-4990,-5896,4451,214,599,551,1,7,11
1.72313E+12,-4798,-5587,4457,184,437,528,1,7,11
1.72313E+12,-4836,-5577,4454,381,477,520,1,7,11
1.72313E+12,-5125,-5576,4443,324,510,254,1,7,11
1.72313E+12,-5156,-5584,4427,268,805,243,1,7,11
1.72313E+12,-5198,-5584,4409,-11,837,231,1,7,11
1.72313E+12,-5237,-5576,4386,-18,860,230,1,7,11
1.72313E+12,-5031,-5580,4368,-31,882,238,1,7,11
1.72313E+12,-5077,-5581,4358,-26,893,516,1,7,11
1.72313E+12,-5117,-5575,4361,261,891,539,1,7,11
1.72313E+12,-5414,-5563,4369,325,879,565,1,7,11
1.72313E+12,-5426,-5546,4386,156,851,597,1,7,11
1.72313E+12,-5429,-5533,4414,249,817,609,1,7,11
1.72313E+12,-5421,-5515,4423,623,782,596,1,7,11
1.72313E+12,-5418,-5731,4432,493,774,561,1,7,11
1.72313E+12,-5405,-5699,4453,858,777,254,1,7,11
1.72313E+12,-5403,-5670,4476,707,793,181,1,7,11
1.72313E+12,-5410,-5368,4241,1073,822,355,1,7,11
1.72313E+12,-5419,-5302,4245,914,860,264,1,7,11
1.72313E+12,-5446,-5495,4244,983,653,-83,1,7,11
1.72313E+12,-5475,-5421,4243,1010,692,95,1,7,11
1.72313E+12,-5485,-5107,4251,984,720,31,1,7,11
1.72313E+12,-5259,-5056,4260,920,735,-277,1,7,11
1.72313E+12,-5287,-5000,4271,1086,734,-314,1,7,11
1.72313E+12,-5311,-5242,4282,715,713,-333,1,7,11
1.72313E+12,-5352,-5240,4285,847,673,-342,1,7,11
1.72313E+12,-5636,-5241,4280,462,870,-340,1,7,11
1.72313E+12,-5654,-4994,4276,589,805,-320,1,7,11
1.72313E+12,-5654,-5014,4274,202,462,-301,1,7,11
1.72313E+12,-5653,-5035,4260,338,581,-283,1,7,11
1.72313E+12,-5647,-5068,4259,-26,233,-262,1,7,11
1.72313E+12,-5638,-5105,4258,109,149,19,1,7,11
1.72313E+12,-5367,-5389,4258,64,329,46,1,7,11
1.72313E+12,-5358,-5408,4252,42,277,76,1,7,11
1.72313E+12,-5319,-5446,4251,27,-22,115,1,7,11
1.72313E+12,-5288,-5457,4252,41,-38,127,1,7,11
1.72313E+12,-5270,-5474,4264,67,-33,-118,1,7,11
1.72313E+12,-5252,-5480,4260,115,-23,-124,1,7,11
1.72313E+12,-5503,-5480,4256,-95,-4,117,1,7,11
1.72313E+12,-5268,-5459,4249,-53,274,104,1,7,11
1.72313E+12,-5286,-5439,4242,-25,303,112,1,7,11
1.72313E+12,-5305,-5417,4240,-12,331,-128,1,7,11
1.72313E+12,-5316,-5401,4236,-11,351,-108,1,7,11
1.72313E+12,-5329,-5390,4241,-17,364,-87,1,7,11
1.72313E+12,-5347,-5377,4246,-23,364,-69,1,7,11
1.72313E+12,-5360,-5114,4247,-29,362,-52,1,7,11
1.72313E+12,-5372,-5098,4252,-35,359,-42,1,7,11
1.72313E+12,-5647,-5080,4255,-47,356,-36,1,7,11
1.72313E+12,-5654,-5072,4255,-68,347,-34,1,7,11
1.72313E+12,-5657,-5070,4260,-90,335,-37,1,7,11
1.72313E+12,-5667,-5057,4255,-109,326,-48,1,7,11
1.72313E+12,-5685,-5047,4272,-124,319,-63,1,7,11
1.72313E+12,-5688,-5038,4275,121,297,-80,1,7,11
1.72313E+12,-5686,-5034,4281,109,276,-98,1,7,11
1.72313E+12,-5688,-5029,4276,98,-5,-112,1,7,11
1.72313E+12,-5682,-5031,4276,84,-31,-128,1,7,11
1.72313E+12,-5670,-5035,4284,80,-55,106,1,7,11
1.72313E+12,-5667,-5034,4282,73,-69,80,1,7,11
1.72313E+12,-5668,-5025,4283,71,-80,58,1,7,11
1.72313E+12,-5671,-5025,4281,61,-85,55,1,7,11
1.72313E+12,-5675,-5032,4288,62,-87,55,1,7,11
1.72313E+12,-5675,-5042,4297,72,-84,57,1,7,11
1.72313E+12,-5673,-5058,4301,92,-87,52,1,7,11
1.72313E+12,-5677,-5064,4298,-124,-92,39,1,7,11
1.72313E+12,-5686,-5056,4290,-80,-100,27,1,7,11
1.72313E+12,-5691,-5042,4285,-45,-108,19,1,7,11
1.72313E+12,-5694,-5032,4283,-23,-104,22,1,7,11
1.72313E+12,-5697,-5006,4298,-11,-100,32,1,7,11
1.72313E+12,-5693,-5232,4303,-14,-96,49,1,7,11
1.72313E+12,-5701,-5205,4307,-24,-89,66,1,7,11
1.72313E+12,-5699,-5174,4310,-45,-78,85,1,7,11
1.72313E+12,-5696,-5148,4311,-83,-73,96,1,7,11
1.72313E+12,-5692,-5126,4305,122,-66,108,1,7,11
1.72313E+12,-5687,-4857,4298,52,-60,114,1,7,11
1.72313E+12,-5698,-5124,4292,-279,-59,123,1,7,11
1.72313E+12,-5701,-5139,4291,-346,-70,123,1,7,11
1.72313E+12,-5706,-5168,4308,-149,-88,126,1,7,11
1.72313E+12,-5685,-5197,4321,-182,-114,124,1,7,11
1.72313E+12,-5669,-5224,4321,-198,126,112,1,7,11
1.72313E+12,-5674,-5239,4332,-205,115,97,1,7,11
1.72313E+12,-5660,-5247,4334,-200,97,81,1,7,11
1.72313E+12,-5644,-5248,4323,-203,87,63,1,7,11
1.72313E+12,-5649,-4995,4323,-215,89,54,1,7,11
1.72313E+12,-5642,-5243,4313,-223,85,56,1,7,11
1.72313E+12,-5634,-4997,4317,-251,82,68,1,7,11
1.72313E+12,-5636,-5011,4324,-524,80,83,1,7,11
1.72313E+12,-5637,-5029,4329,-531,75,92,1,7,11
1.72313E+12,-5645,-5040,4316,-533,71,103,1,7,11
1.72313E+12,-5650,-5045,4303,-548,72,119,1,7,11
1.72313E+12,-5672,-5053,4308,-568,71,-116,1,7,11
1.72313E+12,-5678,-5051,4306,-572,55,-91,1,7,11
1.72313E+12,-5659,-5055,4308,-579,36,-59,1,7,11
1.72313E+12,-5646,-5059,4308,-577,21,-28,1,7,11
1.72313E+12,-5369,-5057,4308,-576,5,257,1,7,11
1.72313E+12,-5349,-5063,4304,-575,-261,281,1,7,11
1.72313E+12,-5338,-5070,4306,-578,-265,284,1,7,11
1.72313E+12,-5341,-5078,4318,-585,-259,285,1,7,11
1.72313E+12,-5344,-5085,4318,-589,0,284,1,7,11
1.72313E+12,-5347,-5091,4306,-582,1,284,1,7,11
1.72313E+12,-5358,-5100,4304,-566,10,282,1,7,11
1.72313E+12,-5366,-5101,4294,-543,26,272,1,7,11
1.72313E+12,-5371,-5099,4289,-531,43,265,1,7,11
1.72313E+12,-5636,-5103,4282,-516,61,260,1,7,11
1.72313E+12,-5640,-5102,4281,-243,96,258,1,7,11
1.72313E+12,-5637,-5096,4278,-210,115,-2,1,7,11
1.72313E+12,-5374,-5095,4272,-185,-120,-12,1,7,11
1.72313E+12,-5367,-5085,4267,-154,-97,-29,1,7,11
1.72313E+12,-5364,-5074,4271,-383,-71,-48,1,7,11
1.72313E+12,-5366,-5070,4272,-355,-45,-65,1,7,11
1.72313E+12,-5364,-5080,4294,-332,-19,-78,1,7,11
1.72313E+12,-5354,-5066,4291,-294,256,-97,1,7,11
1.72313E+12,-5350,-5054,4296,-262,278,-119,1,7,11
1.72313E+12,-5360,-5039,4291,23,307,117,1,7,11
1.72313E+12,-5366,-5025,4287,43,340,105,1,7,11
1.72313E+12,-5369,-5018,4271,54,374,102,1,7,11
1.72313E+12,-5372,-5022,4264,59,154,108,1,7,11
1.72313E+12,-5376,-5014,4261,67,190,107,1,7,11
1.72313E+12,-5633,-5004,4240,68,231,98,1,7,11
1.72313E+12,-5644,-5007,4233,59,533,87,1,7,11
1.72313E+12,-5663,-5015,4474,61,585,75,1,7,11
1.72313E+12,-5686,-5017,4469,73,637,61,1,7,11
1.72313E+12,-5716,-5011,4463,85,422,53,1,7,11
1.72313E+12,-5735,-5014,4441,103,457,45,1,7,11
1.72313E+12,-5748,-5009,4417,119,487,29,1,7,11
1.72313E+12,-5516,-5010,4400,126,768,11,1,7,11
1.72313E+12,-5534,-5001,4378,-119,781,-263,1,7,11
1.72313E+12,-5549,-5001,4365,-123,787,-275,1,7,11
1.72313E+12,-5565,-5002,4362,-116,786,-288,1,7,11
1.72313E+12,-5569,-5004,4091,-117,777,-296,1,7,11
1.72313E+12,-5573,-5007,4071,-123,510,-302,1,7,11
1.72313E+12,-5570,-5011,4063,122,495,-311,1,7,11
1.72313E+12,-5580,-5023,4063,113,484,-321,1,7,11
1.72313E+12,-5577,-5031,4052,109,463,-333,1,7,11
1.72313E+12,-5585,-5028,4037,111,450,-344,1,7,11
1.72313E+12,-5590,-5029,4024,114,440,-346,1,7,11
1.72313E+12,-5592,-5031,4014,113,427,-341,1,7,11
1.72313E+12,-5599,-5028,4001,110,416,-331,1,7,11
1.72313E+12,-5582,-5033,3996,102,397,-316,1,7,11
1.72313E+12,-5565,-5047,3994,104,638,-304,1,7,11
1.72313E+12,-5540,-5071,3994,116,624,-300,1,7,11
1.72313E+12,-5511,-5109,3995,-125,611,-301,1,7,11
1.72313E+12,-5510,-5383,3992,-101,608,-318,1,7,11
1.72313E+12,-5745,-5407,3980,-77,607,-320,1,7,11
1.72313E+12,-5705,-5417,3973,-55,605,-319,1,7,11
1.72313E+12,-5677,-5417,4221,-29,618,-318,1,7,11
1.72313E+12,-5658,-5423,4217,-4,630,-310,1,7,11
1.72313E+12,-5645,-5445,4215,266,394,-289,1,7,11
1.72313E+12,-5634,-5451,4207,319,417,19,1,7,11
1.72313E+12,-5365,-5441,4193,357,430,58,1,7,11
1.72313E+12,-5363,-5443,4174,379,454,105,1,7,11
1.72313E+12,-5634,-5458,4169,132,488,-97,1,7,11
1.72313E+12,-5375,-5471,4146,148,511,-39,1,7,11
1.72313E+12,-5638,-5494,4134,147,804,264,1,7,11
1.72313E+12,-5648,-5273,4124,142,847,299,1,7,11
1.72313E+12,-5661,-5294,4111,139,642,317,1,7,11
1.72313E+12,-5670,-5301,3831,141,687,328,1,7,11
1.72313E+12,-5694,-5308,3813,129,741,328,1,7,11
1.72313E+12,-5719,-5311,3788,373,1046,325,1,7,11
1.72313E+12,-5737,-5305,3758,372,1082,325,1,7,11
1.72313E+12,-5748,-5291,3726,371,1106,325,1,7,11
1.72313E+12,-5513,-5291,3961,364,1119,324,1,7,11
1.72313E+12,-5530,-5281,3938,364,1102,322,1,7,11
1.72313E+12,-5553,-5278,3916,352,1073,318,1,7,11
1.72313E+12,-5562,-5284,3904,348,761,322,1,7,11
1.72313E+12,-5573,-5285,3904,347,696,338,1,7,11
1.72313E+12,-5599,-5296,3913,367,867,374,1,7,11
1.72313E+12,-5575,-5283,3899,146,493,146,1,7,11
1.72313E+12,-5574,-5306,3911,380,417,152,1,7,11
1.72313E+12,-5562,-5315,3911,129,592,161,1,7,11
1.72313E+12,-5533,-5298,3904,132,522,163,1,7,11
1.72313E+12,-5526,-5286,3902,364,211,167,1,7,11
1.72313E+12,-5527,-5264,3903,329,160,184,1,7,11
1.72313E+12,-5541,-5263,3918,272,375,226,1,7,11
1.72313E+12,-5551,-5254,3927,-11,334,545,1,7,11
1.72313E+12,-5540,-5493,3925,-25,280,627,1,7,11
1.72313E+12,-5516,-5457,3904,-23,-32,449,1,7,11
1.72313E+12,-5517,-5436,3897,-42,-67,778,1,7,11
1.72313E+12,-5549,-5434,3900,-51,-95,861,1,7,11
1.72313E+12,-5615,-5425,3909,-44,-127,749,1,7,11
1.72313E+12,-5945,-5410,3927,-25,122,1117,1,7,11
1.72313E+12,-6001,-5387,3951,292,109,990,1,7,11
1.72313E+12,-5780,-5379,3714,337,95,1366,1,7,11
1.72313E+12,-5782,-5114,3731,380,57,1184,1,7,11
1.72313E+12,-5789,-5087,3744,152,18,1182,1,7,11
1.72313E+12,-5872,-5112,3804,146,16,1383,1,7,11
1.72313E+12,-6028,-5461,4180,146,10,1328,1,7,11
1.72313E+12,-6052,-5098,4136,550,-363,1009,1,7,11
1.72313E+12,-6036,-5196,3825,590,-169,917,1,7,11
1.72313E+12,-6080,-5139,4115,592,-173,1137,1,7,11
1.72313E+12,-6100,-4816,4117,391,-179,1108,1,7,11
1.72313E+12,-6409,-4748,4116,439,-138,1070,1,7,11
1.72313E+12,-6476,-4929,4100,497,-353,1053,1,7,11
1.72313E+12,-6441,-4714,3963,832,-346,1033,1,7,11
1.72313E+12,-6416,-4255,3860,775,-278,751,1,7,11
1.72313E+12,-6429,-4096,3554,426,68,757,1,7,11
1.72313E+12,-6459,-4007,3540,571,-93,1031,1,7,11
1.72313E+12,-6303,-4005,3580,199,-1,1045,1,7,11
1.72313E+12,-6390,-4181,3580,144,300,1072,1,7,11
1.72313E+12,-6740,-4157,3842,337,313,1136,1,7,11
1.72313E+12,-6576,-4116,3870,-46,336,906,1,7,11
1.72313E+12,-6913,-4110,3956,103,316,956,1,7,11
1.72313E+12,-6955,-3784,3741,77,270,1008,1,7,11
1.72313E+12,-7011,-3943,3771,47,-28,1318,1,7,11
1.72313E+12,-7029,-3578,3805,15,-96,1404,1,7,11
1.72313E+12,-6985,-3474,3813,-311,87,1231,1,7,11
1.72313E+12,-6935,-3575,3837,-158,25,1548,1,7,11
1.72313E+12,-6949,-3238,4186,-572,-262,1564,1,7,11
1.72313E+12,-6993,-3408,4025,-430,-320,1584,1,7,11
1.72313E+12,-7006,-3038,4083,-501,-378,1612,1,7,11
1.72313E+12,-6980,-3128,4352,-769,-197,1622,1,7,11
1.72313E+12,-6973,-2710,4390,-799,-232,1601,1,7,11
1.72313E+12,-6985,-2843,4449,-841,-552,1573,1,7,11
1.72313E+12,-6979,-2504,4232,-885,-634,1547,1,7,11
1.72313E+12,-7021,-2688,4280,-656,-416,1257,1,7,11
1.72313E+12,-6877,-2624,4335,-669,-405,1241,1,7,11
1.72313E+12,-7271,-2297,4621,-661,-633,1536,1,7,11
1.72313E+12,-7130,-2230,4635,-665,-597,1630,1,7,11
1.72313E+12,-7479,-2204,4656,-692,-561,1494,1,7,11
1.72313E+12,-7534,-2198,4675,-699,-547,1857,1,7,11
1.72313E+12,-7538,-2193,4676,-655,-556,1664,1,7,11
1.72313E+12,-7522,-2199,4654,-826,-552,1684,1,7,11
1.72313E+12,-7463,-2210,4349,-450,-537,1672,1,7,11
1.72313E+12,-7144,-2217,4305,-572,-232,1877,1,7,11
1.72313E+12,-7082,-2240,4281,-166,-157,1796,1,7,11
1.72313E+12,-7258,-2264,4249,9,-328,1435,1,7,11
1.72313E+12,-7176,-2268,4230,-57,31,1548,1,7,11
1.72313E+12,-6881,-2249,4225,138,-107,1371,1,7,11
1.72313E+12,-6840,-2205,4465,608,-9,937,1,7,11
1.72313E+12,-6823,-2414,4447,818,355,758,1,7,11
1.72313E+12,-6808,-2346,4397,1031,208,864,1,7,11
1.72313E+12,-6816,-2036,4361,948,594,466,1,7,11
1.72313E+12,-6894,-1986,4095,1355,484,598,1,7,11
1.72313E+12,-7245,-2170,4074,1246,869,520,1,7,11
1.72313E+12,-7116,-1939,4395,1276,752,218,1,7,11
1.72313E+12,-7407,-2428,4645,1538,918,218,1,7,11
1.72313E+12,-7418,-2032,4314,1866,1112,249,1,7,11
1.72313E+12,-7310,-2050,4430,1704,1104,157,1,7,11
1.72313E+12,-7306,-1757,4461,1855,911,308,1,7,11
1.72313E+12,-7547,-1744,4232,1836,924,-21,1,7,11
1.72313E+12,-7519,-1690,4464,1841,913,-85,1,7,11
1.72313E+12,-7478,-1696,4456,1523,1130,127,1,7,11
1.72313E+12,-7141,-1729,4461,1454,1056,72,1,7,11
1.72313E+12,-7084,-1715,4429,1418,1026,12,1,7,11
1.72313E+12,-7291,-1721,4388,1634,1035,-274,1,7,11
1.72313E+12,-7258,-1730,4051,1614,1086,-291,1,7,11
1.72313E+12,-7238,-1741,3973,1573,905,-312,1,7,11
1.72313E+12,-7046,-1755,4167,1538,1295,-342,1,7,11
1.72313E+12,-7463,-1761,4107,1268,1191,-349,1,7,11
1.72313E+12,-7333,-1768,3808,1273,1589,-339,1,7,11
1.72313E+12,-7721,-1754,3774,1547,1463,-317,1,7,11
1.72313E+12,-7586,-1710,3717,1587,1815,-266,1,7,11
1.72313E+12,-7680,-1852,3892,1633,1872,44,1,7,11
1.72313E+12,-7991,-1460,3553,1651,1896,-120,1,7,11
1.72313E+12,-7972,-1633,3531,1594,1876,256,1,7,11
1.72313E+12,-7939,-1623,3537,1217,1839,347,1,7,11
1.72313E+12,-7972,-1562,3495,1378,1827,161,1,7,11
1.72313E+12,-7961,-1191,3638,1340,1796,242,1,7,11
1.72313E+12,-7945,-1359,3284,930,1528,555,1,7,11
1.72313E+12,-7943,-1296,3234,674,1494,606,1,7,11
1.72313E+12,-7973,-1024,3246,616,1444,633,1,7,11
1.72313E+12,-7989,-1330,3284,304,1593,396,1,7,11
1.72313E+12,-8012,-1379,3314,59,1180,621,1,7,11
1.72313E+12,-7996,-1233,3587,-157,988,599,1,7,11
1.72313E+12,-8015,-1585,3594,-551,1069,557,1,7,11
1.72313E+12,-8019,-1410,3309,-629,640,522,1,7,11
1.72313E+12,-8019,-1473,3260,-428,486,238,1,7,11
1.72313E+12,-8004,-1808,3211,-476,588,219,1,7,11
1.72313E+12,-7941,-1911,3448,-786,184,181,1,7,11
1.72313E+12,-7641,-1769,3453,-798,338,354,1,7,11
1.72313E+12,-7600,-2118,3437,-483,266,-9,1,7,11
1.72313E+12,-7577,-1947,3427,-400,-35,118,1,7,11
1.72313E+12,-7801,-2024,3403,-566,-73,-261,1,7,11
1.72313E+12,-7769,-2353,3420,-219,-99,-384,1,7,11
1.72313E+12,-7741,-2179,3241,-364,-124,-239,1,7,11
1.72313E+12,-7693,-2243,3289,58,98,-605,1,7,11
1.72313E+12,-7391,-2276,3314,273,74,-458,1,7,11
1.72313E+12,-7363,-2251,3301,518,78,-812,1,7,11
1.72313E+12,-7359,-2179,3286,505,105,-882,1,7,11
1.72313E+12,-7369,-2343,3282,682,-110,-666,1,7,11
1.72313E+12,-7385,-2000,3293,1045,-77,-670,1,7,11
1.72313E+12,-7379,-2153,3278,1116,-63,-654,1,7,11
1.72313E+12,-7371,-2060,3273,1124,-65,-888,1,7,11
1.72313E+12,-7384,-1745,3287,1065,-78,-876,1,7,11
1.72313E+12,-7698,-1743,3589,691,-84,-853,1,7,11
1.72313E+12,-7737,-1749,3622,825,-113,-809,1,7,11
1.72313E+12,-7749,-1770,3649,446,116,-510,1,7,11
1.72313E+12,-7735,-2059,3674,515,96,-476,1,7,11
1.72313E+12,-7716,-2102,3701,154,93,-460,1,7,11
1.72313E+12,-7684,-2119,3691,345,95,-453,1,7,11
1.72313E+12,-7422,-2132,3682,276,121,-466,1,7,11
1.72313E+12,-7681,-2135,3664,-17,-110,-471,1,7,11
1.72313E+12,-7690,-2140,3642,-56,-82,-463,1,7,11
1.72313E+12,-7698,-2150,3617,-96,-55,-446,1,7,11
1.72313E+12,-7688,-2165,3591,121,-33,-425,1,7,11
1.72313E+12,-7421,-1922,3309,75,-7,-417,1,7,11
1.72313E+12,-7421,-1947,3299,19,280,-412,1,7,11
1.72313E+12,-7683,-1978,3296,-274,296,-401,1,7,11
1.72313E+12,-7685,-2002,3278,-299,308,-394,1,7,11
1.72313E+12,-7693,-2030,3278,-329,311,-389,1,7,11
1.72313E+12,-7704,-2309,3283,-364,306,-638,1,7,11
1.72313E+12,-7725,-2331,3276,-130,295,-621,1,7,11
1.72313E+12,-7739,-2342,3263,-155,283,-596,1,7,11
1.72313E+12,-7763,-2351,3264,-184,276,-560,1,7,11
1.72313E+12,-7761,-2368,3250,-216,261,-516,1,7,11
1.72313E+12,-7749,-2392,3237,-513,-12,-231,1,7,11
1.72313E+12,-7745,-2417,3227,-554,-34,-216,1,7,11
1.72313E+12,-7741,-2185,3210,-600,-63,-216,1,7,11
1.72313E+12,-7731,-2212,3448,-392,-98,-216,1,7,11
1.72313E+12,-7721,-2225,3447,-428,120,-209,1,7,11
1.72313E+12,-7710,-2249,3204,-447,84,-187,1,7,11
1.72313E+12,-7696,-2267,3202,-429,47,-152,1,7,11
1.72313E+12,-7412,-2267,3433,-407,23,-374,1,7,11
1.72313E+12,-7392,-2275,3438,-402,15,-339,1,7,11
1.72313E+12,-7393,-2288,3431,-385,14,-303,1,7,11
1.72313E+12,-7399,-2295,3421,-602,17,-261,1,7,11
1.72313E+12,-7399,-2301,3437,-565,20,40,1,7,11
1.72313E+12,-7393,-2299,3431,-528,17,81,1,7,11
1.72313E+12,-7378,-2291,3430,-245,12,105,1,7,11
1.72313E+12,-7378,-2284,3455,-240,12,117,1,7,11
1.72313E+12,-7390,-2286,3229,-236,6,125,1,7,11
1.72313E+12,-7382,-2258,3238,-211,-264,-121,1,7,11
1.72313E+12,-7374,-2213,3227,-171,-283,-121,1,7,11
1.72313E+12,-7378,-2426,3232,-158,-290,-119,1,7,11
1.72313E+12,-7384,-2381,3228,-164,-286,-107,1,7,11
1.72313E+12,-7385,-2349,3202,-223,-278,-97,1,7,11
1.72313E+12,-7401,-2336,3202,-547,-262,-94,1,7,11
1.72313E+12,-7408,-2342,3201,-614,-259,-99,1,7,11
1.72313E+12,-7681,-2362,3215,-428,-259,-117,1,7,11
1.72313E+12,-7701,-2384,3215,-480,-266,105,1,7,11
1.72313E+12,-7710,-2401,3217,-778,-277,61,1,7,11
1.72313E+12,-7728,-2419,3211,-827,-296,8,1,7,11
1.72313E+12,-7764,-2191,3220,-867,-324,-316,1,7,11
1.72313E+12,-7794,-2202,3205,-642,-374,-133,1,7,11
1.72313E+12,-7571,-2190,3436,-683,-183,-217,1,7,11
1.72313E+12,-7601,-2181,3430,-1030,-524,-566,1,7,11
1.72313E+12,-7630,-2429,3439,-908,-639,-431,1,7,11
1.72313E+12,-7939,-2413,3204,-1324,-785,-836,1,7,11
1.72313E+12,-7970,-2402,3237,-1266,-729,-734,1,7,11
1.72313E+12,-7979,-2418,3303,-1498,-965,-1148,1,7,11
1.72313E+12,-7962,-2195,3635,-1725,-1235,-1287,1,7,11
1.72313E+12,-7639,-2238,3707,-1952,-1524,-1395,1,7,11
1.72313E+12,-7802,-2293,3528,-2178,-2067,-1222,1,7,11
1.72313E+12,-7685,-2621,3866,-2634,-2324,-1265,1,7,11
1.72313E+12,-7307,-2435,3930,-2538,-2274,-1258,1,7,11
1.72313E+12,-7155,-2511,3962,-2929,-2688,-1193,1,7,11
1.72313E+12,-7268,-2850,3722,-2801,-2534,-1358,1,7,11
1.72313E+12,-6834,-2720,3717,-2945,-2850,-979,1,7,11
1.72313E+12,-6649,-3121,3719,-3352,-2839,-1122,1,7,11
1.72313E+12,-6762,-3017,3733,-3219,-2496,-1036,1,7,11
1.72313E+12,-6657,-3426,3746,-3295,-2622,-715,1,7,11
1.72313E+12,-6372,-3603,3789,-3322,-2188,-654,1,7,11
1.72313E+12,-6361,-3545,3797,-3259,-2027,-841,1,7,11
1.72313E+12,-6367,-3862,3793,-3413,-2137,-772,1,7,11
1.72313E+12,-6366,-3957,3735,-3009,-1743,-439,1,7,11
1.72313E+12,-6658,-3778,3715,-3103,-1850,-628,1,7,11
1.72313E+12,-6693,-4102,3715,-2923,-1473,-546,1,7,11
1.72313E+12,-6712,-4140,3728,-2446,-1621,-220,1,7,11
1.72313E+12,-6747,-4167,3809,-2229,-1271,-163,1,7,11
1.72313E+12,-6766,-4163,4156,-1960,-1198,-368,1,7,11
1.72313E+12,-6759,-4192,4003,-1671,-1405,-339,1,7,11
1.72313E+12,-6733,-4215,4374,-1610,-1366,-349,1,7,11
1.72313E+12,-6675,-4211,4440,-1283,-1338,-376,1,7,11
1.72313E+12,-6684,-3979,4243,-725,-1282,-377,1,7,11
1.72313E+12,-6356,-4131,4453,-441,-1147,-134,1,7,11
1.72313E+12,-6330,-3798,4431,-210,-695,-158,1,7,11
1.72313E+12,-6336,-3721,4411,-139,-478,-139,1,7,11
1.72313E+12,-6362,-3881,4373,-361,-239,-361,1,7,11
1.72313E+12,-6398,-3567,4352,-368,-272,-281,1,7,11
1.72313E+12,-6694,-3511,4068,-371,-81,64,1,7,11
1.72313E+12,-6732,-3461,4038,-131,328,-113,1,7,11
1.72313E+12,-6530,-3684,4007,-144,189,-42,1,7,11
1.72313E+12,-6573,-3656,4223,-166,521,263,1,7,11
1.72313E+12,-6613,-3659,4188,-203,560,293,1,7,11
1.72313E+12,-6639,-3685,4177,-240,558,301,1,7,11
1.72313E+12,-6923,-3702,4169,-522,523,279,1,7,11
1.72313E+12,-6945,-3710,4155,-541,201,-12,1,7,11
1.72313E+12,-6960,-3466,4133,-571,370,-48,1,7,11
1.72313E+12,-6993,-3493,4132,-616,279,-90,1,7,11
1.72313E+12,-7026,-3502,4139,-396,-83,-120,1,7,11
1.72313E+12,-6788,-3496,4119,-427,52,114,1,7,11
1.72313E+12,-6804,-3491,4138,-482,-314,104,1,7,11
1.72313E+12,-6814,-3488,4171,-792,-164,106,1,7,11
1.72313E+12,-6798,-3486,3976,-829,-535,117,1,7,11
1.72313E+12,-7035,-3494,4028,-865,-387,113,1,7,11
1.72313E+12,-7020,-3539,4081,-641,-491,93,1,7,11
1.72313E+12,-6998,-3567,4365,-651,-847,61,1,7,11
1.72313E+12,-6962,-3581,4391,-650,-677,15,1,7,11
1.72313E+12,-6899,-3853,4416,-660,-738,-289,1,7,11
1.72313E+12,-6592,-3878,4438,-691,-1035,-343,1,7,11
1.72313E+12,-6529,-3911,4456,-733,-1051,-156,1,7,11
1.72313E+12,-6714,-3944,4460,-1032,-765,-193,1,7,11
1.72313E+12,-6392,-3714,4450,-1071,-720,-233,1,7,11
1.72313E+12,-6329,-3749,4444,-1124,-666,-536,1,7,11
1.72313E+12,-6526,-3806,4450,-935,-872,-598,1,7,11
1.72313E+12,-6486,-4118,4443,-986,-822,-413,1,7,11
1.72313E+12,-6467,-4169,4422,-992,-506,-485,1,7,11
1.72313E+12,-6450,-4214,4401,-997,-458,-804,1,7,11
1.72313E+12,-6439,-4008,4379,-1007,-424,-855,1,7,11
1.72313E+12,-6420,-4068,4370,-1011,-408,-890,1,7,11
1.72313E+12,-6125,-4395,4356,-996,-415,-655,1,7,11
1.72313E+12,-6104,-4464,4093,-966,-421,-683,1,7,11
1.72313E+12,-6104,-4274,4356,-909,-424,-700,1,7,11
1.72313E+12,-6093,-4316,4368,-1093,-436,-701,1,7,11
1.72313E+12,-6085,-4610,4381,-754,-442,-680,1,7,11
1.72313E+12,-6060,-4614,4376,-664,-456,-888,1,7,11
1.72313E+12,-6017,-4616,4371,-857,-457,-840,1,7,11
1.72313E+12,-6229,-4650,4392,-823,-457,-800,1,7,11
1.72313E+12,-6181,-4686,4414,-790,-450,-778,1,7,11
1.72313E+12,-6152,-4729,4453,-503,-432,-777,1,7,11
1.72313E+12,-5881,-4504,4232,-449,-410,-792,1,7,11
1.72313E+12,-5870,-4528,4267,-633,-386,-800,1,7,11
1.72313E+12,-5865,-4543,4285,-550,-608,-787,1,7,11
1.72313E+12,-5851,-4566,4307,-218,-573,-507,1,7,11
1.72313E+12,-5841,-4572,4322,-133,-535,-483,1,7,11
1.72313E+12,-5818,-4562,4327,-293,-234,-458,1,7,11
1.72313E+12,-5810,-4540,4340,46,-180,-440,1,7,11
1.72313E+12,-5799,-4515,4349,103,-135,-428,1,7,11
1.72313E+12,-5787,-4494,4638,-113,-356,-431,1,7,11
1.72313E+12,-5761,-4736,4667,-84,-338,-442,1,7,11
1.72313E+12,-5990,-4725,4687,-71,-325,-465,1,7,11
1.72313E+12,-5971,-4721,4703,-58,-308,-491,1,7,11
1.72313E+12,-5962,-4707,4720,-44,-281,-510,1,7,11
1.72313E+12,-5932,-4698,4730,-44,-257,-771,1,7,11
1.72313E+12,-5898,-4718,4725,-67,22,-506,1,7,11
1.72313E+12,-5623,-4729,4725,-95,74,-500,1,7,11
1.72313E+12,-5624,-4491,4718,-127,119,-479,1,7,11
1.72313E+12,-5889,-4492,4702,101,-97,-442,1,7,11
1.72313E+12,-5918,-4489,4682,71,-60,-392,1,7,11
1.72313E+12,-5961,-4735,4661,24,-38,-589,1,7,11
1.72313E+12,-6006,-4482,4659,-300,-36,-519,1,7,11
1.72313E+12,-5793,-4498,4659,-360,-47,-184,1,7,11
1.72313E+12,-5818,-4507,4650,-146,-72,-361,1,7,11
1.72313E+12,-5829,-4511,4625,-170,-101,-273,1,7,11
1.72313E+12,-5815,-4533,4347,-177,116,58,1,7,11
1.72313E+12,-5838,-4519,4327,-176,96,118,1,7,11
1.72313E+12,-5848,-4519,4313,-187,89,-72,1,7,11
1.72313E+12,-5854,-4520,4310,-182,73,-15,1,7,11
1.72313E+12,-5845,-4511,4293,-153,67,287,1,7,11
1.72313E+12,-5840,-4485,4281,-377,77,318,1,7,11
1.72313E+12,-5836,-4713,4274,-359,91,333,1,7,11
1.72313E+12,-5846,-4691,4273,-359,106,329,1,7,11
1.72313E+12,-5859,-4674,4279,-362,114,316,1,7,11
1.72313E+12,-5883,-4662,4284,-367,123,295,1,7,11
1.72313E+12,-6161,-4661,4297,-376,125,274,1,7,11
1.72313E+12,-6170,-4660,4309,-138,122,-1,1,7,11
1.72313E+12,-6166,-4667,4314,-147,117,-33,1,7,11
1.72313E+12,-5886,-4680,4303,-162,112,-78,1,7,11
1.72313E+12,-5851,-4723,4324,-189,92,-127,1,7,11
1.72313E+12,-5813,-4497,4327,-189,56,47,1,7,11
1.72313E+12,-5818,-4488,4319,-201,36,-289,1,7,11
1.72313E+12,-6152,-4490,4324,-173,42,-299,1,7,11
1.72313E+12,-5839,-4711,4276,-152,32,-282,1,7,11
1.72313E+12,-5849,-4481,4278,-170,-126,11,1,7,11
1.72313E+12,-5833,-4520,4288,-152,-56,50,1,7,11
1.72313E+12,-5821,-4569,4293,-372,259,40,1,7,11
1.72313E+12,-5803,-4545,4271,-316,277,-266,1,7,11
1.72313E+12,-5806,-4539,4274,-308,291,-321,1,7,11
1.72313E+12,-5825,-4536,4271,-325,278,-352,1,7,11
1.72313E+12,-5846,-4542,4289,-351,-7,-367,1,7,11
1.72313E+12,-5849,-4536,4277,-362,-50,-364,1,7,11
1.72313E+12,-5849,-4531,4274,-133,-87,-339,1,7,11
1.72313E+12,-5809,-4513,4241,-153,116,-318,1,7,11
1.72313E+12,-5811,-4502,4254,-212,102,-302,1,7,11
1.72313E+12,-5831,-4566,4274,-523,84,5,1,7,11
1.72313E+12,-5782,-4554,4240,-551,80,65,1,7,11
1.72313E+12,-6002,-4591,4244,-561,62,83,1,7,11
1.72313E+12,-5979,-4875,4253,-583,103,87,1,7,11
1.72313E+12,-5936,-4879,4254,-566,-126,54,1,7,11
1.72313E+12,-5899,-4911,4272,-579,-95,16,1,7,11
1.72313E+12,-5621,-4950,4293,-576,-66,-288,1,7,11
1.72313E+12,-5613,-4966,4294,-557,-35,-342,1,7,11
1.72313E+12,-5621,-4986,4286,-553,-27,-378,1,7,11
1.72313E+12,-5599,-4761,4267,-565,-38,-150,1,7,11
1.72313E+12,-5566,-4750,4464,-599,-51,-187,1,7,11
1.72313E+12,-5587,-4770,4467,-396,-36,-173,1,7,11
1.72313E+12,-5579,-4770,4439,-442,-35,-138,1,7,11
1.72313E+12,-5602,-4773,4430,-466,258,-311,1,7,11
1.72313E+12,-5624,-4765,4415,-442,326,79,1,7,11
1.72313E+12,-5892,-4762,4410,-640,173,256,1,7,11
1.72313E+12,-5906,-4752,4408,-547,563,211,1,7,11
1.72313E+12,-5907,-4980,4393,-163,458,441,1,7,11
1.72313E+12,-5895,-4928,4362,-291,882,671,1,7,11
1.72313E+12,-5909,-4878,4065,50,1055,1120,1,7,11
1.72313E+12,-5942,-4567,4041,104,941,1001,1,7,11
1.72313E+12,-6001,-4507,4015,113,1299,1322,1,7,11
1.72313E+12,-5842,-4690,3985,89,1355,1311,1,7,11
1.72313E+12,-6219,-4612,4217,30,1360,1008,1,7,11
1.72313E+12,-6077,-4307,4216,-310,1328,959,1,7,11
1.72313E+12,-6443,-4275,3969,-144,1008,927,1,7,11
1.72313E+12,-6512,-4247,3969,-205,921,924,1,7,11
1.72313E+12,-6291,-4468,4197,-243,1089,949,1,7,11
1.72313E+12,-6291,-4460,4178,-539,761,1002,1,7,11
1.72313E+12,-6517,-4453,4134,-564,700,1335,1,7,11
1.72313E+12,-6478,-4226,3836,-589,669,1231,1,7,11
1.72313E+12,-6414,-4257,3781,-596,662,1597,1,7,11
1.72313E+12,-6098,-4265,3957,-549,703,1435,1,7,11
1.72313E+12,-6084,-4249,3901,-229,1058,1797,1,7,11
1.72313E+12,-6090,-4468,3844,-372,912,1668,1,7,11
1.72313E+12,-6099,-4444,3556,28,1282,2053,1,7,11
1.72313E+12,-6417,-4403,3511,-25,1154,2149,1,7,11
1.72313E+12,-6294,-4035,3687,233,1560,1938,1,7,11
1.72313E+12,-6763,-4149,3636,447,1459,1949,1,7,11
1.72313E+12,-6983,-3798,3630,832,1817,1939,1,7,11
1.72313E+12,-7196,-3952,3616,689,1851,2154,1,7,11
1.72313E+12,-7069,-3851,3590,755,1807,2074,1,7,11
1.72313E+12,-7475,-3507,3327,751,1496,1912,1,7,11
1.72313E+12,-7346,-3708,3599,707,1656,1472,1,7,11
1.72313E+12,-7686,-3669,3623,641,1250,1273,1,7,11
1.72313E+12,-7700,-3643,3630,828,1320,1324,1,7,11
1.72313E+12,-7400,-3599,3620,508,1130,1120,1,7,11
1.72313E+12,-7345,-3302,3629,420,711,658,1,7,11
1.72313E+12,-7536,-3274,3635,585,813,469,1,7,11
1.72313E+12,-7478,-3240,3653,253,428,566,1,7,11
1.72313E+12,-7471,-3428,3683,192,570,222,1,7,11
1.72313E+12,-7454,-3027,3652,345,164,620,1,7,11
1.72313E+12,-7270,-3065,3629,-85,140,715,1,7,11
1.72313E+12,-6884,-3224,3668,126,185,1037,1,7,11
1.72313E+12,-6851,-3422,3634,286,190,801,1,7,11
1.72313E+12,-6844,-3372,3607,140,201,608,1,7,11
1.72313E+12,-6861,-3043,3284,189,213,206,1,7,11
1.72313E+12,-6868,-3027,3229,378,232,374,1,7,11
1.72313E+12,-6857,-3072,3208,296,514,291,1,7,11
1.72313E+12,-6911,-3054,3206,-27,564,-94,1,7,11
1.72313E+12,-7221,-3186,3257,-98,599,93,1,7,11
1.72313E+12,-7391,-3084,3441,-349,-154,-286,1,7,11
1.72313E+12,-7109,-3015,3451,-808,-1115,267,1,7,11
1.72313E+12,-7187,-3410,3453,-825,-635,784,1,7,11
1.72313E+12,-7273,-3384,3441,-565,630,838,1,7,11
1.72313E+12,-7411,-3311,3307,-301,1308,804,1,7,11
1.72313E+12,-7987,-3438,3684,354,461,637,1,7,11
1.72313E+12,-7658,-3386,3484,912,-822,536,1,7,11
1.72313E+12,-7546,-3125,3293,2211,-1531,-23,1,7,11
1.72313E+12,-7091,-2908,3420,2002,-1458,69,1,7,11
1.72313E+12,-7293,-2525,3406,1221,-935,103,1,7,11
1.72313E+12,-7079,-2558,3216,136,-246,-17,1,7,11
1.72313E+12,-7163,-2689,3622,-631,292,318,1,7,11
1.72313E+12,-7376,-2801,3471,-694,186,323,1,7,11
1.72313E+12,-7379,-2811,3693,-747,-109,187,1,7,11
1.72313E+12,-7374,-2803,3664,-959,-207,457,1,7,11
1.72313E+12,-7351,-3095,3698,-1200,-701,641,1,7,11
1.72313E+12,-7472,-3178,3678,-1647,-1173,627,1,7,11
1.72313E+12,-7300,-3108,3885,-1194,-1716,-67,1,7,11
1.72313E+12,-7083,-3174,3962,-699,-2260,-527,1,7,11
1.72313E+12,-6855,-3026,3725,-129,-2563,-1071,1,7,11
1.72313E+12,-7036,-3347,3814,518,-1995,-1217,1,7,11
1.72313E+12,-6972,-3067,4112,1098,-1895,-1638,1,7,11
1.72313E+12,-6952,-3113,3822,1399,-1583,-1237,1,7,11
1.72313E+12,-6646,-3155,4163,1299,-1285,-1378,1,7,11
1.72313E+12,-6545,-2780,4203,1389,-661,-1290,1,7,11
1.72313E+12,-6539,-2857,4143,1338,-536,-996,1,7,11
1.72313E+12,-6821,-2838,4376,1179,-255,-950,1,7,11
1.72313E+12,-6881,-2746,4405,2101,-1194,-619,1,7,11
1.72313E+12,-6867,-2692,4388,1921,-1915,406,1,7,11
1.72313E+12,-6902,-2539,4428,1665,-1803,2325,1,7,11
1.72313E+12,-6896,-2656,4479,1884,-1526,4957,1,7,11
1.72313E+12,-6887,-2926,4246,1543,-1853,5873,1,7,11
1.72313E+12,-7189,-2694,4641,985,-1608,5279,1,7,11
1.72313E+12,-6879,-2834,4607,1012,-1197,3798,1,7,11
1.72313E+12,-6874,-2291,5071,1591,-1243,1951,1,7,11
1.72313E+12,-6892,-1762,5662,1687,-1240,133,1,7,11
1.72313E+12,-6835,-1640,5895,2003,-1198,-1083,1,7,11
1.72313E+12,-7018,-1571,6193,2223,-1055,-744,1,7,11
1.72313E+12,-6986,-1187,6304,2996,345,2172,1,7,11
1.72313E+12,-7252,-1258,6963,3861,2211,4062,1,7,11
1.72313E+12,-6544,-1267,6752,4733,3555,5653,1,7,11
1.72313E+12,-6443,-1596,6037,4650,4628,5000,1,7,11
1.72313E+12,-5763,-1889,5619,2487,4580,2614,1,7,11
1.72313E+12,-5698,-1966,5349,-301,4878,-594,1,7,11
1.72313E+12,-5469,-2351,5267,-1757,4849,-1967,1,7,11
1.72313E+12,-5218,-2588,5477,-2671,5336,-2313,1,7,11
1.72313E+12,-4904,-2797,5235,-2202,6436,-495,1,7,11
1.72313E+12,-4391,-3596,4695,-1818,7364,1929,1,7,11
1.72313E+12,-3583,-4166,3850,-416,9005,5419,1,7,11
1.72313E+12,-2953,-4534,2923,480,10094,7764,1,7,11
1.72313E+12,-2660,-5006,1719,680,10197,8548,1,7,11
1.72313E+12,-2190,-5190,952,328,10293,8437,1,7,11
1.72313E+12,-2388,-4868,826,-833,9697,8776,1,7,11
1.72313E+12,-2588,-4353,428,-1005,9467,9533,1,7,11
1.72313E+12,-2661,-3862,618,-1069,9719,10927,1,7,11
1.72313E+12,-2212,-2937,-243,-101,10180,13234,1,7,11
1.72313E+12,-2155,-1647,-1516,1897,11037,15291,1,7,11
1.72313E+12,-1845,-34,-3194,3151,11276,16315,1,7,11
1.72313E+12,-1565,1436,-4366,3208,10602,16126,1,7,11
1.72313E+12,-1875,3842,-5362,2605,8068,13973,1,7,11
1.72313E+12,-2630,6074,-6582,777,4821,11765,1,7,11
1.72313E+12,-4394,9197,-7605,-537,1725,10561,1,7,11
1.72313E+12,-6315,11462,-7130,-1395,-353,10442,1,7,11
1.72313E+12,-8330,12366,-5573,-1582,-1565,10896,1,7,11
1.72313E+12,-10049,12654,-4012,-173,-1625,9947,1,7,11
1.72313E+12,-10135,12084,-3111,2049,-1063,9247,1,7,11
1.72313E+12,-9924,11004,-2392,4712,58,8120,1,7,11
1.72313E+12,-9365,10199,-2164,6666,430,6958,1,7,11
1.72313E+12,-8562,8854,-1680,7297,848,4900,1,7,11
1.72313E+12,-7569,8135,-1810,7234,487,3890,1,7,11
1.72313E+12,-6906,7337,-1246,5984,312,3147,1,7,11
1.72313E+12,-6757,6872,-1290,4583,-175,2407,1,7,11
1.72313E+12,-6441,6710,-1069,3730,-849,1677,1,7,11
1.72313E+12,-5809,6230,-895,3387,-903,1160,1,7,11
1.72313E+12,-5602,5772,-789,2907,-1372,-58,1,7,11
1.72313E+12,-6015,5855,-462,1764,-1871,-1756,1,7,11
1.72313E+12,-6415,6246,-220,358,-2278,-4004,1,7,11
1.72313E+12,-6758,6102,-299,-1687,-3266,-5562,1,7,11
1.72313E+12,-7227,6483,-351,-3249,-4455,-6869,1,7,11
1.72313E+12,-7688,6121,5,-3814,-4081,-7132,1,7,11
1.72313E+12,-7573,6013,76,-3406,-3012,-6455,1,7,11
1.72313E+12,-7806,5667,-269,-2325,-1523,-4784,1,7,11
1.72313E+12,-7399,5314,-551,-1270,-132,-2762,1,7,11
1.72313E+12,-7111,5439,-856,-1204,734,95,1,7,11
1.72313E+12,-6797,5225,-1049,-1813,1448,2744,1,7,11
1.72313E+12,-6315,4863,-1285,-2177,1726,5376,1,7,11
1.72313E+12,-5889,4933,-1331,-2807,1880,6896,1,7,11
1.72313E+12,-5085,4569,-1339,-3118,1608,7188,1,7,11
1.72313E+12,-5239,4953,-1380,-2735,909,5297,1,7,11
1.72313E+12,-5008,5125,-1330,-2664,894,3727,1,7,11
1.72313E+12,-5103,5393,-1281,-1937,804,3159,1,7,11
1.72313E+12,-5384,5269,-970,-1920,387,2928,1,7,11
1.72313E+12,-5406,5651,-1002,-2071,-28,2355,1,7,11
1.72313E+12,-5273,5697,-925,-2618,-581,1319,1,7,11
1.72313E+12,-5359,5675,-1062,-2729,-656,351,1,7,11
1.72313E+12,-5687,5744,-676,-3130,-1106,-465,1,7,11
1.72313E+12,-5908,5573,-827,-2810,-939,-1288,1,7,11
1.72313E+12,-5850,5618,-422,-2597,-680,-746,1,7,11
1.72313E+12,-6222,5932,-625,-2153,-598,-287,1,7,11
1.72313E+12,-6206,5533,-566,-2112,-195,411,1,7,11
1.72313E+12,-5888,5686,-243,-2833,-145,694,1,7,11
1.72313E+12,-5803,5312,-302,-3677,-313,1351,1,7,11
1.72313E+12,-5617,5261,-83,-3825,-64,1800,1,7,11
1.72313E+12,-5358,5694,-90,-3974,307,1639,1,7,11
1.72313E+12,-5671,5775,353,-4262,-249,933,1,7,11
1.72313E+12,-5285,6172,338,-4538,-2207,2850,1,7,11
1.72313E+12,-5389,5831,562,-5370,-3501,3426,1,7,11
1.72313E+12,-5146,5850,434,-5807,-3888,3144,1,7,11
1.72313E+12,-4976,5784,865,-6395,-3370,2006,1,7,11
1.72313E+12,-4959,5762,1142,-6944,-2481,761,1,7,11
1.72313E+12,-4971,6173,1177,-6374,-2244,477,1,7,11
1.72313E+12,-4981,6233,1430,-6128,-2643,584,1,7,11
1.72313E+12,-4781,6075,1718,-6421,-3162,-625,1,7,11
1.72313E+12,-5239,6398,1972,-6503,-3339,-1859,1,7,11
1.72313E+12,-5400,6532,2229,-6368,-3116,-3155,1,7,11
1.72313E+12,-5058,6302,2935,-7322,-4183,-3276,1,7,11
1.72313E+12,-5120,6165,3052,-7851,-5409,-3677,1,7,11
1.72313E+12,-5196,5511,3301,-7631,-5750,-2928,1,7,11
1.72313E+12,-4772,5109,3508,-7243,-5058,-1889,1,7,11
1.72313E+12,-4983,5199,3826,-5772,-4515,-678,1,7,11
1.72313E+12,-4827,5428,4078,-4449,-4238,419,1,7,11
1.72313E+12,-4917,5254,4235,-3089,-3808,1672,1,7,11
1.72313E+12,-4492,5383,4641,-1628,-3569,3133,1,7,11
1.72313E+12,-4315,5036,4542,512,-4159,4520,1,7,11
1.72313E+12,-3978,5498,4641,1790,-4931,5586,1,7,11
1.72313E+12,-3942,5289,4520,1711,-6616,1791,1,7,11
1.72313E+12,-3554,5378,5125,1313,-7292,-1623,1,7,11
1.72313E+12,-3463,5339,5379,1744,-7129,-2675,1,7,11
1.72313E+12,-3605,5716,5439,2049,-6896,-2139,1,7,11
1.72313E+12,-3927,5963,5649,936,-5855,-2718,1,7,11
1.72313E+12,-4110,6047,5051,244,-4487,-4426,1,7,11
1.72313E+12,-4414,6423,5448,-732,-1238,-5397,1,7,11
1.72313E+12,-4673,6069,5317,-766,-489,-3584,1,7,11
1.72313E+12,-4931,6049,5905,441,-82,-751,1,7,11
1.72313E+12,-5193,5997,6014,1112,1009,767,1,7,11
1.72313E+12,-5200,5505,5597,741,2098,2091,1,7,11
1.72313E+12,-4985,5926,5082,198,2542,1984,1,7,11
1.72313E+12,-4971,5746,4818,-1025,3338,1328,1,7,11
1.72313E+12,-4969,5713,4574,-1426,3627,-352,1,7,11
1.72313E+12,-5197,5648,4685,-1330,3521,-1037,1,7,11
1.72313E+12,-5117,5249,4244,-378,3237,-1122,1,7,11
1.72313E+12,-5102,5443,4261,366,2499,-1388,1,7,11
1.72313E+12,-5065,5475,4355,803,1796,-1704,1,7,11
1.72313E+12,-5406,5349,3789,417,772,-2356,1,7,11
1.72313E+12,-5661,5936,3233,-466,-651,-2583,1,7,11
1.72313E+12,-5463,5418,3786,-2919,-1358,-1988,1,7,11
1.72313E+12,-5723,5038,3988,-3538,-1311,-1724,1,7,11
1.72313E+12,-5672,5404,4410,-3977,-1096,-1128,1,7,11
1.72313E+12,-5303,5353,4536,-5199,-680,32,1,7,11
1.72313E+12,-5435,5921,4764,-5615,-1196,1281,1,7,11
1.72313E+12,-5173,4786,5777,-5430,-3297,2889,1,7,11
1.72313E+12,-4639,4595,6417,-2409,-4615,1875,1,7,11
1.72313E+12,-3971,4764,6258,145,-4616,300,1,7,11
1.72313E+12,-3831,4848,5771,1291,-3968,-666,1,7,11
1.72313E+12,-3934,5199,5949,1025,-3085,-957,1,7,11
1.72313E+12,-3923,5435,6175,705,-2267,-644,1,7,11
1.72313E+12,-4124,5261,6484,1493,-2190,58,1,7,11
1.72313E+12,-4327,5099,6369,2597,-2695,887,1,7,11
1.72313E+12,-4975,5206,6465,2763,-3947,1901,1,7,11
1.72313E+12,-4979,5077,6096,2757,-4727,3373,1,7,11
1.72313E+12,-4324,5374,5846,2860,-5361,4693,1,7,11
1.72313E+12,-3980,5322,5892,2504,-6242,4581,1,7,11
1.72313E+12,-4221,5426,5607,2726,-6134,4089,1,7,11
1.72313E+12,-4359,5006,5537,3148,-6033,3859,1,7,11
1.72313E+12,-4424,4829,5633,2815,-6169,2970,1,7,11
1.72313E+12,-4094,4784,5266,2788,-5782,2208,1,7,11
1.72313E+12,-4059,4763,5420,2907,-5726,1627,1,7,11
1.72313E+12,-4085,4744,5045,2251,-5043,676,1,7,11
1.72313E+12,-4033,4878,5109,1835,-4662,216,1,7,11
1.72313E+12,-4144,4496,5384,1364,-4210,23,1,7,11
1.72313E+12,-4097,4393,5136,742,-3541,-503,1,7,11
1.72313E+12,-4212,3919,4578,900,-3454,-1214,1,7,11
1.72313E+12,-4038,3659,4696,1810,-3031,-2338,1,7,11
1.72313E+12,-4103,3494,4635,2561,-2979,-3362,1,7,11
1.72313E+12,-3845,3775,4647,2702,-2965,-4652,1,7,11
1.72313E+12,-3449,3987,4243,3161,-3189,-5272,1,7,11
1.72313E+12,-2797,4410,4418,3415,-2718,-5904,1,7,11
1.72313E+12,-2699,4651,4292,3576,-2671,-6160,1,7,11
1.72313E+12,-2825,5418,5443,4062,-2274,-6465,1,7,11
1.72313E+12,-3103,5657,5651,4443,-2458,-6507,1,7,11
1.72313E+12,-2850,5836,5544,4092,-3180,-6191,1,7,11
1.72313E+12,-2243,6068,5328,4431,-3494,-5910,1,7,11
1.72313E+12,-1738,6449,5019,4335,-3784,-5389,1,7,11
1.72313E+12,-1568,6143,4974,4308,-3487,-4484,1,7,11
1.72313E+12,-1292,6491,4931,4374,-2915,-3832,1,7,11
1.72313E+12,-1294,6679,4957,3546,-899,-3249,1,7,11
1.72313E+12,-1322,6930,4833,3037,221,-3385,1,7,11
1.72313E+12,-1236,6816,5237,2299,1900,-3066,1,7,11
1.72313E+12,-1581,6808,5129,1452,3054,-2488,1,7,11
1.72313E+12,-1642,6921,4963,672,4537,-1682,1,7,11
1.72313E+12,-1897,6700,4504,-3,5871,-955,1,7,11
1.72313E+12,-2154,6327,4247,-589,7244,-333,1,7,11
1.72313E+12,-2231,6370,4026,-1096,7880,799,1,7,11
1.72313E+12,-2790,6564,4355,-1163,8415,1492,1,7,11
1.72313E+12,-3010,7268,4259,-1590,8573,3398,1,7,11
1.72313E+12,-3235,7770,4689,-2126,7928,3993,1,7,11
1.72313E+12,-3477,8218,4268,-2232,7274,4947,1,7,11
1.72313E+12,-3710,8469,4000,-2363,5701,5431,1,7,11
1.72313E+12,-3486,8338,3756,-1793,3741,5363,1,7,11
1.72313E+12,-3712,8443,3496,-972,2380,5345,1,7,11
1.72313E+12,-3420,8801,3412,-630,1121,5252,1,7,11
1.72313E+12,-2718,8642,3033,270,-4,5178,1,7,11
1.72313E+12,-2668,8805,3056,668,-582,4351,1,7,11
1.72313E+12,-2418,8356,3346,1493,-1079,4205,1,7,11
1.72313E+12,-2105,8174,3099,2203,-1331,3918,1,7,11
1.72313E+12,-1767,8087,2815,2438,-1143,3163,1,7,11
1.72313E+12,-1534,8533,2723,1994,-148,2398,1,7,11
1.72313E+12,-1273,8711,2224,465,1439,865,1,7,11
1.72313E+12,-1490,8496,2222,-749,3733,-1184,1,7,11
1.72313E+12,-2372,8086,2366,-1275,5559,-2456,1,7,11
1.72313E+12,-2210,8310,1990,-569,5645,-2662,1,7,11
1.72313E+12,-2259,8131,2135,665,4966,-2040,1,7,11
1.72313E+12,-2668,8369,2318,1929,3507,-1441,1,7,11
1.72313E+12,-2736,8326,2131,2466,2189,-299,1,7,11
1.72313E+12,-2895,8560,1831,2553,917,1919,1,7,11
1.72313E+12,-2250,8376,1544,2828,371,3262,1,7,11
1.72313E+12,-1989,8348,1215,2715,-518,4427,1,7,11
1.72313E+12,-2177,8086,1319,2930,-242,5224,1,7,11
1.72313E+12,-2181,7932,1097,1687,1595,5702,1,7,11
1.72313E+12,-2183,8300,978,434,3531,4741,1,7,11
1.72313E+12,-2265,8451,1229,203,4576,3471,1,7,11
1.72313E+12,-2022,8256,1271,-42,4659,1802,1,7,11
1.72313E+12,-2363,7822,1556,-597,3357,-1381,1,7,11
1.72313E+12,-1991,7904,1642,-260,1817,-4365,1,7,11
1.72313E+12,-2613,8015,2026,1570,1438,-8269,1,7,11
1.72313E+12,-2762,7779,2228,8886,1678,-8077,1,7,11
1.72313E+12,-2044,5355,2452,16680,1019,-8886,1,7,11
1.72313E+12,-4314,6862,1054,14813,-623,-4359,1,7,11
1.72313E+12,-4284,7358,-711,12764,-1011,3880,1,7,11
1.72313E+12,-3890,7650,-1698,10526,349,9784,1,7,11
1.72313E+12,-2639,7658,-1654,7268,1318,11896,1,7,11
1.72313E+12,-1650,7640,-1391,4736,1280,9701,1,7,11
1.72313E+12,-1022,7629,-997,3357,924,5180,1,7,11
1.72313E+12,-1485,7619,-1132,1419,2405,689,1,7,11
1.72313E+12,-2178,7732,-913,56,5399,-349,1,7,11
1.72313E+12,-2744,7537,-1299,-512,6440,2739,1,7,11
1.72313E+12,-2662,7401,-1316,-640,5167,8487,1,7,11
1.72313E+12,-2364,7582,-930,-834,5221,12886,1,7,11
1.72313E+12,-1370,7766,-231,208,4813,17598,1,7,11
1.72313E+12,-513,7797,-1583,1450,4789,20763,1,7,11
1.72313E+12,-10,7559,-1179,-125,6482,23450,1,7,11
1.72313E+12,753,7764,-1234,-1069,7591,27775,1,7,11
1.72313E+12,2047,7530,-1140,-2899,8847,32151,1,7,11
1.72313E+12,5477,5354,-427,-7529,8016,27558,1,7,11
1.72313E+12,5522,4205,1838,-8094,4789,16701,1,7,11
1.72313E+12,5487,3763,490,-418,842,6493,1,7,11
1.72313E+12,5493,6152,-924,4267,-4385,-2902,1,7,11
1.72313E+12,4679,6525,-1818,3639,-4305,-8276,1,7,11
1.72313E+12,3639,7016,-12,-213,-2615,-9674,1,7,11
1.72313E+12,3413,7197,-931,1386,-2781,-7055,1,7,11
1.72313E+12,3122,7094,-1289,1390,-2171,-4664,1,7,11
1.72313E+12,2924,7472,-472,-474,50,-667,1,7,11
1.72313E+12,3132,7429,-1335,55,1115,3386,1,7,11
1.72313E+12,3331,7090,-852,-1386,2217,6843,1,7,11
1.72313E+12,3464,6873,-1028,-1625,3439,10534,1,7,11
1.72313E+12,5423,5696,-197,-2454,3763,10320,1,7,11
1.72313E+12,5254,5855,426,-891,2097,3740,1,7,11
1.72313E+12,5120,6215,-571,718,-754,-346,1,7,11
1.72313E+12,4561,6511,-449,-308,-734,-2022,1,7,11
1.72313E+12,4424,6739,-308,-102,-876,-2083,1,7,11
1.72313E+12,4443,6544,-701,214,-623,-469,1,7,11
1.72313E+12,4020,6626,-387,-788,416,913,1,7,11
1.72313E+12,4032,6633,-404,-488,1014,3506,1,7,11
1.72313E+12,5333,5556,-295,-743,1327,3396,1,7,11
1.72313E+12,4829,6107,-263,-220,-40,306,1,7,11
1.72313E+12,4558,6295,-391,-70,-312,-312,1,7,11
1.72313E+12,4613,6682,-604,-584,543,763,1,7,11
1.72313E+12,5063,5792,44,-391,598,1543,1,7,11
1.72313E+12,4753,6448,-302,37,111,35,1,7,11
1.72313E+12,4507,6058,-138,-375,319,193,1,7,11
1.72313E+12,5008,6405,-157,-172,357,634,1,7,11
1.72313E+12,4746,6450,-231,15,-74,110,1,7,11
1.72313E+12,4769,6403,-161,-372,290,361,1,7,11
1.72313E+12,4791,6136,-188,-260,-59,260,1,7,11
1.72313E+12,4740,6437,-190,-287,-58,47,1,7,11
1.72313E+12,4800,6121,-148,-279,-68,-98,1,7,11
1.72313E+12,4749,6426,-198,-265,-75,56,1,7,11
1.72313E+12,4779,6131,-164,-280,-66,79,1,7,11
1.72313E+12,4774,6143,-198,-263,-84,78,1,7,11
1.72313E+12,4762,6407,-185,-281,-68,44,1,7,11
1.72313E+12,4779,6137,-188,-266,-84,69,1,7,11
1.72313E+12,4759,6408,-180,-286,-70,48,1,7,11
1.72313E+12,4762,6405,-179,-279,-79,51,1,7,11
1.72313E+12,4770,6404,-182,-286,-71,57,1,7,11
1.72313E+12,4766,6403,-157,-281,-72,53,1,7,11
1.72313E+12,4772,6142,-171,-270,-83,57,1,7,11
1.72313E+12,4767,6407,-174,-275,-76,52,1,7,11
1.72313E+12,4771,6411,-180,-265,-83,55,1,7,11
1.72313E+12,4773,6408,-168,-273,-72,54,1,7,11
1.72313E+12,4773,6409,-173,-262,-82,59,1,7,11
1.72313E+12,4774,6405,-173,-265,-76,56,1,7,11
1.72313E+12,4768,6406,-172,-263,-81,57,1,7,11
1.72313E+12,4771,6403,-189,-266,-79,59,1,7,11
1.72313E+12,4771,6143,-190,-271,-78,57,1,7,11
1.72313E+12,4782,6415,-189,-276,-72,53,1,7,11
1.72313E+12,4780,6413,-164,-283,-69,47,1,7,11
1.72313E+12,4778,6405,-167,-274,-79,51,1,7,11
1.72313E+12,4771,6402,-176,-281,-76,45,1,7,11
1.72313E+12,4770,6406,-174,-280,-76,50,1,7,11
1.72313E+12,4768,6407,-155,-279,-73,52,1,7,11
1.72313E+12,4776,6409,-177,-262,-87,57,1,7,11
1.72313E+12,4765,6408,-168,-268,-81,53,1,7,11
1.72313E+12,4767,6403,-180,3,-92,63,1,7,11
1.72313E+12,4770,6411,-185,-266,-81,55,1,7,11
1.72313E+12,4769,6407,-180,-262,-86,56,1,7,11
1.72313E+12,4771,6407,-193,-264,-85,60,1,7,11
1.72313E+12,4758,6415,-182,-269,-80,51,1,7,11
1.72313E+12,4765,6402,-187,-272,-79,55,1,7,11
1.72313E+12,4766,6406,-178,-284,-70,50,1,7,11
1.72313E+12,4770,6411,-191,-276,-83,53,1,7,11
1.72313E+12,4771,6404,-178,-286,-72,51,1,7,11
1.72313E+12,4770,6403,-175,-277,-82,50,1,7,11
1.72313E+12,4765,6409,-175,-278,-80,47,1,7,11
1.72313E+12,4769,6416,-163,-275,-79,53,1,7,11
1.72313E+12,4779,6413,-167,-269,-79,57,1,7,11
1.72313E+12,4781,6407,-162,-270,-75,58,1,7,11
1.72313E+12,4782,6414,-179,-260,-86,61,1,7,11
1.72313E+12,4778,6419,-182,-263,-86,54,1,7,11
1.72313E+12,4776,6407,-192,-262,-89,62,1,7,11
1.72313E+12,4769,6402,-166,-278,-75,55,1,7,11
1.72313E+12,4764,6404,-166,-264,-87,57,1,7,11
1.72313E+12,4769,6401,-169,-270,-82,59,1,7,11
1.72313E+12,4762,6411,-175,-268,-85,55,1,7,11
1.72313E+12,4765,6415,-184,-272,-80,52,1,7,11
1.72313E+12,4767,6416,-183,-275,-76,52,1,7,11
1.72313E+12,4766,6409,-182,-270,-81,52,1,7,11
1.72313E+12,4766,6412,-172,-276,-75,48,1,7,11
1.72313E+12,4765,6416,-178,-270,-80,57,1,7,11
1.72313E+12,4764,6417,-169,-271,-78,56,1,7,11
1.72313E+12,4766,6413,-174,-264,-81,59,1,7,11
1.72313E+12,4767,6414,-181,-265,-82,55,1,7,11
1.72313E+12,4771,6415,-177,-272,-77,56,1,7,11
1.72313E+12,4774,6411,-177,-263,-81,57,1,7,11
1.72313E+12,4774,6412,-169,-273,-79,56,1,7,11
1.72313E+12,4775,6411,-177,-266,-84,57,1,7,11
1.72313E+12,4764,6413,-167,-275,-75,53,1,7,11
1.72313E+12,4771,6409,-177,-261,-89,58,1,7,11
1.72313E+12,4767,6409,-165,-284,-69,50,1,7,11
1.72313E+12,4767,6413,-182,-265,-86,55,1,7,11
1.72313E+12,4777,6407,-174,-285,-66,53,1,7,11
1.72313E+12,4771,6406,-168,-266,-83,60,1,7,11
1.72313E+12,4782,6412,-183,-264,-81,55,1,7,11
1.72313E+12,4777,6418,-161,-271,-77,53,1,7,11
1.72313E+12,4776,6414,-187,-258,-90,58,1,7,11
1.72313E+12,4767,6413,-167,-279,-70,50,1,7,11
1.72313E+12,4782,6405,-182,-263,-85,58,1,7,11
1.72313E+12,4770,6405,-167,-275,-74,49,1,7,11
1.72313E+12,4768,6413,-173,-262,-85,53,1,7,11
1.72313E+12,4780,6413,-175,-276,-74,49,1,7,11
1.72313E+12,4768,6411,-163,-268,-82,52,1,7,11
1.72313E+12,4776,6410,-178,-272,-78,53,1,7,11
1.72313E+12,4772,6413,-167,-272,-79,53,1,7,11
1.72313E+12,4775,6410,-189,-264,-86,58,1,7,11
1.72313E+12,4767,6410,-164,-278,-70,52,1,7,11
1.72313E+12,4770,6405,-168,-260,-86,58,1,7,11
1.72313E+12,4771,6408,-172,-270,-77,54,1,7,11
1.72313E+12,4766,6404,-185,-260,-88,57,1,7,11
1.72313E+12,4772,6408,-193,-270,-77,53,1,7,11
1.72313E+12,4768,6411,-182,-271,-76,53,1,7,11
1.72313E+12,4773,6410,-193,-272,-78,55,1,7,11
1.72313E+12,4765,6411,-172,-275,-73,49,1,7,11
1.72313E+12,4763,6409,-186,-264,-85,52,1,7,11
1.72313E+12,4763,6406,-181,-276,-75,49,1,7,11
1.72313E+12,4762,6403,-181,-268,-81,50,1,7,11
1.72313E+12,4767,6409,-171,-273,-76,50,1,7,11
1.72313E+12,4768,6406,-170,-267,-78,53,1,7,11
1.72313E+12,4769,6406,-160,-263,-75,53,1,7,11
1.72313E+12,4773,6407,-169,-269,-83,56,1,7,11
1.72313E+12,4769,6406,-180,-268,-78,55,1,7,11
1.72313E+12,4768,6410,-174,-270,-80,53,1,7,11
1.72313E+12,4773,6407,-179,-270,-83,56,1,7,11
1.72313E+12,4770,6406,-164,-279,-76,54,1,7,11
1.72313E+12,4772,6406,-178,-270,-82,56,1,7,11
1.72313E+12,4768,6403,-169,-279,-72,51,1,7,11
1.72313E+12,4766,6406,-177,-264,-87,56,1,7,11
1.72313E+12,4768,6408,-174,-277,-75,52,1,7,11
1.72313E+12,4765,6413,-174,-265,-83,57,1,7,11
1.72313E+12,4769,6413,-179,-270,-78,56,1,7,11
1.72313E+12,4764,6409,-166,-268,-82,59,1,7,11
1.72313E+12,4769,6407,-178,-263,-85,59,1,7,11
1.72313E+12,4763,6408,-169,-268,-79,53,1,7,11
1.72313E+12,4769,6405,-175,-262,-85,58,1,7,11
1.72313E+12,4764,6407,-162,-275,-74,53,1,7,11
1.72313E+12,4767,6407,-172,-265,-84,56,1,7,11
1.72313E+12,4765,6411,-170,-275,-76,53,1,7,11
1.72313E+12,4764,6412,-169,-269,-80,52,1,7,11
1.72313E+12,4773,6411,-177,-272,-79,54,1,7,11
1.72313E+12,4770,6413,-167,-275,-78,54,1,7,11
1.72313E+12,4770,6411,-180,-269,-83,56,1,7,11
1.72313E+12,4770,6408,-165,-277,-78,53,1,7,11
1.72313E+12,4769,6405,-175,-262,-89,57,1,7,11
1.72313E+12,4771,6404,-174,-272,-78,52,1,7,11
1.72313E+12,4770,6406,-180,-265,-86,57,1,7,11
1.72313E+12,4768,6407,-181,-273,-80,50,1,7,11
1.72313E+12,4770,6403,-169,-270,-83,54,1,7,11
1.72313E+12,4775,6400,-177,-267,-85,57,1,7,11
1.72313E+12,4768,6406,-166,-271,-83,49,1,7,11
1.72313E+12,4770,6407,-175,-262,-91,56,1,7,11
1.72313E+12,4766,6406,-178,-273,-78,55,1,7,11
1.72313E+12,4760,6409,-185,-262,-88,56,1,7,11
1.72313E+12,4759,6412,-186,-273,-78,53,1,7,11
1.72313E+12,4762,6411,-176,-269,-80,55,1,7,11
1.72313E+12,4771,6412,-181,-271,-79,55,1,7,11
1.72313E+12,4768,6414,-164,-274,-78,53,1,7,11
1.72313E+12,4769,6404,-172,-268,-84,56,1,7,11
1.72313E+12,4768,6403,-171,-274,-79,52,1,7,11
1.72313E+12,4771,6407,-165,-267,-77,53,1,7,11
1.72313E+12,4764,6405,-166,-275,-80,52,1,7,11
1.72313E+12,4770,6404,-173,-265,-84,55,1,7,11
1.72313E+12,4765,6405,-178,-271,-79,54,1,7,11
1.72313E+12,4768,6403,-190,-265,-84,56,1,7,11
1.72313E+12,4774,6404,-170,-273,-78,54,1,7,11
1.72313E+12,4774,6403,-168,-265,-85,55,1,7,11
1.72313E+12,4774,6405,-166,-272,-83,53,1,7,11
1.72313E+12,4769,6407,-175,-268,-85,56,1,7,11
1.72313E+12,4772,6410,-175,-269,-82,54,1,7,11
1.72313E+12,4770,6409,-173,-273,-80,51,1,7,11
1.72313E+12,4773,6406,-166,-268,-82,54,1,7,11
1.72313E+12,4768,6408,-161,-272,-78,50,1,7,11
1.72313E+12,4772,6405,-168,-266,-85,56,1,7,11
1.72313E+12,4770,6406,-172,-274,-78,53,1,7,11
1.72313E+12,4770,6407,-166,-266,-83,55,1,7,11
1.72313E+12,4769,6407,-178,-271,-78,56,1,7,11
1.72313E+12,4768,6412,-177,-268,-80,56,1,7,11
1.72313E+12,4772,6406,-183,-263,-83,59,1,7,11
1.72313E+12,4764,6406,-176,-269,-77,57,1,7,11
1.72313E+12,4764,6409,-193,-266,-85,57,1,7,11
1.72313E+12,4766,6404,-187,-276,-76,53,1,7,11
1.72313E+12,4770,6409,-184,-269,-82,55,1,7,11
1.72313E+12,4766,6409,-177,-273,-77,51,1,7,11
1.72313E+12,4765,6406,-171,-266,-81,55,1,7,11
1.72313E+12,4768,6408,-170,-266,-80,53,1,7,11
1.72313E+12,4762,6409,-167,-268,-79,54,1,7,11
1.72313E+12,4768,6408,-180,-267,-82,57,1,7,11
1.72313E+12,4762,6411,-175,-270,-77,53,1,7,11
1.72313E+12,4770,6412,-182,-262,-85,55,1,7,11
1.72313E+12,4768,6412,-178,-271,-78,51,1,7,11
1.72313E+12,4767,6410,-183,-265,-83,54,1,7,11
1.72313E+12,4769,6408,-174,-272,-77,54,1,7,11
1.72313E+12,4766,6409,-170,-269,-79,51,1,7,11
1.72313E+12,4766,6410,-173,-267,-78,52,1,7,11
1.72313E+12,4766,6408,-179,-273,-74,52,1,7,11
1.72313E+12,4770,6406,-175,-267,-81,54,1,7,11
1.72313E+12,4767,6401,-176,-267,-79,56,1,7,11
1.72313E+12,4769,6405,-180,-263,-82,54,1,7,11
1.72313E+12,4766,6412,-179,-270,-77,54,1,7,11
1.72313E+12,4772,6411,-169,-270,-77,56,1,7,11
1.72313E+12,4769,6413,-158,-269,-78,54,1,7,11
1.72313E+12,4768,6417,-170,-265,-82,52,1,7,11
1.72313E+12,4765,6409,-171,-268,-79,51,1,7,11
1.72313E+12,4768,6411,-171,-270,-79,53,1,7,11
1.72313E+12,4772,6408,-171,-267,-78,55,1,7,11
1.72313E+12,4773,6406,-161,-271,-78,55,1,7,11
1.72313E+12,4774,6413,-176,-264,-82,54,1,7,11
1.72313E+12,4771,6410,-176,-270,-78,52,1,7,11
1.72313E+12,4771,6403,-179,-267,-82,60,1,7,11
1.72313E+12,4771,6406,-178,-273,-75,55,1,7,11
1.72313E+12,4772,6404,-173,-266,-81,57,1,7,11
1.72313E+12,4769,6403,-180,-270,-76,55,1,7,11
1.72313E+12,4768,6406,-176,-266,-81,54,1,7,11
1.72313E+12,4771,6404,-179,-267,-78,55,1,7,11
1.72313E+12,4764,6409,-174,-273,-75,53,1,7,11
1.72313E+12,4769,6411,-180,-267,-80,57,1,7,11
1.72313E+12,4766,6408,-168,-275,-75,55,1,7,11
1.72313E+12,4773,6413,-176,-266,-82,55,1,7,11
1.72313E+12,4774,6407,-176,-273,-79,55,1,7,11
1.72313E+12,4770,6409,-175,-266,-81,56,1,7,11
1.72313E+12,4773,6408,-189,-269,-78,53,1,7,11
1.72313E+12,4767,6406,-175,-272,-78,53,1,7,11
1.72313E+12,4769,6409,-184,-269,-80,55,1,7,11
1.72313E+12,4769,6407,-185,-274,-77,51,1,7,11
1.72313E+12,4768,6402,-188,-268,-82,55,1,7,11
1.72313E+12,4766,6406,-174,-274,-77,53,1,7,11
1.72313E+12,4767,6408,-176,-268,-83,56,1,7,11
1.72313E+12,4776,6414,-174,-274,-78,53,1,7,11
1.72313E+12,4768,6410,-174,-269,-82,54,1,7,11
1.72313E+12,4767,6409,-171,-269,-82,56,1,7,11
1.72313E+12,4764,6407,-179,-271,-79,53,1,7,11
1.72313E+12,4764,6405,-185,-268,-83,54,1,7,11
1.72313E+12,4765,6404,-181,-273,-77,54,1,7,11
1.72313E+12,4767,6405,-186,-264,-84,54,1,7,11
1.72313E+12,4767,6409,-185,-270,-81,53,1,7,11
1.72313E+12,4770,6400,-188,-266,-84,56,1,7,11
1.72313E+12,4767,6408,-181,-272,-75,54,1,7,11
1.72313E+12,4770,6408,-184,-268,-80,55,1,7,11
1.72313E+12,4770,6411,-184,-272,-75,53,1,7,11
1.72313E+12,4768,6413,-185,-267,-80,55,1,7,11
1.72313E+12,4768,6407,-189,-272,-77,54,1,7,11
1.72313E+12,4767,6411,-177,-273,-78,53,1,7,11
1.72313E+12,4773,6411,-178,-268,-81,55,1,7,11
1.72313E+12,4773,6406,-170,-272,-78,51,1,7,11
1.72313E+12,4770,6410,-184,-269,-84,53,1,7,11
1.72313E+12,4767,6408,-179,-277,-78,50,1,7,11
1.72313E+12,4772,6412,-174,-267,-85,53,1,7,11
1.72313E+12,4768,6412,-185,-271,-81,52,1,7,11
1.72313E+12,4769,6411,-185,-268,-83,54,1,7,11
1.72313E+12,4768,6412,-183,-271,-78,56,1,7,11
1.72313E+12,4771,6417,-174,-271,-79,53,1,7,11
1.72313E+12,4777,6410,-185,-266,-83,55,1,7,11
1.72313E+12,4768,6407,-172,-272,-78,51,1,7,11
1.72313E+12,4763,6410,-176,-264,-84,52,1,7,11
1.72313E+12,4767,6409,-171,-273,-78,52,1,7,11
1.72313E+12,4765,6411,-174,-268,-84,52,1,7,11
1.72313E+12,4770,6409,-172,-271,-80,53,1,7,11
1.72313E+12,4766,6412,-170,-269,-83,54,1,7,11
1.72313E+12,4768,6410,-189,-266,-84,53,1,7,11
1.72313E+12,4770,6409,-182,-270,-79,54,1,7,11
1.72313E+12,4765,6404,-182,-266,-77,53,1,7,11
1.72313E+12,4762,6410,-171,-269,-77,53,1,7,11
1.72313E+12,4767,6405,-176,-264,-80,56,1,7,11
1.72313E+12,4770,6409,-168,-270,-76,53,1,7,11
1.72313E+12,4770,6409,-178,-264,-84,55,1,7,11
1.72313E+12,4770,6410,-167,-273,-78,56,1,7,11
1.72313E+12,4765,6407,-163,-267,-84,57,1,7,11
1.72313E+12,4764,6410,-168,-271,-80,54,1,7,11
1.72313E+12,4767,6409,-166,-269,-81,55,1,7,11
