timestamp,ax,ay,az,gx,gy,gz,Label1,Label2,Label3
1.72313E+12,-3723,-4504,6977,-255,565,381,1,7,11
1.72313E+12,-3699,-4826,6819,-1444,-6670,-6506,1,7,11
1.72313E+12,-3007,-5023,6896,-1741,-10928,-10773,1,7,11
1.72313E+12,-2295,-5364,7258,-1888,-15071,-14402,1,7,11
1.72313E+12,-1560,-5531,7067,-728,-18736,-17082,1,7,11
1.72313E+12,-143,-5587,7081,515,-21016,-19123,1,7,11
1.72313E+12,2128,-5002,6497,2928,-18209,-17968,1,7,11
1.72313E+12,2864,-3518,6274,2433,-11391,-12153,1,7,11
1.72313E+12,3379,-3721,6328,-1220,-3314,-3063,1,7,11
1.72313E+12,2873,-5241,6704,-2644,4668,4594,1,7,11
1.72313E+12,1728,-5443,6994,-1519,9989,9319,1,7,11
1.72313E+12,1090,-5648,7197,-1242,12825,11474,1,7,11
1.72313E+12,-104,-5752,7259,-817,13494,12337,1,7,11
1.72313E+12,-666,-5685,7057,105,12793,11496,1,7,11
1.72313E+12,-1573,-5329,7066,157,10932,10103,1,7,11
1.72313E+12,-2060,-5498,7293,219,8358,7760,1,7,11
1.72313E+12,-2398,-5443,7274,314,5356,4781,1,7,11
1.72313E+12,-2300,-5420,7254,48,2352,2052,1,7,11
1.72313E+12,-2297,-5442,7273,-541,-1281,-1321,1,7,11
1.72313E+12,-2391,-5497,7054,-831,-4723,-4458,1,7,11
1.72313E+12,-1766,-5363,7110,-688,-7876,-7552,1,7,11
1.72313E+12,-1171,-5759,7147,-479,-10916,-10279,1,7,11
1.72313E+12,-469,-5554,7138,48,-13209,-12340,1,7,11
1.72313E+12,358,-5521,7100,447,-14970,-13491,1,7,11
1.72313E+12,2149,-5299,6744,1848,-14100,-13645,1,7,11
1.72313E+12,2876,-4134,6308,1620,-7882,-8747,1,7,11
1.72313E+12,2533,-4516,7000,-1382,-1435,-1405,1,7,11
1.72313E+12,2385,-5458,6601,-1164,3676,3238,1,7,11
1.72313E+12,1535,-5111,7220,-683,6919,6216,1,7,11
1.72313E+12,956,-5338,7248,-926,8503,7399,1,7,11
1.72313E+12,-723,-5716,7140,-300,5905,5235,1,7,11
1.72313E+12,-981,-5675,7148,6,3491,3027,1,7,11
1.72313E+12,-1330,-5695,7145,-324,1314,1078,1,7,11
1.72313E+12,-1298,-5688,7162,-377,-1393,-1382,1,7,11
1.72313E+12,-1123,-5737,7167,-166,-3578,-3594,1,7,11
1.72313E+12,-772,-5758,7434,-287,-6004,-5304,1,7,11
1.72313E+12,-137,-5751,7157,-115,-7686,-6807,1,7,11
1.72313E+12,350,-5749,7140,148,-9010,-8289,1,7,11
1.72313E+12,886,-5674,7099,455,-9784,-9026,1,7,11
1.72313E+12,1470,-5301,6867,752,-9673,-9230,1,7,11
1.72313E+12,2626,-4930,6981,925,-5813,-6066,1,7,11
1.72313E+12,2262,-4757,6837,-579,-1663,-1630,1,7,11
1.72313E+12,2307,-5388,7020,-871,1909,1496,1,7,11
1.72313E+12,1698,-5380,7217,-775,4139,3693,1,7,11
1.72313E+12,1615,-5301,7242,-674,5439,4880,1,7,11
1.72313E+12,941,-5352,7090,-808,5801,5416,1,7,11
1.72313E+12,437,-5671,7128,-443,5711,4820,1,7,11
1.72313E+12,188,-5723,7130,-580,5123,4287,1,7,11
1.72313E+12,-283,-5748,7165,-157,3386,2719,1,7,11
1.72313E+12,-175,-5741,7433,-346,1771,1492,1,7,11
1.72313E+12,631,-5722,7152,321,-5455,-4806,1,7,11
1.72313E+12,696,-5660,7127,202,-5797,-5360,1,7,11
1.72313E+12,2426,-5051,6836,-229,191,176,1,7,11
1.72313E+12,1932,-5081,7189,-630,2230,1984,1,7,11
1.72313E+12,1700,-5473,7212,-774,3860,3227,1,7,11
1.72313E+12,1417,-5257,7283,-808,4735,3989,1,7,11
1.72313E+12,1364,-5349,7068,-782,5218,4671,1,7,11
1.72313E+12,1043,-5653,7138,-453,5200,4646,1,7,11
1.72313E+12,498,-5687,7154,-589,4684,4162,1,7,11
1.72313E+12,535,-5745,7113,-242,3573,3418,1,7,11
1.72313E+12,188,-5712,7152,-353,3033,2878,1,7,11
1.72313E+12,236,-5707,7426,-197,2596,2031,1,7,11
1.72313E+12,-78,-5748,7145,-368,1865,1514,1,7,11
1.72313E+12,-137,-4802,7304,140,785,3505,1,7,11
1.72313E+12,46,-5096,7367,1252,393,14442,1,7,11
1.72313E+12,-236,-5304,7344,424,3980,16036,1,7,11
1.72313E+12,-694,-5378,7395,421,4377,14462,1,7,11
1.72313E+12,-1202,-5028,7735,229,3710,10311,1,7,11
1.72313E+12,-1862,-5003,7700,605,1015,3507,1,7,11
1.72313E+12,-1795,-5196,7357,345,-930,-1526,1,7,11
1.72313E+12,-1612,-5061,7307,-275,-2598,-5296,1,7,11
1.72313E+12,-1300,-5018,7797,-500,-3369,-8217,1,7,11
1.72313E+12,-655,-5180,7380,-905,-3670,-10328,1,7,11
1.72313E+12,-747,-6003,6970,-1216,-3673,-11827,1,7,11
1.72313E+12,-324,-5849,6856,-602,-1679,-8151,1,7,11
1.72313E+12,-75,-5944,6899,-296,-801,-7271,1,7,11
1.72313E+12,251,-4997,6584,-150,1296,-5536,1,7,11
1.72313E+12,-3,-5747,7286,-1122,4471,-3142,1,7,11
1.72313E+12,46,-5274,7107,-987,5712,-2649,1,7,11
1.72313E+12,-256,-5493,7491,-1591,6328,-2834,1,7,11
1.72313E+12,-209,-5544,7314,-1670,6903,-3398,1,7,11
1.72313E+12,-270,-5627,7296,-1910,6812,-5818,1,7,11
1.72313E+12,306,-5902,7489,-1247,7254,-8784,1,7,11
1.72313E+12,-70,-5701,7141,-654,6989,-9892,1,7,11
1.72313E+12,-115,-5744,7163,-389,6655,-9934,1,7,11
1.72313E+12,-192,-5587,7155,122,7018,-9470,1,7,11
1.72313E+12,-327,-5832,7485,837,6775,-8106,1,7,11
1.72313E+12,-185,-5805,7332,2081,6535,-6287,1,7,11
1.72313E+12,-314,-6001,7681,3212,6646,-4480,1,7,11
1.72313E+12,-43,-5904,7780,5144,7337,-3075,1,7,11
1.72313E+12,-104,-5325,7395,6953,9302,-2715,1,7,11
1.72313E+12,147,-5961,7079,7867,11591,-2720,1,7,11
1.72313E+12,-700,-4629,7317,8501,14059,-3542,1,7,11
1.72313E+12,-1136,-4708,7591,7441,13410,-3443,1,7,11
1.72313E+12,-1215,-4339,8275,6959,12189,-2920,1,7,11
1.72313E+12,-2008,-4162,8239,6472,9159,-3105,1,7,11
1.72313E+12,-2283,-4058,8340,6433,9583,-2800,1,7,11
1.72313E+12,-2830,-4147,8400,6478,8955,-2604,1,7,11
1.72313E+12,-3191,-3927,8567,6317,8529,-1570,1,7,11
1.72313E+12,-2998,-2886,7837,4975,3656,161,1,7,11
1.72313E+12,-3419,-2476,7827,4534,3232,20,1,7,11
1.72313E+12,-3866,-2108,7682,3490,2784,-708,1,7,11
1.72313E+12,-3896,-1779,7976,2986,2222,-733,1,7,11
1.72313E+12,-3895,-2094,8148,1832,-366,-1691,1,7,11
1.72313E+12,-3568,-1779,8153,1515,-424,-2014,1,7,11
1.72313E+12,-3851,-1849,8191,1441,-700,-2610,1,7,11
1.72313E+12,-3900,-1612,8009,1268,-1132,-2909,1,7,11
1.72313E+12,-3720,-1347,7954,1276,-730,-2865,1,7,11
1.72313E+12,-3781,-1217,8187,1445,-526,-2725,1,7,11
1.72313E+12,-4085,-1826,8671,2055,76,-4288,1,7,11
1.72313E+12,-4321,-2169,8973,2062,-819,-5927,1,7,11
1.72313E+12,-4512,-2187,8753,2368,-712,-6355,1,7,11
1.72313E+12,-4572,-2274,8115,2546,-856,-5864,1,7,11
1.72313E+12,-2594,-2749,9300,3401,3170,-254,1,7,11
1.72313E+12,-1843,-2911,9475,2190,275,-771,1,7,11
1.72313E+12,-1173,-2506,10554,2705,-4902,-1577,1,7,11
1.72313E+12,-1386,-2416,10344,3137,-5616,-1671,1,7,11
1.72313E+12,-1187,-2073,9859,2974,-6359,-2382,1,7,11
1.72313E+12,-1330,-1049,10014,3228,-7216,-4251,1,7,11
1.72313E+12,-1140,-821,9806,3193,-7835,-4531,1,7,11
1.72313E+12,-839,-590,9360,2547,-8785,-4743,1,7,11
1.72313E+12,-256,-189,9540,2200,-9006,-4824,1,7,11
1.72313E+12,85,-326,9195,1923,-8806,-5151,1,7,11
1.72313E+12,300,-270,9309,1917,-8295,-5009,1,7,11
1.72313E+12,193,-276,9256,1426,-7146,-5117,1,7,11
1.72313E+12,255,-304,9246,1552,-6256,-5437,1,7,11
1.72313E+12,513,-269,9266,1187,-4821,-5699,1,7,11
1.72313E+12,189,46,8867,1326,-4124,-5954,1,7,11
1.72313E+12,383,105,9029,1064,-3279,-5809,1,7,11
1.72313E+12,-29,-126,8699,799,-3074,-5810,1,7,11
1.72313E+12,17,93,8664,582,-2583,-5993,1,7,11
1.72313E+12,-136,29,8965,229,-2123,-5701,1,7,11
1.72313E+12,-191,36,8685,189,-1488,-5088,1,7,11
1.72313E+12,-172,64,8641,304,-1235,-5177,1,7,11
1.72313E+12,-204,52,8640,81,-958,-5013,1,7,11
1.72313E+12,-234,55,8624,-190,-1045,-5088,1,7,11
1.72313E+12,-529,104,8603,-416,-859,-5187,1,7,11
1.72313E+12,-568,-94,8638,-811,-635,-4942,1,7,11
1.72313E+12,-635,-70,8974,-705,-527,-4703,1,7,11
1.72313E+12,-475,-72,9030,-1149,-606,-4459,1,7,11
1.72313E+12,-787,-59,9025,-1347,-774,-4148,1,7,11
1.72313E+12,-820,-17,9016,-1173,-502,-3624,1,7,11
1.72313E+12,-507,263,8841,-1236,-454,-3091,1,7,11
1.72313E+12,-458,267,9221,-1554,-601,-2435,1,7,11
1.72313E+12,-458,-97,9572,-1565,-384,-2203,1,7,11
1.72313E+12,-482,127,9478,-1398,-64,-1981,1,7,11
1.72313E+12,-508,91,9767,-1140,171,-1911,1,7,11
1.72313E+12,-492,86,9600,-660,167,-1212,1,7,11
1.72313E+12,-419,34,9997,-410,-17,-1047,1,7,11
1.72313E+12,-529,16,9997,-375,-332,-466,1,7,11
1.72313E+12,17,102,9618,-81,-395,-206,1,7,11
1.72313E+12,316,-6,9517,139,-664,13,1,7,11
1.72313E+12,573,140,9308,189,-962,-124,1,7,11
1.72313E+12,770,585,9082,166,-1391,-45,1,7,11
1.72313E+12,1070,401,8964,136,-1358,322,1,7,11
1.72313E+12,1145,446,8614,344,-970,178,1,7,11
1.72313E+12,1344,459,8801,-22,-1110,600,1,7,11
1.72313E+12,1200,425,8815,115,-510,437,1,7,11
1.72313E+12,1542,619,8642,4,-417,447,1,7,11
1.72313E+12,1600,546,9005,-146,-785,608,1,7,11
1.72313E+12,1580,526,9012,-513,-869,221,1,7,11
1.72313E+12,1546,555,8975,-544,-493,156,1,7,11
1.72313E+12,1242,593,8685,-555,-545,168,1,7,11
1.72313E+12,1223,581,9017,-619,-225,235,1,7,11
1.72313E+12,1258,555,8898,-634,-222,519,1,7,11
1.72313E+12,1605,254,9278,-448,-446,198,1,7,11
1.72313E+12,1411,235,9316,-459,-875,358,1,7,11
1.72313E+12,1474,218,9342,-468,-725,-5,1,7,11
1.72313E+12,1529,182,9127,-447,-714,-89,1,7,11
1.72313E+12,1840,138,9167,-417,-863,-257,1,7,11
1.72313E+12,1893,321,9187,-413,-811,-146,1,7,11
1.72313E+12,1703,281,9152,-635,-499,-134,1,7,11
1.72313E+12,1767,258,9113,-618,-452,-313,1,7,11
1.72313E+12,2048,-22,9311,-601,-609,-269,1,7,11
1.72313E+12,2050,-11,9263,-577,-231,-268,1,7,11
1.72313E+12,1782,308,8929,-594,-225,-284,1,7,11
1.72313E+12,1736,131,8838,-388,-244,-337,1,7,11
1.72313E+12,1698,194,9033,-448,-233,-369,1,7,11
1.72313E+12,1698,216,9034,-459,-160,-375,1,7,11
1.72313E+12,1761,199,9065,-769,-175,-160,1,7,11
1.72313E+12,2078,141,8880,-833,-516,-211,1,7,11
1.72313E+12,2142,311,8950,-859,-610,-216,1,7,11
1.72313E+12,1946,-28,9251,-854,-463,-150,1,7,11
1.72313E+12,2000,-90,9250,-867,-641,-301,1,7,11
1.72313E+12,2307,112,9239,-852,-1033,72,1,7,11
1.72313E+12,2359,54,9237,-838,-1145,-114,1,7,11
1.72313E+12,2385,-263,9242,-869,-966,57,1,7,11
1.72313E+12,2405,-312,9235,-697,-1317,-131,1,7,11
1.72313E+12,2409,-382,8958,-758,-1381,-251,1,7,11
1.72313E+12,2425,-181,9219,-741,-1306,-564,1,7,11
1.72313E+12,2215,-198,9218,-738,-1015,-431,1,7,11
1.72313E+12,2244,-193,8928,-1065,-1396,-880,1,7,11
1.72313E+12,2301,-188,8869,-1116,-1407,-738,1,7,11
1.72313E+12,2627,-206,8848,-1030,-1118,-718,1,7,11
1.72313E+12,2450,-246,8924,-704,-641,-677,1,7,11
1.72313E+12,2541,-546,8950,-710,-644,-704,1,7,11
1.72313E+12,2692,-620,9241,-743,-664,-1109,1,7,11
1.72313E+12,2730,-399,9280,-727,-810,-977,1,7,11
1.72313E+12,2766,-438,9090,-894,-539,-1305,1,7,11
1.72313E+12,2756,-462,9140,-770,112,-1295,1,7,11
1.72313E+12,2724,-504,9531,-540,429,-988,1,7,11
1.72313E+12,2700,-806,9408,-360,1095,-976,1,7,11
1.72313E+12,2740,-823,9428,92,1248,-912,1,7,11
1.72313E+12,2732,-798,9443,194,2312,-758,1,7,11
1.72313E+12,2776,-785,9378,503,3004,-863,1,7,11
1.72313E+12,3075,-789,9394,1096,4710,-461,1,7,11
1.72313E+12,681,-315,9441,1766,10626,-2817,1,7,11
1.72313E+12,264,-126,9107,1501,10588,-3039,1,7,11
1.72313E+12,-1598,615,8845,816,8986,-2781,1,7,11
1.72313E+12,-1717,447,8594,600,8066,-3160,1,7,11
1.72313E+12,-2330,494,8429,235,8054,-2836,1,7,11
1.72313E+12,-2296,790,8551,577,7991,-1754,1,7,11
1.72313E+12,-2505,834,8344,261,7853,-1331,1,7,11
1.72313E+12,-2872,676,8520,-51,8247,-146,1,7,11
1.72313E+12,-2775,764,8319,102,8171,637,1,7,11
1.72313E+12,-2998,1077,7830,-363,8545,1051,1,7,11
1.72313E+12,-3597,1121,7586,-771,8391,1356,1,7,11
1.72313E+12,-3851,927,7412,-1317,8379,1501,1,7,11
1.72313E+12,-4132,936,7522,-1508,8811,2080,1,7,11
1.72313E+12,-4447,1121,7137,-1961,8765,2158,1,7,11
1.72313E+12,-4722,721,7235,-2222,8262,1969,1,7,11
1.72313E+12,-4822,809,7175,-2614,7812,1694,1,7,11
1.72313E+12,-5431,620,6866,-2862,7160,1240,1,7,11
1.72313E+12,-5736,228,6985,-2955,6590,1299,1,7,11
1.72313E+12,-5955,291,6982,-3649,6499,1349,1,7,11
1.72313E+12,-6210,61,6828,-3570,5538,1182,1,7,11
1.72313E+12,-6280,-368,6729,-4962,4580,1249,1,7,11
1.72313E+12,-6348,-169,6654,-5158,4646,1694,1,7,11
1.72313E+12,-6658,-574,6993,-3678,3564,1683,1,7,11
1.72313E+12,-6730,-636,6342,-2520,2918,1915,1,7,11
1.72313E+12,-6702,-625,6357,-2103,2465,1793,1,7,11
1.72313E+12,-6358,-559,6500,-1556,2467,1508,1,7,11
1.72313E+12,-6311,-199,6412,-1328,2475,937,1,7,11
1.72313E+12,-6280,-308,6227,-931,3199,813,1,7,11
1.72313E+12,-6432,50,5840,-938,3297,472,1,7,11
1.72313E+12,-6020,126,5886,-725,4096,665,1,7,11
1.72313E+12,-6222,85,6428,-712,4253,239,1,7,11
1.72313E+12,-6021,58,6470,-867,4413,-247,1,7,11
1.72313E+12,-6681,-302,5862,-1634,3764,-518,1,7,11
1.72313E+12,-6576,15,5881,-1437,3160,652,1,7,11
1.72313E+12,-7192,-70,5281,-666,1723,1439,1,7,11
1.72313E+12,-7082,257,5053,-322,902,1813,1,7,11
1.72313E+12,-7289,329,5389,-332,1072,2063,1,7,11
1.72313E+12,-6807,632,5068,-731,1108,2031,1,7,11
1.72313E+12,-6979,398,5161,-2457,1941,2729,1,7,11
1.72313E+12,-7185,382,5356,-4126,2967,3454,1,7,11
1.72313E+12,-7291,-22,5249,-5174,3448,3250,1,7,11
1.72313E+12,-7043,-47,4993,-6322,3376,3090,1,7,11
1.72313E+12,-7448,-292,5079,-8079,3639,2459,1,7,11
1.72313E+12,-7530,-334,5055,-8414,3299,1680,1,7,11
1.72313E+12,-7372,-180,5164,-7958,3341,1564,1,7,11
1.72313E+12,-7595,-585,4860,-7072,3052,899,1,7,11
1.72313E+12,-7972,-788,5128,-6671,3732,1514,1,7,11
1.72313E+12,-8219,-649,5191,-6133,5072,1672,1,7,11
1.72313E+12,-8201,-823,5134,-6237,5370,1230,1,7,11
1.72313E+12,-8303,-454,4577,-6418,6180,429,1,7,11
1.72313E+12,-8306,-574,4452,-6153,6399,831,1,7,11
1.72313E+12,-8080,-240,3811,-5759,7145,1977,1,7,11
1.72313E+12,-8297,-255,3555,-5684,8460,3720,1,7,11
1.72313E+12,-8136,36,3337,-5553,9433,5086,1,7,11
1.72313E+12,-8324,22,2803,-5299,10103,6244,1,7,11
1.72313E+12,-8442,-75,2835,-4667,9687,6762,1,7,11
1.72313E+12,-8827,564,2022,-3631,9388,7775,1,7,11
1.72313E+12,-9478,-60,1816,-2872,9776,9874,1,7,11
1.72313E+12,-9640,73,1380,-2190,9606,11123,1,7,11
1.72313E+12,-9980,-43,906,-2576,9799,9724,1,7,11
1.72313E+12,-10159,407,886,-2843,9133,7920,1,7,11
1.72313E+12,-10318,752,591,-3353,8860,6811,1,7,11
1.72313E+12,-10325,1340,269,-3357,8435,7101,1,7,11
1.72313E+12,-9936,1577,-208,-2758,7805,7766,1,7,11
1.72313E+12,-9924,1881,-552,-2577,6961,7866,1,7,11
1.72313E+12,-9906,1993,-471,-2007,6372,8831,1,7,11
1.72313E+12,-9914,2205,-652,-2561,6669,9310,1,7,11
1.72313E+12,-10131,2823,-647,-2762,6586,9558,1,7,11
1.72313E+12,-10325,3100,-1029,-3193,7033,10555,1,7,11
1.72313E+12,-10106,3021,-1023,-3158,7078,12222,1,7,11
1.72313E+12,-9777,3368,-1252,-2770,7551,13463,1,7,11
1.72313E+12,-8861,3597,-1426,-2510,7726,16011,1,7,11
1.72313E+12,-7672,3715,-1530,-2093,7621,18809,1,7,11
1.72313E+12,-6461,4458,-1686,-788,7877,21101,1,7,11
1.72313E+12,-4982,4336,-1752,-368,8983,23282,1,7,11
1.72313E+12,-3236,4284,-1707,-81,10507,25762,1,7,11
1.72313E+12,-1494,4472,-1860,489,12348,28341,1,7,11
1.72313E+12,-359,4018,-1437,1698,13635,30099,1,7,11
1.72313E+12,1324,3804,-1546,2251,13809,31357,1,7,11
1.72313E+12,2832,3595,-1293,2211,13889,31104,1,7,11
1.72313E+12,4078,2639,-1029,2189,12697,29760,1,7,11
1.72313E+12,5114,1884,-664,2215,11272,25932,1,7,11
1.72313E+12,5878,1315,-854,2359,9816,22488,1,7,11
1.72313E+12,6545,789,-476,1678,8543,20096,1,7,11
1.72313E+12,7738,-20,-135,646,6295,15767,1,7,11
1.72313E+12,8000,-59,30,177,5493,14240,1,7,11
1.72313E+12,8219,-84,45,283,4656,12675,1,7,11
1.72313E+12,7904,-1,35,589,4221,10948,1,7,11
1.72313E+12,8049,527,73,809,3713,10028,1,7,11
1.72313E+12,7987,705,289,443,3610,8372,1,7,11
1.72313E+12,7632,1460,588,-330,2216,7658,1,7,11
1.72313E+12,7773,1928,841,-633,1311,9361,1,7,11
1.72313E+12,7959,2261,874,1146,1873,11124,1,7,11
1.72313E+12,8280,2096,833,1741,2617,9716,1,7,11
1.72313E+12,8232,1218,267,2203,2486,7384,1,7,11
1.72313E+12,7954,1175,68,2816,2493,4708,1,7,11
1.72313E+12,7969,1202,-343,2453,2501,2667,1,7,11
1.72313E+12,8060,1009,-181,2613,2447,899,1,7,11
1.72313E+12,7622,890,-631,2268,2899,1076,1,7,11
1.72313E+12,7377,419,-425,1966,3629,2616,1,7,11
1.72313E+12,7548,789,-601,1217,5202,5653,1,7,11
1.72313E+12,7356,793,-142,408,4692,6190,1,7,11
1.72313E+12,7594,314,-350,-675,3590,5630,1,7,11
1.72313E+12,7990,-383,-305,-3132,2520,5182,1,7,11
1.72313E+12,8030,-530,4,-4831,1597,4938,1,7,11
1.72313E+12,8223,-329,6,-5376,344,4785,1,7,11
1.72313E+12,8336,68,351,-5191,-688,4064,1,7,11
1.72313E+12,8614,-465,159,-3883,-931,2829,1,7,11
1.72313E+12,8623,-1083,168,-2943,-1114,991,1,7,11
1.72313E+12,8716,-1084,194,-1951,-955,-378,1,7,11
1.72313E+12,8462,-1112,335,-1602,-1300,-1051,1,7,11
1.72313E+12,8096,-1095,93,-764,-1257,-1583,1,7,11
1.72313E+12,8101,-764,-231,35,-1403,-1767,1,7,11
1.72313E+12,8080,-717,-468,680,-426,-2243,1,7,11
1.72313E+12,8263,-465,-642,1022,694,-2673,1,7,11
1.72313E+12,7596,58,-652,967,2460,-2446,1,7,11
1.72313E+12,7140,483,-849,656,3645,-2975,1,7,11
1.72313E+12,7532,435,-160,-297,2713,-3004,1,7,11
1.72313E+12,7971,141,340,-1098,1391,-1268,1,7,11
1.72313E+12,7899,366,276,-1598,-521,-377,1,7,11
1.72313E+12,8074,198,37,-2414,-576,938,1,7,11
1.72313E+12,8110,241,79,-3064,746,2918,1,7,11
1.72313E+12,8010,-509,142,-5255,650,4538,1,7,11
1.72313E+12,7890,-1000,476,-4356,144,4624,1,7,11
1.72313E+12,7820,-1300,810,-2503,-391,3752,1,7,11
1.72313E+12,8797,-842,-571,1937,-1905,-2317,1,7,11
1.72313E+12,7835,-190,-441,907,-1176,-2189,1,7,11
1.72313E+12,7685,-951,-327,477,-6218,5038,1,7,11
1.72313E+12,7634,-1419,-472,2081,-9835,5412,1,7,11
1.72313E+12,7832,-1600,-1237,3096,-10467,4333,1,7,11
1.72313E+12,7784,-1832,-1799,2691,-8469,3300,1,7,11
1.72313E+12,7338,-1332,-2120,2569,-7557,2310,1,7,11
1.72313E+12,7684,-1382,-2001,806,-7437,1434,1,7,11
1.72313E+12,7796,-1276,-2314,-1117,-6972,785,1,7,11
1.72313E+12,7598,-1345,-2226,-2549,-7449,-1212,1,7,11
1.72313E+12,7973,-697,-2628,-3580,-7862,-3372,1,7,11
1.72313E+12,8073,111,-2240,-4246,-9242,-5723,1,7,11
1.72313E+12,8816,-56,-2005,-4948,-11629,-8871,1,7,11
1.72313E+12,9325,75,-2308,-6051,-13086,-11437,1,7,11
1.72313E+12,9172,-604,-2361,-6774,-13263,-16449,1,7,11
1.72313E+12,9126,-1566,-2258,-7264,-12406,-19419,1,7,11
1.72313E+12,9122,-2659,-2706,-7852,-12012,-22719,1,7,11
1.72313E+12,8903,-3061,-3246,-10731,-12856,-25739,1,7,11
1.72313E+12,8668,-3386,-3495,-14101,-13084,-31646,1,7,11
1.72313E+12,8865,-3024,-3578,-19018,-11917,-32768,1,7,11
1.72313E+12,8464,-2501,-3954,-20804,-9646,-32768,1,7,11
1.72313E+12,7245,-2418,-4231,-19325,-9537,-32768,1,7,11
1.72313E+12,4838,-1673,-4333,-15427,-11833,-32768,1,7,11
1.72313E+12,1991,-1451,-3693,-10807,-14562,-32768,1,7,11
1.72313E+12,-590,-985,-2216,-8112,-17561,-32768,1,7,11
1.72313E+12,-2752,-547,-811,-7163,-19433,-31548,1,7,11
1.72313E+12,-5489,-102,684,-6858,-19170,-29162,1,7,11
1.72313E+12,-8516,-394,2194,-6352,-16691,-26249,1,7,11
1.72313E+12,-11063,-1022,3379,-6356,-13684,-23874,1,7,11
1.72313E+12,-12304,-1382,3223,-7042,-11599,-21733,1,7,11
1.72313E+12,-12720,-1353,3325,-7081,-9570,-20027,1,7,11
1.72313E+12,-13024,-1356,3639,-6338,-7622,-17652,1,7,11
1.72313E+12,-13250,-1240,3425,-5008,-6367,-15450,1,7,11
1.72313E+12,-13089,-1652,2744,-4186,-5128,-12830,1,7,11
1.72313E+12,-12478,-1840,2609,-3608,-3506,-10191,1,7,11
1.72313E+12,-11854,-1247,2165,-3190,-2460,-8287,1,7,11
1.72313E+12,-10903,-984,1885,-2902,-2174,-6737,1,7,11
1.72313E+12,-10215,-847,1794,-1656,-2211,-4647,1,7,11
1.72313E+12,-9673,-529,1526,-383,-2661,-2379,1,7,11
1.72313E+12,-9369,19,1910,1400,-2980,104,1,7,11
1.72313E+12,-8876,132,2063,2519,-3891,1457,1,7,11
1.72313E+12,-8692,493,2388,2719,-4121,1845,1,7,11
1.72313E+12,-8596,1052,2586,2671,-3692,1649,1,7,11
1.72313E+12,-8763,407,2732,2768,-3779,1164,1,7,11
1.72313E+12,-8594,668,2772,4308,-5704,1193,1,7,11
1.72313E+12,-8411,682,2710,6184,-5786,2137,1,7,11
1.72313E+12,-8378,1142,3096,7022,-5823,2611,1,7,11
1.72313E+12,-8110,1394,2779,8470,-4016,3289,1,7,11
1.72313E+12,-7913,1619,2707,10015,-415,4313,1,7,11
1.72313E+12,-7900,1198,2886,11222,984,5463,1,7,11
1.72313E+12,-7979,1423,2298,14207,1932,6233,1,7,11
1.72313E+12,-7605,2656,2008,14270,2920,6564,1,7,11
1.72313E+12,-7976,2773,2160,12079,3122,7476,1,7,11
1.72313E+12,-7421,3104,1742,9649,2860,6101,1,7,11
1.72313E+12,-7089,3065,1504,7326,2025,4162,1,7,11
1.72313E+12,-7064,3424,1411,5272,1672,2449,1,7,11
1.72313E+12,-7460,3450,1629,4150,2140,2240,1,7,11
1.72313E+12,-7351,3266,1228,2747,2099,1982,1,7,11
1.72313E+12,-7357,3654,1021,2118,1446,1711,1,7,11
1.72313E+12,-7531,3476,1101,1246,1302,1455,1,7,11
1.72313E+12,-7545,3553,703,1141,808,914,1,7,11
1.72313E+12,-7420,3511,685,869,-42,626,1,7,11
1.72313E+12,-7341,3463,677,385,-406,10,1,7,11
1.72313E+12,-7512,3679,683,-15,-650,-727,1,7,11
1.72313E+12,-7474,3647,709,-202,-488,-960,1,7,11
1.72313E+12,-7495,3584,1063,-806,-574,-986,1,7,11
1.72313E+12,-7490,3263,1142,-655,-238,-1361,1,7,11
1.72313E+12,-7318,3446,919,-859,-631,-1512,1,7,11
1.72313E+12,-7388,3416,915,-411,-890,-1726,1,7,11
1.72313E+12,-7693,3347,938,-550,-1155,-2199,1,7,11
1.72313E+12,-7403,2989,994,-158,-1913,-2901,1,7,11
1.72313E+12,-7315,3157,1349,-376,-2067,-2764,1,7,11
1.72313E+12,-7381,2744,1184,-231,-1263,-1954,1,7,11
1.72313E+12,-7709,2918,1543,-432,-1009,-1834,1,7,11
1.72313E+12,-7731,2854,1650,-694,-911,-1616,1,7,11
1.72313E+12,-7683,2839,1455,-1108,-646,-976,1,7,11
1.72313E+12,-7392,2842,1479,-1366,-316,-577,1,7,11
1.72313E+12,-7716,2819,1508,-1263,556,270,1,7,11
1.72313E+12,-7585,2539,1792,-1339,695,491,1,7,11
1.72313E+12,-7560,2839,1466,-666,1030,879,1,7,11
1.72313E+12,-7779,2884,1609,-398,711,405,1,7,11
1.72313E+12,-7718,2703,1217,-311,789,287,1,7,11
1.72313E+12,-7729,2725,1376,330,666,140,1,7,11
1.72313E+12,-7702,2756,1333,449,1029,691,1,7,11
1.72313E+12,-7726,2759,945,389,1019,937,1,7,11
1.72313E+12,-7575,2728,964,-15,1553,915,1,7,11
1.72313E+12,-7797,2725,1354,-469,729,111,1,7,11
1.72313E+12,-7731,2732,1334,-493,627,-509,1,7,11
1.72313E+12,-7752,2742,1345,-485,177,-1050,1,7,11
1.72313E+12,-7793,2731,1320,-501,162,-1036,1,7,11
1.72313E+12,-7597,2742,1354,-699,157,-762,1,7,11
1.72313E+12,-7562,2709,1157,-1363,-3,-882,1,7,11
1.72313E+12,-7731,2717,1211,-1465,-19,-539,1,7,11
1.72313E+12,-7420,2774,1236,-2128,123,68,1,7,11
1.72313E+12,-7735,2947,1399,-2841,-209,332,1,7,11
1.72313E+12,-7582,3033,1631,-3973,-282,666,1,7,11
1.72313E+12,-7580,3000,1649,-5783,-142,1052,1,7,11
1.72313E+12,-7792,3011,1644,-7964,202,1203,1,7,11
1.72313E+12,-7622,3082,1495,-9418,1520,1858,1,7,11
1.72313E+12,-7942,3138,1478,-11182,3618,1318,1,7,11
1.72313E+12,-7602,2768,1474,-13245,5820,-541,1,7,11
1.72313E+12,-7369,2900,1420,-14966,8011,-4005,1,7,11
1.72313E+12,-7544,2634,1224,-15021,8445,-6858,1,7,11
1.72313E+12,-7343,2023,1229,-14603,9075,-8167,1,7,11
1.72313E+12,-7297,1691,1033,-13266,8952,-7570,1,7,11
1.72313E+12,-7551,1536,319,-13162,9967,-8202,1,7,11
1.72313E+12,-7387,1395,-92,-13967,11800,-9039,1,7,11
1.72313E+12,-7449,944,-254,-14784,13185,-9832,1,7,11
1.72313E+12,-7110,656,-664,-15094,14008,-10753,1,7,11
1.72313E+12,-7490,156,-1321,-14465,13809,-11077,1,7,11
1.72313E+12,-7303,-89,-1473,-12906,12560,-10040,1,7,11
1.72313E+12,-7687,-612,-1995,-11876,11592,-8699,1,7,11
1.72313E+12,-7703,-782,-2401,-11156,11078,-8578,1,7,11
1.72313E+12,-7528,-512,-2633,-11378,10839,-9546,1,7,11
1.72313E+12,-7120,-459,-2696,-12080,10635,-10668,1,7,11
1.72313E+12,-7042,-792,-3044,-12122,11372,-10723,1,7,11
1.72313E+12,-7027,-887,-3710,-10663,11358,-10115,1,7,11
1.72313E+12,-6957,-1130,-3772,-9633,10110,-9413,1,7,11
1.72313E+12,-6806,-1153,-4082,-8447,7839,-7882,1,7,11
1.72313E+12,-6888,-1379,-4117,-7831,6364,-6752,1,7,11
1.72313E+12,-6882,-1158,-3746,-7639,5927,-5616,1,7,11
1.72313E+12,-6976,-1162,-3991,-7148,6247,-5480,1,7,11
1.72313E+12,-6594,-1154,-4241,-7412,6455,-4995,1,7,11
1.72313E+12,-6456,-1306,-4582,-6599,5293,-4045,1,7,11
1.72313E+12,-5812,-953,-5182,-5274,4434,-3501,1,7,11
1.72313E+12,-5623,-691,-5068,-4287,3373,-3452,1,7,11
1.72313E+12,-5748,-822,-5075,-4030,2916,-2960,1,7,11
1.72313E+12,-5640,-452,-5500,-4725,2020,-3354,1,7,11
1.72313E+12,-5280,-616,-5531,-4999,1309,-3436,1,7,11
1.72313E+12,-5069,-173,-5601,-5719,-114,-3417,1,7,11
1.72313E+12,-5690,-120,-5474,-5474,-1121,-2566,1,7,11
1.72313E+12,-5619,-103,-5277,-4523,-2283,-1801,1,7,11
1.72313E+12,-6415,271,-4822,-4874,-6743,208,1,7,11
1.72313E+12,-6047,81,-4867,-3829,-7560,1084,1,7,11
1.72313E+12,-6065,103,-4641,-3659,-6986,932,1,7,11
1.72313E+12,-6348,-77,-4147,-2796,-5507,1113,1,7,11
1.72313E+12,-6825,887,-3461,2349,-6466,-419,1,7,11
1.72313E+12,-7203,1115,-3234,1495,-4286,-634,1,7,11
1.72313E+12,-7293,1291,-3171,861,-2646,-414,1,7,11
1.72313E+12,-7156,1161,-2854,-453,-1555,-1039,1,7,11
1.72313E+12,-6906,1334,-1981,-3645,1011,-1581,1,7,11
1.72313E+12,-6878,998,-2312,-4945,138,-1375,1,7,11
1.72313E+12,-6801,934,-1929,-5792,-709,-851,1,7,11
1.72313E+12,-6934,766,-2184,-6648,-1831,-80,1,7,11
1.72313E+12,-6798,862,-2522,-8174,-1880,443,1,7,11
1.72313E+12,-7440,579,-2831,-6296,344,-252,1,7,11
1.72313E+12,-7157,528,-2870,-5488,1253,-636,1,7,11
1.72313E+12,-7140,627,-3115,-3583,2272,-1011,1,7,11
1.72313E+12,-7112,423,-3070,-2720,3047,-1333,1,7,11
1.72313E+12,-7068,477,-3241,-2631,3261,-961,1,7,11
1.72313E+12,-7276,872,-3678,-2678,3030,-1097,1,7,11
1.72313E+12,-7175,707,-3515,-2952,3119,-1039,1,7,11
1.72313E+12,-6819,1070,-3967,-3063,3215,-1022,1,7,11
1.72313E+12,-6819,1019,-3758,-3273,3911,-1207,1,7,11
1.72313E+12,-7020,1363,-3912,-3443,3725,-1241,1,7,11
1.72313E+12,-6787,1192,-3540,-2939,3759,-1589,1,7,11
1.72313E+12,-6974,1201,-3569,-1215,3894,-1570,1,7,11
1.72313E+12,-6538,917,-3658,2083,2209,-1569,1,7,11
1.72313E+12,-6451,1567,-4136,2468,1887,-1201,1,7,11
1.72313E+12,-6487,1288,-3825,653,2130,-1074,1,7,11
1.72313E+12,-6446,1131,-4132,-72,1641,-813,1,7,11
1.72313E+12,-6128,1059,-3727,-177,1322,-629,1,7,11
1.72313E+12,-6428,1076,-3950,-628,1356,-234,1,7,11
1.72313E+12,-6501,1095,-3854,-837,1354,-251,1,7,11
1.72313E+12,-6302,1112,-3889,-768,1361,-631,1,7,11
1.72313E+12,-6320,1142,-3923,-1078,1226,-462,1,7,11
1.72313E+12,-6501,903,-3772,-1027,1571,-595,1,7,11
1.72313E+12,-6103,1064,-4454,-788,1677,-358,1,7,11
1.72313E+12,-6069,752,-4411,-144,2352,-127,1,7,11
1.72313E+12,-6069,730,-4061,91,2620,265,1,7,11
1.72313E+12,-6125,1063,-4200,106,2626,-25,1,7,11
1.72313E+12,-6439,901,-4143,-314,2639,91,1,7,11
1.72313E+12,-6447,993,-4012,-513,2389,20,1,7,11
1.72313E+12,-6444,1020,-4370,-422,1772,-303,1,7,11
1.72313E+12,-6427,1292,-4265,-509,1656,-129,1,7,11
1.72313E+12,-6130,1342,-4694,-386,1657,-198,1,7,11
1.72313E+12,-6401,1404,-4543,-242,1474,-537,1,7,11
1.72313E+12,-6118,1195,-4762,-556,1192,-478,1,7,11
1.72313E+12,-6051,1220,-5233,-592,951,-690,1,7,11
1.72313E+12,-6221,1197,-5085,-636,1140,-1112,1,7,11
1.72313E+12,-5877,1385,-5471,-638,951,-982,1,7,11
1.72313E+12,-5838,1314,-5276,-632,1401,-994,1,7,11
1.72313E+12,-5778,1284,-5730,-632,1355,-992,1,7,11
1.72313E+12,-5771,982,-5586,-788,971,-1297,1,7,11
1.72313E+12,-5576,1098,-7738,-1287,-802,-1096,1,7,11
1.72313E+12,-5659,720,-7961,-1403,-1420,-1131,1,7,11
1.72313E+12,-5492,823,-8216,-1221,-1933,-1053,1,7,11
1.72313E+12,-5499,790,-8250,-1372,-2650,-492,1,7,11
1.72313E+12,-5433,481,-7865,-909,-3315,-141,1,7,11
1.72313E+12,-5402,452,-7377,-670,-4045,92,1,7,11
1.72313E+12,-5398,401,-7033,-454,-4925,266,1,7,11
1.72313E+12,-5394,392,-6032,-228,-5663,233,1,7,11
1.72313E+12,-5434,619,-5425,46,-5972,479,1,7,11
1.72313E+12,-5283,599,-4349,351,-5682,692,1,7,11
1.72313E+12,-5654,636,-3578,787,-4939,898,1,7,11
1.72313E+12,-5659,488,-2971,1281,-3949,1287,1,7,11
1.72313E+12,-5872,930,-1889,2157,-3187,2217,1,7,11
1.72313E+12,-6211,1308,-1363,2406,-3271,2779,1,7,11
1.72313E+12,-5879,1344,-689,2281,-3295,3429,1,7,11
1.72313E+12,-5885,1155,-504,2299,-3322,3437,1,7,11
1.72313E+12,-5799,1258,-497,2517,-2815,3260,1,7,11
1.72313E+12,-6211,1652,-404,3140,-1794,3465,1,7,11
1.72313E+12,-6402,1682,-519,3407,-347,3864,1,7,11
1.72313E+12,-7087,2333,-58,2427,1836,3303,1,7,11
1.72313E+12,-6883,1495,-1394,1273,1241,3036,1,7,11
1.72313E+12,-6243,1852,-1539,2901,1671,2776,1,7,11
1.72313E+12,-7006,1725,-1372,2405,2844,1732,1,7,11
1.72313E+12,-7314,2091,-2306,-5265,5900,58,1,7,11
1.72313E+12,-7328,1910,-2585,-5535,5736,-386,1,7,11
1.72313E+12,-7296,1485,-3159,-4740,4308,-487,1,7,11
1.72313E+12,-6276,2041,-4202,312,-13,-258,1,7,11
1.72313E+12,-6125,2302,-3992,-51,-790,-273,1,7,11
1.72313E+12,-6129,2684,-4136,-222,-729,-10,1,7,11
1.72313E+12,-6070,2838,-4176,-740,-1029,411,1,7,11
1.72313E+12,-6104,2876,-4132,-1830,-644,1085,1,7,11
1.72313E+12,-6493,2497,-3894,-2538,-630,1245,1,7,11
1.72313E+12,-6456,2247,-3622,-3334,-272,1666,1,7,11
1.72313E+12,-6401,2044,-3653,-3697,390,1885,1,7,11
1.72313E+12,-5867,2053,-3242,-6059,2728,981,1,7,11
1.72313E+12,-5813,2120,-3394,-8266,3974,256,1,7,11
1.72313E+12,-5905,1990,-3291,-7633,4057,-194,1,7,11
1.72313E+12,-5535,2575,-3583,-5021,4349,-11,1,7,11
1.72313E+12,-5502,2715,-4114,-3264,4607,536,1,7,11
1.72313E+12,-5461,3016,-3976,-2159,5130,525,1,7,11
1.72313E+12,-5483,3322,-4034,-1025,4843,269,1,7,11
1.72313E+12,-5266,3709,-4416,-628,4718,-465,1,7,11
1.72313E+12,-5084,3528,-4302,-384,4456,-1616,1,7,11
1.72313E+12,-5191,3493,-4616,-587,4213,-1781,1,7,11
1.72313E+12,-5215,3848,-4560,-863,3843,-2211,1,7,11
1.72313E+12,-5064,3612,-4589,-1648,3901,-2743,1,7,11
1.72313E+12,-5473,3000,-4498,-2288,4175,-3115,1,7,11
1.72313E+12,-5501,3198,-4659,-2765,4367,-3360,1,7,11
1.72313E+12,-5500,3443,-4813,-3053,4680,-3765,1,7,11
1.72313E+12,-5238,3282,-4796,-3723,5000,-4464,1,7,11
1.72313E+12,-4956,3526,-5174,-4883,5073,-4306,1,7,11
1.72313E+12,-4941,3519,-4861,-6050,5346,-3727,1,7,11
1.72313E+12,-4584,3694,-5159,-7645,5087,-3076,1,7,11
1.72313E+12,-4692,3294,-4930,-9027,6076,-2655,1,7,11
1.72313E+12,-4325,3304,-4885,-9011,6530,-2020,1,7,11
1.72313E+12,-4231,3498,-4887,-8260,7136,-2106,1,7,11
1.72313E+12,-4246,3967,-4910,-7842,7320,-2229,1,7,11
1.72313E+12,-4238,4177,-4873,-8275,6961,-3085,1,7,11
1.72313E+12,-4382,4346,-4650,-7709,5151,-2699,1,7,11
1.72313E+12,-4048,4733,-4256,-7086,3978,-1977,1,7,11
1.72313E+12,-4177,4871,-4417,-6616,2974,-1604,1,7,11
1.72313E+12,-4166,4791,-4404,-6436,2420,-1149,1,7,11
1.72313E+12,-4159,4860,-3788,-3624,-88,-2100,1,7,11
1.72313E+12,-4351,5231,-3885,-2132,-1235,-2426,1,7,11
1.72313E+12,-4556,4492,-4342,3917,-6063,1451,1,7,11
1.72313E+12,-4888,4671,-4457,2876,-5221,1745,1,7,11
1.72313E+12,-4989,4933,-3930,-476,-2307,293,1,7,11
1.72313E+12,-4763,4749,-3827,-1105,-2105,-157,1,7,11
1.72313E+12,-5390,4795,-3041,-1975,-1920,-1336,1,7,11
1.72313E+12,-5415,4823,-3195,-2378,-1695,-1408,1,7,11
1.72313E+12,-5467,4859,-3084,-2276,-1708,-1230,1,7,11
1.72313E+12,-5252,5128,-2699,-2457,-1734,-1542,1,7,11
1.72313E+12,-5293,5140,-2830,-2871,-1748,-1571,1,7,11
1.72313E+12,-5329,5140,-2440,-2787,-1744,-1595,1,7,11
1.72313E+12,-5358,4860,-2574,-2954,-1719,-1607,1,7,11
1.72313E+12,-5637,4817,-2191,-3340,-1908,-1629,1,7,11
1.72313E+12,-5693,4780,-2323,-3426,-1535,-1655,1,7,11
1.72313E+12,-5524,4743,-1943,-3244,-1660,-1428,1,7,11
1.72313E+12,-5588,4926,-2073,-3323,-1551,-1457,1,7,11
1.72313E+12,-5897,4579,-1692,-3603,-1182,-1490,1,7,11
1.72313E+12,-5970,4499,-1840,-3596,-1297,-1794,1,7,11
1.72313E+12,-5818,4686,-1481,-3310,-898,-1832,1,7,11
1.72313E+12,-6163,4613,-1634,-3260,-1035,-1846,1,7,11
1.72313E+12,-6251,4281,-1542,-3445,-665,-1837,1,7,11
1.72313E+12,-6086,4458,-1201,-3351,-817,-1804,1,7,11
1.72313E+12,-6411,4377,-1369,-2975,-489,-1493,1,7,11
1.72313E+12,-6459,4036,-1021,-3078,-433,-1440,1,7,11
1.72313E+12,-6494,4216,-914,-2876,-635,-1625,1,7,11
1.72313E+12,-6286,4167,-1079,-2630,-591,-1545,1,7,11
1.72313E+12,-6327,4166,-757,-2347,-565,-1170,1,7,11
1.72313E+12,-6320,4219,-712,-2074,-569,-1015,1,7,11
1.72313E+12,-6290,4030,-691,-1853,-551,-1132,1,7,11
1.72313E+12,-6276,4378,-664,-1447,-242,-743,1,7,11
1.72313E+12,-6277,4428,-888,-1610,-169,-885,1,7,11
1.72313E+12,-6279,4450,-878,-1277,-353,-778,1,7,11
1.72313E+12,-6287,4261,-845,-1222,-279,-440,1,7,11
1.72313E+12,-6525,4286,-834,-1205,29,-631,1,7,11
1.72313E+12,-6521,4295,-827,-1221,101,-590,1,7,11
1.72313E+12,-6525,4287,-812,-1246,-53,-591,1,7,11
1.72313E+12,-6286,4278,-802,-1267,293,-609,1,7,11
1.72313E+12,-6340,4267,-793,-1272,375,-409,1,7,11
1.72313E+12,-6378,4279,-777,-1262,184,-448,1,7,11
1.72313E+12,-6676,4292,-495,-1248,229,-477,1,7,11
1.72313E+12,-6716,4304,-488,-1234,221,-489,1,7,11
1.72313E+12,-6752,4307,-468,-1223,198,-495,1,7,11
1.72313E+12,-6530,4305,-444,-1209,156,-485,1,7,11
1.72313E+12,-6543,4296,-420,-1186,356,-461,1,7,11
1.72313E+12,-6541,4296,-397,-1396,307,-426,1,7,11
1.72313E+12,-6530,4307,-624,-1340,273,-388,1,7,11
1.72313E+12,-6773,4296,-590,-1024,-2,-602,1,7,11
1.72313E+12,-6772,4283,-560,-961,-16,-559,1,7,11
1.72313E+12,-6750,4265,-534,-1148,-35,-514,1,7,11
1.72313E+12,-6722,4241,-513,-1062,-39,-214,1,7,11
1.72313E+12,-6707,4245,-236,-703,-5,-156,1,7,11
1.72313E+12,-6709,4256,-215,-870,281,-379,1,7,11
1.72313E+12,-6722,4280,-213,-789,311,-346,1,7,11
1.72313E+12,-6731,4302,-212,-442,337,-316,1,7,11
1.72313E+12,-6748,4318,-212,-405,362,-291,1,7,11
1.72313E+12,-6742,4328,-214,-388,375,-268,1,7,11
1.72313E+12,-6743,4336,-220,-635,146,-266,1,7,11
1.72313E+12,-6761,4342,-216,-626,179,-265,1,7,11
1.72313E+12,-6765,4334,-208,-627,193,-265,1,7,11
1.72313E+12,-6762,4326,-198,-616,203,-265,1,7,11
1.72313E+12,-6769,4335,-188,-606,206,-268,1,7,11
1.72313E+12,-6753,4345,-187,-600,197,-275,1,7,11
1.72313E+12,-6743,4350,-191,-583,214,-286,1,7,11
1.72313E+12,-6740,4617,-198,-560,254,-294,1,7,11
1.72313E+12,-6745,4609,-202,-533,554,-297,1,7,11
1.72313E+12,-6735,4337,-216,-230,591,-302,1,7,11
1.72313E+12,-6723,4324,-235,-161,388,-326,1,7,11
1.72313E+12,-6722,4321,-524,-359,437,-366,1,7,11
1.72313E+12,-6668,4306,-600,-278,794,-234,1,7,11
1.72313E+12,-6396,4312,-623,-281,870,-586,1,7,11
1.72313E+12,-6365,4321,-440,-335,724,-433,1,7,11
1.72313E+12,-6307,4341,-511,-193,1108,-799,1,7,11
1.72313E+12,-6487,4709,-861,-627,1289,-668,1,7,11
1.72313E+12,-6456,4570,-693,-659,1555,-1080,1,7,11
1.72313E+12,-6511,4921,-1031,-1384,1839,-989,1,7,11
1.72313E+12,-6320,4971,-1075,-1749,2086,-1244,1,7,11
1.72313E+12,-6663,4976,-1079,-2484,2376,-1648,1,7,11
1.72313E+12,-6759,4951,-1065,-3374,2231,-1483,1,7,11
1.72313E+12,-6569,4897,-1067,-4621,2256,-1496,1,7,11
1.72313E+12,-6782,4517,-1066,-5070,2194,-1439,1,7,11
1.72313E+12,-6386,4339,-1059,-5961,2179,-1411,1,7,11
1.72313E+12,-6296,4432,-1047,-6440,2585,-1429,1,7,11
1.72313E+12,-6517,4063,-752,-6534,2823,-1424,1,7,11
1.72313E+12,-7084,4021,-291,-6430,2278,-240,1,7,11
1.72313E+12,-7282,4222,64,-5967,2122,-338,1,7,11
1.72313E+12,-6807,4196,339,-2932,741,-388,1,7,11
1.72313E+12,-6869,3968,344,-2346,890,-633,1,7,11
1.72313E+12,-6831,3976,325,-1893,441,-549,1,7,11
1.72313E+12,-6982,4185,306,-1216,560,-199,1,7,11
1.72313E+12,-6639,4166,-3,-1084,529,-150,1,7,11
1.72313E+12,-6913,4184,-51,-486,574,-380,1,7,11
1.72313E+12,-6962,3969,-101,-238,574,-338,1,7,11
1.72313E+12,-6963,3991,-120,-318,254,4,1,7,11
1.72313E+12,-6941,4074,127,64,209,57,1,7,11
1.72313E+12,-6959,4369,-121,46,169,93,1,7,11
1.72313E+12,-6962,4391,115,-262,365,-118,1,7,11
1.72313E+12,-6652,4416,94,-328,305,-93,1,7,11
1.72313E+12,-6644,4239,83,-149,334,-105,1,7,11
1.72313E+12,-6937,4249,77,-533,370,-98,1,7,11
1.72313E+12,-6936,4242,81,-414,382,-68,1,7,11
1.72313E+12,-6969,4479,87,-509,147,-12,1,7,11
1.72313E+12,-6965,4475,111,-832,134,380,1,7,11
1.72313E+12,-6980,4231,-98,-861,362,199,1,7,11
1.72313E+12,-6964,4272,-70,-853,326,520,1,7,11
1.72313E+12,-6644,4277,-15,-783,321,568,1,7,11
1.72313E+12,-6626,4267,-13,-418,350,617,1,7,11
1.72313E+12,-6589,4314,-92,-84,333,770,1,7,11
1.72313E+12,-6750,4339,120,-60,-2,825,1,7,11
1.72313E+12,-6686,4640,83,-67,261,838,1,7,11
1.72313E+12,-6689,4683,64,-123,300,853,1,7,11
1.72313E+12,-6706,4691,53,50,304,644,1,7,11
1.72313E+12,-6700,4663,59,-283,277,713,1,7,11
1.72313E+12,-6713,4678,64,-302,-1,1050,1,7,11
1.72313E+12,-6744,4700,102,-308,-50,1145,1,7,11
1.72313E+12,-6535,4732,-85,-278,122,1004,1,7,11
1.72313E+12,-6759,4488,-67,70,-270,1156,1,7,11
1.72313E+12,-6358,4557,-52,-29,-382,1543,1,7,11
1.72313E+12,-6503,4906,-26,128,-364,1542,1,7,11
1.72313E+12,-6439,4738,268,249,-286,1212,1,7,11
1.72313E+12,-6085,4836,289,616,72,1338,1,7,11
1.72313E+12,-6272,5236,296,437,-12,1130,1,7,11
1.72313E+12,-6266,5103,281,426,191,881,1,7,11
1.72313E+12,-6025,5433,266,618,622,634,1,7,11
1.72313E+12,-6049,5439,-3,534,502,153,1,7,11
1.72313E+12,-6092,5395,-16,224,856,-20,1,7,11
1.72313E+12,-6136,5014,257,226,667,101,1,7,11
1.72313E+12,-6409,5231,-23,413,704,-311,1,7,11
1.72313E+12,-6121,5221,-80,820,702,-138,1,7,11
1.72313E+12,-6127,5216,124,731,743,-230,1,7,11
1.72313E+12,-6106,5230,43,1146,744,-539,1,7,11
1.72313E+12,-6050,5225,-298,1286,744,-590,1,7,11
1.72313E+12,-6019,5247,-138,1164,765,-396,1,7,11
1.72313E+12,-6261,5232,-244,1250,1031,-476,1,7,11
1.72313E+12,-6019,5199,-621,1589,1040,-825,1,7,11
1.72313E+12,-6028,5150,-511,1654,756,-664,1,7,11
1.72313E+12,-6264,4795,-664,1424,721,-1051,1,7,11
1.72313E+12,-6248,4970,-1068,1440,705,-977,1,7,11
1.72313E+12,-6055,4960,-911,1446,722,-1180,1,7,11
1.72313E+12,-6490,4770,-990,1410,706,-1559,1,7,11
1.72313E+12,-6398,4784,-1312,1247,783,-1565,1,7,11
1.72313E+12,-6686,4928,-1354,1009,234,-1274,1,7,11
1.72313E+12,-6675,4501,-1377,1083,260,-1270,1,7,11
1.72313E+12,-6670,4319,-1389,709,113,-1557,1,7,11
1.72313E+12,-6691,4398,-1386,887,35,-1598,1,7,11
1.72313E+12,-6701,4223,-1399,826,1,-1621,1,7,11
1.72313E+12,-6669,3803,-1406,771,26,-1629,1,7,11
1.72313E+12,-6365,3713,-1182,486,-113,-1618,1,7,11
1.72313E+12,-6329,3720,-1215,436,335,-1562,1,7,11
1.72313E+12,-6351,3809,-1244,557,574,-1184,1,7,11
1.72313E+12,-6373,4178,-1258,312,769,-973,1,7,11
1.72313E+12,-6674,4013,-1261,-283,668,-716,1,7,11
1.72313E+12,-6757,4091,-1233,-405,1029,-412,1,7,11
1.72313E+12,-6595,4417,-1187,-1030,1050,-316,1,7,11
1.72313E+12,-6927,4435,-1367,-1379,713,304,1,7,11
1.72313E+12,-6957,4390,-1298,-1410,801,639,1,7,11
1.72313E+12,-6926,4025,-982,-1813,595,893,1,7,11
1.72313E+12,-6544,4006,-948,-1466,311,1125,1,7,11
1.72313E+12,-6741,4018,-919,-1545,-81,934,1,7,11
1.72313E+12,-6669,4050,-1122,-1299,61,980,1,7,11
1.72313E+12,-6356,4373,-1081,-735,2,1006,1,7,11
1.72313E+12,-6318,4431,-1045,-442,-301,1016,1,7,11
1.72313E+12,-6524,4234,-756,-150,-331,999,1,7,11
1.72313E+12,-6527,4278,-710,119,-310,942,1,7,11
1.72313E+12,-6500,4621,-719,363,-305,902,1,7,11
1.72313E+12,-6412,4647,-736,254,-280,1076,1,7,11
1.72313E+12,-6139,4720,-1047,397,57,767,1,7,11
1.72313E+12,-6132,4536,-1112,442,-110,711,1,7,11
1.72313E+12,-6486,4867,-909,417,-22,676,1,7,11
1.72313E+12,-6276,4894,-946,575,-41,699,1,7,11
1.72313E+12,-6503,4925,-987,232,-120,752,1,7,11
1.72313E+12,-6441,4929,-1008,352,98,737,1,7,11
1.72313E+12,-6447,4941,-991,-32,106,692,1,7,11
1.72313E+12,-6463,4968,-982,94,84,881,1,7,11
1.72313E+12,-6453,4990,-975,-319,28,817,1,7,11
1.72313E+12,-6410,4744,-971,-239,-281,509,1,7,11
1.72313E+12,-6111,4741,-966,-407,-312,476,1,7,11
1.72313E+12,-6101,4981,-959,-831,-321,443,1,7,11
1.72313E+12,-6111,4969,-932,-708,-311,412,1,7,11
1.72313E+12,-6414,4959,-1151,-1047,-304,407,1,7,11
1.72313E+12,-6408,4949,-1114,-1086,-344,451,1,7,11
1.72313E+12,-6079,4947,-1078,-1071,-380,503,1,7,11
1.72313E+12,-6018,4960,-1031,-768,-353,774,1,7,11
1.72313E+12,-6260,4965,-738,-691,-285,508,1,7,11
1.72313E+12,-6241,4977,-701,-840,10,503,1,7,11
1.72313E+12,-6211,4990,-686,-459,32,477,1,7,11
1.72313E+12,-6212,4768,-673,-570,59,463,1,7,11
1.72313E+12,-6196,4815,-664,-203,70,467,1,7,11
1.72313E+12,-6157,4860,-684,-376,72,482,1,7,11
1.72313E+12,-6149,5005,-689,-293,-54,772,1,7,11
1.72313E+12,-5831,5033,-699,-297,-82,834,1,7,11
1.72313E+12,-5802,5077,-721,-307,-54,865,1,7,11
1.72313E+12,-5800,5115,-718,-359,-35,883,1,7,11
1.72313E+12,-5806,5116,-700,-157,-36,647,1,7,11
1.72313E+12,-5810,5115,-687,-189,-60,678,1,7,11
1.72313E+12,-5796,5376,-685,-208,-96,719,1,7,11
1.72313E+12,-5783,5117,-681,-219,118,1031,1,7,11
1.72313E+12,-5761,5114,-696,-204,72,1124,1,7,11
1.72313E+12,-5972,5408,-721,-164,22,1004,1,7,11
1.72313E+12,-5902,5476,-746,-370,-268,1393,1,7,11
1.72313E+12,-5564,5270,-752,-360,-274,1255,1,7,11
1.72313E+12,-5589,5309,-728,-370,16,1602,1,7,11
1.72313E+12,-5607,5349,-698,-356,1,1796,1,7,11
1.72313E+12,-5570,5639,-685,-347,-344,1693,1,7,11
1.72313E+12,-5667,5672,-701,-353,-168,1789,1,7,11
1.72313E+12,-5313,5750,-699,-356,-374,1739,1,7,11
1.72313E+12,-5319,5589,-684,-379,-278,1890,1,7,11
1.72313E+12,-5345,5913,-660,-162,19,1530,1,7,11
1.72313E+12,-5369,5968,-891,-179,-262,1459,1,7,11
1.72313E+12,-5269,5994,-890,-187,-358,1424,1,7,11
1.72313E+12,-5113,6014,-882,-165,-136,1573,1,7,11
1.72313E+12,-5025,5814,-873,-134,-309,1385,1,7,11
1.72313E+12,-5043,5816,-839,-382,68,903,1,7,11
1.72313E+12,-5075,5815,-822,-319,-124,730,1,7,11
1.72313E+12,-5084,5811,-809,27,-114,848,1,7,11
1.72313E+12,-5079,5800,-794,-107,-120,469,1,7,11
1.72313E+12,-5086,5808,-806,325,110,616,1,7,11
1.72313E+12,-5029,5839,-832,247,39,535,1,7,11
1.72313E+12,-5196,5877,-866,389,-272,169,1,7,11
1.72313E+12,-4853,6186,-880,470,-271,265,1,7,11
1.72313E+12,-4833,6219,-875,481,45,50,1,7,11
1.72313E+12,-5183,6244,-871,468,-121,-279,1,7,11
1.72313E+12,-5247,6241,-643,457,-73,-448,1,7,11
1.72313E+12,-5002,6216,-679,409,-85,-824,1,7,11
1.72313E+12,-4999,6180,-709,628,-68,-660,1,7,11
1.72313E+12,-5021,6154,-730,589,-20,-709,1,7,11
1.72313E+12,-5061,5877,-744,566,286,-720,1,7,11
1.72313E+12,-5116,5842,-739,491,311,-715,1,7,11
1.72313E+12,-5406,5820,-737,220,296,-698,1,7,11
1.72313E+12,-5407,5813,-730,222,264,-685,1,7,11
1.72313E+12,-5416,5809,-719,243,-1,-684,1,7,11
1.72313E+12,-5420,5822,-714,528,-1,-695,1,7,11
1.72313E+12,-5457,5824,-702,568,271,-727,1,7,11
1.72313E+12,-5491,5817,-711,596,268,-757,1,7,11
1.72313E+12,-5489,5761,-729,592,-15,-1073,1,7,11
1.72313E+12,-5458,5972,-1027,629,-28,-917,1,7,11
1.72313E+12,-5442,5959,-1083,414,258,-1316,1,7,11
1.72313E+12,-5432,5911,-908,399,292,-1209,1,7,11
1.72313E+12,-5390,5541,-984,588,320,-1618,1,7,11
1.72313E+12,-5110,5687,-1335,523,135,-1531,1,7,11
1.72313E+12,-5379,5342,-1174,174,227,-1665,1,7,11
1.72313E+12,-5453,5271,-1543,304,592,-1736,1,7,11
1.72313E+12,-5326,5465,-1627,-123,423,-1701,1,7,11
1.72313E+12,-5756,5411,-1429,-319,445,-1810,1,7,11
1.72313E+12,-5935,5103,-1459,-522,638,-1575,1,7,11
1.72313E+12,-5810,5065,-1454,-446,230,-1294,1,7,11
1.72313E+12,-6169,5040,-1663,-866,287,-754,1,7,11
1.72313E+12,-6251,5032,-1580,-722,54,-458,1,7,11
1.72313E+12,-6022,5079,-1225,-1025,-207,-159,1,7,11
1.72313E+12,-6232,5415,-1377,-1059,-481,116,1,7,11
1.72313E+12,-5864,5465,-986,-1107,-708,309,1,7,11
1.72313E+12,-6016,5484,-1112,-1103,-1095,147,1,7,11
1.72313E+12,-5921,5500,-736,-1043,-1149,143,1,7,11
1.72313E+12,-5586,5251,-893,-690,-1138,324,1,7,11
1.72313E+12,-5556,5462,-797,-818,-1048,-59,1,7,11
1.72313E+12,-5548,5435,-512,-630,-688,78,1,7,11
1.72313E+12,-5552,5116,-474,-189,-817,-267,1,7,11
1.72313E+12,-5597,5087,-488,35,-425,-327,1,7,11
1.72313E+12,-5630,5046,-494,-30,-583,-346,1,7,11
1.72313E+12,-5922,5020,-810,161,-252,-312,1,7,11
1.72313E+12,-5934,5002,-856,620,-192,-264,1,7,11
1.72313E+12,-5922,4999,-659,459,-175,59,1,7,11
1.72313E+12,-5902,5038,-718,509,-147,120,1,7,11
1.72313E+12,-5915,5060,-749,480,-356,-98,1,7,11
1.72313E+12,-5943,5110,-1048,412,-330,-72,1,7,11
1.72313E+12,-5961,5413,-1085,532,-336,-61,1,7,11
1.72313E+12,-5989,5475,-1108,347,-355,-44,1,7,11
1.72313E+12,-5769,5499,-1113,115,-132,-17,1,7,11
1.72313E+12,-5784,5252,-1093,-347,-176,300,1,7,11
1.72313E+12,-5782,5499,-1048,-243,-201,359,1,7,11
1.72313E+12,-5770,5265,-744,-574,-213,155,1,7,11
1.72313E+12,-6007,5264,-698,-612,-220,176,1,7,11
1.72313E+12,-5981,5495,-653,-599,-214,169,1,7,11
1.72313E+12,-5952,5488,-877,-541,-191,383,1,7,11
1.72313E+12,-5948,5480,-845,-213,-155,304,1,7,11
1.72313E+12,-5949,5495,-818,-367,-381,-32,1,7,11
1.72313E+12,-5932,5266,-809,-284,-362,-114,1,7,11
1.72313E+12,-5906,5279,-808,27,-326,58,1,7,11
1.72313E+12,-5890,5260,-810,61,5,-280,1,7,11
1.72313E+12,-5891,5490,-828,84,85,-337,1,7,11
1.72313E+12,-5627,5445,-846,90,-85,-376,1,7,11
1.72313E+12,-5903,5406,-869,83,-7,-142,1,7,11
1.72313E+12,-5930,5382,-644,73,308,-141,1,7,11
1.72313E+12,-5774,5099,-729,-343,-62,-3,1,7,11
1.72313E+12,-5786,5119,-727,-326,125,359,1,7,11
1.72313E+12,-5776,5393,-714,-297,35,200,1,7,11
1.72313E+12,-5976,5449,-666,-260,-305,524,1,7,11
1.72313E+12,-5589,5353,-858,93,-149,361,1,7,11
1.72313E+12,-5572,5372,-844,87,-355,-2,1,7,11
1.72313E+12,-5587,5633,-837,71,-296,-93,1,7,11
1.72313E+12,-5614,5373,-837,47,6,109,1,7,11
1.72313E+12,-5889,5359,-832,23,22,97,1,7,11
1.72313E+12,-5624,5328,-819,1,21,109,1,7,11
1.72313E+12,-5595,5309,-826,-261,37,122,1,7,11
1.72313E+12,-5576,5298,-825,-261,86,119,1,7,11
1.72313E+12,-5576,5301,-817,-258,-105,110,1,7,11
1.72313E+12,-5583,5298,-816,-260,-50,113,1,7,11
1.72313E+12,-5591,5307,-838,-261,-7,126,1,7,11
1.72313E+12,-5594,5311,-855,-277,273,-118,1,7,11
1.72313E+12,-5583,5307,-871,-297,286,-117,1,7,11
1.72313E+12,-5586,5311,-882,-312,321,-115,1,7,11
1.72313E+12,-5600,5319,-894,-342,332,-101,1,7,11
1.72313E+12,-5628,5340,-643,-358,333,-77,1,7,11
1.72313E+12,-5915,5348,-650,-381,294,-38,1,7,11
1.72313E+12,-5912,5330,-646,-140,-38,264,1,7,11
1.72313E+12,-5624,5329,-870,-337,117,303,1,7,11
1.72313E+12,-5611,5341,-853,-309,63,304,1,7,11
1.72313E+12,-5749,5654,-822,90,-126,-91,1,7,11
1.72313E+12,-5507,5659,-832,79,-77,-111,1,7,11
1.72313E+12,-5529,5699,-792,65,276,93,1,7,11
1.72313E+12,-5531,5710,-508,102,284,74,1,7,11
1.72313E+12,-5524,5719,-482,-105,284,53,1,7,11
1.72313E+12,-5519,5679,-460,-48,296,1,1,7,11
1.72313E+12,-5750,5684,-459,297,319,-291,1,7,11
1.72313E+12,-5510,5672,-464,140,377,-340,1,7,11
1.72313E+12,-5527,5697,-498,251,157,-353,1,7,11
1.72313E+12,-5758,5679,-809,571,180,-369,1,7,11
1.72313E+12,-5711,5369,-873,631,224,-148,1,7,11
1.72313E+12,-5656,5345,-703,463,580,-209,1,7,11
1.72313E+12,-5670,5342,-1040,779,464,-546,1,7,11
1.72313E+12,-5719,5331,-1126,804,822,-597,1,7,11
1.72313E+12,-5756,5307,-934,793,858,-621,1,7,11
1.72313E+12,-5524,5264,-982,509,848,-628,1,7,11
1.72313E+12,-5527,5467,-1022,486,796,-625,1,7,11
1.72313E+12,-5522,5431,-1319,484,471,-624,1,7,11
1.72313E+12,-5541,5411,-1362,469,409,-618,1,7,11
1.72313E+12,-5589,5384,-1395,431,601,-603,1,7,11
1.72313E+12,-5916,5093,-1161,638,524,-582,1,7,11
1.72313E+12,-5764,5036,-1169,592,175,-548,1,7,11
1.72313E+12,-5809,5007,-1173,537,264,-217,1,7,11
1.72313E+12,-5838,5246,-1179,249,-83,-165,1,7,11
1.72313E+12,-5828,5242,-1177,196,103,-358,1,7,11
1.72313E+12,-5804,4998,-1182,135,77,-294,1,7,11
1.72313E+12,-5777,5044,-1182,322,89,39,1,7,11
1.72313E+12,-6003,5086,-1180,-35,122,126,1,7,11
1.72313E+12,-5982,5403,-1169,109,-90,-22,1,7,11
1.72313E+12,-5956,5459,-1157,-262,-59,357,1,7,11
1.72313E+12,-5918,5486,-1391,-138,-43,208,1,7,11
1.72313E+12,-5626,5468,-1352,-245,-25,532,1,7,11
1.72313E+12,-5605,5460,-1310,-545,-7,544,1,7,11
1.72313E+12,-5584,5433,-1282,-557,-4,245,1,7,11
1.72313E+12,-5565,5402,-1010,-522,-8,167,1,7,11
1.72313E+12,-5549,5389,-1014,-208,-14,330,1,7,11
1.72313E+12,-5533,5108,-1286,-154,-21,-15,1,7,11
1.72313E+12,-5526,5093,-1297,-334,257,-70,1,7,11
1.72313E+12,-5520,5092,-1320,-257,296,-81,1,7,11
1.72313E+12,-5505,5097,-1350,62,340,-49,1,7,11
1.72313E+12,-5751,5116,-1381,109,135,263,1,7,11
1.72313E+12,-5735,5405,-1408,-126,176,332,1,7,11
1.72313E+12,-5726,5434,-1173,-126,206,137,1,7,11
1.72313E+12,-5717,5471,-1203,117,217,186,1,7,11
1.72313E+12,-5699,5250,-1231,94,204,222,1,7,11
1.72313E+12,-5684,5283,-1254,56,186,238,1,7,11
1.72313E+12,-5676,5317,-1278,18,162,243,1,7,11
1.72313E+12,-5674,5372,-1547,-272,136,234,1,7,11
1.72313E+12,-5674,5650,-1556,-308,363,222,1,7,11
1.72313E+12,-5661,5668,-1544,-345,319,204,1,7,11
1.72313E+12,-5653,5682,-1539,-375,258,177,1,7,11
1.72313E+12,-5645,5681,-1275,-129,-21,148,1,7,11
1.72313E+12,-5643,5665,-1264,-146,-71,376,1,7,11
1.72313E+12,-5372,5641,-1251,-157,-105,345,1,7,11
1.72313E+12,-5358,5375,-1233,-135,127,313,1,7,11
1.72313E+12,-5340,5634,-1227,-371,108,293,1,7,11
1.72313E+12,-5335,5638,-1211,-362,106,280,1,7,11
1.72313E+12,-5332,5646,-1199,-355,112,276,1,7,11
1.72313E+12,-5331,5649,-1187,-345,114,272,1,7,11
1.72313E+12,-5347,5659,-1174,-330,112,270,1,7,11
1.72313E+12,-5340,5663,-1169,-311,97,266,1,7,11
1.72313E+12,-5326,5667,-1160,-288,90,-6,1,7,11
1.72313E+12,-5319,5669,-1164,-261,102,-34,1,7,11
1.72313E+12,-5314,5680,-1173,20,118,-69,1,7,11
1.72313E+12,-5323,5680,-1172,37,-119,-108,1,7,11
1.72313E+12,-5348,5673,-1170,52,-105,111,1,7,11
1.72313E+12,-5356,5665,-1167,70,-112,84,1,7,11
1.72313E+12,-5348,5651,-1164,88,-125,60,1,7,11
1.72313E+12,-5346,5641,-1165,106,126,36,1,7,11
1.72313E+12,-5338,5640,-1161,122,122,24,1,7,11
1.72313E+12,-5335,5640,-1170,-122,120,21,1,7,11
1.72313E+12,-5326,5639,-1174,-119,117,25,1,7,11
1.72313E+12,-5329,5371,-1189,-116,111,22,1,7,11
1.72313E+12,-5338,5638,-1206,-113,105,14,1,7,11
1.72313E+12,-5344,5664,-1240,-119,-293,-279,1,7,11
1.72313E+12,-5350,5657,-1239,-110,-305,-302,1,7,11
1.72313E+12,-5645,5657,-1229,-97,-332,-329,1,7,11
1.72313E+12,-5667,5651,-1224,-80,-384,-342,1,7,11
1.72313E+12,-5675,5640,-1208,-51,-166,-350,1,7,11
1.72313E+12,-5689,5366,-1196,-16,-186,-363,1,7,11
1.72313E+12,-5696,5341,-1180,292,-199,-377,1,7,11
1.72313E+12,-5695,5319,-1178,343,-204,-143,1,7,11
1.72313E+12,-5682,5293,-1178,377,-195,-173,1,7,11
1.72313E+12,-5678,5278,-1184,142,-161,-215,1,7,11
1.72313E+12,-5690,5261,-1182,146,-129,-252,1,7,11
1.72313E+12,-5686,5499,-1190,142,-362,-535,1,7,11
1.72313E+12,-5694,5487,-1187,378,-328,-556,1,7,11
1.72313E+12,-5730,5477,-1193,354,-291,-563,1,7,11
1.72313E+12,-5514,5461,-1196,328,-276,-551,1,7,11
1.72313E+12,-5518,5443,-1201,307,-291,-532,1,7,11
1.72313E+12,-5541,5434,-1201,290,-300,-523,1,7,11
1.72313E+12,-5548,5418,-1217,269,-329,-249,1,7,11
1.72313E+12,-5547,5422,-1244,258,-331,-242,1,7,11
1.72313E+12,-5563,5437,-1252,-27,-316,-234,1,7,11
1.72313E+12,-5579,5436,-1246,-61,-311,-224,1,7,11
1.72313E+12,-5576,5437,-1243,-82,-321,-209,1,7,11
1.72313E+12,-5582,5422,-1225,-94,-322,-208,1,7,11
1.72313E+12,-5593,5407,-1222,-90,-334,-213,1,7,11
1.72313E+12,-5561,5392,-1208,-73,-362,-230,1,7,11
1.72313E+12,-5570,5388,-1196,-33,-358,-516,1,7,11
1.72313E+12,-5580,5384,-1182,264,-348,-540,1,7,11
1.72313E+12,-5590,5117,-1163,311,-352,-555,1,7,11
1.72313E+12,-5597,5105,-1162,363,-359,-558,1,7,11
1.72313E+12,-5593,5092,-1164,156,-364,-562,1,7,11
1.72313E+12,-5591,5080,-1164,202,-351,-572,1,7,11
1.72313E+12,-5578,5071,-1160,249,15,-598,1,7,11
1.72313E+12,-5580,5065,-1172,238,69,-611,1,7,11
1.72313E+12,-5578,5054,-1189,207,122,-626,1,7,11
1.72313E+12,-5583,5049,-1206,169,-75,-639,1,7,11
1.72313E+12,-5588,5058,-1221,373,-11,-386,1,7,11
1.72313E+12,-5599,5065,-1246,309,302,-632,1,7,11
1.72313E+12,-5609,5066,-1274,-31,348,-614,1,7,11
1.72313E+12,-5621,5055,-1552,-116,139,-601,1,7,11
1.72313E+12,-5903,5042,-1572,61,180,-596,1,7,11
1.72313E+12,-5925,5015,-1589,-270,197,-596,1,7,11
1.72313E+12,-5939,5246,-1596,-324,204,-595,1,7,11
1.72313E+12,-5956,5232,-1608,-369,206,-594,1,7,11
1.72313E+12,-5981,5190,-1595,-188,176,-564,1,7,11
1.72313E+12,-5996,5163,-1577,-188,159,-547,1,7,11
1.72313E+12,-6008,4801,-1573,37,-46,-527,1,7,11
1.72313E+12,-5994,4783,-1594,70,289,-585,1,7,11
1.72313E+12,-6015,4754,-1626,92,129,-386,1,7,11
1.72313E+12,-5821,4739,-1656,98,201,-417,1,7,11
1.72313E+12,-5832,4986,-1413,88,230,-420,1,7,11
1.72313E+12,-5853,4958,-1447,76,244,-404,1,7,11
1.72313E+12,-5879,4951,-1454,68,514,-627,1,7,11
1.72313E+12,-6162,4950,-1454,64,518,-579,1,7,11
1.72313E+12,-6171,4945,-1458,66,249,-492,1,7,11
1.72313E+12,-6174,4945,-1455,83,220,-209,1,7,11
1.72313E+12,-6176,4942,-1449,106,179,-165,1,7,11
1.72313E+12,-6150,4937,-1460,126,375,-136,1,7,11
1.72313E+12,-5876,4943,-1476,-100,344,-137,1,7,11
1.72313E+12,-5859,4933,-1484,-91,327,-164,1,7,11
1.72313E+12,-5850,4930,-1506,-96,335,-206,1,7,11
1.72313E+12,-5851,4925,-1518,-120,356,-251,1,7,11
1.72313E+12,-5862,4913,-1525,90,379,-542,1,7,11
1.72313E+12,-5884,4897,-1528,35,147,-570,1,7,11
1.72313E+12,-6163,4879,-1534,-279,158,-583,1,7,11
1.72313E+12,-6176,4598,-1800,-345,161,-578,1,7,11
1.72313E+12,-6183,4575,-1799,-144,175,-563,1,7,11
1.72313E+12,-6195,4556,-1799,-195,195,-539,1,7,11
1.72313E+12,-6211,4538,-1801,-238,213,-249,1,7,11
1.72313E+12,-6232,4513,-1531,-526,216,-201,1,7,11
1.72313E+12,-6248,4495,-1526,-531,204,-144,1,7,11
1.72313E+12,-6256,4485,-1516,-255,176,-338,1,7,11
1.72313E+12,-6252,4480,-1512,-220,142,-275,1,7,11
1.72313E+12,-6239,4482,-1503,-176,365,40,1,7,11
1.72313E+12,-6214,4486,-1512,-129,335,89,1,7,11
1.72313E+12,-6189,4493,-1529,-335,327,124,1,7,11
1.72313E+12,-6183,4519,-1799,-289,337,-110,1,7,11
1.72313E+12,-6177,4537,-1804,-262,346,-90,1,7,11
1.72313E+12,-6166,4555,-1810,16,349,-70,1,7,11
1.72313E+12,-6148,4585,-1816,41,353,-59,1,7,11
1.72313E+12,-5878,4867,-1835,49,354,-56,1,7,11
1.72313E+12,-5871,4888,-1851,55,359,-55,1,7,11
1.72313E+12,-5870,4908,-1865,65,361,-47,1,7,11
1.72313E+12,-5875,4916,-1873,68,351,-38,1,7,11
1.72313E+12,-5858,4908,-1879,73,326,-31,1,7,11
1.72313E+12,-5846,4899,-1886,89,303,-38,1,7,11
1.72313E+12,-5855,4904,-1884,99,276,-57,1,7,11
1.72313E+12,-5850,4898,-1889,103,-23,-80,1,7,11
1.72313E+12,-5839,4909,-1894,112,-43,-99,1,7,11
1.72313E+12,-5821,4917,-1912,108,-47,-110,1,7,11
1.72313E+12,-5802,4923,-1668,91,-41,-117,1,7,11
1.72313E+12,-5782,4938,-1673,74,-8,-126,1,7,11
1.72313E+12,-5778,4940,-1675,40,291,121,1,7,11
1.72313E+12,-5782,4950,-1675,-260,324,113,1,7,11
1.72313E+12,-5786,4950,-1680,-311,338,103,1,7,11
1.72313E+12,-5786,4944,-1681,-365,336,97,1,7,11
1.72313E+12,-5788,4935,-1672,-158,336,96,1,7,11
1.72313E+12,-5792,4931,-1671,-190,332,104,1,7,11
1.72313E+12,-5805,4934,-1919,-198,330,120,1,7,11
1.72313E+12,-5801,4935,-1912,-196,311,-102,1,7,11
1.72313E+12,-5802,4941,-1916,-172,301,-90,1,7,11
1.72313E+12,-5797,4955,-1912,-383,276,-85,1,7,11
1.72313E+12,-5789,4957,-1914,-362,-2,-85,1,7,11
1.72313E+12,-5797,4967,-1910,-340,-13,-90,1,7,11
1.72313E+12,-5797,4967,-1904,-324,-38,-95,1,7,11
1.72313E+12,-5783,4983,-1906,-298,-60,-104,1,7,11
1.72313E+12,-5766,4736,-1907,-283,-69,-110,1,7,11
1.72313E+12,-5765,4742,-1910,-281,-61,-116,1,7,11
1.72313E+12,-5763,4740,-1910,-284,-46,-124,1,7,11
1.72313E+12,-5770,4741,-1908,-280,-33,123,1,7,11
1.72313E+12,-5778,4738,-1908,-279,-32,116,1,7,11
1.72313E+12,-5776,4989,-1903,-278,-39,104,1,7,11
1.72313E+12,-5770,4980,-1904,-274,-43,92,1,7,11
1.72313E+12,-5763,4972,-1909,-262,-37,80,1,7,11
1.72313E+12,-5766,4963,-1911,0,-31,73,1,7,11
1.72313E+12,-5769,4959,-1908,10,-26,72,1,7,11
1.72313E+12,-5767,4957,-1920,22,-24,76,1,7,11
1.72313E+12,-5762,4953,-1665,26,-31,80,1,7,11
1.72313E+12,-6009,4951,-1675,31,-29,90,1,7,11
1.72313E+12,-6000,4954,-1697,29,-21,91,1,7,11
1.72313E+12,-6003,4952,-1709,18,-8,88,1,7,11
1.72313E+12,-5763,4950,-1712,1,256,88,1,7,11
1.72313E+12,-5781,4951,-1714,-266,-9,89,1,7,11
1.72313E+12,-5788,4954,-1716,-272,-37,101,1,7,11
1.72313E+12,-5779,4951,-1716,-274,-73,111,1,7,11
1.72313E+12,-5766,4948,-1713,-274,-96,118,1,7,11
1.72313E+12,-6012,4956,-1704,-260,-102,123,1,7,11
1.72313E+12,-6006,4974,-1708,6,-103,126,1,7,11
1.72313E+12,-5998,4979,-1711,4,-108,126,1,7,11
1.72313E+12,-5988,4984,-1706,12,-103,119,1,7,11
1.72313E+12,-6006,4746,-1708,11,-101,107,1,7,11
1.72313E+12,-6011,4753,-1706,-268,-128,94,1,7,11
1.72313E+12,-6006,4747,-1704,-283,110,83,1,7,11
1.72313E+12,-6003,4739,-1709,-296,107,74,1,7,11
1.72313E+12,-5996,4984,-1700,-297,106,65,1,7,11
1.72313E+12,-5976,4987,-1705,-285,121,57,1,7,11
1.72313E+12,-5976,4989,-1708,-280,-108,50,1,7,11
1.72313E+12,-5988,4984,-1702,-288,-90,45,1,7,11
1.72313E+12,-5995,4980,-1698,-295,-86,40,1,7,11
1.72313E+12,-5996,4976,-1690,-296,-91,39,1,7,11
1.72313E+12,-5991,4971,-1689,-299,-97,41,1,7,11
1.72313E+12,-5993,4967,-1688,-299,-98,48,1,7,11
1.72313E+12,-5996,4966,-1682,-297,-90,57,1,7,11
1.72313E+12,-6006,4964,-1682,-294,-80,73,1,7,11
1.72313E+12,-6003,4967,-1680,-287,-79,89,1,7,11
1.72313E+12,-6012,4970,-1684,-280,-76,93,1,7,11
1.72313E+12,-6009,4977,-1683,-279,-95,96,1,7,11
1.72313E+12,-6015,4988,-1680,-280,-96,96,1,7,11
1.72313E+12,-5761,4985,-1676,-294,-108,94,1,7,11
1.72313E+12,-6011,4991,-1672,-289,-122,95,1,7,11
1.72313E+12,-6009,4987,-1673,-285,127,96,1,7,11
1.72313E+12,-6000,4991,-1669,-281,125,103,1,7,11
1.72313E+12,-6002,4737,-1668,-274,-128,115,1,7,11
1.72313E+12,-6002,4744,-1665,13,-128,126,1,7,11
1.72313E+12,-6002,4749,-1665,36,121,-117,1,7,11
1.72313E+12,-6003,4752,-1920,56,116,-116,1,7,11
1.72313E+12,-5997,4750,-1919,71,109,-126,1,7,11
1.72313E+12,-5991,4742,-1670,82,105,107,1,7,11
1.72313E+12,-5998,4739,-1673,90,109,82,1,7,11
1.72313E+12,-6010,4743,-1671,89,115,60,1,7,11
1.72313E+12,-5761,4990,-1671,80,109,51,1,7,11
1.72313E+12,-6012,4970,-1672,69,98,54,1,7,11
1.72313E+12,-6002,4955,-1670,61,101,55,1,7,11
1.72313E+12,-6001,4958,-1916,55,116,59,1,7,11
1.72313E+12,-5996,4961,-1669,48,-125,70,1,7,11
1.72313E+12,-5987,4974,-1671,38,-110,82,1,7,11
1.72313E+12,-5988,4987,-1669,21,-89,92,1,7,11
1.72313E+12,-5992,4738,-1667,6,-74,102,1,7,11
1.72313E+12,-5992,4740,-1666,-259,-69,109,1,7,11
1.72313E+12,-5986,4991,-1917,-264,-70,108,1,7,11
1.72313E+12,-5978,4982,-1915,1,-72,104,1,7,11
1.72313E+12,-5983,4738,-1672,25,-62,93,1,7,11
1.72313E+12,-5975,4746,-1674,27,-59,80,1,7,11
1.72313E+12,-5965,4743,-1679,16,-53,66,1,7,11
1.72313E+12,-5972,4751,-1693,8,-39,50,1,7,11
1.72313E+12,-6002,4760,-1698,-277,-43,33,1,7,11
1.72313E+12,-5761,4767,-1697,-313,-74,26,1,7,11
1.72313E+12,-6012,4767,-1700,-343,-101,27,1,7,11
1.72313E+12,-6004,4757,-1699,-363,-108,30,1,7,11
1.72313E+12,-5990,4743,-1690,-362,-106,37,1,7,11
1.72313E+12,-5979,4989,-1672,-342,-97,42,1,7,11
1.72313E+12,-5970,4990,-1919,-314,-81,42,1,7,11
1.72313E+12,-5975,4739,-1665,-280,-67,35,1,7,11
1.72313E+12,-5978,4742,-1670,22,-68,25,1,7,11
1.72313E+12,-5975,4744,-1675,39,-70,11,1,7,11
1.72313E+12,-5970,4742,-1686,52,-64,-264,1,7,11
1.72313E+12,-5987,4747,-1690,55,-49,-285,1,7,11
1.72313E+12,-5991,4737,-1697,44,-46,-301,1,7,11
1.72313E+12,-5996,4984,-1694,32,-39,-322,1,7,11
1.72313E+12,-6011,4975,-1699,13,-49,-338,1,7,11
1.72313E+12,-6010,4971,-1707,-260,-66,-342,1,7,11
1.72313E+12,-6011,4962,-1703,-280,-61,-338,1,7,11
1.72313E+12,-5762,4946,-1694,-297,-63,-328,1,7,11
1.72313E+12,-5765,4934,-1681,-295,-69,-309,1,7,11
1.72313E+12,-6011,4930,-1684,-287,-74,-292,1,7,11
1.72313E+12,-6008,4926,-1687,-279,-66,-273,1,7,11
1.72313E+12,-6014,4930,-1699,-266,-52,-260,1,7,11
1.72313E+12,-5771,4935,-1703,-259,-42,4,1,7,11
1.72313E+12,-5773,4942,-1717,1,-38,8,1,7,11
1.72313E+12,-5774,4942,-1719,-258,-40,10,1,7,11
1.72313E+12,-5777,4946,-1727,-263,-41,9,1,7,11
1.72313E+12,-5775,4947,-1732,-272,-63,15,1,7,11
1.72313E+12,-5774,4933,-1732,-275,-68,16,1,7,11
1.72313E+12,-5776,4926,-1723,-268,-75,15,1,7,11
1.72313E+12,-5775,4914,-1717,1,-86,16,1,7,11
1.72313E+12,-5772,4910,-1715,16,-97,16,1,7,11
1.72313E+12,-5768,4914,-1716,27,-101,20,1,7,11
1.72313E+12,-5764,4916,-1721,33,-103,26,1,7,11
1.72313E+12,-5770,4910,-1721,31,-100,33,1,7,11
1.72313E+12,-5776,4910,-1714,18,-94,36,1,7,11
1.72313E+12,-5784,4910,-1712,10,-90,32,1,7,11
1.72313E+12,-5795,4914,-1712,1,-89,27,1,7,11
1.72313E+12,-5789,4920,-1714,-272,-94,24,1,7,11
1.72313E+12,-5779,4928,-1716,-285,-94,27,1,7,11
1.72313E+12,-5777,4932,-1726,-300,-83,31,1,7,11
1.72313E+12,-5778,4929,-1720,-323,-71,39,1,7,11
1.72313E+12,-5770,4917,-1708,-335,-67,46,1,7,11
1.72313E+12,-5776,4924,-1715,-323,-59,50,1,7,11
1.72313E+12,-5798,4938,-1709,-322,-74,52,1,7,11
1.72313E+12,-5800,4937,-1720,-328,-110,60,1,7,11
1.72313E+12,-5791,4927,-1719,-320,123,66,1,7,11
1.72313E+12,-5783,4925,-1726,-299,116,61,1,7,11
1.72313E+12,-5776,4917,-1725,-274,107,60,1,7,11
1.72313E+12,-5766,4920,-1725,13,112,55,1,7,11
1.72313E+12,-5762,4915,-1728,30,123,48,1,7,11
1.72313E+12,-5770,4916,-1721,39,-123,45,1,7,11
1.72313E+12,-5762,4922,-1720,21,123,51,1,7,11
1.72313E+12,-6016,4923,-1721,1,-127,65,1,7,11
1.72313E+12,-5767,4927,-1695,-310,-127,-127,1,7,11
1.72313E+12,-5765,4942,-1703,-304,-120,-124,1,7,11
1.72313E+12,-5775,4969,-1702,2,118,71,1,7,11
1.72313E+12,-5781,4968,-1697,4,112,60,1,7,11
1.72313E+12,-5777,4952,-1695,34,93,27,1,7,11
1.72313E+12,-5783,4943,-1687,22,88,34,1,7,11
1.72313E+12,-5789,4939,-1681,18,84,44,1,7,11
1.72313E+12,-5778,4932,-1675,21,76,58,1,7,11
1.72313E+12,-5776,4934,-1920,30,72,65,1,7,11
1.72313E+12,-5770,4930,-1920,36,71,73,1,7,11
1.72313E+12,-5784,4924,-1918,40,73,79,1,7,11
1.72313E+12,-5788,4928,-1914,49,69,87,1,7,11
1.72313E+12,-5795,4924,-1666,56,67,90,1,7,11
1.72313E+12,-5793,4925,-1920,64,63,99,1,7,11
1.72313E+12,-5780,4951,-1672,22,91,116,1,7,11
1.72313E+12,-5765,4935,-1912,-262,89,114,1,7,11
1.72313E+12,-5805,4960,-1667,-260,41,105,1,7,11
1.72313E+12,-5787,4965,-1668,12,49,111,1,7,11
1.72313E+12,-5778,4981,-1673,22,78,105,1,7,11
1.72313E+12,-5783,4738,-1679,22,101,95,1,7,11
1.72313E+12,-5790,4741,-1669,13,109,84,1,7,11
1.72313E+12,-5780,4743,-1920,6,93,69,1,7,11
1.72313E+12,-5769,4742,-1919,-258,82,45,1,7,11
1.72313E+12,-5764,4737,-1913,-267,82,15,1,7,11
1.72313E+12,-5767,4975,-1909,-267,89,-271,1,7,11
1.72313E+12,-5781,4968,-1899,-261,94,-296,1,7,11
1.72313E+12,-5786,4924,-1865,43,85,-359,1,7,11
1.72313E+12,-5793,4921,-1873,52,105,-368,1,7,11
1.72313E+12,-5824,4924,-1885,56,-125,-334,1,7,11
1.72313E+12,-5847,4933,-1893,52,-120,-342,1,7,11
1.72313E+12,-5853,4932,-1894,44,-127,-358,1,7,11
1.72313E+12,-5850,4932,-1890,38,119,-378,1,7,11
1.72313E+12,-5851,4929,-1887,34,118,-152,1,7,11
1.72313E+12,-5857,4913,-1883,34,115,-184,1,7,11
1.72313E+12,-5861,4899,-1884,37,107,-217,1,7,11
1.72313E+12,-5864,4886,-1888,51,104,-252,1,7,11
1.72313E+12,-5867,4872,-1890,73,99,-541,1,7,11
1.72313E+12,-5859,4865,-1889,95,98,-572,1,7,11
1.72313E+12,-5865,4602,-1905,111,106,-598,1,7,11
1.72313E+12,-5874,4594,-1902,116,114,-617,1,7,11
1.72313E+12,-5885,4582,-1896,121,112,-629,1,7,11
1.72313E+12,-6152,4567,-1902,127,109,-385,1,7,11
1.72313E+12,-6166,4549,-1901,-127,97,-391,1,7,11
1.72313E+12,-6172,4530,-1893,-116,93,-403,1,7,11
1.72313E+12,-6186,4514,-1888,-109,94,-418,1,7,11
1.72313E+12,-6191,4489,-1894,-101,96,-439,1,7,11
1.72313E+12,-6214,4484,-1903,-82,101,-471,1,7,11
1.72313E+12,-6216,4734,-1917,-78,96,-507,1,7,11
1.72313E+12,-6208,4720,-1673,-81,98,-798,1,7,11
1.72313E+12,-6233,4702,-1678,-97,110,-836,1,7,11
1.72313E+12,-6022,4681,-1666,127,99,-871,1,7,11
1.72313E+12,-6047,4652,-1915,112,66,-650,1,7,11
1.72313E+12,-6054,4621,-1915,119,35,-677,1,7,11
1.72313E+12,-6064,4335,-1918,-122,25,-707,1,7,11
1.72313E+12,-6082,4309,-1907,-106,25,-741,1,7,11
1.72313E+12,-6133,4285,-1896,-99,13,-1029,1,7,11
1.72313E+12,-6109,4470,-1871,121,-310,-1062,1,7,11
1.72313E+12,-6113,4413,-1854,-122,-321,-1130,1,7,11
1.72313E+12,-6133,4398,-1877,-110,-324,-919,1,7,11
1.72313E+12,-6415,4368,-1874,115,-321,-954,1,7,11
1.72313E+12,-6437,4056,-1844,50,-319,-965,1,7,11
1.72313E+12,-6483,3994,-1838,-259,-307,-970,1,7,11
1.72313E+12,-6278,4213,-1827,-293,-314,-972,1,7,11
1.72313E+12,-6317,4180,-1827,-317,-333,-978,1,7,11
1.72313E+12,-6392,4150,-1823,-346,-344,-1008,1,7,11
1.72313E+12,-6712,3828,-1794,-380,-375,-1292,1,7,11
1.72313E+12,-6768,3753,-1523,-384,-143,-1345,1,7,11
1.72313E+12,-6573,3890,-1501,-368,-158,-1165,1,7,11
1.72313E+12,-6646,3797,-1483,-324,-160,-1247,1,7,11
1.72313E+12,-6990,3456,-1453,-272,-152,-1585,1,7,11
1.72313E+12,-6805,3616,-1441,46,-149,-1659,1,7,11
1.72313E+12,-6824,3288,-1426,-119,-134,-1505,1,7,11
1.72313E+12,-6830,3226,-1438,-28,-359,-1837,1,7,11
1.72313E+12,-6835,3423,-1449,330,0,-1914,1,7,11
1.72313E+12,-6861,3374,-1462,363,103,-1727,1,7,11
1.72313E+12,-6876,3060,-1457,350,-60,-2064,1,7,11
1.72313E+12,-6903,3047,-1465,353,290,-2134,1,7,11
1.72313E+12,-7178,3048,-1495,325,347,-1939,1,7,11
1.72313E+12,-7172,3013,-1501,-18,139,-1964,1,7,11
1.72313E+12,-7186,2944,-1496,-124,205,-1961,1,7,11
1.72313E+12,-7208,3124,-1497,35,518,-1944,1,7,11
1.72313E+12,-7212,3108,-1525,5,556,-1925,1,7,11
1.72313E+12,-7210,3081,-1809,-326,584,-2172,1,7,11
1.72313E+12,-7237,2739,-1800,-171,631,-2150,1,7,11
1.72313E+12,-7263,2910,-1795,-234,399,-2095,1,7,11
1.72313E+12,-7287,2863,-1806,-239,432,-1769,1,7,11
1.72313E+12,-7050,2844,-1828,-246,455,-1693,1,7,11
1.72313E+12,-7067,2836,-1829,-537,468,-1852,1,7,11
1.72313E+12,-7056,2520,-1817,-607,450,-1464,1,7,11
1.72313E+12,-7288,2512,-1815,-398,458,-1576,1,7,11
1.72313E+12,-7043,2821,-1828,-426,497,-1157,1,7,11
1.72313E+12,-7076,2821,-1833,-490,798,-982,1,7,11
1.72313E+12,-7172,2858,-1820,-825,510,-708,1,7,11
1.72313E+12,-7244,2765,-1867,-859,705,-813,1,7,11
1.72313E+12,-7260,3115,-1905,-1052,726,-577,1,7,11
1.72313E+12,-7198,3151,-1689,-953,756,-163,1,7,11
1.72313E+12,-7227,2963,-1744,-1311,1097,-308,1,7,11
1.72313E+12,-7219,2957,-1781,-1170,1086,10,1,7,11
1.72313E+12,-7194,3176,-1779,-1170,1065,-270,1,7,11
1.72313E+12,-6871,2948,-2058,-1321,1046,-309,1,7,11
1.72313E+12,-6823,3023,-2093,-972,1081,-325,1,7,11
1.72313E+12,-6838,3063,-2117,-973,1108,-277,1,7,11
1.72313E+12,-7036,3007,-2120,-1019,1094,84,1,7,11
1.72313E+12,-7015,3005,-2139,-963,907,-59,1,7,11
1.72313E+12,-7011,2974,-2154,-926,904,322,1,7,11
1.72313E+12,-6943,2968,-2158,-1069,947,182,1,7,11
1.72313E+12,-6951,2987,-1973,-697,999,612,1,7,11
1.72313E+12,-6609,3160,-1962,-671,989,470,1,7,11
1.72313E+12,-6651,3157,-2006,-821,1318,797,1,7,11
1.72313E+12,-6637,3158,-2043,-444,1291,848,1,7,11
1.72313E+12,-6644,2988,-2381,-568,1003,825,1,7,11
1.72313E+12,-6571,3037,-2412,-195,1128,791,1,7,11
1.72313E+12,-6539,3385,-2195,-367,1101,500,1,7,11
1.72313E+12,-6750,3232,-2253,-331,1057,490,1,7,11
1.72313E+12,-6686,3317,-2295,-344,743,465,1,7,11
1.72313E+12,-6398,3667,-2606,-381,713,445,1,7,11
1.72313E+12,-6366,3706,-2651,-215,685,443,1,7,11
1.72313E+12,-6361,3704,-2674,-543,677,424,1,7,11
1.72313E+12,-6375,3691,-2686,-582,646,398,1,7,11
1.72313E+12,-6352,3679,-2447,-598,847,624,1,7,11
1.72313E+12,-6333,3667,-2462,-591,818,577,1,7,11
1.72313E+12,-6325,3657,-2485,-585,773,546,1,7,11
1.72313E+12,-6311,3643,-2497,-568,471,252,1,7,11
1.72313E+12,-6297,3640,-2506,-541,426,221,1,7,11
1.72313E+12,-6303,3640,-2505,-248,391,185,1,7,11
1.72313E+12,-6312,3674,-2514,-206,605,164,1,7,11
1.72313E+12,-6300,3694,-2529,-176,536,167,1,7,11
1.72313E+12,-6297,3711,-2533,-168,253,172,1,7,11
1.72313E+12,-6290,3466,-2544,-173,227,178,1,7,11
1.72313E+12,-6291,3471,-2541,-180,206,177,1,7,11
1.72313E+12,-6525,3477,-2528,-182,176,172,1,7,11
1.72313E+12,-6510,3486,-2522,-183,154,163,1,7,11
1.72313E+12,-6513,3495,-2520,-188,140,152,1,7,11
1.72313E+12,-6526,3501,-2508,-200,372,148,1,7,11
1.72313E+12,-6514,3508,-2507,-211,331,143,1,7,11
1.72313E+12,-6511,3515,-2504,-222,301,132,1,7,11
1.72313E+12,-6505,3529,-2490,-237,271,378,1,7,11
1.72313E+12,-6496,3523,-2469,-524,-19,352,1,7,11
1.72313E+12,-6503,3522,-2463,-536,-36,314,1,7,11
1.72313E+12,-6507,3537,-2449,-529,-50,282,1,7,11
1.72313E+12,-6495,3540,-2449,-528,-71,-2,1,7,11
1.72313E+12,-6484,3548,-2441,-520,-76,-41,1,7,11
1.72313E+12,-6482,3556,-2438,-519,-70,-88,1,7,11
1.72313E+12,-6497,3554,-2687,-515,-69,114,1,7,11
1.72313E+12,-6502,3543,-2670,-252,-81,55,1,7,11
1.72313E+12,-6510,3528,-2652,-234,-93,-274,1,7,11
1.72313E+12,-6523,3508,-2651,-200,-111,-357,1,7,11
1.72313E+12,-6288,3509,-2663,-142,114,-204,1,7,11
1.72313E+12,-6304,3516,-2679,-349,70,-575,1,7,11
1.72313E+12,-6331,3527,-2433,-322,30,-424,1,7,11
1.72313E+12,-6355,3504,-2680,-325,-283,-496,1,7,11
1.72313E+12,-6367,3476,-2650,-323,-338,-803,1,7,11
1.72313E+12,-6375,3695,-2624,-318,-375,-839,1,7,11
1.72313E+12,-6387,3644,-2590,-312,-137,-847,1,7,11
1.72313E+12,-6387,3621,-2573,-294,-140,-824,1,7,11
1.72313E+12,-6388,3589,-2293,-275,-384,-786,1,7,11
1.72313E+12,-6387,3300,-2271,-260,-363,-471,1,7,11
1.72313E+12,-6389,3273,-2255,17,-297,-625,1,7,11
1.72313E+12,-6397,3254,-2253,58,23,-558,1,7,11
1.72313E+12,-6667,3259,-2267,94,78,-237,1,7,11
1.72313E+12,-6678,3271,-2274,117,120,-187,1,7,11
1.72313E+12,-6696,3273,-2280,125,-104,-142,1,7,11
1.72313E+12,-6694,3268,-2295,-126,-88,-364,1,7,11
1.72313E+12,-6698,3270,-2300,-124,-72,-340,1,7,11
1.72313E+12,-6705,3275,-2571,125,-65,-315,1,7,11
1.72313E+12,-6707,3270,-2574,107,-65,-288,1,7,11
1.72313E+12,-6704,3266,-2581,87,-59,6,1,7,11
1.72313E+12,-6699,3259,-2575,51,-53,58,1,7,11
1.72313E+12,-6699,3240,-2303,10,-37,127,1,7,11
1.72313E+12,-6700,3231,-2562,-270,-16,-47,1,7,11
1.72313E+12,-6696,3231,-2298,-304,-8,306,1,7,11
1.72313E+12,-6689,3226,-2296,-331,260,148,1,7,11
1.72313E+12,-6680,3231,-2299,-346,273,247,1,7,11
1.72313E+12,-6669,3253,-2304,-350,290,600,1,7,11
1.72313E+12,-6662,3299,-2573,-336,313,445,1,7,11
1.72313E+12,-6386,3601,-2597,-326,343,821,1,7,11
1.72313E+12,-6359,3660,-2611,-320,134,722,1,7,11
1.72313E+12,-6333,3460,-2615,-341,202,925,1,7,11
1.72313E+12,-6321,3461,-2595,-169,532,1162,1,7,11
1.72313E+12,-6302,3679,-2572,-245,593,1657,1,7,11
1.72313E+12,-6284,3690,-2589,-516,630,1841,1,7,11
1.72313E+12,-6506,3507,-2623,-231,385,1711,1,7,11
1.72313E+12,-6466,3857,-2646,-211,386,1774,1,7,11
1.72313E+12,-6441,3898,-2648,-514,631,2049,1,7,11
1.72313E+12,-6406,3951,-2658,-524,611,1760,1,7,11
1.72313E+12,-6113,3794,-2676,-515,550,1906,1,7,11
1.72313E+12,-6060,4154,-2448,-518,214,1490,1,7,11
1.72313E+12,-6267,3970,-2450,-535,142,1546,1,7,11
1.72313E+12,-6231,4029,-2458,-559,332,1332,1,7,11
1.72313E+12,-6212,4069,-2439,-579,277,1121,1,7,11
1.72313E+12,-6191,4084,-2680,-596,-28,673,1,7,11
1.72313E+12,-6169,4093,-2659,-586,-64,510,1,7,11
1.72313E+12,-6158,4094,-2643,-565,-79,631,1,7,11
1.72313E+12,-6155,4082,-2634,-545,-77,525,1,7,11
1.72313E+12,-5873,4077,-2623,-169,-45,311,1,7,11
1.72313E+12,-5865,4090,-2632,-129,-35,277,1,7,11
1.72313E+12,-5867,4094,-2634,-374,-20,-6,1,7,11
1.72313E+12,-5867,4357,-2637,-366,-16,-21,1,7,11
1.72313E+12,-5858,4370,-2643,-365,-17,-32,1,7,11
1.72313E+12,-5844,4368,-2650,-372,-15,-43,1,7,11
1.72313E+12,-5846,4372,-2648,-375,-6,-52,1,7,11
1.72313E+12,-5851,4371,-2643,-377,-3,-58,1,7,11
1.72313E+12,-5860,4367,-2651,-369,-11,-60,1,7,11
1.72313E+12,-5859,4362,-2645,-350,-24,-61,1,7,11
1.72313E+12,-5865,4368,-2649,-326,-35,-59,1,7,11
1.72313E+12,-5863,4372,-2650,-302,-48,-56,1,7,11
1.72313E+12,-5862,4399,-2661,-263,-64,-59,1,7,11
1.72313E+12,-5866,4416,-2660,1,-69,-63,1,7,11
1.72313E+12,-5866,4428,-2654,-262,-81,-65,1,7,11
1.72313E+12,-5861,4431,-2647,-278,-95,-75,1,7,11
1.72313E+12,-5860,4427,-2623,-291,-108,-88,1,7,11
1.72313E+12,-5857,4425,-2617,-302,-122,-99,1,7,11
1.72313E+12,-5833,4429,-2615,-310,117,-105,1,7,11
1.72313E+12,-5803,4436,-2617,-310,-124,-109,1,7,11
1.72313E+12,-5780,4445,-2621,-310,-89,-120,1,7,11
1.72313E+12,-5782,4450,-2624,-310,-45,120,1,7,11
1.72313E+12,-5789,4457,-2634,-313,-22,108,1,7,11
1.72313E+12,-5806,4460,-2641,-313,-8,92,1,7,11
1.72313E+12,-5825,4453,-2640,-307,-9,82,1,7,11
1.72313E+12,-5826,4436,-2645,-301,-31,74,1,7,11
1.72313E+12,-5818,4422,-2638,-283,-47,60,1,7,11
1.72313E+12,-5821,4416,-2631,-264,-55,45,1,7,11
1.72313E+12,-5828,4415,-2632,7,-69,32,1,7,11
1.72313E+12,-5850,4410,-2628,14,-84,18,1,7,11
1.72313E+12,-5856,4415,-2631,13,-107,26,1,7,11
1.72313E+12,-5844,4419,-2633,11,-125,44,1,7,11
1.72313E+12,-5834,4428,-2644,2,-128,68,1,7,11
1.72313E+12,-5813,4440,-2641,-259,-117,88,1,7,11
1.72313E+12,-5806,4453,-2644,-267,-101,97,1,7,11
1.72313E+12,-5799,4458,-2646,-278,-79,101,1,7,11
1.72313E+12,-5794,4448,-2640,-287,-59,93,1,7,11
1.72313E+12,-5794,4444,-2636,-286,-49,80,1,7,11
1.72313E+12,-5791,4446,-2633,-278,-43,66,1,7,11
1.72313E+12,-5790,4452,-2637,-267,-31,53,1,7,11
1.72313E+12,-5800,4453,-2647,-264,-14,39,1,7,11
1.72313E+12,-5811,4455,-2657,-262,-9,30,1,7,11
1.72313E+12,-5809,4455,-2668,-261,-11,23,1,7,11
1.72313E+12,-5818,4438,-2661,-301,-37,3,1,7,11
1.72313E+12,-5813,4422,-2660,-314,-48,2,1,7,11
1.72313E+12,-5818,4409,-2654,-325,-58,1,1,7,11
1.72313E+12,-5807,4399,-2651,-331,-64,0,1,7,11
1.72313E+12,-5811,4402,-2647,-326,-65,3,1,7,11
1.72313E+12,-5814,4399,-2644,-325,-60,20,1,7,11
1.72313E+12,-5817,4399,-2644,-319,-57,37,1,7,11
1.72313E+12,-5824,4403,-2643,-291,-55,54,1,7,11
1.72313E+12,-5821,4403,-2642,-274,-54,67,1,7,11
1.72313E+12,-5822,4411,-2649,3,-54,75,1,7,11
1.72313E+12,-5828,4422,-2657,21,-49,75,1,7,11
1.72313E+12,-5831,4435,-2661,30,-57,69,1,7,11
1.72313E+12,-5821,4445,-2668,30,-65,58,1,7,11
1.72313E+12,-5815,4454,-2668,24,-69,42,1,7,11
1.72313E+12,-5811,4447,-2670,9,-72,26,1,7,11
1.72313E+12,-5807,4444,-2666,-258,-72,14,1,7,11
1.72313E+12,-5807,4431,-2666,-262,-66,4,1,7,11
1.72313E+12,-5809,4420,-2652,-264,-58,-258,1,7,11
1.72313E+12,-5811,4413,-2655,1,-52,0,1,7,11
1.72313E+12,-5814,4408,-2652,11,-46,5,1,7,11
1.72313E+12,-5813,4403,-2656,19,-41,13,1,7,11
1.72313E+12,-5812,4406,-2662,25,-41,20,1,7,11
1.72313E+12,-5808,4402,-2667,29,-35,26,1,7,11
1.72313E+12,-5817,4410,-2668,32,-27,28,1,7,11
1.72313E+12,-5811,4412,-2679,25,-26,30,1,7,11
1.72313E+12,-5792,4410,-2688,12,-28,27,1,7,11
1.72313E+12,-5776,4412,-2446,-257,-17,14,1,7,11
1.72313E+12,-5784,4412,-2445,-270,-4,2,1,7,11
1.72313E+12,-5815,4414,-2446,-291,-3,-266,1,7,11
1.72313E+12,-5846,4409,-2448,-306,-26,-265,1,7,11
1.72313E+12,-5843,4407,-2453,-306,-64,4,1,7,11
1.72313E+12,-5833,4402,-2465,-300,-84,17,1,7,11
1.72313E+12,-5819,4394,-2462,-290,-91,28,1,7,11
1.72313E+12,-5811,4394,-2454,-273,-85,29,1,7,11
1.72313E+12,-5812,4397,-2450,-264,-81,32,1,7,11
1.72313E+12,-5812,4394,-2442,0,-79,36,1,7,11
1.72313E+12,-5818,4396,-2441,11,-84,37,1,7,11
1.72313E+12,-5787,4403,-2445,28,-83,44,1,7,11
1.72313E+12,-5799,4403,-2435,25,-67,46,1,7,11
1.72313E+12,-5797,4393,-2437,23,-61,50,1,7,11
1.72313E+12,-5801,4393,-2436,22,-57,45,1,7,11
1.72313E+12,-5802,4389,-2447,14,-61,41,1,7,11
1.72313E+12,-5813,4396,-2456,11,-55,33,1,7,11
1.72313E+12,-5818,4396,-2458,-258,-51,27,1,7,11
1.72313E+12,-5820,4389,-2451,-279,-55,22,1,7,11
1.72313E+12,-5825,4384,-2443,-291,-55,25,1,7,11
1.72313E+12,-5821,4378,-2450,-299,-60,31,1,7,11
1.72313E+12,-5812,4375,-2458,-301,-53,33,1,7,11
1.72313E+12,-5812,4369,-2457,-305,-43,36,1,7,11
1.72313E+12,-5817,4364,-2453,-309,-33,38,1,7,11
1.72313E+12,-5823,4365,-2458,-304,-28,41,1,7,11
1.72313E+12,-5829,4366,-2460,-297,-26,47,1,7,11
1.72313E+12,-5835,4363,-2460,-292,-28,56,1,7,11
1.72313E+12,-5838,4365,-2456,-285,-33,68,1,7,11
1.72313E+12,-5833,4372,-2465,-271,-41,78,1,7,11
1.72313E+12,-5833,4374,-2463,-264,-49,84,1,7,11
1.72313E+12,-5830,4374,-2464,-261,-53,87,1,7,11
1.72313E+12,-5829,4375,-2459,-266,-59,87,1,7,11
1.72313E+12,-5824,4378,-2458,-269,-64,89,1,7,11
1.72313E+12,-5816,4384,-2453,-273,-63,91,1,7,11
1.72313E+12,-5816,4389,-2461,-285,-60,96,1,7,11
1.72313E+12,-5812,4380,-2462,-293,-51,98,1,7,11
1.72313E+12,-5813,4385,-2465,-298,-36,100,1,7,11
1.72313E+12,-5808,4386,-2460,-315,-34,107,1,7,11
1.72313E+12,-5803,4382,-2462,-322,-32,105,1,7,11
1.72313E+12,-5805,4381,-2471,-317,-24,101,1,7,11
1.72313E+12,-5803,4382,-2475,-313,-23,95,1,7,11
1.72313E+12,-5797,4374,-2472,-309,-31,89,1,7,11
1.72313E+12,-5793,4367,-2473,-299,-36,74,1,7,11
1.72313E+12,-5789,4378,-2472,-293,-40,62,1,7,11
1.72313E+12,-5796,4378,-2477,-303,-47,44,1,7,11
1.72313E+12,-5821,4391,-2478,-314,-52,31,1,7,11
1.72313E+12,-5819,4395,-2477,-330,-69,34,1,7,11
1.72313E+12,-5806,4397,-2482,-349,-76,41,1,7,11
1.72313E+12,-5793,4396,-2483,-356,-67,52,1,7,11
1.72313E+12,-5792,4398,-2477,-360,-46,62,1,7,11
1.72313E+12,-5793,4391,-2478,-359,-27,66,1,7,11
1.72313E+12,-5788,4387,-2470,-346,-18,67,1,7,11
1.72313E+12,-5796,4393,-2466,-325,-17,64,1,7,11
1.72313E+12,-5785,4400,-2466,-307,-32,68,1,7,11
1.72313E+12,-5771,4399,-2468,-296,-35,67,1,7,11
1.72313E+12,-5770,4404,-2469,-288,-30,66,1,7,11
1.72313E+12,-5780,4405,-2469,-284,-20,60,1,7,11
1.72313E+12,-5771,4400,-2480,-288,-22,60,1,7,11
1.72313E+12,-5777,4408,-2492,-295,-19,57,1,7,11
1.72313E+12,-5782,4406,-2491,-310,-18,58,1,7,11
1.72313E+12,-5788,4404,-2491,-333,-16,61,1,7,11
1.72313E+12,-5789,4401,-2488,-349,-16,74,1,7,11
1.72313E+12,-5789,4390,-2482,-355,-23,85,1,7,11
1.72313E+12,-5785,4395,-2477,-342,-27,98,1,7,11
1.72313E+12,-5782,4398,-2480,-324,-28,110,1,7,11
1.72313E+12,-5774,4407,-2479,-307,-28,121,1,7,11
1.72313E+12,-5772,4414,-2491,-287,-23,-128,1,7,11
1.72313E+12,-5776,4427,-2499,-273,-26,-126,1,7,11
1.72313E+12,-5772,4429,-2500,-258,-35,123,1,7,11
1.72313E+12,-5773,4430,-2498,7,-38,106,1,7,11
1.72313E+12,-5769,4426,-2504,13,-46,90,1,7,11
1.72313E+12,-5767,4429,-2503,21,-51,73,1,7,11
1.72313E+12,-5766,4439,-2515,28,-54,59,1,7,11
1.72313E+12,-5764,4436,-2516,23,-59,49,1,7,11
1.72313E+12,-5764,4429,-2510,17,-61,41,1,7,11
1.72313E+12,-5768,4427,-2506,19,-59,37,1,7,11
1.72313E+12,-6016,4429,-2505,21,-61,29,1,7,11
1.72313E+12,-5767,4428,-2501,26,-50,19,1,7,11
1.72313E+12,-5766,4431,-2513,27,-46,11,1,7,11
1.72313E+12,-5773,4431,-2506,27,-47,-264,1,7,11
1.72313E+12,-5784,4444,-2513,30,-49,-296,1,7,11
1.72313E+12,-5775,4462,-2522,35,-59,-333,1,7,11
1.72313E+12,-5792,4478,-2532,30,-54,-130,1,7,11
1.72313E+12,-5796,4237,-2534,26,-65,-177,1,7,11
1.72313E+12,-5798,4242,-2536,24,-78,-233,1,7,11
1.72313E+12,-5803,4242,-2539,22,-90,-546,1,7,11
1.72313E+12,-5793,4226,-2530,18,-116,-612,1,7,11
1.72313E+12,-5793,4457,-2521,38,119,-436,1,7,11
1.72313E+12,-5802,4436,-2525,78,73,-788,1,7,11
1.72313E+12,-5797,4366,-2544,124,6,-650,1,7,11
1.72313E+12,-5808,4021,-2527,-50,-306,-1054,1,7,11
1.72313E+12,-5839,4217,-2515,337,-361,-963,1,7,11
1.72313E+12,-5882,4187,-2522,194,-198,-1364,1,7,11
1.72313E+12,-5838,3971,-2504,542,-520,-1229,1,7,11
1.72313E+12,-5878,4016,-2516,564,-531,-1593,1,7,11
1.72313E+12,-6169,4156,-2482,159,-544,-1650,1,7,11
1.72313E+12,-6170,3829,-2450,369,-250,-1427,1,7,11
1.72313E+12,-6043,4102,-2497,286,-234,-1482,1,7,11
1.72313E+12,-6017,3772,-2536,114,-440,-1520,1,7,11
1.72313E+12,-6243,3866,-2502,-126,-502,-1719,1,7,11
1.72313E+12,-6079,3563,-2505,335,-616,-2164,1,7,11
1.72313E+12,-6447,3540,-2494,210,-551,-2043,1,7,11
1.72313E+12,-6489,3512,-2496,546,-547,-2339,1,7,11
1.72313E+12,-6297,3471,-2522,535,-253,-2048,1,7,11
1.72313E+12,-6385,3625,-2499,161,-517,-1971,1,7,11
1.72313E+12,-6679,3277,-2471,352,-573,-2123,1,7,11
1.72313E+12,-6686,3453,-2472,334,-394,-1760,1,7,11
1.72313E+12,-6682,3398,-2447,342,-409,-1849,1,7,11
1.72313E+12,-6740,3367,-2444,309,-608,-1655,1,7,11
1.72313E+12,-6542,3025,-2678,-51,-631,-1178,1,7,11
1.72313E+12,-6750,2979,-2656,-79,-404,-962,1,7,11
1.72313E+12,-6780,2992,-2664,-87,-581,-759,1,7,11
1.72313E+12,-6549,3191,-2649,95,-247,-808,1,7,11
1.72313E+12,-6567,3133,-2640,92,-182,-389,1,7,11
1.72313E+12,-6546,3137,-2620,-117,-383,-531,1,7,11
1.72313E+12,-6560,3154,-2622,-82,-304,-191,1,7,11
1.72313E+12,-6577,3155,-2608,-105,-257,-354,1,7,11
1.72313E+12,-6579,3097,-2565,-106,13,-289,1,7,11
1.72313E+12,-6554,3136,-2588,-32,99,-261,1,7,11
1.72313E+12,-6594,3131,-2593,-37,-110,54,1,7,11
1.72313E+12,-6565,3138,-2596,-62,-92,74,1,7,11
1.72313E+12,-6595,3180,-2602,-63,-13,57,1,7,11
1.72313E+12,-6601,3180,-2581,100,-23,87,1,7,11
1.72313E+12,-6603,3197,-2590,18,-22,122,1,7,11
1.72313E+12,-6593,3197,-2586,-309,-36,-117,1,7,11
1.72313E+12,-6583,2969,-2597,-365,-29,-75,1,7,11
1.72313E+12,-6571,3017,-2619,-137,270,285,1,7,11
1.72313E+12,-6622,3009,-2606,-249,344,216,1,7,11
1.72313E+12,-6588,3110,-2584,-404,365,590,1,7,11
1.72313E+12,-6625,3094,-2589,-467,152,616,1,7,11
1.72313E+12,-6598,3148,-2626,-342,354,394,1,7,11
1.72313E+12,-6566,3129,-2607,-313,329,413,1,7,11
1.72313E+12,-6554,3153,-2610,18,319,443,1,7,11
1.72313E+12,-6554,2966,-2621,66,284,460,1,7,11
1.72313E+12,-6551,3009,-2628,72,-8,491,1,7,11
1.72313E+12,-6784,3033,-2642,104,-34,791,1,7,11
1.72313E+12,-6750,3362,-2668,-85,-20,874,1,7,11
1.72313E+12,-6697,3220,-2448,-69,274,1034,1,7,11
1.72313E+12,-6657,3265,-2446,103,360,995,1,7,11
1.72313E+12,-6393,3248,-2665,-271,205,1246,1,7,11
1.72313E+12,-6397,3445,-2629,-363,531,1487,1,7,11
1.72313E+12,-6358,3440,-2621,-373,562,1687,1,7,11
1.72313E+12,-6296,3252,-2658,-348,600,2067,1,7,11
1.72313E+12,-6500,3598,-2436,-360,394,2139,1,7,11
1.72313E+12,-6464,3675,-2463,-153,425,2163,1,7,11
1.72313E+12,-6434,3484,-2487,-214,430,2121,1,7,11
1.72313E+12,-6407,3555,-2519,-254,411,1755,1,7,11
1.72313E+12,-6127,3906,-2538,-536,621,1838,1,7,11
1.72313E+12,-6095,3731,-2554,-585,543,1633,1,7,11
1.72313E+12,-6064,3794,-2560,-636,214,1161,1,7,11
1.72313E+12,-6030,4102,-2554,-430,158,970,1,7,11
1.72313E+12,-6248,4123,-2552,-489,379,1064,1,7,11
1.72313E+12,-6224,4120,-2527,-790,367,672,1,7,11
1.72313E+12,-6207,4121,-2516,-803,371,807,1,7,11
1.72313E+12,-6213,4134,-2501,-786,372,443,1,7,11
1.72313E+12,-6205,4154,-2495,-505,365,612,1,7,11
1.72313E+12,-6210,4177,-2486,-485,362,535,1,7,11
1.72313E+12,-6206,4192,-2487,-461,348,230,1,7,11
1.72313E+12,-6201,4212,-2488,-437,335,197,1,7,11
1.72313E+12,-6202,3974,-2486,-427,320,181,1,7,11
1.72313E+12,-6195,3979,-2475,-412,308,177,1,7,11
1.72313E+12,-6192,3989,-2468,-395,291,175,1,7,11
1.72313E+12,-6179,3993,-2456,-625,268,174,1,7,11
1.72313E+12,-6163,3999,-2454,-590,-10,167,1,7,11
1.72313E+12,-6148,4008,-2448,-550,-27,163,1,7,11
1.72313E+12,-5876,4042,-2439,-249,-35,156,1,7,11
1.72313E+12,-5863,4066,-2686,-206,-43,156,1,7,11
1.72313E+12,-5852,4095,-2436,-149,-47,150,1,7,11
1.72313E+12,-5834,4372,-2442,-130,-50,136,1,7,11
1.72313E+12,-5822,4387,-2445,-376,-50,374,1,7,11
1.72313E+12,-5809,4407,-2444,-373,-41,350,1,7,11
1.72313E+12,-5808,4423,-2450,-375,-35,332,1,7,11
1.72313E+12,-5802,4440,-2449,-384,-36,317,1,7,11
1.72313E+12,-5788,4448,-2443,-151,-36,298,1,7,11
1.72313E+12,-5777,4445,-2437,-169,-29,273,1,7,11
1.72313E+12,-5770,4459,-2688,-184,-24,-11,1,7,11
1.72313E+12,-5789,4469,-2686,-202,-23,-39,1,7,11
1.72313E+12,-5806,4475,-2433,-221,-28,-57,1,7,11
1.72313E+12,-5801,4474,-2436,-228,-46,-63,1,7,11
1.72313E+12,-5790,4478,-2442,-220,-56,-65,1,7,11
1.72313E+12,-5778,4227,-2445,-208,-53,-64,1,7,11
1.72313E+12,-5766,4230,-2446,-196,-50,-62,1,7,11
1.72313E+12,-6001,4234,-2450,-181,-49,-59,1,7,11
1.72313E+12,-5998,4239,-2448,-164,-42,-58,1,7,11
1.72313E+12,-6007,4233,-2441,-146,-43,-56,1,7,11
1.72313E+12,-6013,4234,-2674,-378,-60,-51,1,7,11
1.72313E+12,-5765,4235,-2668,-337,-96,-50,1,7,11
1.72313E+12,-5768,4244,-2665,-302,-120,-45,1,7,11
1.72313E+12,-6002,4252,-2663,-275,100,-28,1,7,11
1.72313E+12,-5965,4275,-2676,6,92,-24,1,7,11
1.72313E+12,-5947,4314,-2435,6,103,-28,1,7,11
1.72313E+12,-5945,4341,-2447,-276,123,-37,1,7,11
1.72313E+12,-5964,4609,-2449,-310,-121,-44,1,7,11
1.72313E+12,-5975,4349,-2437,-345,125,-48,1,7,11
1.72313E+12,-5973,4334,-2677,-360,101,-56,1,7,11
1.72313E+12,-5961,4325,-2672,-353,75,-65,1,7,11
1.72313E+12,-5955,4316,-2660,-330,63,-78,1,7,11
1.72313E+12,-5956,4314,-2650,-301,63,-88,1,7,11
1.72313E+12,-5957,4311,-2646,-271,56,-92,1,7,11
1.72313E+12,-5961,4313,-2648,18,48,-95,1,7,11
1.72313E+12,-5966,4322,-2653,42,41,-97,1,7,11
1.72313E+12,-5972,4325,-2641,65,32,-98,1,7,11
1.72313E+12,-5971,4333,-2642,75,20,-97,1,7,11
1.72313E+12,-5977,4334,-2649,73,11,-99,1,7,11
1.72313E+12,-5974,4335,-2638,66,5,-99,1,7,11
1.72313E+12,-5979,4334,-2630,50,0,-100,1,7,11
1.72313E+12,-5975,4334,-2624,36,-261,-103,1,7,11
1.72313E+12,-5970,4330,-2615,23,-262,-106,1,7,11
1.72313E+12,-5976,4331,-2607,8,0,-112,1,7,11
1.72313E+12,-5972,4325,-2612,3,7,-117,1,7,11
1.72313E+12,-5970,4335,-2610,4,17,-122,1,7,11
1.72313E+12,-5968,4339,-2601,-258,24,-126,1,7,11
1.72313E+12,-5978,4340,-2602,-260,40,119,1,7,11
1.72313E+12,-5988,4341,-2602,-268,52,114,1,7,11
1.72313E+12,-5987,4328,-2596,-280,46,103,1,7,11
1.72313E+12,-5992,4329,-2589,-283,41,90,1,7,11
1.72313E+12,-5997,4334,-2586,-291,33,79,1,7,11
1.72313E+12,-6016,4332,-2579,-307,16,69,1,7,11
1.72313E+12,-5779,4328,-2577,-319,-259,60,1,7,11
1.72313E+12,-5772,4324,-2570,-325,-282,65,1,7,11
1.72313E+12,-5766,4322,-2573,-325,-288,66,1,7,11
1.72313E+12,-6016,4319,-2562,-314,-283,74,1,7,11
1.72313E+12,-6007,4323,-2290,-302,-273,82,1,7,11
1.72313E+12,-6010,4323,-2281,-288,-260,92,1,7,11
1.72313E+12,-6006,4320,-2274,-278,1,107,1,7,11
1.72313E+12,-5998,4326,-2257,-273,1,114,1,7,11
1.72313E+12,-5988,4330,-2247,-263,2,116,1,7,11
1.72313E+12,-5994,4337,-2251,1,20,112,1,7,11
1.72313E+12,-6006,4346,-2252,2,30,109,1,7,11
1.72313E+12,-5763,4350,-2244,2,36,105,1,7,11
1.72313E+12,-6011,4350,-2243,3,33,106,1,7,11
1.72313E+12,-6011,4351,-2239,4,40,97,1,7,11
1.72313E+12,-6015,4349,-2237,0,42,86,1,7,11
1.72313E+12,-6014,4350,-2235,1,51,71,1,7,11
1.72313E+12,-5764,4350,-2236,0,64,62,1,7,11
1.72313E+12,-5771,4343,-2229,-261,68,52,1,7,11
1.72313E+12,-5774,4345,-2231,-258,73,40,1,7,11
1.72313E+12,-5771,4347,-2236,-260,76,37,1,7,11
1.72313E+12,-5779,4346,-2232,-261,88,39,1,7,11
1.72313E+12,-5788,4343,-2235,-275,95,44,1,7,11
1.72313E+12,-5795,4330,-2229,-273,98,46,1,7,11
1.72313E+12,-5801,4326,-2230,-261,96,52,1,7,11
1.72313E+12,-5802,4317,-2222,10,91,55,1,7,11
1.72313E+12,-5807,4316,-2213,32,86,60,1,7,11
1.72313E+12,-5806,4315,-2210,42,76,63,1,7,11
1.72313E+12,-5800,4315,-2208,51,70,64,1,7,11
1.72313E+12,-5802,4318,-2217,62,67,66,1,7,11
1.72313E+12,-5808,4319,-2226,66,65,68,1,7,11
1.72313E+12,-5798,4315,-2221,64,62,70,1,7,11
1.72313E+12,-5792,4317,-2219,60,62,67,1,7,11
1.72313E+12,-5790,4312,-2226,64,71,61,1,7,11
1.72313E+12,-5794,4320,-2236,65,73,54,1,7,11
1.72313E+12,-5795,4319,-2235,61,78,53,1,7,11
1.72313E+12,-5801,4318,-2222,61,90,56,1,7,11
1.72313E+12,-5827,4329,-2224,64,104,74,1,7,11
1.72313E+12,-5857,4347,-2232,72,95,99,1,7,11
1.72313E+12,-5862,4614,-2247,68,52,122,1,7,11
1.72313E+12,-5844,4346,-2254,67,6,126,1,7,11
1.72313E+12,-5837,4337,-2262,91,-289,115,1,7,11
1.72313E+12,-5865,4341,-2281,-122,-334,94,1,7,11
1.72313E+12,-5861,4332,-2563,-82,-161,70,1,7,11
1.72313E+12,-5866,4325,-2573,-17,-221,41,1,7,11
1.72313E+12,-5879,4321,-2561,318,-531,7,1,7,11
1.72313E+12,-5888,4293,-2273,136,-631,-278,1,7,11
1.72313E+12,-6168,4263,-2238,232,-410,-314,1,7,11
1.72313E+12,-6198,4475,-2194,604,-508,-365,1,7,11
1.72313E+12,-6249,4431,-2428,499,-688,-161,1,7,11
1.72313E+12,-6030,4412,-2180,1070,-1123,-205,1,7,11
1.72313E+12,-6272,4375,-2203,1312,-1334,-532,1,7,11
1.72313E+12,-6244,4372,-2267,1592,-1279,-403,1,7,11
1.72313E+12,-6212,4352,-2571,1842,-1444,-856,1,7,11
1.72313E+12,-6031,4352,-2606,2097,-1808,-1082,1,7,11
1.72313E+12,-6104,4088,-2638,2038,-1718,-1017,1,7,11
1.72313E+12,-6408,4041,-2672,2412,-2174,-1180,1,7,11
1.72313E+12,-6445,3989,-2439,2232,-2365,-1572,1,7,11
1.72313E+12,-6438,4176,-2459,2260,-2268,-1430,1,7,11
1.72313E+12,-6435,4112,-2461,2271,-2587,-1804,1,7,11
1.72313E+12,-6414,3785,-2434,2231,-2596,-1901,1,7,11
1.72313E+12,-6456,3942,-2627,2400,-2277,-1730,1,7,11
1.72313E+12,-6524,3860,-2563,2026,-2233,-1761,1,7,11
1.72313E+12,-6275,3497,-2242,2130,-2231,-1732,1,7,11
1.72313E+12,-6307,3644,-2430,1737,-2180,-1911,1,7,11
1.72313E+12,-6379,3277,-2363,1852,-2335,-1504,1,7,11
1.72313E+12,-6692,3353,-2018,1436,-1966,-1548,1,7,11
1.72313E+12,-6774,2955,-1953,1593,-2068,-1302,1,7,11
1.72313E+12,-6587,3099,-1949,1542,-1667,-757,1,7,11
1.72313E+12,-6597,2786,-1947,1537,-1797,-487,1,7,11
1.72313E+12,-6587,2765,-1931,1595,-1594,-253,1,7,11
1.72313E+12,-6625,2755,-2145,1658,-1308,-265,1,7,11
1.72313E+12,-7011,2810,-2133,1469,-1041,-20,1,7,11
1.72313E+12,-6812,3128,-2116,1506,-1035,535,1,7,11
1.72313E+12,-6996,3115,-2093,1864,-1033,511,1,7,11
1.72313E+12,-7040,3148,-2070,1773,-688,678,1,7,11
1.72313E+12,-6801,3151,-1786,1968,-702,1039,1,7,11
1.72313E+12,-6814,2986,-1789,2231,-718,1073,1,7,11
1.72313E+12,-6852,3404,-2054,2682,-751,1103,1,7,11
1.72313E+12,-6837,3272,-1782,2484,-1110,1139,1,7,11
1.72313E+12,-7035,3693,-1729,2471,-903,912,1,7,11
1.72313E+12,-6872,3511,-1697,2633,-1140,937,1,7,11
1.72313E+12,-7028,3517,-1866,2405,-953,955,1,7,11
1.72313E+12,-6961,3531,-1816,2144,-1236,1099,1,7,11
1.72313E+12,-6945,3523,-1497,1843,-911,683,1,7,11
1.72313E+12,-6603,3490,-1446,1232,-1090,485,1,7,11
1.72313E+12,-6804,3320,-1620,723,-698,516,1,7,11
1.72313E+12,-6544,3512,-1473,596,-1117,260,1,7,11
1.72313E+12,-6579,3313,-1422,-57,-806,47,1,7,11
1.72313E+12,-6594,3620,-1434,-338,-558,42,1,7,11
1.72313E+12,-6545,3299,-1442,-799,-365,-129,1,7,11
1.72313E+12,-7006,2962,-1605,-1065,264,-357,1,7,11
1.72313E+12,-6834,3420,-1486,-710,375,117,1,7,11
1.72313E+12,-7017,3423,-1820,-1331,287,50,1,7,11
1.72313E+12,-6928,3378,-1872,-1428,154,4,1,7,11
1.72313E+12,-6975,3379,-1684,-2057,629,-131,1,7,11
1.72313E+12,-6786,2999,-1668,-2183,797,-351,1,7,11
1.72313E+12,-6870,3102,-1894,-2244,741,-111,1,7,11
1.72313E+12,-7270,3084,-1919,-2325,740,256,1,7,11
1.72313E+12,-7079,2738,-1901,-2056,795,348,1,7,11
1.72313E+12,-7089,2800,-1909,-1423,608,216,1,7,11
1.72313E+12,-7103,3121,-1883,-1400,172,630,1,7,11
1.72313E+12,-7065,3171,-1846,-944,-21,813,1,7,11
1.72313E+12,-7276,3165,-1523,-1044,60,747,1,7,11
1.72313E+12,-6912,3172,-1468,-854,-331,924,1,7,11
1.72313E+12,-6805,3023,-1437,-630,-375,994,1,7,11
1.72313E+12,-6983,3449,-1431,-589,-377,941,1,7,11
1.72313E+12,-6930,3203,-1633,-393,-378,1066,1,7,11
1.72313E+12,-6629,3293,-1639,-547,-327,648,1,7,11
1.72313E+12,-6940,3584,-1632,-175,-280,389,1,7,11
1.72313E+12,-7022,3686,-1418,71,-291,209,1,7,11
1.72313E+12,-6817,3693,-1423,-36,-179,-1,1,7,11
1.72313E+12,-6831,3674,-1421,380,-576,68,1,7,11
1.72313E+12,-6858,3703,-1425,223,-422,-146,1,7,11
1.72313E+12,-6892,3515,-1646,244,-508,-390,1,7,11
1.72313E+12,-6874,3896,-1589,622,-816,-455,1,7,11
1.72313E+12,-6881,3775,-1579,231,-812,-862,1,7,11
1.72313E+12,-6881,3771,-1247,-45,-830,-865,1,7,11
1.72313E+12,-6860,3960,-1401,52,-469,-638,1,7,11
1.72313E+12,-6837,3924,-1023,-186,-624,-219,1,7,11
1.72313E+12,-7214,3260,-1061,-386,-611,-160,1,7,11
1.72313E+12,-7190,3441,-1073,-239,-409,-536,1,7,11
1.72313E+12,-6910,3374,-1049,-315,-631,-779,1,7,11
1.72313E+12,-7204,3259,-1102,113,-608,-1067,1,7,11
1.72313E+12,-6878,3210,-1120,17,-426,-1250,1,7,11
1.72313E+12,-7226,3345,-902,-156,-523,-2099,1,7,11
1.72313E+12,-7108,2990,-902,-207,-188,-2401,1,7,11
1.72313E+12,-7490,3158,-919,-209,-366,-2289,1,7,11
1.72313E+12,-7346,3107,-933,-206,-266,-2286,1,7,11
1.72313E+12,-7682,2753,-949,-245,63,-2231,1,7,11
1.72313E+12,-7736,2914,-978,-230,-116,-2364,1,7,11
1.72313E+12,-7415,2901,-1023,-180,-83,-1981,1,7,11
1.72313E+12,-7315,2855,-1318,-189,-10,-2136,1,7,11
1.72313E+12,-7519,2531,-1345,-225,145,-1745,1,7,11
1.72313E+12,-7509,2505,-1345,-540,565,-1853,1,7,11
1.72313E+12,-7519,2656,-1298,-632,583,-1461,1,7,11
1.72313E+12,-7452,2218,-1017,-415,558,-1465,1,7,11
1.72313E+12,-7540,2310,-984,-627,569,-1467,1,7,11
1.72313E+12,-7513,2093,-960,-251,174,-1525,1,7,11
1.72313E+12,-7538,1894,-928,-293,132,-1886,1,7,11
1.72313E+12,-7317,1795,-916,-58,151,-1677,1,7,11
1.72313E+12,-7380,1467,-915,330,194,-1691,1,7,11
1.72313E+12,-7770,1496,-943,189,539,-1857,1,7,11
1.72313E+12,-7637,1797,-1309,233,636,-1624,1,7,11
1.72313E+12,-7672,1816,-1156,203,452,-1360,1,7,11
1.72313E+12,-7587,1886,-1258,165,777,-1120,1,7,11
1.72313E+12,-7798,1749,-1660,359,665,-879,1,7,11
1.72313E+12,-7753,1758,-1431,-73,1025,-606,1,7,11
1.72313E+12,-7386,1859,-1422,39,1108,-369,1,7,11
1.72313E+12,-7464,1425,-1618,30,904,37,1,7,11
1.72313E+12,-7137,1422,-1608,-89,1101,-272,1,7,11
1.72313E+12,-7106,1463,-1635,-27,764,-281,1,7,11
1.72313E+12,-7059,1431,-1420,-45,656,-274,1,7,11
1.72313E+12,-7056,1659,-1489,-10,847,36,1,7,11
1.72313E+12,-7049,1632,-1803,304,810,90,1,7,11
1.72313E+12,-7275,1585,-1804,377,818,117,1,7,11
1.72313E+12,-7101,1641,-1491,555,652,-93,1,7,11
1.72313E+12,-7437,1475,-1431,448,678,273,1,7,11
1.72313E+12,-7456,1814,-1634,789,671,201,1,7,11
1.72313E+12,-7548,1887,-1587,836,690,428,1,7,11
1.72313E+12,-7481,1692,-1240,876,851,710,1,7,11
1.72313E+12,-7157,1739,-1401,714,846,941,1,7,11
1.72313E+12,-7100,2099,-1366,1104,871,1195,1,7,11
1.72313E+12,-7214,2009,-1157,972,874,1419,1,7,11
1.72313E+12,-6987,2422,-1279,1328,681,1828,1,7,11
1.72313E+12,-6720,2642,-1476,1171,896,1913,1,7,11
1.72313E+12,-6312,2832,-1688,1167,1549,1666,1,7,11
1.72313E+12,-6310,2785,-1932,1389,1720,1664,1,7,11
1.72313E+12,-6522,3184,-2199,1322,2329,1884,1,7,11
1.72313E+12,-6333,3336,-2485,1020,2443,1805,1,7,11
1.72313E+12,-6368,3432,-2718,921,2849,1415,1,7,11
1.72313E+12,-6344,3229,-2950,1095,2875,1221,1,7,11
1.72313E+12,-6351,3237,-3439,744,2532,1007,1,7,11
1.72313E+12,-6293,3446,-3595,883,2298,1044,1,7,11
1.72313E+12,-6504,3218,-3700,810,2323,869,1,7,11
1.72313E+12,-6442,3212,-3525,403,2066,788,1,7,11
1.72313E+12,-6099,3354,-3534,245,1857,485,1,7,11
1.72313E+12,-6079,3070,-3532,190,1452,434,1,7,11
1.72313E+12,-6032,3059,-3520,376,1252,394,1,7,11
1.72313E+12,-6247,3342,-3470,363,1380,611,1,7,11
1.72313E+12,-6231,3233,-3710,370,1314,402,1,7,11
1.72313E+12,-6244,3666,-3469,143,1329,497,1,7,11
1.72313E+12,-6078,3854,-3503,142,1379,876,1,7,11
1.72313E+12,-6123,3725,-3527,301,1366,742,1,7,11
1.72313E+12,-6053,3797,-3842,-76,1315,1047,1,7,11
1.72313E+12,-5887,3797,-3895,27,1307,724,1,7,11
1.72313E+12,-5788,3788,-3938,-353,1193,813,1,7,11
1.72313E+12,-5833,3727,-3966,-234,1425,611,1,7,11
1.72313E+12,-6201,3886,-3727,-606,1869,160,1,7,11
1.72313E+12,-6029,3478,-3720,-414,1699,-36,1,7,11
1.72313E+12,-6092,3326,-3752,-387,1721,39,1,7,11
1.72313E+12,-6087,3442,-3808,-566,1906,-146,1,7,11
1.72313E+12,-6264,3068,-4136,-229,1530,-577,1,7,11
1.72313E+12,-6220,2961,-4194,-173,1453,-471,1,7,11
1.72313E+12,-6271,3145,-3980,-361,1660,-794,1,7,11
1.72313E+12,-6045,3088,-4010,-326,1270,-784,1,7,11
1.72313E+12,-6086,2776,-4002,-308,1358,-507,1,7,11
1.72313E+12,-6141,2744,-3976,-279,902,-451,1,7,11
1.72313E+12,-6441,2722,-4153,1,681,-627,1,7,11
1.72313E+12,-6466,2709,-3784,38,448,-253,1,7,11
1.72313E+12,-6424,2937,-3941,60,204,-382,1,7,11
1.72313E+12,-6056,2901,-3882,63,-8,-283,1,7,11
1.72313E+12,-6198,2878,-3855,44,-111,28,1,7,11
1.72313E+12,-5871,2832,-3561,-270,-119,48,1,7,11
1.72313E+12,-5816,2503,-3538,-344,-74,36,1,7,11
1.72313E+12,-5811,2450,-3542,-134,258,-265,1,7,11
1.72313E+12,-5796,2665,-3842,-179,312,-311,1,7,11
1.72313E+12,-5782,2627,-3894,-217,381,-364,1,7,11
1.72313E+12,-5826,2649,-3965,-244,200,-145,1,7,11
1.72313E+12,-6155,2681,-3750,-569,250,-379,1,7,11
1.72313E+12,-6225,2441,-3789,-625,228,-294,1,7,11
1.72313E+12,-6253,2460,-3825,-391,164,79,1,7,11
1.72313E+12,-6271,2475,-3830,-399,360,-68,1,7,11
1.72313E+12,-6052,2520,-3818,-626,322,303,1,7,11
1.72313E+12,-6029,2825,-3790,-602,-11,155,1,7,11
1.72313E+12,-6236,2877,-3760,-582,-62,228,1,7,11
1.72313E+12,-6175,2929,-3726,-574,-81,538,1,7,11
1.72313E+12,-5838,2728,-3715,-577,-80,563,1,7,11
1.72313E+12,-6015,2752,-3961,-603,-49,554,1,7,11
1.72313E+12,-5891,2777,-3968,-586,176,204,1,7,11
1.72313E+12,-5607,2766,-3734,-573,255,143,1,7,11
1.72313E+12,-5600,2744,-3752,-550,592,340,1,7,11
1.72313E+12,-5626,2737,-3782,-514,404,291,1,7,11
1.72313E+12,-5928,2724,-3802,-234,439,259,1,7,11
1.72313E+12,-5944,2711,-3828,-203,435,-5,1,7,11
1.72313E+12,-5935,2736,-4112,-164,408,-16,1,7,11
1.72313E+12,-5941,2778,-4124,-135,388,-35,1,7,11
1.72313E+12,-5949,3085,-4138,-129,618,-35,1,7,11
1.72313E+12,-5923,3108,-4157,-171,566,-31,1,7,11
1.72313E+12,-5631,3109,-4167,-230,532,-19,1,7,11
1.72313E+12,-5597,3089,-4179,-542,517,256,1,7,11
1.72313E+12,-5588,2811,-4190,-583,525,281,1,7,11
1.72313E+12,-5592,2798,-4201,-599,537,315,1,7,11
1.72313E+12,-5620,2803,-4200,-591,541,348,1,7,11
1.72313E+12,-5909,3092,-4197,-559,533,129,1,7,11
1.72313E+12,-5941,3148,-4190,-253,250,168,1,7,11
1.72313E+12,-5940,2972,-4201,-202,201,225,1,7,11
1.72313E+12,-5911,3039,-4207,-191,134,529,1,7,11
1.72313E+12,-5594,3052,-4207,-209,326,559,1,7,11
1.72313E+12,-5539,3035,-4216,-210,296,548,1,7,11
1.72313E+12,-5542,3021,-4212,-176,312,255,1,7,11
1.72313E+12,-5566,3029,-4196,-380,319,234,1,7,11
1.72313E+12,-5583,3040,-4166,-320,308,221,1,7,11
1.72313E+12,-5588,3328,-4141,3,289,220,1,7,11
1.72313E+12,-5599,3363,-4125,45,268,206,1,7,11
1.72313E+12,-5590,3395,-4109,62,-24,183,1,7,11
1.72313E+12,-5562,3424,-4097,67,-51,137,1,7,11
1.72313E+12,-5521,3454,-3825,52,-65,330,1,7,11
1.72313E+12,-5746,3214,-3808,9,-63,257,1,7,11
1.72313E+12,-5754,3204,-3797,-307,-40,-72,1,7,11
1.72313E+12,-5744,3439,-3796,-363,-32,-117,1,7,11
1.72313E+12,-5698,3393,-3809,-158,-20,99,1,7,11
1.72313E+12,-5697,3368,-3818,-190,286,75,1,7,11
1.72313E+12,-5726,3359,-3826,-195,359,72,1,7,11
1.72313E+12,-5754,3347,-3822,-188,144,-124,1,7,11
1.72313E+12,-5523,3340,-3831,-163,151,-76,1,7,11
1.72313E+12,-5530,3346,-3833,-384,354,-41,1,7,11
1.72313E+12,-5537,3368,-3832,-329,313,-15,1,7,11
1.72313E+12,-5530,3391,-3835,-245,272,256,1,7,11
1.72313E+12,-5752,3421,-4107,53,-23,272,1,7,11
1.72313E+12,-5693,3439,-4128,77,-52,280,1,7,11
1.72313E+12,-5634,3444,-4155,78,-47,278,1,7,11
1.72313E+12,-5341,3435,-4183,65,-20,268,1,7,11
1.72313E+12,-5347,3405,-4183,47,269,-11,1,7,11
1.72313E+12,-5370,3389,-4176,46,284,-26,1,7,11
1.72313E+12,-5647,3389,-4185,52,280,-26,1,7,11
1.72313E+12,-5657,3389,-4192,52,270,-16,1,7,11
1.72313E+12,-5665,3411,-4197,47,266,-9,1,7,11
1.72313E+12,-5676,3443,-4206,35,257,-4,1,7,11
1.72313E+12,-5689,3209,-4200,13,-6,-12,1,7,11
1.72313E+12,-5702,3228,-4192,-265,-26,-10,1,7,11
1.72313E+12,-5679,3243,-4188,-287,-60,-8,1,7,11
1.72313E+12,-5638,3249,-4190,-313,-85,-16,1,7,11
1.72313E+12,-5345,3243,-4199,-342,-82,-34,1,7,11
1.72313E+12,-5332,3232,-4200,-369,-53,-55,1,7,11
1.72313E+12,-5340,3214,-4199,-381,-10,-70,1,7,11
1.72313E+12,-5355,3453,-4196,-373,280,-72,1,7,11
1.72313E+12,-5369,3446,-4190,-352,296,-65,1,7,11
1.72313E+12,-5373,3445,-4187,-315,300,-48,1,7,11
1.72313E+12,-5634,3208,-4197,-266,312,-33,1,7,11
1.72313E+12,-5645,3240,-4206,18,317,-20,1,7,11
1.72313E+12,-5674,3267,-4204,25,302,-4,1,7,11
1.72313E+12,-5698,3279,-4191,11,259,266,1,7,11
1.72313E+12,-5702,3298,-4172,-267,-64,274,1,7,11
1.72313E+12,-5691,3307,-4158,-308,117,278,1,7,11
1.72313E+12,-5655,3316,-4149,-360,52,279,1,7,11
1.72313E+12,-5337,3303,-4137,-168,14,265,1,7,11
1.72313E+12,-5502,3280,-4132,-234,24,-23,1,7,11
1.72313E+12,-5326,3237,-4106,-537,291,-108,1,7,11
1.72313E+12,-5339,3242,-4119,-223,318,-80,1,7,11
1.72313E+12,-5325,3258,-4143,-146,341,-52,1,7,11
1.72313E+12,-5302,3287,-4176,-310,365,-35,1,7,11
1.72313E+12,-5264,3321,-4208,11,131,-46,1,7,11
1.72313E+12,-5254,3603,-3984,52,161,-84,1,7,11
1.72313E+12,-5276,3624,-3999,81,177,-122,1,7,11
1.72313E+12,-5295,3634,-4004,86,148,111,1,7,11
1.72313E+12,-5299,3634,-4008,80,349,97,1,7,11
1.72313E+12,-5280,3632,-4006,60,297,88,1,7,11
1.72313E+12,-5273,3624,-3995,25,261,78,1,7,11
1.72313E+12,-5280,3603,-3989,-263,-7,57,1,7,11
1.72313E+12,-5301,3322,-3974,-295,-10,39,1,7,11
1.72313E+12,-5299,3301,-4206,-325,-30,37,1,7,11
1.72313E+12,-5287,3295,-4197,-348,-38,36,1,7,11
1.72313E+12,-5282,3290,-4181,-371,-25,35,1,7,11
1.72313E+12,-5301,3298,-4173,-137,-3,40,1,7,11
1.72313E+12,-5309,3301,-4170,-170,-3,58,1,7,11
1.72313E+12,-5298,3289,-4163,-192,-10,75,1,7,11
1.72313E+12,-5271,3295,-4170,-188,-2,91,1,7,11
1.72313E+12,-5257,3296,-4174,-175,285,101,1,7,11
1.72313E+12,-5256,3294,-4190,-148,327,107,1,7,11
1.72313E+12,-5266,3304,-4215,-367,363,109,1,7,11
1.72313E+12,-5255,3320,-3989,-329,375,116,1,7,11
1.72313E+12,-5500,3327,-4016,-296,382,113,1,7,11
1.72313E+12,-5485,3586,-4029,-268,378,114,1,7,11
1.72313E+12,-5473,3323,-4040,10,365,107,1,7,11
1.72313E+12,-5482,3321,-4036,34,357,101,1,7,11
1.72313E+12,-5481,3592,-4039,59,335,102,1,7,11
1.72313E+12,-5482,3610,-4038,82,289,99,1,7,11
1.72313E+12,-5492,3623,-4046,80,259,107,1,7,11
1.72313E+12,-5478,3624,-4056,59,-51,127,1,7,11
1.72313E+12,-5430,3617,-4076,39,-93,-115,1,7,11
1.72313E+12,-5396,3603,-4090,31,-76,-116,1,7,11
1.72313E+12,-5432,3599,-4084,30,-30,-118,1,7,11
1.72313E+12,-5464,3597,-4066,41,-28,-108,1,7,11
1.72313E+12,-5503,3595,-4043,72,-49,-103,1,7,11
1.72313E+12,-5249,3611,-4030,110,-96,-95,1,7,11
1.72313E+12,-5483,3613,-4013,-119,118,-105,1,7,11
1.72313E+12,-5465,3616,-3999,-96,99,-127,1,7,11
1.72313E+12,-5472,3601,-3975,-87,93,95,1,7,11
1.72313E+12,-5490,3319,-4199,-76,80,63,1,7,11
1.72313E+12,-5489,3300,-4178,-57,61,49,1,7,11
1.72313E+12,-5459,3277,-4179,-46,54,48,1,7,11
1.72313E+12,-5403,3255,-4200,-31,83,46,1,7,11
1.72313E+12,-5104,3246,-3982,-16,-94,35,1,7,11
1.72313E+12,-5115,3236,-4020,-19,273,20,1,7,11
1.72313E+12,-5433,3228,-4046,-18,364,18,1,7,11
1.72313E+12,-5485,3231,-4084,-18,138,43,1,7,11
1.72313E+12,-5259,3241,-4363,-25,128,86,1,7,11
1.72313E+12,-5270,3272,-4377,-43,367,-114,1,7,11
1.72313E+12,-5271,3294,-4375,-71,342,-55,1,7,11
1.72313E+12,-5253,3313,-4378,-110,302,271,1,7,11
1.72313E+12,-5483,3599,-4371,88,-8,293,1,7,11
1.72313E+12,-5462,3619,-4362,38,-26,299,1,7,11
1.72313E+12,-5422,3633,-4357,-273,-40,292,1,7,11
1.72313E+12,-5414,3630,-4087,-324,-40,257,1,7,11
1.72313E+12,-5407,3619,-4067,-357,-43,-43,1,7,11
1.72313E+12,-5405,3617,-4062,-366,-42,-82,1,7,11
1.72313E+12,-5385,3596,-4063,-368,-41,-111,1,7,11
1.72313E+12,-5114,3325,-4071,-363,-15,111,1,7,11
1.72313E+12,-5377,3318,-4081,-349,271,89,1,7,11
1.72313E+12,-5119,3310,-4095,-335,292,81,1,7,11
1.72313E+12,-5116,3301,-4366,-318,315,77,1,7,11
1.72313E+12,-5386,3294,-4373,-298,333,87,1,7,11
1.72313E+12,-5393,3291,-4401,-277,325,108,1,7,11
1.72313E+12,-5403,3287,-4418,7,306,118,1,7,11
1.72313E+12,-5454,3306,-4429,45,271,-127,1,7,11
1.72313E+12,-5457,3304,-4453,62,-86,-107,1,7,11
1.72313E+12,-5420,3291,-4468,78,62,-95,1,7,11
1.72313E+12,-5397,3286,-4463,100,9,-88,1,7,11
1.72313E+12,-5399,3268,-4442,110,-259,-69,1,7,11
1.72313E+12,-5411,3246,-4413,-121,0,-29,1,7,11
1.72313E+12,-5430,3240,-4391,-84,0,286,1,7,11
1.72313E+12,-5457,3254,-4369,-47,-260,341,1,7,11
1.72313E+12,-5459,3293,-4087,-22,-286,383,1,7,11
1.72313E+12,-5452,3324,-4053,-18,-312,141,1,7,11
1.72313E+12,-5427,3592,-4038,-36,-333,379,1,7,11
1.72313E+12,-5105,3586,-4032,-79,-367,346,1,7,11
1.72313E+12,-5061,3311,-4034,118,-352,287,1,7,11
1.72313E+12,-5035,3294,-4053,97,-298,-7,1,7,11
1.72313E+12,-5053,3266,-4059,89,30,-37,1,7,11
1.72313E+12,-5439,3589,-4057,-19,35,348,1,7,11
1.72313E+12,-5119,3610,-4090,-1,-259,141,1,7,11
1.72313E+12,-5043,3630,-4384,278,17,164,1,7,11
1.72313E+12,-5016,3666,-4413,295,96,154,1,7,11
1.72313E+12,-5049,3690,-4435,283,-79,131,1,7,11
1.72313E+12,-5111,3707,-4434,272,-47,360,1,7,11
1.72313E+12,-5415,3468,-4412,-4,-89,337,1,7,11
1.72313E+12,-5438,3480,-4401,-34,86,305,1,7,11
1.72313E+12,-5434,3476,-4386,-72,-260,267,1,7,11
1.72313E+12,-5384,3470,-4372,-124,-325,-30,1,7,11
1.72313E+12,-5075,3699,-4367,75,-334,-82,1,7,11
1.72313E+12,-5053,3659,-4359,16,-287,-124,1,7,11
1.72313E+12,-5061,3618,-4088,-285,41,113,1,7,11
1.72313E+12,-5089,3318,-4070,-299,107,121,1,7,11
1.72313E+12,-5116,3290,-4048,-293,-104,-119,1,7,11
1.72313E+12,-5404,3284,-4038,-267,-87,-98,1,7,11
1.72313E+12,-5427,3305,-4040,29,-95,-74,1,7,11
1.72313E+12,-5442,3601,-4045,58,-116,-54,1,7,11
1.72313E+12,-5435,3636,-4048,74,107,-41,1,7,11
1.72313E+12,-5415,3666,-4047,78,82,-37,1,7,11
1.72313E+12,-5384,3692,-4046,71,68,-46,1,7,11
1.72313E+12,-5094,3705,-4046,46,62,-68,1,7,11
1.72313E+12,-5079,3707,-4045,20,90,-103,1,7,11
1.72313E+12,-5080,3710,-4041,-261,125,120,1,7,11
1.72313E+12,-5088,3456,-4039,-292,-101,88,1,7,11
1.72313E+12,-5093,3702,-4037,-321,-64,57,1,7,11
1.72313E+12,-5084,3690,-4040,-348,-41,36,1,7,11
1.72313E+12,-5067,3667,-4047,-373,-6,10,1,7,11
1.72313E+12,-5057,3663,-4054,-379,302,-269,1,7,11
1.72313E+12,-5054,3652,-4065,-130,353,-281,1,7,11
1.72313E+12,-5057,3641,-4079,-129,138,-284,1,7,11
1.72313E+12,-5063,3632,-4364,-378,161,-285,1,7,11
1.72313E+12,-5074,3630,-4376,-368,168,-285,1,7,11
1.72313E+12,-5075,3634,-4394,-357,162,-285,1,7,11
1.72313E+12,-5078,3638,-4414,-346,153,-287,1,7,11
1.72313E+12,-5083,3652,-4426,-353,137,-283,1,7,11
1.72313E+12,-5092,3645,-4437,-366,357,-275,1,7,11
1.72313E+12,-5075,3631,-4444,-377,325,-274,1,7,11
1.72313E+12,-5081,3618,-4453,-382,307,-277,1,7,11
1.72313E+12,-5087,3611,-4458,-379,293,-260,1,7,11
1.72313E+12,-5097,3595,-4460,-376,275,12,1,7,11
1.72313E+12,-5389,3599,-4451,-350,258,25,1,7,11
1.72313E+12,-5434,3606,-4435,-337,-35,41,1,7,11
1.72313E+12,-5450,3598,-4416,-341,-107,64,1,7,11
1.72313E+12,-5412,3589,-4399,-348,70,84,1,7,11
1.72313E+12,-5115,3326,-4388,-367,32,92,1,7,11
1.72313E+12,-5112,3307,-4379,-131,31,102,1,7,11
1.72313E+12,-5120,3299,-4365,-131,37,-123,1,7,11
1.72313E+12,-5377,3298,-4357,-368,37,-77,1,7,11
1.72313E+12,-5117,3298,-4357,-330,39,-38,1,7,11
1.72313E+12,-5384,3586,-4365,-278,54,-18,1,7,11
1.72313E+12,-5391,3617,-4367,17,61,-18,1,7,11
1.72313E+12,-5384,3644,-4360,38,49,-26,1,7,11
1.72313E+12,-5101,3668,-4096,40,29,-51,1,7,11
1.72313E+12,-5066,3684,-4096,32,22,-78,1,7,11
1.72313E+12,-5043,3701,-4084,6,35,-107,1,7,11
1.72313E+12,-5032,3706,-4073,-285,56,-122,1,7,11
1.72313E+12,-5025,3705,-4070,-317,76,-125,1,7,11
1.72313E+12,-5014,3694,-4055,-338,101,-126,1,7,11
1.72313E+12,-5008,3693,-4054,-342,-123,-122,1,7,11
1.72313E+12,-5005,3689,-4064,-323,-81,-108,1,7,11
1.72313E+12,-5240,3687,-4089,-299,-38,-90,1,7,11
1.72313E+12,-5000,3702,-4362,-277,271,-84,1,7,11
1.72313E+12,-5021,3466,-4380,-257,289,-77,1,7,11
1.72313E+12,-5063,3484,-4407,5,283,-89,1,7,11
1.72313E+12,-5113,3509,-4415,-271,-25,-93,1,7,11
1.72313E+12,-5402,3531,-4413,-308,-108,-99,1,7,11
1.72313E+12,-5417,3539,-4394,-366,56,-91,1,7,11
1.72313E+12,-5392,3540,-4378,-168,-289,-73,1,7,11
1.72313E+12,-5087,3517,-4371,-224,-338,-68,1,7,11
1.72313E+12,-5080,3481,-4090,-513,-339,-84,1,7,11
1.72313E+12,-5110,3699,-4070,-250,-308,-94,1,7,11
1.72313E+12,-5393,3664,-4051,-202,-307,-92,1,7,11
1.72313E+12,-5430,3644,-4030,-373,-309,-87,1,7,11
1.72313E+12,-5453,3643,-4020,-264,-322,-67,1,7,11
1.72313E+12,-5462,3672,-4011,104,-337,-60,1,7,11
1.72313E+12,-5455,3707,-3999,-64,-359,-69,1,7,11
1.72313E+12,-5437,3477,-3982,258,-380,-101,1,7,11
1.72313E+12,-5402,3496,-4220,303,-136,112,1,7,11
1.72313E+12,-5102,3506,-4187,323,-138,66,1,7,11
1.72313E+12,-5056,3495,-4164,312,-129,26,1,7,11
1.72313E+12,-5010,3471,-4159,293,-345,-273,1,7,11
1.72313E+12,-5003,3702,-4153,263,-272,-314,1,7,11
1.72313E+12,-5006,3676,-4159,-21,62,-350,1,7,11
1.72313E+12,-5244,3651,-4163,-52,118,-373,1,7,11
1.72313E+12,-5216,3631,-4196,-72,-58,-140,1,7,11
1.72313E+12,-5211,3627,-3975,-96,299,-161,1,7,11
1.72313E+12,-5216,3631,-4029,103,145,-178,1,7,11
1.72313E+12,-5246,3629,-4089,28,235,-212,1,7,11
1.72313E+12,-5034,3640,-4392,-295,560,-516,1,7,11
1.72313E+12,-5109,3673,-4425,-354,596,-544,1,7,11
1.72313E+12,-5457,3457,-4441,-148,577,-524,1,7,11
1.72313E+12,-5262,3485,-4448,-195,236,-195,1,7,11
1.72313E+12,-5274,3499,-4456,-237,374,-356,1,7,11
1.72313E+12,-5492,3498,-4421,-522,272,-277,1,7,11
1.72313E+12,-5462,3492,-4381,-529,-72,46,1,7,11
1.72313E+12,-5431,3471,-4089,-528,-123,64,1,7,11
1.72313E+12,-5425,3456,-4066,-512,103,61,1,7,11
1.72313E+12,-5437,3695,-4046,-236,86,64,1,7,11
1.72313E+12,-5422,3677,-4030,-214,70,83,1,7,11
1.72313E+12,-5393,3654,-4028,-194,83,90,1,7,11
1.72313E+12,-5394,3642,-4023,-159,126,76,1,7,11
1.72313E+12,-5417,3643,-4004,-133,-99,56,1,7,11
1.72313E+12,-5419,3646,-4002,-373,-94,48,1,7,11
1.72313E+12,-5410,3640,-4000,-371,-97,56,1,7,11
1.72313E+12,-5401,3620,-4007,-371,-85,70,1,7,11
1.72313E+12,-5417,3619,-4004,-357,-72,83,1,7,11
1.72313E+12,-5449,3630,-3997,-343,-80,95,1,7,11
1.72313E+12,-5469,3635,-3992,-335,-121,111,1,7,11
1.72313E+12,-5452,3647,-3979,-334,78,127,1,7,11
1.72313E+12,-5398,3656,-3981,-342,40,-115,1,7,11
1.72313E+12,-5096,3674,-3984,-352,63,-113,1,7,11
1.72313E+12,-5043,3680,-4001,-370,104,-100,1,7,11
1.72313E+12,-5038,3660,-4003,-133,-81,-100,1,7,11
1.72313E+12,-5042,3650,-4009,-380,-23,-92,1,7,11
1.72313E+12,-5082,3661,-4013,-348,274,-88,1,7,11
1.72313E+12,-5378,3687,-4029,-316,280,-68,1,7,11
1.72313E+12,-5399,3462,-4042,-287,-1,-41,1,7,11
1.72313E+12,-5391,3499,-4065,-265,-31,-25,1,7,11
1.72313E+12,-5114,3529,-4078,4,-44,-31,1,7,11
1.72313E+12,-5116,3554,-4072,6,-52,-52,1,7,11
1.72313E+12,-5108,3564,-4065,-257,-79,-74,1,7,11
1.72313E+12,-5087,3560,-4038,-268,-114,-104,1,7,11
1.72313E+12,-5057,3545,-4019,-276,123,118,1,7,11
1.72313E+12,-5052,3525,-4000,-286,-125,82,1,7,11
1.72313E+12,-5054,3499,-3978,-295,-112,60,1,7,11
1.72313E+12,-5051,3467,-3973,-296,-82,51,1,7,11
1.72313E+12,-5048,3702,-3979,-296,-40,60,1,7,11
1.72313E+12,-5053,3686,-3984,-293,263,79,1,7,11
1.72313E+12,-5091,3683,-3993,-276,323,117,1,7,11
1.72313E+12,-5116,3702,-4013,17,329,-112,1,7,11
1.72313E+12,-5378,3470,-4024,43,315,-80,1,7,11
1.72313E+12,-5393,3495,-4031,55,298,-56,1,7,11
1.72313E+12,-5115,3516,-4050,56,263,-26,1,7,11
1.72313E+12,-5070,3520,-4063,41,-17,-13,1,7,11
1.72313E+12,-5028,3514,-4075,20,-8,-14,1,7,11
1.72313E+12,-5012,3509,-4075,-258,286,-19,1,7,11
1.72313E+12,-5026,3490,-4074,-283,326,-17,1,7,11
1.72313E+12,-5043,3482,-4070,-296,341,-4,1,7,11
1.72313E+12,-5054,3489,-4074,-295,337,263,1,7,11
1.72313E+12,-5059,3501,-4093,-292,323,270,1,7,11
1.72313E+12,-5064,3519,-4089,-285,304,267,1,7,11
1.72313E+12,-5056,3543,-4080,-281,280,-1,1,7,11
1.72313E+12,-5051,3555,-4076,-279,256,-14,1,7,11
1.72313E+12,-5033,3568,-4076,-281,-31,-23,1,7,11
1.72313E+12,-5002,3567,-4066,-294,-54,-37,1,7,11
1.72313E+12,-5228,3563,-4053,-305,-64,-52,1,7,11
1.72313E+12,-5192,3550,-4057,-320,-62,-69,1,7,11
1.72313E+12,-5186,3540,-4059,-327,-37,-91,1,7,11
1.72313E+12,-5184,3544,-4075,-323,257,-99,1,7,11
1.72313E+12,-5187,3550,-4088,-319,297,-88,1,7,11
1.72313E+12,-5194,3543,-4366,-304,342,-70,1,7,11
1.72313E+12,-5218,3550,-4388,-271,383,-53,1,7,11
1.72313E+12,-5003,3562,-4404,25,134,-46,1,7,11
1.72313E+12,-5033,3840,-4412,60,351,-42,1,7,11
1.72313E+12,-5039,3867,-4409,78,281,-56,1,7,11
1.72313E+12,-5039,3888,-4389,74,-50,-79,1,7,11
1.72313E+12,-5018,3894,-4353,51,-123,-101,1,7,11
1.72313E+12,-5241,3893,-4078,14,85,-123,1,7,11
1.72313E+12,-5202,3865,-4064,-286,65,112,1,7,11
1.72313E+12,-5161,3580,-4065,-334,76,84,1,7,11
1.72313E+12,-5132,3544,-4067,-365,-126,50,1,7,11
1.72313E+12,-5166,3518,-4062,-376,-44,53,1,7,11
1.72313E+12,-5169,3499,-4071,-372,270,91,1,7,11
1.72313E+12,-5187,3502,-4081,-355,350,126,1,7,11
1.72313E+12,-5212,3524,-4356,-321,379,-95,1,7,11
1.72313E+12,-5246,3559,-4380,-258,377,-76,1,7,11
1.72313E+12,-5009,3845,-4397,18,341,-63,1,7,11
1.72313E+12,-4995,3878,-4398,32,276,-64,1,7,11
1.72313E+12,-5227,3908,-4393,22,-38,-80,1,7,11
1.72313E+12,-5192,3924,-4392,-259,-77,-102,1,7,11
1.72313E+12,-5154,3915,-4376,-297,-85,126,1,7,11
1.72313E+12,-5133,3901,-4378,-337,-73,105,1,7,11
1.72313E+12,-5129,3876,-4363,-367,-45,86,1,7,11
1.72313E+12,-5133,3851,-4359,-374,-14,75,1,7,11
1.72313E+12,-5140,3571,-4094,-361,273,77,1,7,11
1.72313E+12,-5146,3554,-4089,-332,302,90,1,7,11
1.72313E+12,-5150,3544,-4092,-291,328,108,1,7,11
1.72313E+12,-5159,3557,-4370,11,344,127,1,7,11
1.72313E+12,-5161,3580,-4381,43,345,-112,1,7,11
1.72313E+12,-5174,3858,-4390,56,328,-97,1,7,11
1.72313E+12,-5163,3880,-4405,53,287,-76,1,7,11
1.72313E+12,-4858,3894,-4429,34,-14,-59,1,7,11
1.72313E+12,-4816,3890,-4448,10,-19,-62,1,7,11
1.72313E+12,-4815,3875,-4456,-269,273,-79,1,7,11
1.72313E+12,-4832,3862,-4442,-276,296,-87,1,7,11
1.72313E+12,-4872,3866,-4433,-269,304,-95,1,7,11
1.72313E+12,-5169,3887,-4411,31,262,-66,1,7,11
1.72313E+12,-5152,3897,-4402,41,-30,-46,1,7,11
1.72313E+12,-4837,3906,-4414,49,-52,-37,1,7,11
1.72313E+12,-4813,3911,-4433,51,-25,-49,1,7,11
1.72313E+12,-4828,3923,-4436,39,268,-62,1,7,11
1.72313E+12,-4855,3909,-4426,24,277,-66,1,7,11
1.72313E+12,-5140,3895,-4417,27,257,-62,1,7,11
1.72313E+12,-5149,3883,-4399,42,-42,-54,1,7,11
1.72313E+12,-5164,3864,-4393,61,-85,-49,1,7,11
1.72313E+12,-5156,3849,-4393,105,-127,-38,1,7,11
1.72313E+12,-5123,3851,-4409,-102,96,-25,1,7,11
1.72313E+12,-4819,3867,-4423,-73,94,-27,1,7,11
1.72313E+12,-4812,3911,-4437,-65,-98,-53,1,7,11
1.72313E+12,-4832,3933,-4435,-95,-86,-68,1,7,11
1.72313E+12,-4846,3943,-4436,111,-113,-84,1,7,11
1.72313E+12,-4838,3957,-4439,63,114,-95,1,7,11
1.72313E+12,-4812,3962,-4450,8,100,-98,1,7,11
1.72313E+12,-4784,3962,-4453,-294,121,-107,1,7,11
1.72313E+12,-4771,3967,-4458,-319,-85,-118,1,7,11
1.72313E+12,-4779,3716,-4459,-345,-32,116,1,7,11
1.72313E+12,-4794,3965,-4454,-364,257,101,1,7,11
1.72313E+12,-4788,3952,-4456,-373,259,90,1,7,11
1.72313E+12,-4777,3935,-4458,-368,262,71,1,7,11
1.72313E+12,-4769,3925,-4460,-350,263,58,1,7,11
1.72313E+12,-4775,3916,-4455,-323,260,46,1,7,11
1.72313E+12,-4787,3906,-4464,-285,-8,40,1,7,11
1.72313E+12,-4793,3908,-4476,14,-30,34,1,7,11
1.72313E+12,-4790,3918,-4235,57,-55,26,1,7,11
1.72313E+12,-4798,3904,-4236,94,-64,12,1,7,11
1.72313E+12,-4793,3878,-4478,125,-85,2,1,7,11
1.72313E+12,-4804,3845,-4471,-86,-107,-285,1,7,11
1.72313E+12,-4802,3543,-4457,-31,121,-315,1,7,11
1.72313E+12,-4791,3512,-4452,297,104,-352,1,7,11
1.72313E+12,-4793,3490,-4441,369,113,-365,1,7,11
1.72313E+12,-4762,3474,-4469,174,126,-366,1,7,11
1.72313E+12,-4973,3709,-4261,216,-99,-373,1,7,11
1.72313E+12,-4979,3703,-4301,242,-6,-380,1,7,11
1.72313E+12,-4761,3701,-4339,233,339,-358,1,7,11
1.72313E+12,-4825,3699,-4610,202,137,-320,1,7,11
1.72313E+12,-5146,3703,-4616,168,146,-259,1,7,11
1.72313E+12,-5192,3473,-4618,137,373,75,1,7,11
1.72313E+12,-5211,3518,-4625,347,310,-99,1,7,11
1.72313E+12,-5196,3553,-4352,279,-28,-22,1,7,11
1.72313E+12,-5154,3577,-4337,-62,-112,298,1,7,11
1.72313E+12,-4844,3575,-4318,107,81,325,1,7,11
1.72313E+12,-4789,3570,-4297,45,53,319,1,7,11
1.72313E+12,-4747,3549,-4286,3,48,295,1,7,11
1.72313E+12,-4982,3532,-4283,-273,68,258,1,7,11
1.72313E+12,-4976,3516,-4282,-272,103,-21,1,7,11
1.72313E+12,-4980,3495,-4293,2,-110,-36,1,7,11
1.72313E+12,-4746,3480,-4310,38,-61,-47,1,7,11
1.72313E+12,-4776,3478,-4329,82,-36,-53,1,7,11
1.72313E+12,-4818,3477,-4339,107,-39,-68,1,7,11
1.72313E+12,-5122,3478,-4341,122,-81,-72,1,7,11
1.72313E+12,-5129,3473,-4342,121,90,-50,1,7,11
1.72313E+12,-4824,3460,-4340,115,14,-11,1,7,11
1.72313E+12,-4795,3707,-4339,105,2,285,1,7,11
1.72313E+12,-4799,3459,-4319,101,16,343,1,7,11
1.72313E+12,-4801,3474,-4305,108,19,148,1,7,11
1.72313E+12,-4810,3517,-4285,120,17,195,1,7,11
1.72313E+12,-4806,3550,-4256,120,7,219,1,7,11
1.72313E+12,-4820,3843,-4231,116,9,205,1,7,11
1.72313E+12,-4827,3904,-4469,115,5,170,1,7,11
1.72313E+12,-4770,3915,-4468,101,-284,337,1,7,11
1.72313E+12,-4970,3886,-4228,97,-277,258,1,7,11
1.72313E+12,-4923,3852,-4259,127,14,-69,1,7,11
1.72313E+12,-4898,3563,-4290,-76,86,126,1,7,11
1.72313E+12,-4912,3554,-4313,-5,-80,85,1,7,11
1.72313E+12,-4953,3562,-4324,305,-16,66,1,7,11
1.72313E+12,-4742,3582,-4337,342,256,72,1,7,11
1.72313E+12,-4757,3853,-4621,343,-26,90,1,7,11
1.72313E+12,-4762,3854,-4643,313,-65,100,1,7,11
1.72313E+12,-4749,3872,-4668,266,-88,110,1,7,11
1.72313E+12,-4982,3882,-4678,-60,-94,111,1,7,11
1.72313E+12,-4990,3881,-4683,116,-79,96,1,7,11
1.72313E+12,-4759,3884,-4679,45,-69,80,1,7,11
1.72313E+12,-4790,3862,-4639,-288,-86,63,1,7,11
1.72313E+12,-4811,3582,-4343,-345,-127,50,1,7,11
1.72313E+12,-4794,3552,-4326,-133,76,45,1,7,11
1.72313E+12,-4750,3510,-4317,-168,51,37,1,7,11
1.72313E+12,-4981,3461,-4298,-182,79,31,1,7,11
1.72313E+12,-4976,3667,-4296,-173,-119,40,1,7,11
1.72313E+12,-4747,3651,-4292,-380,-43,57,1,7,11
1.72313E+12,-4781,3672,-4285,-309,263,89,1,7,11
1.72313E+12,-4807,3702,-4305,10,277,123,1,7,11
1.72313E+12,-4821,3488,-4316,65,270,-106,1,7,11
1.72313E+12,-4805,3536,-4342,106,-16,-89,1,7,11
1.72313E+12,-4789,3564,-4615,117,-46,-112,1,7,11
1.72313E+12,-4774,3843,-4352,112,-86,99,1,7,11
1.72313E+12,-4754,3868,-4341,94,-121,43,1,7,11
1.72313E+12,-4991,3866,-4339,48,117,-268,1,7,11
1.72313E+12,-4972,3578,-4339,-261,112,-307,1,7,11
1.72313E+12,-4968,3544,-4323,-301,-122,-336,1,7,11
1.72313E+12,-4976,3506,-4305,-322,-88,-348,1,7,11
1.72313E+12,-4985,3480,-4297,-314,-48,-348,1,7,11
1.72313E+12,-4992,3471,-4296,-297,-10,-339,1,7,11
1.72313E+12,-4992,3465,-4300,-276,277,-323,1,7,11
1.72313E+12,-4987,3466,-4313,-258,311,-307,1,7,11
1.72313E+12,-4988,3470,-4333,13,340,-295,1,7,11
1.72313E+12,-4984,3486,-4622,23,355,-280,1,7,11
1.72313E+12,-4973,3492,-4652,21,353,-274,1,7,11
1.72313E+12,-4969,3486,-4672,3,346,-273,1,7,11
1.72313E+12,-4984,3477,-4688,-281,344,-274,1,7,11
1.72313E+12,-4744,3463,-4682,-316,330,-272,1,7,11
1.72313E+12,-4752,3709,-4680,-325,306,-268,1,7,11
1.72313E+12,-4755,3703,-4679,-324,277,1,1,7,11
1.72313E+12,-4750,3701,-4680,-318,-5,15,1,7,11
1.72313E+12,-4990,3687,-4673,-311,-20,29,1,7,11
1.72313E+12,-4985,3678,-4667,-298,-15,36,1,7,11
1.72313E+12,-4991,3676,-4676,-280,-7,47,1,7,11
1.72313E+12,-4744,3686,-4691,-257,-3,63,1,7,11
1.72313E+12,-4757,3698,-4702,16,-1,77,1,7,11
1.72313E+12,-4794,3461,-4711,22,-13,89,1,7,11
1.72313E+12,-4825,3475,-4695,10,-54,96,1,7,11
1.72313E+12,-4849,3478,-4678,-268,-115,104,1,7,11
1.72313E+12,-4810,3478,-4663,-294,62,120,1,7,11
1.72313E+12,-4975,3458,-4637,-333,68,112,1,7,11
1.72313E+12,-4970,3456,-4351,-333,116,112,1,7,11
1.72313E+12,-4970,3708,-4352,-324,-108,112,1,7,11
1.72313E+12,-4982,3710,-4613,-298,-84,107,1,7,11
1.72313E+12,-4987,3471,-4619,-263,-80,103,1,7,11
1.72313E+12,-4746,3494,-4623,16,-79,80,1,7,11
1.72313E+12,-4792,3520,-4628,18,-95,48,1,7,11
1.72313E+12,-4788,3540,-4628,4,102,24,1,7,11
1.72313E+12,-4992,3556,-4636,-286,48,5,1,7,11
1.72313E+12,-4946,3549,-4631,-336,56,-276,1,7,11
1.72313E+12,-4931,3537,-4627,-373,102,-293,1,7,11
1.72313E+12,-4926,3513,-4622,-145,-105,-296,1,7,11
1.72313E+12,-4937,3485,-4615,-146,-70,-282,1,7,11
1.72313E+12,-4942,3711,-4613,-129,-48,1,1,7,11
1.72313E+12,-4940,3683,-4351,-342,-32,36,1,7,11
1.72313E+12,-4946,3678,-4623,19,260,87,1,7,11
1.72313E+12,-4951,3692,-4636,90,278,117,1,7,11
1.72313E+12,-4963,3462,-4661,-100,289,-113,1,7,11
1.72313E+12,-4985,3497,-4678,-62,275,-97,1,7,11
1.72313E+12,-4760,3534,-4678,-59,-14,-99,1,7,11
1.72313E+12,-4780,3576,-4673,-90,-79,-101,1,7,11
1.72313E+12,-4774,3570,-4671,101,95,-114,1,7,11
1.72313E+12,-4972,3546,-4666,26,20,104,1,7,11
1.72313E+12,-4957,3508,-4653,-286,10,72,1,7,11
1.72313E+12,-4977,3468,-4645,-302,43,50,1,7,11
1.72313E+12,-4753,3459,-4649,-226,64,42,1,7,11
1.72313E+12,-4772,3497,-4665,80,74,33,1,7,11
1.72313E+12,-4775,3546,-4700,-78,78,18,1,7,11
1.72313E+12,-4784,3846,-4485,299,94,-282,1,7,11
1.72313E+12,-4825,3885,-4516,366,107,-364,1,7,11
1.72313E+12,-5126,3906,-4530,167,68,-214,1,7,11
1.72313E+12,-5148,3907,-4542,214,-279,-596,1,7,11
1.72313E+12,-4852,3870,-4569,227,-139,-483,1,7,11
1.72313E+12,-4818,3540,-4571,208,-208,-667,1,7,11
1.72313E+12,-4819,3696,-4535,183,-238,-1099,1,7,11
1.72313E+12,-4798,3305,-4736,142,-543,-983,1,7,11
1.72313E+12,-4778,3418,-4675,372,-563,-1338,1,7,11
1.72313E+12,-4759,3042,-4616,358,-538,-1378,1,7,11
1.72313E+12,-5009,2705,-4494,-364,603,-729,1,7,11
1.72313E+12,-5161,2710,-4867,-196,622,-672,1,7,11
1.72313E+12,-5143,2731,-4977,-534,458,-680,1,7,11
1.72313E+12,-5158,2760,-4830,-609,506,-676,1,7,11
1.72313E+12,-5214,2792,-5159,-406,497,-677,1,7,11
1.72313E+12,-5070,3096,-5198,-400,448,-887,1,7,11
1.72313E+12,-5464,3166,-5213,-602,569,-512,1,7,11
1.72313E+12,-5287,2948,-5198,-524,326,-581,1,7,11
1.72313E+12,-5295,2949,-5149,-144,38,-140,1,7,11
1.72313E+12,-5251,2946,-4808,25,-239,-264,1,7,11
1.72313E+12,-5468,2961,-4974,-25,-464,45,1,7,11
1.72313E+12,-5420,3004,-4867,178,-658,50,1,7,11
1.72313E+12,-5091,3039,-4493,590,-1067,21,1,7,11
1.72313E+12,-5017,3071,-4631,442,-898,-282,1,7,11
1.72313E+12,-5222,3349,-4286,501,-925,-336,1,7,11
1.72313E+12,-5216,3333,-4432,499,-910,-132,1,7,11
1.72313E+12,-5239,3041,-4375,478,-1136,-175,1,7,11
1.72313E+12,-5036,3010,-4088,458,-1101,-204,1,7,11
1.72313E+12,-5131,2988,-4057,424,-1078,-215,1,7,11
1.72313E+12,-5419,2964,-4061,626,-1056,-202,1,7,11
1.72313E+12,-5456,2947,-4086,527,-757,-198,1,7,11
1.72313E+12,-5503,2949,-4377,192,-686,-207,1,7,11
1.72313E+12,-5295,2968,-4427,369,-861,-222,1,7,11
1.72313E+12,-5356,3023,-4235,287,-782,-521,1,7,11
1.72313E+12,-5676,3345,-4301,-100,-503,-617,1,7,11
1.72313E+12,-5732,3418,-4627,5,-816,-792,1,7,11
1.72313E+12,-5573,3230,-4677,-166,-674,-1064,1,7,11
1.72313E+12,-5936,3309,-4715,-598,-1142,-1364,1,7,11
1.72313E+12,-6009,3598,-4486,-832,-1166,-1444,1,7,11
1.72313E+12,-5796,3586,-4730,-1072,-1474,-2054,1,7,11
1.72313E+12,-5806,3302,-4704,-1286,-1767,-2427,1,7,11
1.72313E+12,-5813,3263,-4650,-1227,-2007,-2546,1,7,11
1.72313E+12,-5847,3205,-4310,-1431,-2183,-3132,1,7,11
1.72313E+12,-6146,3364,-4465,-1900,-2574,-3394,1,7,11
1.72313E+12,-6145,2994,-4368,-2094,-2672,-3599,1,7,11
1.72313E+12,-6199,3142,-3984,-2016,-2433,-3544,1,7,11
1.72313E+12,-6026,2793,-4195,-2425,-2677,-3718,1,7,11
1.72313E+12,-6452,2715,-3810,-2290,-2651,-4123,1,7,11
1.72313E+12,-6347,2901,-3905,-2674,-2448,-4200,1,7,11
1.72313E+12,-6687,2525,-3512,-2817,-2850,-4213,1,7,11
1.72313E+12,-6746,2588,-3320,-2915,-2744,-4195,1,7,11
1.72313E+12,-6532,2390,-3407,-2882,-2816,-3811,1,7,11
1.72313E+12,-6533,1934,-2999,-2830,-3108,-3865,1,7,11
1.72313E+12,-6731,1739,-3093,-2507,-3075,-3645,1,7,11
1.72313E+12,-6696,1494,-2941,-2437,-2940,-3448,1,7,11
1.72313E+12,-6753,1239,-2514,-2300,-2481,-3016,1,7,11
1.72313E+12,-6570,1289,-2670,-2325,-2290,-3095,1,7,11
1.72313E+12,-6780,950,-2273,-1787,-2411,-2921,1,7,11
1.72313E+12,-6602,1002,-2189,-1801,-2106,-2515,1,7,11
1.72313E+12,-6903,1022,-2389,-1502,-1707,-2230,1,7,11
1.72313E+12,-6867,908,-2037,-1484,-1791,-2149,1,7,11
1.72313E+12,-7291,1114,-1988,-1638,-1704,-1665,1,7,11
1.72313E+12,-7290,1078,-2169,-1276,-1716,-1639,1,7,11
1.72313E+12,-7102,1123,-2087,-1356,-1830,-1225,1,7,11
1.72313E+12,-7484,950,-1754,-963,-1411,-990,1,7,11
1.72313E+12,-7506,927,-1678,-1099,-1589,-736,1,7,11
1.72313E+12,-7516,946,-1862,-894,-1221,-824,1,7,11
1.72313E+12,-7341,994,-1532,-447,-979,-443,1,7,11
1.72313E+12,-7681,1298,-1485,-414,-900,-638,1,7,11
1.72313E+12,-7422,1359,-1496,-416,-1116,-596,1,7,11
1.72313E+12,-7683,1214,-1808,-477,-750,-601,1,7,11
1.72313E+12,-7695,1598,-1834,-656,-855,-613,1,7,11
1.72313E+12,-7759,1603,-1881,-898,-493,-436,1,7,11
1.72313E+12,-7720,1656,-1866,-1296,-408,-808,1,7,11
