timestamp,ax,ay,az,gx,gy,gz,Label1,Label2,Label3
1.72313E+12,-5454,-6283,692,-214,378,136,1,7,11
1.72313E+12,-5469,-6291,674,-202,169,174,1,7,11
1.72313E+12,-5476,-6277,663,-165,202,218,1,7,11
1.72313E+12,-5491,-6278,651,-144,237,254,1,7,11
1.72313E+12,-5264,-6501,642,-364,521,556,1,7,11
1.72313E+12,-5282,-6464,876,-369,527,620,1,7,11
1.72313E+12,-5299,-6455,879,-163,529,452,1,7,11
1.72313E+12,-5305,-6454,890,-218,524,807,1,7,11
1.72313E+12,-5317,-6439,895,-521,532,659,1,7,11
1.72313E+12,-5336,-6438,894,-596,543,1055,1,7,11
1.72313E+12,-5354,-6468,872,-420,571,964,1,7,11
1.72313E+12,-5633,-6474,851,-470,614,1402,1,7,11
1.72313E+12,-5694,-6440,817,-512,407,1611,1,7,11
1.72313E+12,-5758,-6402,772,-828,431,1856,1,7,11
1.72313E+12,-5527,-6111,468,-641,438,2122,1,7,11
1.72313E+12,-5589,-6101,423,-699,475,2392,1,7,11
1.72313E+12,-5941,-6054,616,-696,776,2675,1,7,11
1.72313E+12,-5761,-6254,547,-679,809,2737,1,7,11
1.72313E+12,-5811,-6180,238,-869,883,3338,1,7,11
1.72313E+12,-6169,-5820,192,-496,735,3690,1,7,11
1.72313E+12,-6250,-5964,150,-635,1061,4117,1,7,11
1.72313E+12,-6074,-5580,367,-521,1131,4278,1,7,11
1.72313E+12,-6456,-5732,329,-186,933,4945,1,7,11
1.72313E+12,-6286,-5343,288,-348,961,5103,1,7,11
1.72313E+12,-6364,-5400,-13,2,970,5722,1,7,11
1.72313E+12,-6697,-5222,-45,42,976,5789,1,7,11
1.72313E+12,-6553,-4818,-72,49,996,6062,1,7,11
1.72313E+12,-6922,-4901,-110,94,1003,6276,1,7,11
1.72313E+12,-6803,-4664,87,-90,1007,6705,1,7,11
1.72313E+12,-7195,-4073,65,-97,929,6937,1,7,11
1.72313E+12,-7270,-4126,48,-128,904,7038,1,7,11
1.72313E+12,-7107,-3896,35,-118,900,6865,1,7,11
1.72313E+12,-7459,-3633,12,-83,915,7184,1,7,11
1.72313E+12,-7332,-3366,0,-85,949,7235,1,7,11
1.72313E+12,-7401,-3130,-272,-108,913,7288,1,7,11
1.72313E+12,-7412,-2879,-305,-86,907,7295,1,7,11
1.72313E+12,-7751,-2621,-338,-51,980,7278,1,7,11
1.72313E+12,-7570,-2405,-367,-6,1301,7264,1,7,11
1.72313E+12,-7951,-2154,-384,365,1380,7201,1,7,11
1.72313E+12,-8034,-1870,-131,239,1369,6903,1,7,11
1.72313E+12,-8055,-1594,-135,628,1316,6860,1,7,11
1.72313E+12,-8041,-1329,-180,504,996,6815,1,7,11
1.72313E+12,-8010,-1067,-230,876,961,6991,1,7,11
1.72313E+12,-8015,-813,-514,719,950,6595,1,7,11
1.72313E+12,-8006,-558,-541,1052,912,6656,1,7,11
1.72313E+12,-7976,-327,-576,1100,1102,6133,1,7,11
1.72313E+12,-7975,-65,-619,907,1067,5800,1,7,11
1.72313E+12,-7980,225,-415,936,746,5702,1,7,11
1.72313E+12,-7675,502,-467,906,890,5078,1,7,11
1.72313E+12,-7664,934,-791,705,773,4624,1,7,11
1.72313E+12,-7628,1337,-817,846,457,4048,1,7,11
1.72313E+12,-7596,1215,-832,768,444,3718,1,7,11
1.72313E+12,-7593,1632,-857,478,463,3645,1,7,11
1.72313E+12,-7591,1531,-886,632,458,3061,1,7,11
1.72313E+12,-7588,1885,-646,205,432,2741,1,7,11
1.72313E+12,-7588,1716,-671,326,401,2677,1,7,11
1.72313E+12,-7581,2080,-696,-36,594,2340,1,7,11
1.72313E+12,-7574,2171,-717,117,538,1769,1,7,11
1.72313E+12,-7582,1970,-728,27,224,1479,1,7,11
1.72313E+12,-7582,2000,-739,-298,168,1215,1,7,11
1.72313E+12,-7570,2010,-755,-355,373,991,1,7,11
1.72313E+12,-7579,1996,-763,-174,345,1073,1,7,11
1.72313E+12,-7586,1975,-1017,-238,321,667,1,7,11
1.72313E+12,-7578,1957,-756,-540,267,870,1,7,11
1.72313E+12,-7603,1939,-734,-555,-5,838,1,7,11
1.72313E+12,-7610,2161,-700,-586,-73,823,1,7,11
1.72313E+12,-7603,2131,-684,-592,104,778,1,7,11
1.72313E+12,-7601,2113,-672,-597,29,477,1,7,11
1.72313E+12,-7574,2076,-647,-593,-296,409,1,7,11
1.72313E+12,-7568,2054,-877,-567,-315,578,1,7,11
1.72313E+12,-7794,1775,-882,-536,-319,252,1,7,11
1.72313E+12,-7760,1752,-880,-228,-259,181,1,7,11
1.72313E+12,-7777,1743,-864,-161,100,374,1,7,11
1.72313E+12,-7797,1742,-864,-342,-74,330,1,7,11
1.72313E+12,-7593,1741,-866,-270,258,298,1,7,11
1.72313E+12,-7639,1737,-849,44,298,283,1,7,11
1.72313E+12,-7944,1758,-846,117,304,276,1,7,11
1.72313E+12,-7961,2053,-878,-77,265,288,1,7,11
1.72313E+12,-7663,2060,-690,288,-51,298,1,7,11
1.72313E+12,-7618,2095,-724,245,-39,262,1,7,11
1.72313E+12,-7631,1929,-745,430,257,-93,1,7,11
1.72313E+12,-7615,1984,-1035,453,-32,26,1,7,11
1.72313E+12,-7617,1683,-699,-182,-344,-580,1,7,11
1.72313E+12,-7620,1907,-685,-513,-358,-552,1,7,11
1.72313E+12,-7597,1884,-668,-570,-369,-538,1,7,11
1.72313E+12,-7585,1855,-889,-627,-361,-228,1,7,11
1.72313E+12,-7594,1835,-870,-415,-298,-144,1,7,11
1.72313E+12,-7615,1792,-845,-445,53,-314,1,7,11
1.72313E+12,-7640,1507,-821,-442,85,3,1,7,11
1.72313E+12,-7650,1493,-815,-605,85,19,1,7,11
1.72313E+12,-7669,1487,-798,-247,103,17,1,7,11
1.72313E+12,-7970,1492,-783,-131,108,-262,1,7,11
1.72313E+12,-7986,1503,-779,-263,74,-286,1,7,11
1.72313E+12,-7956,1670,-829,302,51,14,1,7,11
1.72313E+12,-7960,1701,-850,270,57,87,1,7,11
1.72313E+12,-7982,1688,-848,-66,36,-117,1,7,11
1.72313E+12,-7990,1665,-821,119,-261,-73,1,7,11
1.72313E+12,-7978,1906,-811,91,-305,-57,1,7,11
1.72313E+12,-7974,1886,-805,64,-332,-82,1,7,11
1.72313E+12,-7938,1804,-802,88,-362,-120,1,7,11
1.72313E+12,-7659,1529,-799,-58,-346,71,1,7,11
1.72313E+12,-7644,1794,-805,281,-306,25,1,7,11
1.72313E+12,-7635,1529,-795,344,1,-264,1,7,11
1.72313E+12,-7630,1502,-783,170,76,-274,1,7,11
1.72313E+12,-7655,1492,-774,520,-106,-289,1,7,11
1.72313E+12,-7670,1523,-776,594,-73,-295,1,7,11
1.72313E+12,-7958,1511,-779,541,-80,-309,1,7,11
1.72313E+12,-7945,1828,-807,542,123,-275,1,7,11
1.72313E+12,-7668,1831,-819,223,107,15,1,7,11
1.72313E+12,-7679,1842,-819,168,123,58,1,7,11
1.72313E+12,-7664,1836,-818,352,93,79,1,7,11
1.72313E+12,-7644,1841,-821,306,67,84,1,7,11
1.72313E+12,-7649,1864,-826,-7,48,67,1,7,11
1.72313E+12,-7661,1897,-838,-69,24,49,1,7,11
1.72313E+12,-7670,1666,-834,118,-262,33,1,7,11
1.72313E+12,-7675,1669,-826,59,-276,36,1,7,11
1.72313E+12,-7938,1915,-813,20,-279,50,1,7,11
1.72313E+12,-7674,1895,-792,10,-277,66,1,7,11
1.72313E+12,-7949,1881,-768,23,-259,70,1,7,11
1.72313E+12,-7959,1889,-496,35,-272,87,1,7,11
1.72313E+12,-7956,1890,-476,31,-309,90,1,7,11
1.72313E+12,-7960,1886,-462,6,-326,106,1,7,11
1.72313E+12,-7960,1883,-459,26,-330,115,1,7,11
1.72313E+12,-7949,1863,-455,54,-333,94,1,7,11
1.72313E+12,-7958,1848,-445,101,-296,52,1,7,11
1.72313E+12,-7971,1844,-438,-107,-284,-258,1,7,11
1.72313E+12,-7984,1844,-427,-60,-279,-307,1,7,11
1.72313E+12,-7995,1853,-423,-46,-290,-342,1,7,11
1.72313E+12,-7994,1853,-417,-42,-315,-364,1,7,11
1.72313E+12,-7986,1839,-426,-39,-359,-131,1,7,11
1.72313E+12,-7968,1826,-426,-25,-137,-168,1,7,11
1.72313E+12,-7979,1823,-430,-14,-140,-202,1,7,11
1.72313E+12,-7982,1816,-418,-9,-157,-233,1,7,11
1.72313E+12,-7964,1798,-398,-8,-157,-519,1,7,11
1.72313E+12,-7971,1519,-634,-37,-367,-534,1,7,11
1.72313E+12,-7976,1485,-612,-82,-338,-524,1,7,11
1.72313E+12,-7972,1449,-591,-123,-301,-246,1,7,11
1.72313E+12,-7979,1417,-581,117,8,-199,1,7,11
1.72313E+12,-7994,1415,-581,116,61,-138,1,7,11
1.72313E+12,-7993,1409,-576,89,105,-314,1,7,11
1.72313E+12,-7990,1660,-586,61,-84,44,1,7,11
1.72313E+12,-7987,1662,-590,39,-18,-122,1,7,11
1.72313E+12,-7972,1658,-601,39,310,-47,1,7,11
1.72313E+12,-7978,1413,-623,66,129,-2,1,7,11
1.72313E+12,-7979,1440,-388,95,166,277,1,7,11
1.72313E+12,-7971,1494,-427,113,192,285,1,7,11
1.72313E+12,-8002,1512,-441,103,200,292,1,7,11
1.72313E+12,-7998,1796,-462,71,154,295,1,7,11
1.72313E+12,-7990,1829,-477,11,368,307,1,7,11
1.72313E+12,-8007,1839,-489,-323,340,314,1,7,11
1.72313E+12,-7991,1834,-499,-384,288,313,1,7,11
1.72313E+12,-7976,1829,-496,-150,258,293,1,7,11
1.72313E+12,-7982,1851,-491,-156,-12,273,1,7,11
1.72313E+12,-7990,1848,-477,-179,-42,261,1,7,11
1.72313E+12,-7983,1839,-451,-199,-86,-8,1,7,11
1.72313E+12,-7968,1840,-434,-194,124,-12,1,7,11
1.72313E+12,-7942,1881,-396,-131,13,-14,1,7,11
1.72313E+12,-7676,1888,-638,-368,15,-4,1,7,11
1.72313E+12,-7667,1885,-640,-336,35,257,1,7,11
1.72313E+12,-7658,1877,-633,-248,61,-7,1,7,11
1.72313E+12,-7650,1879,-386,80,100,-29,1,7,11
1.72313E+12,-7648,1900,-405,-108,-115,-53,1,7,11
1.72313E+12,-7661,1666,-419,-72,-80,-77,1,7,11
1.72313E+12,-7669,1680,-422,-68,-55,-99,1,7,11
1.72313E+12,-7937,1696,-441,-86,-44,125,1,7,11
1.72313E+12,-7959,1728,-449,-112,-52,98,1,7,11
1.72313E+12,-7956,1718,-463,69,-73,55,1,7,11
1.72313E+12,-7966,1707,-459,17,-73,23,1,7,11
1.72313E+12,-7974,1700,-453,-289,-76,-262,1,7,11
1.72313E+12,-7973,1678,-446,-335,-97,-279,1,7,11
1.72313E+12,-7963,1918,-439,-354,-98,-288,1,7,11
1.72313E+12,-7951,1902,-424,-370,-88,-286,1,7,11
1.72313E+12,-7948,1890,-415,-381,-67,-270,1,7,11
1.72313E+12,-7954,1893,-409,-146,-45,14,1,7,11
1.72313E+12,-7960,1872,-413,-182,-32,55,1,7,11
1.72313E+12,-7957,1826,-412,-171,-40,82,1,7,11
1.72313E+12,-7948,1825,-407,-346,-37,96,1,7,11
1.72313E+12,-7972,1836,-414,-284,-37,107,1,7,11
1.72313E+12,-7942,1861,-424,22,-63,-126,1,7,11
1.72313E+12,-7959,1880,-426,30,-42,-111,1,7,11
1.72313E+12,-7971,1861,-419,29,-61,-73,1,7,11
1.72313E+12,-7958,1856,-423,59,-87,-61,1,7,11
1.72313E+12,-7954,1880,-417,85,-90,-62,1,7,11
1.72313E+12,-7953,1907,-424,84,-96,-52,1,7,11
1.72313E+12,-7957,1919,-430,57,-109,-47,1,7,11
1.72313E+12,-7947,1918,-420,34,-120,-40,1,7,11
1.72313E+12,-7674,1909,-421,24,-119,-44,1,7,11
1.72313E+12,-7680,1901,-413,15,-92,-63,1,7,11
1.72313E+12,-7939,1898,-408,13,-90,-71,1,7,11
1.72313E+12,-7666,1693,-432,46,-92,-95,1,7,11
1.72313E+12,-7667,1716,-433,26,-51,-83,1,7,11
1.72313E+12,-7943,1716,-441,-258,-39,-63,1,7,11
1.72313E+12,-7671,1699,-438,-280,-42,-54,1,7,11
1.72313E+12,-7938,1692,-437,-282,-23,-61,1,7,11
1.72313E+12,-7938,1695,-428,-282,-29,-83,1,7,11
1.72313E+12,-7949,1711,-433,-272,-41,-126,1,7,11
1.72313E+12,-7952,1724,-441,-269,-53,124,1,7,11
1.72313E+12,-7952,1719,-443,-273,-76,100,1,7,11
1.72313E+12,-7940,1718,-443,-281,-97,68,1,7,11
1.72313E+12,-7940,1712,-445,-280,-113,38,1,7,11
1.72313E+12,-7937,1707,-444,-283,114,15,1,7,11
1.72313E+12,-7673,1705,-449,-281,99,-265,1,7,11
1.72313E+12,-7669,1696,-450,-277,101,-293,1,7,11
1.72313E+12,-7659,1700,-443,2,121,-314,1,7,11
1.72313E+12,-7680,1713,-445,14,-120,-331,1,7,11
1.72313E+12,-7680,1728,-437,1,98,-318,1,7,11
1.72313E+12,-7643,1701,-461,-279,64,-305,1,7,11
1.72313E+12,-7953,1711,-458,-277,120,-313,1,7,11
1.72313E+12,-7646,1695,-449,-275,120,-283,1,7,11
1.72313E+12,-7675,1708,-458,23,-90,-317,1,7,11
1.72313E+12,-7950,1695,-442,-265,-106,-325,1,7,11
1.72313E+12,-7938,1685,-440,5,127,-332,1,7,11
1.72313E+12,-7665,1683,-456,21,-120,-314,1,7,11
1.72313E+12,-7652,1670,-461,46,-68,-302,1,7,11
1.72313E+12,-7670,1914,-457,62,-24,-299,1,7,11
1.72313E+12,-7680,1880,-450,73,-3,-303,1,7,11
1.72313E+12,-7971,1876,-454,100,265,-323,1,7,11
1.72313E+12,-7985,1878,-454,104,-33,-343,1,7,11
1.72313E+12,-7988,1875,-454,114,-73,-367,1,7,11
1.72313E+12,-7977,1888,-447,-123,-80,-369,1,7,11
1.72313E+12,-7967,1894,-448,-116,-89,-357,1,7,11
1.72313E+12,-7948,1905,-454,-97,-82,-332,1,7,11
1.72313E+12,-7668,1669,-461,-101,-47,-275,1,7,11
1.72313E+12,-7663,1912,-463,-126,-21,17,1,7,11
1.72313E+12,-7944,1899,-451,114,-6,40,1,7,11
1.72313E+12,-7955,1890,-451,99,-33,52,1,7,11
1.72313E+12,-7958,1903,-461,81,-63,56,1,7,11
1.72313E+12,-7962,1895,-463,46,-80,64,1,7,11
1.72313E+12,-7976,1890,-469,8,-109,58,1,7,11
1.72313E+12,-7971,1875,-463,-282,-128,62,1,7,11
1.72313E+12,-7981,1872,-461,-304,116,68,1,7,11
1.72313E+12,-7987,1854,-450,-324,85,70,1,7,11
1.72313E+12,-7972,1843,-446,-320,52,67,1,7,11
1.72313E+12,-7957,1837,-431,-319,49,54,1,7,11
1.72313E+12,-7972,1832,-419,-312,52,42,1,7,11
1.72313E+12,-7971,1830,-408,-297,43,30,1,7,11
1.72313E+12,-7962,1832,-406,-275,38,24,1,7,11
1.72313E+12,-7954,1837,-401,-261,50,22,1,7,11
1.72313E+12,-7949,1840,-406,10,74,23,1,7,11
1.72313E+12,-7950,1850,-415,32,112,28,1,7,11
1.72313E+12,-7948,1861,-419,50,-110,42,1,7,11
1.72313E+12,-7941,1862,-408,61,-68,49,1,7,11
1.72313E+12,-7940,1860,-409,76,-17,45,1,7,11
1.72313E+12,-7677,1862,-411,89,282,34,1,7,11
1.72313E+12,-7943,1865,-418,102,328,17,1,7,11
1.72313E+12,-7959,1879,-422,105,349,2,1,7,11
1.72313E+12,-7961,1872,-436,90,339,-261,1,7,11
1.72313E+12,-7960,1866,-432,76,331,-260,1,7,11
1.72313E+12,-7960,1863,-435,52,315,-257,1,7,11
1.72313E+12,-7978,1852,-448,30,292,16,1,7,11
1.72313E+12,-7949,1840,-442,8,262,46,1,7,11
1.72313E+12,-7975,1845,-458,-2,-5,74,1,7,11
1.72313E+12,-7942,1821,-467,-277,-37,103,1,7,11
1.72313E+12,-7952,1817,-465,-269,-25,107,1,7,11
1.72313E+12,-7950,1816,-472,-260,-29,115,1,7,11
1.72313E+12,-7948,1838,-476,8,-32,109,1,7,11
1.72313E+12,-7947,1859,-488,10,-34,102,1,7,11
1.72313E+12,-7680,1865,-500,5,-34,86,1,7,11
1.72313E+12,-7940,1882,-511,2,-25,69,1,7,11
1.72313E+12,-7941,1894,-783,-272,-23,54,1,7,11
1.72313E+12,-7674,1902,-804,-290,-19,53,1,7,11
1.72313E+12,-7668,1905,-823,-313,-4,55,1,7,11
1.72313E+12,-7677,1680,-854,-320,279,56,1,7,11
1.72313E+12,-7677,1738,-644,-323,301,57,1,7,11
1.72313E+12,-7640,2070,-742,-336,315,52,1,7,11
1.72313E+12,-7585,1941,-1144,-364,373,22,1,7,11
1.72313E+12,-7797,2343,-1019,-210,210,-299,1,7,11
1.72313E+12,-7807,2400,-1316,-441,571,-166,1,7,11
1.72313E+12,-7624,2341,-1285,-701,608,-590,1,7,11
1.72313E+12,-7978,1975,-970,-903,533,-818,1,7,11
1.72313E+12,-8052,2141,-902,-1297,344,-1080,1,7,11
1.72313E+12,-8016,2059,-1105,-1180,62,-1348,1,7,11
1.72313E+12,-7946,1712,-1037,-1602,-172,-1637,1,7,11
1.72313E+12,-7655,1867,-706,-1793,-583,-1893,1,7,11
1.72313E+12,-7654,1491,-885,-1726,-444,-2114,1,7,11
1.72313E+12,-7669,1642,-794,-2144,-785,-2027,1,7,11
1.72313E+12,-7960,1552,-457,-2048,-861,-2391,1,7,11
1.72313E+12,-8012,1190,-622,-2189,-676,-2182,1,7,11
1.72313E+12,-8048,1305,-516,-2258,-751,-2428,1,7,11
1.72313E+12,-8051,941,-169,-2200,-1060,-2391,1,7,11
1.72313E+12,-7811,1114,-322,-2370,-1070,-2358,1,7,11
1.72313E+12,-7830,1056,30,-2044,-1050,-2045,1,7,11
1.72313E+12,-7844,755,125,-1955,-766,-1966,1,7,11
1.72313E+12,-8061,689,-86,-2080,-690,-2119,1,7,11
1.72313E+12,-8055,663,-51,-1897,-783,-1771,1,7,11
1.72313E+12,-8058,866,-20,-1478,-632,-1699,1,7,11
1.72313E+12,-7817,847,-6,-1561,-237,-1667,1,7,11
1.72313E+12,-7839,832,-6,-1381,-371,-1666,1,7,11
1.72313E+12,-7854,817,-15,-991,-280,-1729,1,7,11
1.72313E+12,-7859,804,-20,-1138,46,-2050,1,7,11
1.72313E+12,-7861,781,-26,-1052,106,-2143,1,7,11
1.72313E+12,-7909,477,-22,-735,-121,-1999,1,7,11
1.72313E+12,-7916,406,-32,-699,118,-2371,1,7,11
1.72313E+12,-8196,592,-23,-662,107,-2252,1,7,11
1.72313E+12,-8220,529,-17,-892,96,-2636,1,7,11
1.72313E+12,-8247,180,259,-662,76,-2514,1,7,11
1.72313E+12,-8254,304,280,-695,30,-2904,1,7,11
1.72313E+12,-8231,-50,284,-682,-258,-2795,1,7,11
1.72313E+12,-8264,99,299,-703,-259,-2966,1,7,11
1.72313E+12,-8262,-283,316,-731,-298,-3376,1,7,11
1.72313E+12,-8253,-137,310,-741,-344,-3287,1,7,11
1.72313E+12,-8220,-242,300,-1027,-130,-3464,1,7,11
1.72313E+12,-7918,-628,280,-1065,-163,-3874,1,7,11
1.72313E+12,-7861,-498,260,-1067,-143,-3754,1,7,11
1.72313E+12,-7843,-894,-14,-1063,-325,-4105,1,7,11
1.72313E+12,-7852,-1073,-11,-1061,0,-4160,1,7,11
1.72313E+12,-7869,-1286,-2,-1041,60,-4172,1,7,11
1.72313E+12,-7881,-1226,257,-687,-128,-4129,1,7,11
1.72313E+12,-7873,-1648,-16,-827,-90,-3796,1,7,11
1.72313E+12,-7860,-1826,-7,-468,-52,-3721,1,7,11
1.72313E+12,-7872,-1753,-3,-608,-16,-3912,1,7,11
1.72313E+12,-7869,-1939,256,-208,-10,-3873,1,7,11
1.72313E+12,-7851,-2330,-27,-274,-26,-3877,1,7,11
1.72313E+12,-8047,-2181,-62,-66,-80,-3923,1,7,11
1.72313E+12,-8005,-2291,-80,146,118,-3762,1,7,11
1.72313E+12,-7994,-2650,-90,617,79,-4137,1,7,11
1.72313E+12,-7981,-2461,-104,793,28,-4204,1,7,11
1.72313E+12,-7985,-2508,-105,868,-293,-4214,1,7,11
1.72313E+12,-7978,-2825,-113,847,-381,-4157,1,7,11
1.72313E+12,-7959,-2869,125,784,-236,-3800,1,7,11
1.72313E+12,-7623,-2906,109,419,-602,-3913,1,7,11
1.72313E+12,-7579,-2733,-125,522,-392,-3529,1,7,11
1.72313E+12,-7562,-3107,-101,356,-431,-3627,1,7,11
1.72313E+12,-7744,-2957,-75,-26,-482,-3449,1,7,11
1.72313E+12,-7415,-3071,-52,109,-485,-3048,1,7,11
1.72313E+12,-7366,-3436,-15,13,-469,-3153,1,7,11
1.72313E+12,-7315,-3591,278,-336,-450,-2715,1,7,11
1.72313E+12,-7517,-3679,291,-372,-457,-2871,1,7,11
1.72313E+12,-7467,-3518,317,-146,-452,-2542,1,7,11
1.72313E+12,-7445,-3867,340,-180,-439,-2455,1,7,11
1.72313E+12,-7425,-3732,373,-228,-439,-2649,1,7,11
1.72313E+12,-7101,-4100,146,-227,-466,-2576,1,7,11
1.72313E+12,-7289,-4191,177,-216,-447,-2269,1,7,11
1.72313E+12,-7256,-4025,206,-177,-396,-2226,1,7,11
1.72313E+12,-7219,-4357,220,-376,-605,-2190,1,7,11
1.72313E+12,-7173,-4424,238,-319,-562,-2409,1,7,11
1.72313E+12,-6896,-4225,249,-268,-525,-2378,1,7,11
1.72313E+12,-6856,-4284,526,29,-254,-2338,1,7,11
1.72313E+12,-6836,-4339,551,76,-232,-2039,1,7,11
1.72313E+12,-6822,-4630,571,116,-217,-1992,1,7,11
1.72313E+12,-6789,-4628,571,-94,-210,-1930,1,7,11
1.72313E+12,-7028,-4340,571,-78,-198,-2122,1,7,11
1.72313E+12,-6990,-4301,567,-112,-209,-2056,1,7,11
1.72313E+12,-6977,-4305,574,32,-236,-1779,1,7,11
1.72313E+12,-6994,-4640,602,-381,-554,-1791,1,7,11
1.72313E+12,-6971,-4485,623,-513,-413,-2074,1,7,11
1.72313E+12,-6922,-4600,393,-619,-770,-2101,1,7,11
1.72313E+12,-6606,-4989,442,-440,-827,-2123,1,7,11
1.72313E+12,-6531,-4850,484,-445,-853,-2140,1,7,11
1.72313E+12,-6711,-5217,777,-404,-839,-2139,1,7,11
1.72313E+12,-6399,-5040,817,-580,-785,-2124,1,7,11
1.72313E+12,-6335,-5118,852,-225,-473,-2082,1,7,11
1.72313E+12,-6291,-5451,862,-362,-397,-1770,1,7,11
1.72313E+12,-6521,-5272,880,10,-578,-1719,1,7,11
1.72313E+12,-6487,-5342,648,-114,-515,-1675,1,7,11
1.72313E+12,-6453,-5346,894,290,-197,-1902,1,7,11
1.72313E+12,-6415,-5308,880,129,-145,-1851,1,7,11
1.72313E+12,-6124,-5312,885,152,-356,-1793,1,7,11
1.72313E+12,-6087,-5333,883,149,-316,-1466,1,7,11
1.72313E+12,-6069,-5635,884,364,-283,-1654,1,7,11
1.72313E+12,-6029,-5679,642,312,-267,-1564,1,7,11
1.72313E+12,-6246,-5721,653,-6,4,-1264,1,7,11
1.72313E+12,-6228,-5515,663,-49,27,-1212,1,7,11
1.72313E+12,-6217,-5561,666,-79,34,-1157,1,7,11
1.72313E+12,-6204,-5594,659,-102,27,-1354,1,7,11
1.72313E+12,-6178,-5608,666,-124,17,-1307,1,7,11
1.72313E+12,-6167,-5626,667,97,15,-998,1,7,11
1.72313E+12,-5873,-5630,665,57,-258,-932,1,7,11
1.72313E+12,-5850,-5903,668,-259,-266,-1134,1,7,11
1.72313E+12,-5762,-5984,683,-384,-358,-1076,1,7,11
1.72313E+12,-5997,-5982,686,-148,-377,-1092,1,7,11
1.72313E+12,-5979,-5974,690,-189,-139,-1088,1,7,11
1.72313E+12,-5968,-5989,701,-248,-151,-1066,1,7,11
1.72313E+12,-5960,-5765,705,-557,-157,-1028,1,7,11
1.72313E+12,-5924,-5790,710,-598,-167,-721,1,7,11
1.72313E+12,-5903,-5840,720,-636,-153,-658,1,7,11
1.72313E+12,-5630,-5885,732,-385,-138,-844,1,7,11
1.72313E+12,-5609,-6193,750,-636,-132,-772,1,7,11
1.72313E+12,-5564,-6234,753,-603,-372,-446,1,7,11
1.72313E+12,-5546,-6258,1036,-558,-333,-399,1,7,11
1.72313E+12,-5539,-6268,1043,-252,-292,-599,1,7,11
1.72313E+12,-5533,-6031,1040,-216,0,-546,1,7,11
1.72313E+12,-5524,-6035,1030,-178,35,-249,1,7,11
1.72313E+12,-5758,-6035,1028,-136,66,-215,1,7,11
1.72313E+12,-5517,-6035,756,-359,105,-196,1,7,11
1.72313E+12,-5525,-6272,732,-317,126,-163,1,7,11
1.72313E+12,-5532,-6250,717,-280,-118,-152,1,7,11
1.72313E+12,-5530,-6228,699,0,-101,-144,1,7,11
1.72313E+12,-5536,-6224,689,4,-88,-145,1,7,11
1.72313E+12,-5531,-6221,679,-254,-84,-144,1,7,11
1.72313E+12,-5526,-6217,672,11,-73,-148,1,7,11
1.72313E+12,-5532,-6204,663,25,-61,-138,1,7,11
1.72313E+12,-5520,-6195,653,36,-63,-384,1,7,11
1.72313E+12,-5513,-6212,665,34,-69,-380,1,7,11
1.72313E+12,-5510,-6242,683,39,-86,-378,1,7,11
1.72313E+12,-5519,-6265,692,63,-108,-133,1,7,11
1.72313E+12,-5533,-6020,717,85,119,-135,1,7,11
1.72313E+12,-5540,-6264,724,107,98,-370,1,7,11
1.72313E+12,-5522,-6238,730,116,75,-332,1,7,11
1.72313E+12,-5513,-6206,745,106,84,-296,1,7,11
1.72313E+12,-5750,-6205,762,71,94,0,1,7,11
1.72313E+12,-5734,-6196,1034,46,112,21,1,7,11
1.72313E+12,-5740,-6173,1036,1,-119,34,1,7,11
1.72313E+12,-5739,-6176,1036,-320,-108,43,1,7,11
1.72313E+12,-5722,-6180,1029,-363,-102,36,1,7,11
1.72313E+12,-5713,-6178,1024,-141,-87,17,1,7,11
1.72313E+12,-5728,-6180,759,-180,-62,4,1,7,11
1.72313E+12,-5749,-6197,755,-201,-40,-264,1,7,11
1.72313E+12,-5749,-6209,756,-193,-30,-278,1,7,11
1.72313E+12,-5722,-6220,745,-167,-17,-297,1,7,11
1.72313E+12,-5708,-6229,736,-155,272,-330,1,7,11
1.72313E+12,-5716,-6238,742,-142,288,-355,1,7,11
1.72313E+12,-5725,-6244,747,-132,277,-378,1,7,11
1.72313E+12,-5733,-6270,741,-382,262,-365,1,7,11
1.72313E+12,-5701,-6043,739,-364,-20,-354,1,7,11
1.72313E+12,-5683,-6066,742,-339,-15,-356,1,7,11
1.72313E+12,-5676,-6068,737,-317,261,-359,1,7,11
1.72313E+12,-5675,-6090,738,-307,284,-356,1,7,11
1.72313E+12,-5660,-6084,730,-277,297,-347,1,7,11
1.72313E+12,-5653,-6078,727,-270,306,-338,1,7,11
1.72313E+12,-5663,-6105,736,-280,315,-308,1,7,11
1.72313E+12,-5661,-6124,729,-277,298,-269,1,7,11
1.72313E+12,-5635,-6131,722,-293,291,23,1,7,11
1.72313E+12,-5637,-6135,714,-317,309,69,1,7,11
1.72313E+12,-5642,-6136,706,-347,329,-106,1,7,11
1.72313E+12,-5656,-6139,699,-377,345,-46,1,7,11
1.72313E+12,-5650,-6404,705,-144,335,277,1,7,11
1.72313E+12,-5356,-6134,714,-155,329,332,1,7,11
1.72313E+12,-5364,-6133,719,-176,367,136,1,7,11
1.72313E+12,-5375,-6128,695,-205,147,206,1,7,11
1.72313E+12,-5642,-6116,690,-243,187,530,1,7,11
1.72313E+12,-5670,-6110,667,-542,223,606,1,7,11
1.72313E+12,-5682,-6101,646,-585,252,437,1,7,11
1.72313E+12,-5722,-6108,885,-622,537,775,1,7,11
1.72313E+12,-5510,-6100,867,-615,543,852,1,7,11
1.72313E+12,-5510,-6071,836,-594,522,680,1,7,11
1.72313E+12,-5515,-6031,816,-579,518,756,1,7,11
1.72313E+12,-5528,-6229,797,-578,523,1086,1,7,11
1.72313E+12,-5561,-6183,780,-614,541,923,1,7,11
1.72313E+12,-5597,-6174,506,-425,536,1289,1,7,11
1.72313E+12,-5908,-6149,486,-474,543,1397,1,7,11
1.72313E+12,-5952,-5848,441,-491,542,1265,1,7,11
1.72313E+12,-5968,-5820,409,-773,555,1649,1,7,11
1.72313E+12,-5786,-5825,389,-778,602,1521,1,7,11
1.72313E+12,-5826,-5799,608,-483,598,1912,1,7,11
1.72313E+12,-5875,-5789,571,-441,606,1763,1,7,11
1.72313E+12,-6216,-5994,540,-596,617,2127,1,7,11
1.72313E+12,-6269,-5904,250,-215,604,1982,1,7,11
1.72313E+12,-6043,-5554,212,-374,602,2347,1,7,11
1.72313E+12,-6074,-5749,184,-284,603,2181,1,7,11
1.72313E+12,-6114,-5682,171,104,620,2236,1,7,11
1.72313E+12,-6416,-5633,182,-9,387,2289,1,7,11
1.72313E+12,-6468,-5258,182,184,387,2564,1,7,11
1.72313E+12,-6496,-5422,176,566,633,2587,1,7,11
1.72313E+12,-6305,-5057,168,420,393,2601,1,7,11
1.72313E+12,-6382,-5210,166,469,388,2632,1,7,11
1.72313E+12,-6702,-5079,180,481,632,2686,1,7,11
1.72313E+12,-6768,-4790,199,459,622,2505,1,7,11
1.72313E+12,-6598,-4983,212,461,624,2855,1,7,11
1.72313E+12,-6627,-4897,210,788,390,2746,1,7,11
1.72313E+12,-6930,-4549,209,822,440,3105,1,7,11
1.72313E+12,-7005,-4707,218,849,506,2979,1,7,11
1.72313E+12,-6815,-4341,219,886,805,3409,1,7,11
1.72313E+12,-6854,-4444,202,703,882,3677,1,7,11
1.72313E+12,-7233,-4082,234,706,1058,3774,1,7,11
1.72313E+12,-7066,-4354,540,651,1141,4231,1,7,11
1.72313E+12,-7242,-4451,579,700,931,4893,1,7,11
1.72313E+12,-7268,-4442,614,965,1169,5138,1,7,11
1.72313E+12,-7061,-3975,585,1604,1655,5077,1,7,11
1.72313E+12,-7114,-3903,517,1890,1833,5451,1,7,11
1.72313E+12,-7467,-3318,189,1753,1732,5296,1,7,11
1.72313E+12,-7322,-3044,140,1773,2092,5651,1,7,11
1.72313E+12,-7373,-3075,352,1754,2114,5727,1,7,11
1.72313E+12,-7685,-2902,327,1709,2148,5711,1,7,11
1.72313E+12,-7758,-2444,268,1728,2169,5633,1,7,11
1.72313E+12,-7575,-2412,-62,1767,2169,5262,1,7,11
1.72313E+12,-7658,-2112,117,1719,2130,5402,1,7,11
1.72313E+12,-7995,-1860,53,1850,2050,5054,1,7,11
1.72313E+12,-8042,-1646,-271,1444,1686,5231,1,7,11
1.72313E+12,-7862,-1396,-325,1551,1847,5149,1,7,11
1.72313E+12,-7887,-1325,-377,1155,1506,4831,1,7,11
1.72313E+12,-7930,-910,-163,1003,1655,4755,1,7,11
1.72313E+12,-8196,-1065,-200,1128,1539,4910,1,7,11
1.72313E+12,-7910,-693,-243,1033,1181,4535,1,7,11
1.72313E+12,-7888,-804,-539,726,1361,4659,1,7,11
1.72313E+12,-7888,-393,-592,690,1320,4236,1,7,11
1.72313E+12,-7867,-232,-639,894,1018,4395,1,7,11
1.72313E+12,-7846,-338,-428,843,973,4036,1,7,11
1.72313E+12,-7835,48,-469,779,952,4210,1,7,11
1.72313E+12,-7835,-104,-492,405,928,4100,1,7,11
1.72313E+12,-7832,-39,-776,581,1128,3963,1,7,11
1.72313E+12,-8056,297,-788,551,1061,3545,1,7,11
1.72313E+12,-8051,150,-796,553,1039,3625,1,7,11
1.72313E+12,-7841,546,-817,547,750,3202,1,7,11
1.72313E+12,-7878,410,-845,247,663,3060,1,7,11
1.72313E+12,-7877,492,-859,174,798,3173,1,7,11
1.72313E+12,-7842,835,-875,360,428,2752,1,7,11
1.72313E+12,-8039,663,-642,270,603,2843,1,7,11
1.72313E+12,-8010,739,-661,-61,575,2666,1,7,11
1.72313E+12,-7995,1098,-698,-128,564,2215,1,7,11
1.72313E+12,-7979,923,-724,36,566,2022,1,7,11
1.72313E+12,-7979,997,-752,-291,590,2094,1,7,11
1.72313E+12,-7975,1363,-1027,-364,597,1907,1,7,11
1.72313E+12,-7967,1214,-1045,-220,597,1507,1,7,11
1.72313E+12,-7972,1263,-1057,-622,587,1653,1,7,11
1.72313E+12,-7955,1243,-1064,-489,573,1557,1,7,11
1.72313E+12,-7940,1223,-1048,-804,572,1178,1,7,11
1.72313E+12,-7943,1240,-1035,-804,568,1316,1,7,11
1.72313E+12,-7678,1255,-1036,-793,531,954,1,7,11
1.72313E+12,-7662,1260,-1040,-484,235,1118,1,7,11
1.72313E+12,-7655,1545,-1040,-385,218,1033,1,7,11
1.72313E+12,-7673,1592,-1029,-558,206,724,1,7,11
1.72313E+12,-7950,1634,-1027,-207,153,694,1,7,11
1.72313E+12,-7948,1436,-768,-377,322,685,1,7,11
1.72313E+12,-7675,1531,-1037,-288,-1,709,1,7,11
1.72313E+12,-7621,1872,-1061,-257,-49,1067,1,7,11
1.72313E+12,-7568,1667,-1081,-256,-12,1134,1,7,11
1.72313E+12,-7779,1699,-1085,-257,310,906,1,7,11
1.72313E+12,-7754,1768,-1104,-269,149,901,1,7,11
1.72313E+12,-7739,2076,-1113,-341,238,1128,1,7,11
1.72313E+12,-7771,2089,-1102,-181,588,1075,1,7,11
1.72313E+12,-7569,2079,-1084,-533,631,749,1,7,11
1.72313E+12,-7607,2053,-1058,-593,594,650,1,7,11
1.72313E+12,-7615,2065,-1044,-586,249,791,1,7,11
1.72313E+12,-7605,2079,-1041,-573,145,411,1,7,11
1.72313E+12,-7581,2102,-1045,-556,309,558,1,7,11
1.72313E+12,-7795,2125,-1061,-549,-18,193,1,7,11
1.72313E+12,-7750,2155,-1070,-555,-49,356,1,7,11
1.72313E+12,-7740,1921,-1082,-615,-33,270,1,7,11
1.72313E+12,-7755,1927,-1089,-448,-15,-56,1,7,11
1.72313E+12,-7779,1921,-1100,-503,-5,-115,1,7,11
1.72313E+12,-7554,1929,-1110,-777,270,88,1,7,11
1.72313E+12,-7601,1930,-1099,-813,264,60,1,7,11
1.72313E+12,-7645,2151,-1099,-831,-36,56,1,7,11
1.72313E+12,-7651,2095,-1077,-801,-112,40,1,7,11
1.72313E+12,-7660,2054,-1069,-456,84,23,1,7,11
1.72313E+12,-7647,1768,-1068,-596,24,0,1,7,11
1.72313E+12,-7639,1750,-1065,-200,-274,-281,1,7,11
1.72313E+12,-7632,1727,-1049,-313,-305,-301,1,7,11
1.72313E+12,-7635,1716,-1030,84,-335,-317,1,7,11
1.72313E+12,-7650,1713,-753,-56,-367,-319,1,7,11
1.72313E+12,-7644,1699,-738,289,-154,-307,1,7,11
1.72313E+12,-7628,1697,-738,376,-178,-287,1,7,11
1.72313E+12,-7615,1699,-745,181,-176,-261,1,7,11
1.72313E+12,-7590,1727,-759,237,-163,26,1,7,11
1.72313E+12,-7578,1738,-767,512,-129,48,1,7,11
1.72313E+12,-7570,1753,-770,248,-340,64,1,7,11
1.72313E+12,-7568,1768,-1025,228,-304,67,1,7,11
1.72313E+12,-7571,2056,-1037,188,-297,56,1,7,11
1.72313E+12,-7564,2090,-1048,381,-300,45,1,7,11
1.72313E+12,-7793,2126,-1057,285,-276,30,1,7,11
1.72313E+12,-7786,2132,-1055,-60,1,34,1,7,11
1.72313E+12,-7758,2113,-1045,-128,27,16,1,7,11
1.72313E+12,-7765,2127,-1035,89,87,-268,1,7,11
1.72313E+12,-7805,2163,-1035,14,109,-287,1,7,11
1.72313E+12,-7599,2164,-759,-366,36,-289,1,7,11
1.72313E+12,-7607,2127,-757,-221,-312,-285,1,7,11
1.72313E+12,-7806,2096,-755,-242,-354,-295,1,7,11
1.72313E+12,-7559,2115,-729,-206,-297,-342,1,7,11
1.72313E+12,-7586,2105,-720,-198,-297,-365,1,7,11
1.72313E+12,-7557,2120,-718,-167,-322,-132,1,7,11
1.72313E+12,-7567,2171,-720,-144,-299,-135,1,7,11
1.72313E+12,-7798,2163,-711,-144,-276,-361,1,7,11
1.72313E+12,-7790,2133,-703,-369,42,-346,1,7,11
1.72313E+12,-7796,2111,-690,-331,115,-342,1,7,11
1.72313E+12,-7563,2060,-681,-309,-91,-366,1,7,11
1.72313E+12,-7582,1756,-670,0,-50,-157,1,7,11
1.72313E+12,-7592,1705,-689,88,-14,-226,1,7,11
1.72313E+12,-7597,1678,-707,263,269,-559,1,7,11
1.72313E+12,-7589,1710,-725,232,293,-406,1,7,11
1.72313E+12,-7620,1733,-718,615,313,-795,1,7,11
1.72313E+12,-7663,1738,-708,625,270,-646,1,7,11
1.72313E+12,-7956,1715,-699,513,-99,-728,1,7,11
1.72313E+12,-7970,1666,-698,128,31,-1027,1,7,11
1.72313E+12,-7947,1869,-696,283,-326,-1079,1,7,11
1.72313E+12,-7961,1813,-681,-63,-141,-1135,1,7,11
1.72313E+12,-7978,1493,-665,110,-213,-922,1,7,11
1.72313E+12,-7983,1438,-658,18,-540,-948,1,7,11
1.72313E+12,-8005,1660,-644,-296,-598,-984,1,7,11
1.72313E+12,-7995,1613,-882,-366,-416,-1023,1,7,11
1.72313E+12,-7997,1567,-849,-171,-472,-1306,1,7,11
1.72313E+12,-8029,1264,-822,-205,-496,-1337,1,7,11
1.72313E+12,-8049,1179,-789,-228,-861,-1407,1,7,11
1.72313E+12,-8008,1200,-784,-140,-662,-1173,1,7,11
1.72313E+12,-8026,1237,-773,-351,-644,-1202,1,7,11
1.72313E+12,-8014,1263,-497,-318,-845,-1379,1,7,11
1.72313E+12,-8008,1213,-474,-345,-509,-1017,1,7,11
1.72313E+12,-8021,1155,-440,-327,-398,-911,1,7,11
1.72313E+12,-8026,1379,-416,-280,-547,-1068,1,7,11
1.72313E+12,-8010,1362,-394,29,-162,-688,1,7,11
1.72313E+12,-7989,1370,-640,80,9,-801,1,7,11
1.72313E+12,-7992,1379,-637,96,-50,-621,1,7,11
1.72313E+12,-8022,1384,-611,20,161,-152,1,7,11
1.72313E+12,-7842,1360,-580,-160,569,65,1,7,11
1.72313E+12,-7874,1335,-592,-605,569,-44,1,7,11
1.72313E+12,-7839,1341,-388,-486,242,260,1,7,11
1.72313E+12,-8055,1285,-438,-781,193,-25,1,7,11
1.72313E+12,-8005,958,-444,-631,202,-77,1,7,11
1.72313E+12,-8001,987,-433,-164,548,118,1,7,11
1.72313E+12,-7826,1305,-457,-293,608,112,1,7,11
1.72313E+12,-7833,1292,-453,-286,534,-120,1,7,11
1.72313E+12,-8060,1286,-476,18,240,-109,1,7,11
1.72313E+12,-8064,1282,-493,32,238,-99,1,7,11
1.72313E+12,-7825,1007,-508,77,227,-79,1,7,11
1.72313E+12,-7830,1306,-785,-92,201,-68,1,7,11
1.72313E+12,-7832,1328,-796,-65,161,-59,1,7,11
1.72313E+12,-7827,1324,-805,-67,137,-37,1,7,11
1.72313E+12,-7825,1332,-804,-69,380,-16,1,7,11
1.72313E+12,-8064,1342,-808,-59,362,261,1,7,11
1.72313E+12,-8035,1349,-814,-69,358,276,1,7,11
1.72313E+12,-8016,1339,-828,-101,363,289,1,7,11
1.72313E+12,-7998,1332,-836,111,369,285,1,7,11
1.72313E+12,-7978,1356,-853,86,375,275,1,7,11
1.72313E+12,-7971,1389,-876,63,140,271,1,7,11
1.72313E+12,-7954,1403,-872,41,174,294,1,7,11
1.72313E+12,-7680,1389,-865,30,217,296,1,7,11
1.72313E+12,-7953,1380,-888,50,255,264,1,7,11
1.72313E+12,-7979,1196,-676,92,530,-58,1,7,11
1.72313E+12,-8003,1256,-718,88,536,120,1,7,11
1.72313E+12,-8037,1543,-736,-265,242,-278,1,7,11
1.72313E+12,-8041,1266,-726,-351,184,-363,1,7,11
1.72313E+12,-7815,1251,-719,-142,129,-191,1,7,11
1.72313E+12,-7836,1205,-699,-200,280,-541,1,7,11
1.72313E+12,-7834,1400,-684,-240,-97,-625,1,7,11
1.72313E+12,-7819,1351,-671,-515,57,-453,1,7,11
1.72313E+12,-8062,1305,-667,-244,-276,-782,1,7,11
1.72313E+12,-8042,1286,-663,-212,-322,-830,1,7,11
1.72313E+12,-8038,1009,-666,-185,-335,-855,1,7,11
1.72313E+12,-8029,962,-654,-161,-324,-857,1,7,11
1.72313E+12,-8044,921,-892,-372,-303,-843,1,7,11
1.72313E+12,-8058,1135,-876,-328,-303,-823,1,7,11
1.72313E+12,-8057,1110,-871,-260,-297,-795,1,7,11
1.72313E+12,-8051,1082,-862,52,-283,-511,1,7,11
1.72313E+12,-8046,1051,-859,102,-276,-484,1,7,11
1.72313E+12,-8042,1041,-854,-102,-263,-462,1,7,11
1.72313E+12,-8051,1044,-854,-55,10,-429,1,7,11
1.72313E+12,-8056,1056,-860,-33,32,-638,1,7,11
1.72313E+12,-8055,1064,-870,-30,58,-572,1,7,11
1.72313E+12,-8055,1067,-874,-50,91,-248,1,7,11
1.72313E+12,-7812,1072,-868,-72,-128,-183,1,7,11
1.72313E+12,-7825,1060,-858,115,-34,-285,1,7,11
1.72313E+12,-7830,1036,-857,95,-15,1,1,7,11
1.72313E+12,-7827,1041,-862,86,271,21,1,7,11
1.72313E+12,-7843,1041,-865,69,287,35,1,7,11
1.72313E+12,-7849,1025,-871,30,286,53,1,7,11
1.72313E+12,-7844,757,-871,0,283,80,1,7,11
1.72313E+12,-7854,748,-872,-263,278,87,1,7,11
1.72313E+12,-7853,743,-864,-269,275,90,1,7,11
1.72313E+12,-7846,724,-863,-271,267,90,1,7,11
1.72313E+12,-7849,721,-864,-265,-6,72,1,7,11
1.72313E+12,-7871,725,-869,-260,-39,46,1,7,11
1.72313E+12,-7872,730,-874,-264,-73,36,1,7,11
1.72313E+12,-7865,739,-877,-260,-100,35,1,7,11
1.72313E+12,-7850,751,-872,-263,-124,45,1,7,11
1.72313E+12,-7853,735,-857,-286,122,64,1,7,11
1.72313E+12,-7836,766,-863,-272,112,86,1,7,11
1.72313E+12,-7817,1025,-866,-284,114,110,1,7,11
1.72313E+12,-7813,1033,-865,-281,-127,-117,1,7,11
1.72313E+12,-8062,1042,-860,-277,-127,-96,1,7,11
1.72313E+12,-8054,1053,-864,-274,126,-79,1,7,11
1.72313E+12,-8053,1069,-865,-279,-126,-70,1,7,11
1.72313E+12,-8051,1083,-861,-295,-125,-66,1,7,11
1.72313E+12,-8055,1094,-865,-314,-118,-60,1,7,11
1.72313E+12,-8055,1102,-869,-334,-125,-45,1,7,11
1.72313E+12,-8056,1101,-873,-352,-118,-45,1,7,11
1.72313E+12,-8053,1101,-876,-362,-110,-44,1,7,11
1.72313E+12,-8057,1113,-884,-359,-94,-42,1,7,11
1.72313E+12,-8061,1121,-884,-361,-78,-47,1,7,11
1.72313E+12,-8060,1119,-877,-360,-70,-50,1,7,11
1.72313E+12,-8060,1119,-871,-341,-66,-56,1,7,11
1.72313E+12,-8048,1120,-876,-322,-58,-66,1,7,11
1.72313E+12,-8042,1127,-881,-306,-43,-78,1,7,11
1.72313E+12,-8051,1137,-876,-296,-36,-84,1,7,11
1.72313E+12,-8051,898,-877,-290,-37,-85,1,7,11
1.72313E+12,-8059,905,-885,-291,-36,-85,1,7,11
1.72313E+12,-8064,907,-884,-298,-42,-87,1,7,11
1.72313E+12,-8061,903,-889,-298,-49,-90,1,7,11
1.72313E+12,-7809,903,-887,-300,-55,-102,1,7,11
1.72313E+12,-8064,902,-887,-307,-63,-111,1,7,11
1.72313E+12,-7813,897,-886,-309,-67,-120,1,7,11
1.72313E+12,-8061,1142,-885,-310,-75,121,1,7,11
1.72313E+12,-7809,1133,-868,-304,-77,103,1,7,11
1.72313E+12,-7813,1129,-862,-294,-87,88,1,7,11
1.72313E+12,-7810,1123,-863,-282,-99,78,1,7,11
1.72313E+12,-7814,1132,-859,-268,-106,72,1,7,11
1.72313E+12,-8064,1130,-857,2,-105,68,1,7,11
1.72313E+12,-8059,1135,-857,28,-92,64,1,7,11
1.72313E+12,-8060,1140,-869,37,-77,54,1,7,11
1.72313E+12,-8059,1137,-869,41,-65,50,1,7,11
1.72313E+12,-8063,1145,-875,36,-59,43,1,7,11
1.72313E+12,-8056,1141,-881,24,-63,35,1,7,11
1.72313E+12,-8059,1134,-884,22,-53,25,1,7,11
1.72313E+12,-7811,1143,-887,11,-53,17,1,7,11
1.72313E+12,-8057,1130,-880,0,-57,5,1,7,11
1.72313E+12,-8055,1127,-882,0,-49,-262,1,7,11
1.72313E+12,-7817,1133,-887,-261,-49,-277,1,7,11
1.72313E+12,-7824,1133,-888,-279,-83,-284,1,7,11
1.72313E+12,-7834,1144,-877,-300,-122,-280,1,7,11
1.72313E+12,-7853,911,-874,-341,79,1,1,7,11
1.72313E+12,-7842,896,-871,-166,-261,41,1,7,11
1.72313E+12,-8062,1133,-869,-200,-317,62,1,7,11
1.72313E+12,-8024,1110,-865,-188,-309,63,1,7,11
1.72313E+12,-8021,1105,-853,-383,20,55,1,7,11
1.72313E+12,-8030,1122,-845,-318,59,46,1,7,11
1.72313E+12,-8025,900,-852,3,95,33,1,7,11
1.72313E+12,-8017,943,-864,43,-111,51,1,7,11
1.72313E+12,-8026,962,-876,65,-44,80,1,7,11
1.72313E+12,-8027,947,-880,63,267,120,1,7,11
1.72313E+12,-8035,917,-878,76,331,-117,1,7,11
1.72313E+12,-8057,897,-864,103,378,-108,1,7,11
1.72313E+12,-8059,1150,-861,-127,139,-119,1,7,11
1.72313E+12,-8061,905,-880,-116,140,113,1,7,11
1.72313E+12,-8054,914,-886,-110,137,90,1,7,11
1.72313E+12,-8064,923,-887,-113,152,68,1,7,11
1.72313E+12,-8062,922,-892,-125,146,44,1,7,11
1.72313E+12,-8055,926,-641,112,378,16,1,7,11
1.72313E+12,-8059,930,-647,98,355,4,1,7,11
1.72313E+12,-8058,913,-656,67,307,-262,1,7,11
1.72313E+12,-8058,1138,-659,33,276,-273,1,7,11
1.72313E+12,-7811,1133,-657,23,256,-290,1,7,11
1.72313E+12,-7810,1148,-666,37,-27,-288,1,7,11
1.72313E+12,-8041,1136,-674,32,-58,-287,1,7,11
1.72313E+12,-8040,1130,-672,35,-43,-286,1,7,11
1.72313E+12,-8048,1127,-673,45,-49,-285,1,7,11
1.72313E+12,-8042,1119,-669,57,-53,-286,1,7,11
1.72313E+12,-8046,1114,-676,65,-50,-287,1,7,11
1.72313E+12,-8044,1108,-673,69,-56,-295,1,7,11
1.72313E+12,-8040,1115,-684,76,-66,-302,1,7,11
1.72313E+12,-8032,1125,-691,72,-71,-300,1,7,11
1.72313E+12,-8041,1131,-708,34,-38,5,1,7,11
1.72313E+12,-8030,1125,-712,15,-27,23,1,7,11
1.72313E+12,-8026,1116,-707,-264,-4,39,1,7,11
1.72313E+12,-8031,1113,-710,-287,270,49,1,7,11
1.72313E+12,-8023,1106,-711,-307,286,59,1,7,11
1.72313E+12,-8017,1103,-708,-325,303,73,1,7,11
1.72313E+12,-8021,1096,-723,-330,327,85,1,7,11
1.72313E+12,-8027,1100,-730,-330,344,103,1,7,11
1.72313E+12,-8027,1088,-726,-340,356,117,1,7,11
1.72313E+12,-8057,1084,-732,-347,369,127,1,7,11
1.72313E+12,-8056,1065,-729,-375,320,-122,1,7,11
1.72313E+12,-8035,1075,-737,-353,315,120,1,7,11
1.72313E+12,-8064,1106,-744,-365,302,127,1,7,11
1.72313E+12,-8052,1098,-741,-378,270,-104,1,7,11
1.72313E+12,-8038,1106,-759,-376,-1,-87,1,7,11
1.72313E+12,-8020,1106,-757,-373,-6,-81,1,7,11
1.72313E+12,-8017,1120,-762,-354,270,-80,1,7,11
1.72313E+12,-8034,1127,-1027,-343,276,-87,1,7,11
1.72313E+12,-8026,1134,-1031,-335,272,-98,1,7,11
1.72313E+12,-8026,1138,-1026,-326,274,-121,1,7,11
1.72313E+12,-8027,1145,-1033,-320,276,112,1,7,11
1.72313E+12,-8028,1143,-1038,-323,272,92,1,7,11
1.72313E+12,-8033,1144,-1044,-320,266,66,1,7,11
1.72313E+12,-8043,1150,-1045,-320,261,42,1,7,11
1.72313E+12,-8034,1151,-1051,-324,-7,29,1,7,11
1.72313E+12,-8029,902,-1053,-327,-8,17,1,7,11
1.72313E+12,-8033,899,-1058,-339,-20,13,1,7,11
1.72313E+12,-8031,900,-1046,-344,-22,9,1,7,11
1.72313E+12,-8036,904,-1053,-353,-28,16,1,7,11
1.72313E+12,-8034,907,-1057,-368,-45,32,1,7,11
1.72313E+12,-8017,908,-1069,-377,-52,48,1,7,11
1.72313E+12,-8009,916,-1080,-133,-45,64,1,7,11
1.72313E+12,-8009,924,-1101,-146,-33,85,1,7,11
1.72313E+12,-8018,918,-1111,-171,-30,105,1,7,11
1.72313E+12,-8027,1146,-1113,-189,-46,124,1,7,11
1.72313E+12,-8046,1103,-1095,-184,-73,-127,1,7,11
1.72313E+12,-7816,1071,-1071,-146,-115,127,1,7,11
1.72313E+12,-7839,1053,-1066,-337,79,118,1,7,11
1.72313E+12,-7853,1046,-1075,-269,12,98,1,7,11
1.72313E+12,-7830,1031,-1065,42,-321,74,1,7,11
1.72313E+12,-8058,756,-1042,105,-365,28,1,7,11
1.72313E+12,-7819,1027,-1031,-80,-129,-268,1,7,11
1.72313E+12,-8063,1042,-752,-35,-166,-302,1,7,11
1.72313E+12,-8062,1052,-741,-8,-185,-335,1,7,11
1.72313E+12,-8060,1080,-727,267,-206,-352,1,7,11
1.72313E+12,-8052,1112,-718,268,-223,-366,1,7,11
1.72313E+12,-8043,905,-703,-10,-227,-374,1,7,11
1.72313E+12,-8039,929,-689,-48,-227,-370,1,7,11
1.72313E+12,-8037,939,-676,-103,-230,-347,1,7,11
1.72313E+12,-8036,938,-662,95,-226,-330,1,7,11
1.72313E+12,-8030,930,-663,46,-200,-307,1,7,11
1.72313E+12,-8002,950,-659,-278,-381,-289,1,7,11
1.72313E+12,-7991,972,-662,-315,-327,-299,1,7,11
1.72313E+12,-7964,1009,-674,-135,-290,-318,1,7,11
1.72313E+12,-7940,1299,-702,-229,8,-373,1,7,11
1.72313E+12,-7679,1349,-731,-600,72,-184,1,7,11
1.72313E+12,-7944,1403,-751,-510,-120,-523,1,7,11
1.72313E+12,-7964,1181,-763,-730,-70,-605,1,7,11
1.72313E+12,-7986,1194,-767,-976,-40,-436,1,7,11
1.72313E+12,-8018,1179,-758,-1238,-28,-779,1,7,11
1.72313E+12,-8050,1369,-729,-1488,-41,-869,1,7,11
1.72313E+12,-8063,1019,-700,-1692,-84,-708,1,7,11
1.72313E+12,-7815,928,-663,-2075,-123,-1071,1,7,11
1.72313E+12,-7823,1116,-884,-2142,99,-917,1,7,11
1.72313E+12,-7814,1050,-845,-2173,57,-1015,1,7,11
1.72313E+12,-7820,726,-816,-2154,22,-1359,1,7,11
1.72313E+12,-7819,666,-788,-2102,-260,-1183,1,7,11
1.72313E+12,-7823,848,-498,-1773,-283,-1265,1,7,11
1.72313E+12,-7839,437,-409,-1637,-135,-1816,1,7,11
1.72313E+12,-7880,353,-539,-695,-633,-2663,1,7,11
1.72313E+12,-7833,267,-553,-648,-386,-2530,1,7,11
1.72313E+12,-8050,-73,-553,-871,-613,-2922,1,7,11
1.72313E+12,-7810,72,-516,-846,-561,-2804,1,7,11
1.72313E+12,-7866,-308,-223,-815,-534,-3181,1,7,11
1.72313E+12,-7914,-254,-190,-773,-548,-3039,1,7,11
1.72313E+12,-8202,-385,-157,-457,-591,-3393,1,7,11
1.72313E+12,-8211,-770,-138,-638,-438,-3246,1,7,11
1.72313E+12,-8229,-885,-381,-591,-496,-3287,1,7,11
1.72313E+12,-8232,-724,-366,-552,-815,-3292,1,7,11
1.72313E+12,-8208,-1085,-358,-525,-869,-3270,1,7,11
1.72313E+12,-7843,-1363,-293,-234,-666,-3212,1,7,11
1.72313E+12,-7840,-1226,-277,-246,-881,-3220,1,7,11
1.72313E+12,-7848,-1604,-271,-236,-863,-3226,1,7,11
1.72313E+12,-7851,-1465,-280,-206,-852,-3235,1,7,11
1.72313E+12,-7875,-1832,-283,-165,-854,-3230,1,7,11
1.72313E+12,-7902,-1673,-287,-376,-892,-3213,1,7,11
1.72313E+12,-7931,-1761,-262,-339,-722,-3419,1,7,11
1.72313E+12,-7894,-2112,26,-324,-1112,-3373,1,7,11
1.72313E+12,-7854,-1969,83,-309,-957,-3358,1,7,11
1.72313E+12,-7828,-2348,-119,-285,-1288,-3366,1,7,11
1.72313E+12,-8019,-2202,-52,-264,-1377,-3419,1,7,11
1.72313E+12,-7941,-2299,260,21,-1183,-3254,1,7,11
1.72313E+12,-7601,-2633,323,43,-1199,-3614,1,7,11
1.72313E+12,-7794,-2448,379,51,-1169,-3703,1,7,11
1.72313E+12,-7734,-2559,178,4,-1370,-3522,1,7,11
1.72313E+12,-7706,-2701,244,-306,-1022,-3845,1,7,11
1.72313E+12,-7694,-3083,549,-314,-935,-3897,1,7,11
1.72313E+12,-7381,-2952,590,-330,-1132,-3934,1,7,11
1.72313E+12,-7320,-3341,636,-352,-1050,-3956,1,7,11
1.72313E+12,-7544,-3451,413,-335,-678,-3947,1,7,11
1.72313E+12,-7297,-3299,475,-339,-812,-3882,1,7,11
1.72313E+12,-7529,-3662,502,-349,-471,-3493,1,7,11
1.72313E+12,-7489,-3554,510,-362,-408,-3592,1,7,11
1.72313E+12,-7431,-3942,797,-148,-619,-3404,1,7,11
1.72313E+12,-7143,-3819,821,-169,-541,-2985,1,7,11
1.72313E+12,-7114,-4202,837,-152,-236,-2734,1,7,11
1.72313E+12,-7065,-4056,840,-369,-221,-2855,1,7,11
1.72313E+12,-7265,-4398,848,-312,-217,-2485,1,7,11
1.72313E+12,-7208,-4461,848,15,-202,-2655,1,7,11
1.72313E+12,-7183,-4262,852,66,-188,-2589,1,7,11
1.72313E+12,-6894,-4322,861,101,-207,-2270,1,7,11
1.72313E+12,-6862,-4645,869,105,-241,-2214,1,7,11
1.72313E+12,-6820,-4719,869,110,-536,-2425,1,7,11
1.72313E+12,-7016,-4523,875,119,-570,-2396,1,7,11
1.72313E+12,-6965,-4587,882,119,-580,-2378,1,7,11
1.72313E+12,-6915,-4902,645,-126,-575,-2362,1,7,11
1.72313E+12,-6627,-4961,657,-113,-557,-2328,1,7,11
1.72313E+12,-6582,-4761,680,-93,-547,-2016,1,7,11
1.72313E+12,-6550,-4828,721,-93,-528,-1955,1,7,11
1.72313E+12,-6756,-5150,743,-80,-245,-2127,1,7,11
1.72313E+12,-6715,-5199,758,-64,-214,-2061,1,7,11
1.72313E+12,-6660,-5226,1027,-61,-188,-1741,1,7,11
1.72313E+12,-6356,-5243,1039,-68,-138,-1675,1,7,11
1.72313E+12,-6307,-5005,1047,-90,-345,-1867,1,7,11
1.72313E+12,-6276,-5061,1059,103,-303,-1809,1,7,11
1.72313E+12,-6483,-5104,1065,63,1,-1499,1,7,11
1.72313E+12,-6448,-5402,1064,19,58,-1475,1,7,11
1.72313E+12,-6424,-5457,1057,-286,105,-1453,1,7,11
1.72313E+12,-6420,-5485,1035,-310,-114,-1415,1,7,11
1.72313E+12,-6403,-5284,766,-355,-106,-1634,1,7,11
1.72313E+12,-6120,-5362,745,-381,-117,-1602,1,7,11
1.72313E+12,-6087,-5675,719,-373,-126,-1587,1,7,11
1.72313E+12,-6083,-5716,703,-359,-125,-1589,1,7,11
1.72313E+12,-6086,-5515,704,-351,106,-1564,1,7,11
1.72313E+12,-6167,-5899,704,32,27,-938,1,7,11
1.72313E+12,-5877,-5898,708,50,31,-1124,1,7,11
1.72313E+12,-5856,-5907,724,57,24,-1060,1,7,11
1.72313E+12,-5822,-5908,737,48,14,-740,1,7,11
1.72313E+12,-5799,-5935,746,12,13,-686,1,7,11
1.72313E+12,-5771,-5967,767,-270,11,-896,1,7,11
1.72313E+12,-5770,-5974,1036,-285,26,-862,1,7,11
1.72313E+12,-5763,-5967,1040,-308,29,-810,1,7,11
1.72313E+12,-5986,-5988,1045,-344,36,-494,1,7,11
1.72313E+12,-5993,-6007,1054,-145,51,-470,1,7,11
1.72313E+12,-6002,-6006,1049,-159,56,-449,1,7,11
1.72313E+12,-6003,-5765,1043,-183,55,-417,1,7,11
1.72313E+12,-5986,-5771,1037,-194,41,-386,1,7,11
1.72313E+12,-5961,-5786,1033,-209,37,-619,1,7,11
1.72313E+12,-5944,-5798,1034,-211,40,-596,1,7,11
1.72313E+12,-5935,-5810,1026,-208,45,-588,1,7,11
1.72313E+12,-5940,-5825,1028,-204,52,-575,1,7,11
1.72313E+12,-5923,-5842,1025,-194,48,-559,1,7,11
1.72313E+12,-5903,-5855,1026,-169,50,-556,1,7,11
1.72313E+12,-5623,-5869,1041,-147,55,-552,1,7,11
1.72313E+12,-5601,-6146,1047,-379,67,-550,1,7,11
1.72313E+12,-5594,-6157,1048,-351,84,-556,1,7,11
1.72313E+12,-5601,-6168,1052,-330,103,-553,1,7,11
1.72313E+12,-5612,-6173,1053,-310,109,-535,1,7,11
1.72313E+12,-5592,-6170,1053,-300,101,-251,1,7,11
1.72313E+12,-5571,-6176,1067,-299,101,-227,1,7,11
1.72313E+12,-5564,-6194,1072,-300,105,-204,1,7,11
1.72313E+12,-5546,-6196,1070,-295,101,-181,1,7,11
1.72313E+12,-5538,-6203,1074,-297,103,-149,1,7,11
1.72313E+12,-5535,-6210,1081,-308,118,-383,1,7,11
1.72313E+12,-5539,-6213,1080,-300,-119,-366,1,7,11
1.72313E+12,-5541,-6236,1084,-298,-108,-343,1,7,11
1.72313E+12,-5518,-6020,1095,-290,-106,-312,1,7,11
1.72313E+12,-5520,-6036,1095,0,-82,-295,1,7,11
1.72313E+12,-5532,-6260,1077,47,-64,-275,1,7,11
1.72313E+12,-5532,-6216,1076,57,-56,2,1,7,11
1.72313E+12,-5521,-6191,1070,29,-53,31,1,7,11
1.72313E+12,-5524,-6180,1067,-269,-55,49,1,7,11
1.72313E+12,-5531,-6186,1066,-309,-65,46,1,7,11
1.72313E+12,-5550,-6185,1056,-342,-76,28,1,7,11
1.72313E+12,-5566,-6183,1055,-362,-88,34,1,7,11
1.72313E+12,-5561,-6196,1056,-383,-99,62,1,7,11
1.72313E+12,-5554,-6209,1059,-131,-85,88,1,7,11
1.72313E+12,-5551,-6213,1060,-367,-62,110,1,7,11
1.72313E+12,-5560,-6205,1055,-340,-42,-128,1,7,11
1.72313E+12,-5564,-6192,1052,-315,-28,-110,1,7,11
1.72313E+12,-5567,-6169,1050,-308,-21,-94,1,7,11
1.72313E+12,-5561,-6155,1041,-316,-17,-77,1,7,11
1.72313E+12,-5559,-6145,1039,-328,-12,-71,1,7,11
1.72313E+12,-5552,-6153,1034,-344,-10,-68,1,7,11
1.72313E+12,-5537,-6168,1039,-345,-2,-79,1,7,11
1.72313E+12,-5549,-6183,1045,-339,272,-92,1,7,11
1.72313E+12,-5533,-6166,1035,-327,281,-88,1,7,11
1.72313E+12,-5538,-6180,1037,-360,315,-71,1,7,11
1.72313E+12,-5544,-6191,1047,-368,335,-46,1,7,11
1.72313E+12,-5560,-6202,1055,-359,341,-29,1,7,11
1.72313E+12,-5558,-6215,1053,-354,343,270,1,7,11
1.72313E+12,-5542,-6245,1037,-347,351,316,1,7,11
1.72313E+12,-5540,-6265,1033,-323,380,354,1,7,11
1.72313E+12,-5553,-6265,1032,-280,159,142,1,7,11
1.72313E+12,-5574,-6252,1030,13,190,196,1,7,11
1.72313E+12,-5585,-6244,762,37,216,514,1,7,11
1.72313E+12,-5607,-6221,762,62,243,583,1,7,11
1.72313E+12,-5614,-6187,746,67,253,398,1,7,11
1.72313E+12,-5627,-6156,734,49,522,456,1,7,11
1.72313E+12,-5897,-5860,708,16,536,772,1,7,11
1.72313E+12,-5944,-5845,688,-296,542,858,1,7,11
1.72313E+12,-5972,-5824,667,-353,534,660,1,7,11
1.72313E+12,-5983,-5799,645,-136,508,724,1,7,11
1.72313E+12,-6015,-5802,888,-181,512,1042,1,7,11
1.72313E+12,-5804,-5795,881,-185,248,1106,1,7,11
1.72313E+12,-5827,-5770,861,-161,230,923,1,7,11
1.72313E+12,-5840,-5991,849,-135,217,1007,1,7,11
1.72313E+12,-5857,-5980,837,-372,213,1346,1,7,11
1.72313E+12,-5868,-5952,825,-316,213,1165,1,7,11
1.72313E+12,-5884,-5926,816,-261,230,1225,1,7,11
1.72313E+12,-6194,-5895,802,47,518,1557,1,7,11
1.72313E+12,-6238,-5595,785,98,531,1651,1,7,11
1.72313E+12,-6270,-5548,496,-110,550,1492,1,7,11
1.72313E+12,-6080,-5758,471,-75,590,1857,1,7,11
1.72313E+12,-6124,-5722,455,-31,601,1718,1,7,11
1.72313E+12,-6138,-5676,463,292,614,2083,1,7,11
1.72313E+12,-6426,-5361,457,130,395,1946,1,7,11
1.72313E+12,-6478,-5294,457,206,421,2330,1,7,11
1.72313E+12,-6503,-5491,469,525,422,2200,1,7,11
1.72313E+12,-6279,-5420,480,601,446,2581,1,7,11
1.72313E+12,-6342,-5110,494,406,496,2492,1,7,11
1.72313E+12,-6673,-5042,772,484,793,2925,1,7,11
1.72313E+12,-6733,-5214,787,823,823,3125,1,7,11
1.72313E+12,-6776,-5128,800,642,887,3333,1,7,11
1.72313E+12,-6596,-4777,804,728,739,3290,1,7,11
1.72313E+12,-6948,-4901,794,1031,1091,3513,1,7,11
1.72313E+12,-7032,-4541,794,766,897,3766,1,7,11
1.72313E+12,-6837,-4677,776,1045,954,4029,1,7,11
1.72313E+12,-7195,-4257,502,1079,1293,4279,1,7,11
1.72313E+12,-7277,-4073,486,1081,1344,4555,1,7,11
1.72313E+12,-7079,-4192,474,766,1374,4807,1,7,11
1.72313E+12,-7124,-3822,465,742,1403,5051,1,7,11
1.72313E+12,-7153,-3919,449,1050,1198,5267,1,7,11
1.72313E+12,-7510,-3591,417,1145,1634,5562,1,7,11
1.72313E+12,-7329,-3405,395,951,1470,5984,1,7,11
1.72313E+12,-7352,-2951,613,1021,1806,5859,1,7,11
1.72313E+12,-7690,-2765,588,1337,1668,6191,1,7,11
1.72313E+12,-7808,-2534,530,1168,1748,6016,1,7,11
1.72313E+12,-7617,-2293,211,1217,1744,6081,1,7,11
1.72313E+12,-7652,-2025,155,1270,1722,6408,1,7,11
1.72313E+12,-7958,-2057,131,1553,1715,6458,1,7,11
1.72313E+12,-8014,-1853,368,1614,1697,6525,1,7,11
1.72313E+12,-7823,-1423,331,1431,1666,6306,1,7,11
1.72313E+12,-7859,-1221,262,1532,1862,6340,1,7,11
1.72313E+12,-7871,-1281,-69,1843,1818,6334,1,7,11
1.72313E+12,-7888,-1072,119,1858,1815,6310,1,7,11
1.72313E+12,-7912,-866,49,1865,1844,6520,1,7,11
1.72313E+12,-8205,-594,-286,1885,1886,6471,1,7,11
1.72313E+12,-8198,-303,-361,1828,1899,6432,1,7,11
1.72313E+12,-7847,-26,-190,1465,1871,6419,1,7,11
1.72313E+12,-7983,513,-537,1609,1884,6134,1,7,11
1.72313E+12,-7641,813,-637,1245,1678,6094,1,7,11
1.72313E+12,-7580,1053,-487,1307,1721,6245,1,7,11
1.72313E+12,-7779,934,-819,1060,1745,5760,1,7,11
1.72313E+12,-7758,1325,-896,887,1787,5634,1,7,11
1.72313E+12,-7767,1245,-723,781,2068,5124,1,7,11
1.72313E+12,-7764,1440,-1066,401,2054,4303,1,7,11
1.72313E+12,-7771,1898,-899,242,1768,3750,1,7,11
1.72313E+12,-7755,2136,-999,306,1719,3294,1,7,11
1.72313E+12,-7770,2356,-1337,34,1684,3191,1,7,11
1.72313E+12,-7796,2259,-1398,-529,1862,2693,1,7,11
1.72313E+12,-7799,2628,-1194,-808,1474,2514,1,7,11
1.72313E+12,-7775,2442,-1226,-1052,1566,2596,1,7,11
1.72313E+12,-7725,2453,-1226,-975,1400,2419,1,7,11
1.72313E+12,-7416,2478,-1204,-1305,994,1965,1,7,11
1.72313E+12,-7323,2506,-1188,-1304,1107,1886,1,7,11
1.72313E+12,-7523,2530,-1193,-980,667,1411,1,7,11
1.72313E+12,-7455,2554,-1214,-912,823,1214,1,7,11
1.72313E+12,-7147,2842,-1248,-1121,771,1297,1,7,11
1.72313E+12,-7134,2836,-1270,-1091,480,1151,1,7,11
1.72313E+12,-7138,2820,-1278,-1025,446,767,1,7,11
1.72313E+12,-7165,2546,-1268,-705,414,662,1,7,11
1.72313E+12,-7463,2535,-1248,-643,597,853,1,7,11
1.72313E+12,-7506,2517,-1208,-837,231,826,1,7,11
1.72313E+12,-7297,2491,-1170,-772,351,814,1,7,11
1.72313E+12,-7494,2491,-1161,-232,-369,800,1,7,11
1.72313E+12,-7478,2497,-1158,-380,-183,506,1,7,11
1.72313E+12,-7468,2513,-1403,-283,-230,462,1,7,11
1.72313E+12,-7480,2508,-1381,55,-248,393,1,7,11
1.72313E+12,-7511,2502,-1346,-106,-520,568,1,7,11
1.72313E+12,-7545,2512,-1314,-6,-538,224,1,7,11
1.72313E+12,-7319,2522,-1296,335,-566,134,1,7,11
1.72313E+12,-7355,2509,-1298,173,-610,290,1,7,11
1.72313E+12,-7338,2524,-1281,583,-407,-79,1,7,11
1.72313E+12,-7690,2503,-929,351,-522,-185,1,7,11
1.72313E+12,-7690,2458,-910,-14,-243,-220,1,7,11
1.72313E+12,-7700,2678,-1135,-104,-205,-252,1,7,11
1.72313E+12,-7717,2646,-1115,55,-185,-523,1,7,11
1.72313E+12,-7722,2614,-1098,-285,-194,-526,1,7,11
1.72313E+12,-7720,2590,-1087,-346,-217,-527,1,7,11
1.72313E+12,-7720,2564,-1074,-383,-256,-517,1,7,11
1.72313E+12,-7704,2296,-1047,-129,-555,-236,1,7,11
1.72313E+12,-7682,2289,-762,-354,-588,-198,1,7,11
1.72313E+12,-7404,2290,-748,-306,-611,-150,1,7,11
1.72313E+12,-7379,2295,-743,13,-616,-348,1,7,11
1.72313E+12,-7352,2569,-728,80,-613,-278,1,7,11
1.72313E+12,-7324,2587,-723,-112,-596,52,1,7,11
1.72313E+12,-7305,2632,-718,-53,-572,-127,1,7,11
1.72313E+12,-7546,2664,-719,291,-534,-22,1,7,11
1.72313E+12,-7523,2442,-728,348,-239,292,1,7,11
1.72313E+12,-7510,2485,-746,146,-191,335,1,7,11
1.72313E+12,-7488,2531,-749,174,-139,357,1,7,11
1.72313E+12,-7483,2833,-764,193,-339,364,1,7,11
1.72313E+12,-7477,2878,-1043,199,-283,355,1,7,11
1.72313E+12,-7483,2920,-1059,188,28,339,1,7,11
1.72313E+12,-7487,2698,-1073,148,79,326,1,7,11
1.72313E+12,-7497,2713,-1092,345,123,297,1,7,11
1.72313E+12,-7505,2725,-1095,295,-90,265,1,7,11
1.72313E+12,-7513,2736,-1110,-9,-56,-36,1,7,11
1.72313E+12,-7533,2735,-1115,-68,-40,-85,1,7,11
1.72313E+12,-7549,2741,-1109,-123,-34,117,1,7,11
1.72313E+12,-7318,2763,-1117,83,-51,60,1,7,11
1.72313E+12,-7325,2749,-1111,-258,-95,-261,1,7,11
1.72313E+12,-7330,2713,-1104,-328,-122,-331,1,7,11
1.72313E+12,-7345,2936,-1089,-133,108,-141,1,7,11
1.72313E+12,-7372,2898,-1071,-170,58,-200,1,7,11
1.72313E+12,-7375,2853,-1044,-197,4,-245,1,7,11
1.72313E+12,-7398,2548,-767,-208,-275,-521,1,7,11
1.72313E+12,-7422,2503,-742,-206,-309,-520,1,7,11
1.72313E+12,-7687,2469,-724,-179,-363,-256,1,7,11
1.72313E+12,-7415,2440,-704,-136,-159,-245,1,7,11
1.72313E+12,-7408,2681,-686,-344,-186,-234,1,7,11
1.72313E+12,-7411,2670,-679,-301,-204,-222,1,7,11
1.72313E+12,-7401,2662,-651,-257,-212,-216,1,7,11
1.72313E+12,-7399,2657,-648,25,-201,-219,1,7,11
1.72313E+12,-7417,2649,-888,35,-186,-225,1,7,11
1.72313E+12,-7682,2637,-881,41,-190,-222,1,7,11
1.72313E+12,-7693,2628,-852,18,-186,-240,1,7,11
1.72313E+12,-7704,2630,-851,7,-190,-241,1,7,11
1.72313E+12,-7693,2625,-830,-262,-186,-245,1,7,11
1.72313E+12,-7708,2602,-824,-279,-159,-514,1,7,11
1.72313E+12,-7700,2586,-807,-281,-164,-526,1,7,11
1.72313E+12,-7718,2576,-798,-263,-134,-549,1,7,11
1.72313E+12,-7729,2568,-789,1,-362,-571,1,7,11
1.72313E+12,-7735,2565,-778,14,-344,-580,1,7,11
1.72313E+12,-7723,2297,-773,24,-318,-578,1,7,11
1.72313E+12,-7720,2290,-770,47,-291,-572,1,7,11
1.72313E+12,-7714,2296,-769,50,-277,-554,1,7,11
1.72313E+12,-7715,2287,-510,44,26,-538,1,7,11
1.72313E+12,-7723,2286,-509,38,58,-518,1,7,11
1.72313E+12,-7728,2279,-505,20,85,-239,1,7,11
1.72313E+12,-7732,2265,-509,1,114,-218,1,7,11
1.72313E+12,-7740,2255,-504,-270,-122,-205,1,7,11
1.72313E+12,-7748,2246,-507,-282,-107,-194,1,7,11
1.72313E+12,-7743,2232,-510,-287,-95,-190,1,7,11
1.72313E+12,-7750,2217,-507,-289,-82,-187,1,7,11
1.72313E+12,-7760,2214,-769,-286,-66,-189,1,7,11
1.72313E+12,-7762,2206,-510,-289,-62,-190,1,7,11
1.72313E+12,-7758,2199,-507,-285,-53,-186,1,7,11
1.72313E+12,-7756,2191,-511,-272,-44,-182,1,7,11
1.72313E+12,-7752,2182,-769,-257,-31,-184,1,7,11
1.72313E+12,-7758,2176,-779,6,-17,-183,1,7,11
1.72313E+12,-7764,2428,-790,13,257,-182,1,7,11
1.72313E+12,-7767,2425,-809,23,274,-178,1,7,11
1.72313E+12,-7775,2425,-820,30,292,-172,1,7,11
1.72313E+12,-7785,2427,-818,28,305,-162,1,7,11
1.72313E+12,-7788,2430,-822,9,300,-155,1,7,11
1.72313E+12,-7793,2430,-832,-270,293,-151,1,7,11
1.72313E+12,-7805,2418,-838,-304,292,-149,1,7,11
1.72313E+12,-7555,2392,-834,-345,278,-158,1,7,11
1.72313E+12,-7564,2382,-834,-364,255,-177,1,7,11
1.72313E+12,-7578,2370,-830,-373,-30,-198,1,7,11
1.72313E+12,-7586,2364,-832,-137,-67,-215,1,7,11
1.72313E+12,-7584,2357,-832,-146,-97,-219,1,7,11
1.72313E+12,-7571,2342,-825,-155,-121,-211,1,7,11
1.72313E+12,-7554,2322,-818,-148,127,-192,1,7,11
1.72313E+12,-7798,2312,-815,-380,-115,-170,1,7,11
1.72313E+12,-7800,2311,-806,-357,-99,-145,1,7,11
1.72313E+12,-7802,2311,-803,-341,-88,-377,1,7,11
1.72313E+12,-7806,2046,-797,-330,-85,-351,1,7,11
1.72313E+12,-7806,2043,-794,-331,-88,-334,1,7,11
1.72313E+12,-7553,2038,-796,-342,-89,-320,1,7,11
1.72313E+12,-7558,2041,-804,-359,-93,-314,1,7,11
1.72313E+12,-7556,2020,-800,-378,-84,-313,1,7,11
1.72313E+12,-7561,2004,-800,-359,-71,-317,1,7,11
1.72313E+12,-7570,2006,-806,-325,-53,-332,1,7,11
1.72313E+12,-7580,2001,-806,-313,-47,-345,1,7,11
1.72313E+12,-7581,2001,-807,-297,-49,-354,1,7,11
1.72313E+12,-7589,2012,-805,-293,-54,-361,1,7,11
1.72313E+12,-7595,2001,-805,-312,-66,-355,1,7,11
1.72313E+12,-7575,1970,-817,-308,-66,-337,1,7,11
1.72313E+12,-7567,1964,-819,-272,-35,-331,1,7,11
1.72313E+12,-7585,1972,-824,12,-4,-317,1,7,11
1.72313E+12,-7591,1972,-825,18,257,-306,1,7,11
1.72313E+12,-7597,1972,-826,17,261,-295,1,7,11
1.72313E+12,-7598,1965,-840,5,261,-284,1,7,11
1.72313E+12,-7601,1970,-848,-266,256,-277,1,7,11
1.72313E+12,-7601,1964,-842,-294,-16,-270,1,7,11
1.72313E+12,-7595,1950,-841,-318,-29,-265,1,7,11
1.72313E+12,-7601,1942,-837,-321,-41,-266,1,7,11
1.72313E+12,-7601,1927,-829,-322,-56,-262,1,7,11
1.72313E+12,-7595,1921,-831,-305,-66,-265,1,7,11
1.72313E+12,-7592,1925,-833,-278,-70,-263,1,7,11
1.72313E+12,-7584,1930,-838,6,-74,-259,1,7,11
1.72313E+12,-7585,1939,-834,26,-73,5,1,7,11
1.72313E+12,-7590,1958,-844,26,-86,19,1,7,11
1.72313E+12,-7579,1947,-837,12,-101,35,1,7,11
1.72313E+12,-7577,1956,-838,2,-103,48,1,7,11
1.72313E+12,-7573,1961,-839,-264,-110,58,1,7,11
1.72313E+12,-7567,1958,-833,-283,-116,68,1,7,11
1.72313E+12,-7574,1970,-833,-292,-105,70,1,7,11
1.72313E+12,-7573,1971,-833,-314,-111,71,1,7,11
1.72313E+12,-7570,1960,-831,-328,-114,69,1,7,11
1.72313E+12,-7575,1959,-825,-336,-114,65,1,7,11
1.72313E+12,-7590,1969,-820,-353,-128,54,1,7,11
1.72313E+12,-7596,1969,-813,-363,105,45,1,7,11
1.72313E+12,-7599,1973,-813,-368,89,43,1,7,11
1.72313E+12,-7593,1971,-813,-372,75,49,1,7,11
1.72313E+12,-7578,1966,-808,-362,76,58,1,7,11
1.72313E+12,-7569,1972,-805,-343,98,63,1,7,11
1.72313E+12,-7568,1975,-800,-332,127,66,1,7,11
1.72313E+12,-7558,1973,-800,-314,-114,65,1,7,11
1.72313E+12,-7563,1972,-792,-294,-92,53,1,7,11
1.72313E+12,-7571,1976,-799,-278,-81,44,1,7,11
1.72313E+12,-7572,1985,-805,-281,-95,28,1,7,11
1.72313E+12,-7578,1975,-808,-294,-104,14,1,7,11
1.72313E+12,-7594,1973,-801,-290,-99,-260,1,7,11
1.72313E+12,-7598,1979,-801,-302,-115,-261,1,7,11
1.72313E+12,-7586,1965,-802,-312,-128,-261,1,7,11
1.72313E+12,-7595,1960,-807,-319,118,-265,1,7,11
1.72313E+12,-7589,1940,-794,-323,102,-259,1,7,11
1.72313E+12,-7603,1946,-782,-311,103,-257,1,7,11
1.72313E+12,-7610,1944,-777,-319,87,14,1,7,11
1.72313E+12,-7604,1945,-773,-328,67,24,1,7,11
1.72313E+12,-7592,1942,-508,-338,56,41,1,7,11
1.72313E+12,-7586,1940,-511,-337,59,47,1,7,11
1.72313E+12,-7578,1939,-510,-324,78,46,1,7,11
1.72313E+12,-7585,1944,-773,-304,104,49,1,7,11
1.72313E+12,-7593,1951,-509,-288,121,57,1,7,11
1.72313E+12,-7596,1957,-509,-284,-128,67,1,7,11
1.72313E+12,-7604,1964,-774,-293,-127,75,1,7,11
1.72313E+12,-7591,1959,-511,-303,-120,75,1,7,11
1.72313E+12,-7600,1959,-511,-312,-106,65,1,7,11
1.72313E+12,-7602,1957,-507,-319,-109,64,1,7,11
1.72313E+12,-7600,1955,-506,-315,-113,57,1,7,11
1.72313E+12,-7602,1954,-503,-311,-107,50,1,7,11
1.72313E+12,-7602,1957,-490,-302,-105,43,1,7,11
1.72313E+12,-7597,1951,-492,-293,-99,40,1,7,11
1.72313E+12,-7593,1947,-492,-279,-98,38,1,7,11
1.72313E+12,-7591,1947,-494,-269,-90,37,1,7,11
1.72313E+12,-7594,1947,-504,-258,-78,48,1,7,11
1.72313E+12,-7586,1931,-501,13,-64,59,1,7,11
1.72313E+12,-7604,1942,-493,28,-47,68,1,7,11
1.72313E+12,-7613,1959,-496,31,-58,75,1,7,11
1.72313E+12,-7606,1978,-498,11,-90,82,1,7,11
1.72313E+12,-7588,1991,-506,-277,-103,85,1,7,11
1.72313E+12,-7582,2003,-512,-308,-92,83,1,7,11
1.72313E+12,-7582,2000,-506,-350,-77,72,1,7,11
1.72313E+12,-7583,1972,-490,-378,-69,59,1,7,11
1.72313E+12,-7596,1956,-496,-383,-62,46,1,7,11
1.72313E+12,-7610,1939,-494,-134,-74,33,1,7,11
1.72313E+12,-7622,1937,-487,-381,-98,30,1,7,11
1.72313E+12,-7630,1945,-484,-362,-119,39,1,7,11
1.72313E+12,-7617,1948,-483,-353,109,58,1,7,11
1.72313E+12,-7591,1942,-495,-328,99,73,1,7,11
1.72313E+12,-7568,1936,-491,-292,124,82,1,7,11
1.72313E+12,-7571,1946,-493,-261,-92,93,1,7,11
1.72313E+12,-7588,1956,-490,21,-76,102,1,7,11
1.72313E+12,-7582,1966,-495,39,-79,109,1,7,11
1.72313E+12,-7583,1975,-492,50,-75,107,1,7,11
1.72313E+12,-7585,1986,-505,53,-70,88,1,7,11
1.72313E+12,-7583,1984,-506,41,-65,65,1,7,11
1.72313E+12,-7603,1988,-506,33,-55,46,1,7,11
1.72313E+12,-7608,1984,-502,23,-61,37,1,7,11
1.72313E+12,-7597,1976,-506,10,-66,32,1,7,11
1.72313E+12,-7610,1966,-509,-258,-64,25,1,7,11
1.72313E+12,-7608,1961,-497,-264,-77,32,1,7,11
1.72313E+12,-7617,1966,-495,-264,-87,38,1,7,11
1.72313E+12,-7612,1959,-494,-269,-106,49,1,7,11
1.72313E+12,-7598,1950,-492,-267,-121,56,1,7,11
1.72313E+12,-7592,1952,-494,-260,-122,60,1,7,11
1.72313E+12,-7591,1957,-493,-258,-120,65,1,7,11
1.72313E+12,-7587,1956,-488,1,-111,73,1,7,11
1.72313E+12,-7590,1958,-485,1,-96,77,1,7,11
1.72313E+12,-7592,1965,-487,-257,-84,83,1,7,11
1.72313E+12,-7592,1968,-489,-263,-71,87,1,7,11
1.72313E+12,-7595,1973,-491,-268,-59,84,1,7,11
1.72313E+12,-7598,1975,-496,-272,-53,82,1,7,11
1.72313E+12,-7597,1979,-494,-281,-51,73,1,7,11
1.72313E+12,-7596,1976,-495,-290,-51,66,1,7,11
1.72313E+12,-7594,1977,-501,-295,-51,60,1,7,11
1.72313E+12,-7597,1980,-499,-297,-56,52,1,7,11
1.72313E+12,-7591,1966,-492,-293,-59,54,1,7,11
1.72313E+12,-7591,1965,-492,-288,-62,57,1,7,11
1.72313E+12,-7593,1963,-499,-279,-56,60,1,7,11
1.72313E+12,-7599,1961,-496,-272,-58,59,1,7,11
1.72313E+12,-7588,1964,-508,-264,-62,59,1,7,11
1.72313E+12,-7584,1968,-772,1,-58,57,1,7,11
1.72313E+12,-7582,1975,-508,-258,-53,58,1,7,11
1.72313E+12,-7581,1981,-510,-265,-52,61,1,7,11
1.72313E+12,-7579,1980,-776,-272,-49,60,1,7,11
1.72313E+12,-7580,1981,-771,-283,-42,61,1,7,11
1.72313E+12,-7577,1979,-774,-288,-39,61,1,7,11
1.72313E+12,-7574,1971,-772,-293,-38,59,1,7,11
1.72313E+12,-7577,1972,-778,-292,-30,55,1,7,11
1.72313E+12,-7583,1981,-784,-286,-16,51,1,7,11
1.72313E+12,-7580,1971,-781,-295,-18,48,1,7,11
1.72313E+12,-7597,1973,-785,-299,-21,46,1,7,11
1.72313E+12,-7615,1976,-786,-309,-43,34,1,7,11
1.72313E+12,-7620,1966,-786,-331,-87,25,1,7,11
1.72313E+12,-7628,1972,-788,-338,-126,19,1,7,11
1.72313E+12,-7610,1964,-789,-349,98,23,1,7,11
1.72313E+12,-7589,1953,-788,-342,91,30,1,7,11
1.72313E+12,-7572,1953,-781,-316,107,40,1,7,11
1.72313E+12,-7571,1953,-512,-291,-119,45,1,7,11
1.72313E+12,-7574,1953,-501,-265,-94,51,1,7,11
1.72313E+12,-7576,1964,-505,17,-80,49,1,7,11
1.72313E+12,-7574,1981,-774,27,-68,46,1,7,11
1.72313E+12,-7572,1976,-772,21,-55,42,1,7,11
1.72313E+12,-7579,1977,-777,7,-46,32,1,7,11
1.72313E+12,-7589,1976,-773,-270,-42,18,1,7,11
1.72313E+12,-7605,1967,-770,-291,-41,14,1,7,11
1.72313E+12,-7597,1952,-780,-299,-42,23,1,7,11
1.72313E+12,-7593,1947,-778,-300,-37,29,1,7,11
1.72313E+12,-7592,1939,-511,-300,-38,32,1,7,11
1.72313E+12,-7590,1930,-505,-294,-39,36,1,7,11
1.72313E+12,-7603,1933,-508,-281,-33,42,1,7,11
1.72313E+12,-7602,1934,-502,-275,-45,52,1,7,11
1.72313E+12,-7596,1934,-506,-259,-50,57,1,7,11
1.72313E+12,-7595,1943,-510,6,-48,59,1,7,11
1.72313E+12,-7592,1955,-774,12,-40,63,1,7,11
1.72313E+12,-7591,1962,-783,11,-28,65,1,7,11
1.72313E+12,-7590,1969,-787,11,-20,66,1,7,11
1.72313E+12,-7583,1977,-802,8,-6,62,1,7,11
1.72313E+12,-7581,1979,-803,-260,261,56,1,7,11
1.72313E+12,-7582,1972,-802,-277,264,45,1,7,11
1.72313E+12,-7584,1965,-804,-286,268,31,1,7,11
1.72313E+12,-7587,1964,-809,-293,270,21,1,7,11
1.72313E+12,-7584,1959,-811,-303,264,11,1,7,11
1.72313E+12,-7585,1954,-813,-305,261,0,1,7,11
1.72313E+12,-7586,1948,-811,-300,258,-266,1,7,11
1.72313E+12,-7586,1945,-817,-291,-3,-270,1,7,11
1.72313E+12,-7585,1951,-823,-276,-2,-276,1,7,11
1.72313E+12,-7583,1943,-821,-269,-2,-276,1,7,11
1.72313E+12,-7586,1945,-825,-261,257,-279,1,7,11
1.72313E+12,-7583,1946,-838,0,260,-278,1,7,11
1.72313E+12,-7586,1943,-839,-258,264,-279,1,7,11
1.72313E+12,-7581,1941,-848,-264,268,-282,1,7,11
1.72313E+12,-7581,1935,-846,-272,265,-284,1,7,11
1.72313E+12,-7576,1939,-853,-276,258,-287,1,7,11
1.72313E+12,-7583,1942,-850,-285,258,-294,1,7,11
1.72313E+12,-7586,1937,-855,-294,261,-293,1,7,11
1.72313E+12,-7583,1929,-864,-304,261,-291,1,7,11
1.72313E+12,-7579,2173,-863,-306,261,-295,1,7,11
1.72313E+12,-7577,2174,-872,-300,269,-303,1,7,11
1.72313E+12,-7584,2173,-869,-300,269,-309,1,7,11
1.72313E+12,-7589,1921,-880,-313,-7,-317,1,7,11
1.72313E+12,-7599,1924,-879,-332,-33,-321,1,7,11
1.72313E+12,-7639,1941,-871,-132,-91,-328,1,7,11
1.72313E+12,-7606,2138,-875,-207,76,-330,1,7,11
1.72313E+12,-7560,2114,-874,-178,101,-381,1,7,11
1.72313E+12,-7627,2153,-867,-148,-90,-171,1,7,11
1.72313E+12,-7642,2139,-848,-163,119,-190,1,7,11
1.72313E+12,-7648,2144,-842,-160,75,-212,1,7,11
1.72313E+12,-7643,2147,-842,-177,34,-193,1,7,11
1.72313E+12,-7584,2100,-841,-170,30,-164,1,7,11
1.72313E+12,-7579,2070,-829,-377,111,-150,1,7,11
1.72313E+12,-7584,2048,-817,-327,-63,-130,1,7,11
1.72313E+12,-7600,1789,-817,-261,261,-380,1,7,11
1.72313E+12,-7609,2051,-823,81,308,-380,1,7,11
1.72313E+12,-7607,2067,-833,112,321,-375,1,7,11
1.72313E+12,-7606,2070,-844,116,342,-371,1,7,11
1.72313E+12,-7613,2070,-858,113,356,-365,1,7,11
1.72313E+12,-7616,2058,-860,96,362,-362,1,7,11
1.72313E+12,-7627,1787,-868,95,377,-356,1,7,11
1.72313E+12,-7627,1786,-872,91,376,-358,1,7,11
1.72313E+12,-7651,2048,-877,79,355,-369,1,7,11
1.72313E+12,-7638,2054,-888,53,296,-382,1,7,11
1.72313E+12,-7641,2052,-892,22,266,-153,1,7,11
1.72313E+12,-7657,2054,-641,-268,-29,-163,1,7,11
1.72313E+12,-7648,1772,-641,-313,-90,-173,1,7,11
1.72313E+12,-7642,1763,-643,-334,-126,-177,1,7,11
1.72313E+12,-7640,1767,-648,-349,103,-181,1,7,11
1.72313E+12,-7636,1755,-892,-362,83,-179,1,7,11
1.72313E+12,-7623,1745,-892,-359,84,-175,1,7,11
1.72313E+12,-7627,1750,-894,-359,101,-173,1,7,11
1.72313E+12,-7633,1737,-643,-367,117,-162,1,7,11
1.72313E+12,-7629,1730,-894,-379,-125,-151,1,7,11
1.72313E+12,-7630,1711,-882,-138,-113,-146,1,7,11
1.72313E+12,-7634,1702,-881,-147,-109,-144,1,7,11
1.72313E+12,-7634,1692,-880,-141,-117,-139,1,7,11
1.72313E+12,-7622,1689,-881,-384,-113,-135,1,7,11
1.72313E+12,-7629,1677,-880,-360,-97,-384,1,7,11
1.72313E+12,-7636,1914,-871,-313,-76,-375,1,7,11
1.72313E+12,-7650,1907,-866,8,-60,-367,1,7,11
1.72313E+12,-7652,1910,-864,67,-54,-359,1,7,11
1.72313E+12,-7648,1915,-877,103,-40,-342,1,7,11
1.72313E+12,-7648,1911,-884,121,-26,-330,1,7,11
1.72313E+12,-7646,1899,-883,-115,-22,-322,1,7,11
1.72313E+12,-7646,1891,-888,-101,-9,-321,1,7,11
1.72313E+12,-7654,1887,-646,-91,257,-332,1,7,11
1.72313E+12,-7663,1882,-647,-80,-15,-358,1,7,11
1.72313E+12,-7633,1879,-645,-95,-39,-134,1,7,11
1.72313E+12,-7678,1666,-660,-90,-16,-147,1,7,11
1.72313E+12,-7658,1912,-657,95,-68,-374,1,7,11
1.72313E+12,-7650,1892,-657,28,-75,-352,1,7,11
1.72313E+12,-7644,1873,-663,-283,-59,-327,1,7,11
1.72313E+12,-7667,1872,-666,-309,-36,-311,1,7,11
1.72313E+12,-7654,1858,-663,-331,-55,-302,1,7,11
1.72313E+12,-7659,1850,-657,-345,-54,-295,1,7,11
1.72313E+12,-7675,1846,-654,-348,-58,-282,1,7,11
1.72313E+12,-7941,1836,-650,-363,-82,-270,1,7,11
1.72313E+12,-7942,1821,-647,-376,-104,-261,1,7,11
1.72313E+12,-7946,1818,-642,-381,-120,4,1,7,11
1.72313E+12,-7671,1815,-892,-384,118,14,1,7,11
1.72313E+12,-7662,1812,-888,-367,123,24,1,7,11
1.72313E+12,-7660,1823,-892,-351,126,34,1,7,11
1.72313E+12,-7647,1823,-891,-340,-119,47,1,7,11
1.72313E+12,-7653,1831,-888,-320,-99,57,1,7,11
1.72313E+12,-7657,1834,-886,-302,-92,67,1,7,11
1.72313E+12,-7650,1838,-894,-290,-86,74,1,7,11
1.72313E+12,-7655,1842,-891,-288,-76,77,1,7,11
1.72313E+12,-7661,1847,-891,-292,-68,77,1,7,11
1.72313E+12,-7670,1844,-647,-299,-65,77,1,7,11
1.72313E+12,-7937,1847,-644,-308,-63,83,1,7,11
1.72313E+12,-7675,1854,-652,-323,-71,100,1,7,11
1.72313E+12,-7938,1857,-647,-339,-81,107,1,7,11
1.72313E+12,-7675,1859,-643,-359,-95,118,1,7,11
1.72313E+12,-7940,1860,-892,-372,-100,126,1,7,11
1.72313E+12,-7937,1853,-890,-134,-123,-123,1,7,11
1.72313E+12,-7662,1846,-875,-135,110,-119,1,7,11
1.72313E+12,-7664,1843,-873,-375,111,-123,1,7,11
1.72313E+12,-7659,1856,-869,-353,119,127,1,7,11
1.72313E+12,-7654,1870,-874,-333,-123,126,1,7,11
1.72313E+12,-7655,1886,-871,-324,-106,123,1,7,11
1.72313E+12,-7662,1889,-872,-325,-97,121,1,7,11
1.72313E+12,-7668,1902,-877,-322,-88,122,1,7,11
1.72313E+12,-7671,1904,-871,-333,-85,119,1,7,11
1.72313E+12,-7665,1903,-872,-351,-90,108,1,7,11
1.72313E+12,-7660,1906,-875,-360,-100,105,1,7,11
1.72313E+12,-7651,1899,-870,-367,-102,95,1,7,11
1.72313E+12,-7661,1892,-869,-367,-95,86,1,7,11
1.72313E+12,-7664,1880,-873,-360,-97,83,1,7,11
1.72313E+12,-7660,1878,-865,-352,-102,77,1,7,11
1.72313E+12,-7667,1894,-861,-336,-106,82,1,7,11
1.72313E+12,-7663,1894,-854,-336,-115,88,1,7,11
1.72313E+12,-7649,1672,-863,-371,-122,123,1,7,11
1.72313E+12,-7649,1670,-865,-135,-118,-127,1,7,11
1.72313E+12,-7654,1675,-866,-141,-122,123,1,7,11
1.72313E+12,-7644,1682,-864,-145,-122,111,1,7,11
1.72313E+12,-7643,1683,-862,-149,-113,92,1,7,11
1.72313E+12,-7662,1684,-862,-161,-104,76,1,7,11
1.72313E+12,-7668,1678,-850,-176,-114,64,1,7,11
1.72313E+12,-7661,1673,-853,-179,122,50,1,7,11
1.72313E+12,-7675,1675,-847,-186,109,30,1,7,11
1.72313E+12,-7951,1677,-837,-195,73,13,1,7,11
1.72313E+12,-7947,1681,-834,-196,34,11,1,7,11
1.72313E+12,-7677,1677,-835,-200,16,17,1,7,11
1.72313E+12,-7671,1678,-825,-207,8,27,1,7,11
1.72313E+12,-7654,1664,-820,-203,9,39,1,7,11
1.72313E+12,-7641,1917,-813,-185,34,46,1,7,11
1.72313E+12,-7640,1914,-805,-162,65,52,1,7,11
1.72313E+12,-7652,1916,-796,-139,95,51,1,7,11
1.72313E+12,-7658,1912,-798,-370,96,45,1,7,11
1.72313E+12,-7661,1903,-795,-346,91,19,1,7,11
1.72313E+12,-7666,1899,-797,-293,92,-262,1,7,11
1.72313E+12,-7679,1883,-794,-243,75,-297,1,7,11
1.72313E+12,-7946,1875,-790,60,59,-339,1,7,11
1.72313E+12,-7953,1868,-773,79,36,-371,1,7,11
1.72313E+12,-7979,1875,-500,63,-273,-154,1,7,11
1.72313E+12,-7974,1845,-486,-268,-357,-190,1,7,11
1.72313E+12,-7957,1807,-473,-313,-148,-225,1,7,11
1.72313E+12,-7946,1528,-464,-330,-156,-527,1,7,11
1.72313E+12,-7938,1499,-443,-326,-382,-574,1,7,11
1.72313E+12,-7957,1496,-438,-284,-334,-625,1,7,11
1.72313E+12,-7964,1528,-431,24,-316,-413,1,7,11
1.72313E+12,-7964,1858,-437,64,-293,-419,1,7,11
1.72313E+12,-7950,1878,-449,39,-258,-390,1,7,11
1.72313E+12,-7947,1864,-451,23,68,-595,1,7,11
1.72313E+12,-7947,1842,-458,33,-117,-545,1,7,11
1.72313E+12,-7947,1812,-453,77,-15,-249,1,7,11
1.72313E+12,-7959,1797,-463,-126,332,-216,1,7,11
1.72313E+12,-7978,1520,-457,-90,382,-188,1,7,11
1.72313E+12,-7989,1511,-464,-57,144,-154,1,7,11
1.72313E+12,-7990,1498,-470,-41,154,-368,1,7,11
1.72313E+12,-7978,1476,-481,-20,181,-327,1,7,11
1.72313E+12,-7975,1449,-489,260,213,-304,1,7,11
1.72313E+12,-7971,1421,-496,283,237,-297,1,7,11
1.72313E+12,-7980,1420,-769,298,255,-305,1,7,11
1.72313E+12,-7977,1431,-772,288,249,-300,1,7,11
1.72313E+12,-7980,1445,-784,-17,240,-287,1,7,11
1.72313E+12,-7981,1462,-808,-103,231,7,1,7,11
1.72313E+12,-7983,1485,-830,49,206,62,1,7,11
1.72313E+12,-7967,1484,-844,-309,166,114,1,7,11
1.72313E+12,-7959,1465,-847,-369,143,-100,1,7,11
1.72313E+12,-7954,1456,-861,-141,377,-89,1,7,11
1.72313E+12,-7951,1463,-867,-138,359,-91,1,7,11
1.72313E+12,-7953,1474,-878,-129,349,-103,1,7,11
1.72313E+12,-7953,1483,-878,-148,333,-114,1,7,11
1.72313E+12,-7954,1493,-885,-162,322,-126,1,7,11
1.72313E+12,-7957,1501,-641,-178,300,117,1,7,11
1.72313E+12,-7945,1495,-641,-180,268,92,1,7,11
1.72313E+12,-7949,1487,-643,-174,262,64,1,7,11
1.72313E+12,-7983,1499,-884,-166,-21,41,1,7,11
1.72313E+12,-7984,1498,-895,-186,-86,38,1,7,11
1.72313E+12,-7986,1500,-893,-199,123,40,1,7,11
1.72313E+12,-7975,1497,-894,-222,87,58,1,7,11
1.72313E+12,-7953,1490,-893,-228,68,81,1,7,11
1.72313E+12,-7677,1475,-887,-206,85,94,1,7,11
1.72313E+12,-7937,1473,-880,-175,110,105,1,7,11
1.72313E+12,-7680,1485,-867,-150,126,112,1,7,11
1.72313E+12,-7939,1473,-861,-130,-115,109,1,7,11
1.72313E+12,-7679,1473,-853,-354,-104,96,1,7,11
1.72313E+12,-7938,1491,-858,-326,-98,77,1,7,11
1.72313E+12,-7940,1490,-852,-327,-91,63,1,7,11
1.72313E+12,-7949,1489,-848,-326,-78,50,1,7,11
1.72313E+12,-7967,1490,-850,-330,-76,45,1,7,11
1.72313E+12,-7967,1481,-852,-328,-82,48,1,7,11
1.72313E+12,-7961,1484,-851,-327,-79,53,1,7,11
1.72313E+12,-7951,1480,-851,-332,-80,65,1,7,11
1.72313E+12,-7951,1465,-837,-327,-70,68,1,7,11
1.72313E+12,-7963,1467,-827,-311,-66,80,1,7,11
1.72313E+12,-7955,1450,-828,-300,-78,86,1,7,11
1.72313E+12,-7948,1458,-833,-278,-77,89,1,7,11
1.72313E+12,-7942,1468,-838,1,-73,93,1,7,11
1.72313E+12,-7680,1482,-835,17,-51,100,1,7,11
1.72313E+12,-7942,1499,-845,29,-31,107,1,7,11
1.72313E+12,-7948,1511,-849,24,-27,112,1,7,11
1.72313E+12,-7941,1518,-862,21,-21,118,1,7,11
1.72313E+12,-7944,1522,-864,17,-12,117,1,7,11
1.72313E+12,-7951,1520,-873,1,-7,112,1,7,11
1.72313E+12,-7950,1523,-880,-267,-6,106,1,7,11
1.72313E+12,-7948,1527,-881,-279,-6,101,1,7,11
1.72313E+12,-7946,1524,-880,-291,-13,98,1,7,11
1.72313E+12,-7942,1516,-878,-294,-23,95,1,7,11
1.72313E+12,-7945,1522,-876,-288,-23,92,1,7,11
1.72313E+12,-7943,1521,-885,-289,-30,98,1,7,11
1.72313E+12,-7677,1515,-887,-287,-33,95,1,7,11
1.72313E+12,-7942,1515,-884,-272,-27,95,1,7,11
1.72313E+12,-7941,1517,-896,-265,-32,94,1,7,11
1.72313E+12,-7678,1523,-652,-257,-35,92,1,7,11
1.72313E+12,-7677,1796,-647,7,-37,91,1,7,11
1.72313E+12,-7670,1802,-642,-258,-37,91,1,7,11
1.72313E+12,-7667,1802,-647,-260,-32,90,1,7,11
1.72313E+12,-7673,1808,-651,-264,-33,97,1,7,11
1.72313E+12,-7668,1807,-658,-281,-40,104,1,7,11
1.72313E+12,-7667,1810,-658,-293,-38,100,1,7,11
1.72313E+12,-7670,1803,-661,-301,-34,98,1,7,11
1.72313E+12,-7668,1807,-663,-300,-35,96,1,7,11
1.72313E+12,-7669,1811,-673,-294,-28,94,1,7,11
1.72313E+12,-7675,1815,-668,-302,-23,99,1,7,11
1.72313E+12,-7675,1800,-662,-309,-23,95,1,7,11
1.72313E+12,-7943,1801,-674,-305,-30,92,1,7,11
1.72313E+12,-7957,1799,-662,-321,-57,85,1,7,11
1.72313E+12,-7963,1797,-657,-336,-100,82,1,7,11
1.72313E+12,-7968,1792,-656,-337,123,82,1,7,11
1.72313E+12,-7940,1525,-649,-340,97,93,1,7,11
1.72313E+12,-7668,1518,-648,-327,95,105,1,7,11
1.72313E+12,-7652,1527,-895,-295,111,110,1,7,11
1.72313E+12,-7654,1535,-888,-273,-116,111,1,7,11
1.72313E+12,-7656,1802,-884,-261,-83,115,1,7,11
1.72313E+12,-7654,1814,-894,7,-69,117,1,7,11
1.72313E+12,-7656,1822,-896,-11,-59,119,1,7,11
1.72313E+12,-7662,1830,-896,-295,-50,114,1,7,11
1.72313E+12,-7678,1831,-646,-324,-43,115,1,7,11
1.72313E+12,-7941,1834,-646,-357,-43,124,1,7,11
1.72313E+12,-7947,1829,-642,-135,-48,-120,1,7,11
1.72313E+12,-7678,1822,-895,-166,-64,-102,1,7,11
1.72313E+12,-7676,1822,-886,-186,-69,-93,1,7,11
1.72313E+12,-7665,1821,-884,-198,-78,-82,1,7,11
1.72313E+12,-7674,1833,-881,-199,-73,-84,1,7,11
1.72313E+12,-7680,1834,-880,-202,-87,-74,1,7,11
1.72313E+12,-7663,1820,-877,-198,-105,-76,1,7,11
1.72313E+12,-7658,1829,-880,-173,-103,-81,1,7,11
1.72313E+12,-7657,1843,-884,-154,-105,-83,1,7,11
1.72313E+12,-7652,1855,-890,-140,-99,-85,1,7,11
1.72313E+12,-7656,1874,-648,-133,-95,-89,1,7,11
1.72313E+12,-7654,1894,-646,-384,-99,-86,1,7,11
1.72313E+12,-7650,1912,-643,-135,-97,-85,1,7,11
1.72313E+12,-7651,1914,-647,-145,-98,-86,1,7,11
1.72313E+12,-7645,1665,-643,-148,-93,-92,1,7,11
1.72313E+12,-7654,1917,-895,-168,-86,-101,1,7,11
1.72313E+12,-7655,1911,-884,-193,-91,-105,1,7,11
1.72313E+12,-7652,1904,-873,-196,-107,-109,1,7,11
1.72313E+12,-7658,1911,-877,-190,-111,-117,1,7,11
1.72313E+12,-7661,1911,-866,-195,-125,-110,1,7,11
1.72313E+12,-7647,1915,-866,-200,115,-101,1,7,11
1.72313E+12,-7630,1917,-865,-192,121,-85,1,7,11
1.72313E+12,-7625,1918,-864,-181,-104,-76,1,7,11
1.72313E+12,-7636,1679,-852,-152,-75,-65,1,7,11
1.72313E+12,-7628,1688,-855,-162,-61,-53,1,7,11
1.72313E+12,-7633,1691,-862,-178,-40,-47,1,7,11
1.72313E+12,-7630,1698,-863,-187,-34,-40,1,7,11
1.72313E+12,-7616,1698,-862,-185,-10,-35,1,7,11
1.72313E+12,-7627,1711,-865,-177,280,-33,1,7,11
1.72313E+12,-7624,1723,-873,-179,301,-27,1,7,11
1.72313E+12,-7624,1723,-870,-184,318,-26,1,7,11
1.72313E+12,-7624,1734,-864,-185,339,-23,1,7,11
1.72313E+12,-7617,1739,-874,-193,355,-19,1,7,11
1.72313E+12,-7625,1744,-880,-198,380,-21,1,7,11
1.72313E+12,-7622,1750,-889,-196,135,-22,1,7,11
1.72313E+12,-7619,1754,-642,-177,144,-24,1,7,11
1.72313E+12,-7622,1750,-652,-156,156,-32,1,7,11
1.72313E+12,-7623,1749,-662,-131,157,-52,1,7,11
1.72313E+12,-7640,1764,-671,-362,152,-73,1,7,11
1.72313E+12,-7657,1778,-669,-354,374,-99,1,7,11
1.72313E+12,-7657,1776,-671,-347,322,-124,1,7,11
1.72313E+12,-7645,1775,-675,-317,288,102,1,7,11
1.72313E+12,-7628,1773,-680,-280,270,70,1,7,11
1.72313E+12,-7616,1779,-681,13,260,36,1,7,11
1.72313E+12,-7596,2052,-693,37,-1,18,1,7,11
1.72313E+12,-7592,2058,-697,44,264,6,1,7,11
1.72313E+12,-7591,2051,-704,55,260,-257,1,7,11
1.72313E+12,-7580,2052,-724,76,-5,-272,1,7,11
1.72313E+12,-7574,2050,-730,99,-5,-292,1,7,11
1.72313E+12,-7588,2061,-728,118,-4,-331,1,7,11
1.72313E+12,-7601,2069,-737,94,-20,-344,1,7,11
1.72313E+12,-7606,2059,-736,58,-34,-346,1,7,11
1.72313E+12,-7609,1788,-750,42,-49,-342,1,7,11
1.72313E+12,-7596,1761,-754,48,-65,-339,1,7,11
1.72313E+12,-7601,1744,-746,76,-66,-338,1,7,11
1.72313E+12,-7596,1732,-743,95,-70,-337,1,7,11
1.72313E+12,-7609,1736,-731,102,-56,-325,1,7,11
1.72313E+12,-7621,1733,-727,65,-66,-299,1,7,11
1.72313E+12,-7615,1721,-722,28,-96,-269,1,7,11
1.72313E+12,-7615,1711,-723,13,-115,0,1,7,11
1.72313E+12,-7614,1714,-734,6,124,10,1,7,11
1.72313E+12,-7604,1712,-731,6,110,21,1,7,11
1.72313E+12,-7612,1721,-726,20,122,24,1,7,11
1.72313E+12,-7614,1734,-728,23,-124,26,1,7,11
1.72313E+12,-7617,1740,-723,9,-114,26,1,7,11
1.72313E+12,-7619,1735,-724,-263,-106,21,1,7,11
1.72313E+12,-7631,1732,-723,-283,-105,20,1,7,11
1.72313E+12,-7632,1714,-719,-293,118,17,1,7,11
1.72313E+12,-7628,1698,-712,-295,115,14,1,7,11
1.72313E+12,-7630,1673,-700,-287,105,10,1,7,11
1.72313E+12,-7624,1665,-695,2,101,8,1,7,11
1.72313E+12,-7624,1913,-691,33,113,9,1,7,11
1.72313E+12,-7616,1911,-689,66,-115,23,1,7,11
1.72313E+12,-7614,1907,-696,96,-71,46,1,7,11
1.72313E+12,-7623,1902,-698,118,-42,63,1,7,11
1.72313E+12,-7633,1899,-703,126,-35,73,1,7,11
1.72313E+12,-7630,1674,-705,-128,-41,85,1,7,11
1.72313E+12,-7621,1684,-722,91,-38,106,1,7,11
1.72313E+12,-7615,1671,-723,67,-24,127,1,7,11
1.72313E+12,-7620,1919,-716,74,-7,-125,1,7,11
1.72313E+12,-7619,1676,-726,80,-14,127,1,7,11
1.72313E+12,-7618,1703,-742,76,256,-116,1,7,11
1.72313E+12,-7615,1696,-747,58,267,-110,1,7,11
1.72313E+12,-7606,1694,-748,73,285,-109,1,7,11
1.72313E+12,-7611,1714,-757,87,304,-112,1,7,11
1.72313E+12,-7596,1730,-763,94,302,-113,1,7,11
1.72313E+12,-7609,1742,-1038,93,319,-117,1,7,11
1.72313E+12,-7610,1750,-1052,89,310,-125,1,7,11
1.72313E+12,-7597,1756,-1060,99,300,114,1,7,11
1.72313E+12,-7608,1770,-1064,103,301,78,1,7,11
1.72313E+12,-7622,1758,-1052,87,281,37,1,7,11
1.72313E+12,-7629,1757,-1060,103,-4,-262,1,7,11
1.72313E+12,-7624,1763,-1065,117,-41,-309,1,7,11
1.72313E+12,-7607,1751,-1067,123,-82,-340,1,7,11
1.72313E+12,-7573,1745,-1067,-105,-101,-350,1,7,11
1.72313E+12,-7561,1737,-1064,-82,-87,-350,1,7,11
1.72313E+12,-7558,1717,-1061,-61,-64,-343,1,7,11
1.72313E+12,-7567,1712,-1056,-38,-34,-338,1,7,11
1.72313E+12,-7571,1720,-1061,-31,-3,-324,1,7,11
1.72313E+12,-7574,1717,-1066,-60,268,-299,1,7,11
1.72313E+12,-7583,1713,-1069,106,284,-269,1,7,11
1.72313E+12,-7595,1703,-1079,46,293,11,1,7,11
1.72313E+12,-7605,1687,-1076,-266,295,22,1,7,11
1.72313E+12,-7614,1915,-1081,-302,277,28,1,7,11
1.72313E+12,-7610,1902,-1078,-310,256,27,1,7,11
1.72313E+12,-7608,1896,-1077,-320,-15,34,1,7,11
1.72313E+12,-7611,1876,-1078,-330,-21,47,1,7,11
1.72313E+12,-7632,1882,-1061,-321,-22,50,1,7,11
1.72313E+12,-7635,1893,-1053,-338,-38,65,1,7,11
1.72313E+12,-7642,1898,-1061,-144,-54,78,1,7,11
1.72313E+12,-7651,1912,-1062,-220,-78,104,1,7,11
1.72313E+12,-7648,1674,-1063,-551,-127,126,1,7,11
1.72313E+12,-7632,1680,-1065,-601,88,-123,1,7,11
1.72313E+12,-7625,1683,-1059,-619,78,-126,1,7,11
1.72313E+12,-7622,1681,-1058,-612,61,119,1,7,11
1.72313E+12,-7617,1667,-1057,-587,50,92,1,7,11
1.72313E+12,-7615,1918,-1056,-538,60,58,1,7,11
1.72313E+12,-7611,1916,-1051,-231,65,23,1,7,11
1.72313E+12,-7608,1904,-1041,-177,74,-262,1,7,11
1.72313E+12,-7608,1892,-766,-378,90,-283,1,7,11
1.72313E+12,-7616,1888,-757,-339,104,-288,1,7,11
1.72313E+12,-7619,1895,-749,-323,99,-283,1,7,11
1.72313E+12,-7613,1887,-744,-311,99,-261,1,7,11
1.72313E+12,-7606,1888,-749,-293,106,23,1,7,11
1.72313E+12,-7599,1886,-748,-270,123,54,1,7,11
1.72313E+12,-7603,1893,-748,3,-109,89,1,7,11
1.72313E+12,-7605,1903,-757,0,-100,124,1,7,11
1.72313E+12,-7600,1913,-753,-279,-105,-101,1,7,11
1.72313E+12,-7602,1674,-757,-298,-107,-78,1,7,11
1.72313E+12,-7612,1692,-754,-333,-127,-54,1,7,11
1.72313E+12,-7622,1694,-756,-382,82,-33,1,7,11
1.72313E+12,-7629,1721,-750,-151,19,-19,1,7,11
1.72313E+12,-7627,1750,-737,-205,-296,-2,1,7,11
1.72313E+12,-7632,1769,-734,-549,-147,287,1,7,11
1.72313E+12,-7583,1766,-731,-401,-214,286,1,7,11
1.72313E+12,-7808,1763,-713,-405,-169,268,1,7,11
1.72313E+12,-7572,1752,-694,-631,-328,-20,1,7,11
1.72313E+12,-7575,1740,-695,-563,-258,-68,1,7,11
1.72313E+12,-7572,1746,-683,-177,74,121,1,7,11
1.72313E+12,-7593,1773,-686,-324,-101,47,1,7,11
1.72313E+12,-7608,1779,-679,9,-52,2,1,7,11
1.72313E+12,-7597,1774,-682,97,-5,-284,1,7,11
1.72313E+12,-7588,1767,-689,-68,315,-305,1,7,11
1.72313E+12,-7586,1742,-689,264,373,-325,1,7,11
1.72313E+12,-7591,1738,-696,337,167,-337,1,7,11
1.72313E+12,-7597,1769,-715,362,196,-340,1,7,11
1.72313E+12,-7596,1782,-732,333,210,-332,1,7,11
1.72313E+12,-7598,1779,-744,287,213,-313,1,7,11
1.72313E+12,-7594,1760,-762,-22,197,-293,1,7,11
1.72313E+12,-7600,1744,-768,-76,177,-278,1,7,11
1.72313E+12,-7605,1721,-1031,-120,147,-266,1,7,11
1.72313E+12,-7613,1713,-1040,111,376,-260,1,7,11
1.72313E+12,-7624,1697,-1038,84,355,5,1,7,11
1.72313E+12,-7609,1681,-1049,64,328,21,1,7,11
1.72313E+12,-7612,1679,-1051,50,315,33,1,7,11
1.72313E+12,-7606,1676,-1061,28,295,59,1,7,11
1.72313E+12,-7618,1668,-1048,13,292,75,1,7,11
1.72313E+12,-7623,1671,-1057,3,280,103,1,7,11
1.72313E+12,-7618,1664,-1050,-264,-1,126,1,7,11
1.72313E+12,-7602,1675,-1050,2,-15,-114,1,7,11
1.72313E+12,-7596,1700,-1059,6,-19,-101,1,7,11
1.72313E+12,-7589,1701,-1060,1,-16,-89,1,7,11
1.72313E+12,-7588,1723,-1065,7,-16,-83,1,7,11
1.72313E+12,-7589,1739,-1073,2,-15,-84,1,7,11
1.72313E+12,-7596,1755,-1090,-258,-3,-84,1,7,11
1.72313E+12,-7589,1753,-1096,-275,-4,-92,1,7,11
1.72313E+12,-7589,1753,-1092,-292,-3,-105,1,7,11
1.72313E+12,-7591,1758,-1089,-304,-8,-118,1,7,11
1.72313E+12,-7589,1761,-1095,-315,-19,124,1,7,11
1.72313E+12,-7588,1751,-1101,-323,-27,113,1,7,11
1.72313E+12,-7591,1746,-1091,-322,-34,108,1,7,11
1.72313E+12,-7585,1734,-1089,-321,-40,108,1,7,11
1.72313E+12,-7583,1739,-1085,-312,-46,112,1,7,11
1.72313E+12,-7575,1739,-1089,-313,-50,119,1,7,11
1.72313E+12,-7575,1747,-1093,-310,-47,124,1,7,11
1.72313E+12,-7572,1751,-1096,-320,-53,-128,1,7,11
1.72313E+12,-7565,1765,-1094,-332,-58,-124,1,7,11
1.72313E+12,-7562,1778,-1102,-352,-58,-118,1,7,11
1.72313E+12,-7563,1784,-1107,-368,-58,-114,1,7,11
1.72313E+12,-7563,2050,-1113,-378,-61,-118,1,7,11
1.72313E+12,-7563,2064,-1117,-146,-65,-113,1,7,11
1.72313E+12,-7556,2063,-1121,-167,-74,-107,1,7,11
1.72313E+12,-7806,2060,-1117,-182,-67,-106,1,7,11
1.72313E+12,-7555,2050,-1115,-182,-59,-110,1,7,11
1.72313E+12,-7559,2069,-1117,-172,-58,-114,1,7,11
1.72313E+12,-7565,2078,-1119,-186,-72,-122,1,7,11
1.72313E+12,-7558,2075,-1108,-192,-82,122,1,7,11
1.72313E+12,-7573,2076,-1113,-193,-86,102,1,7,11
1.72313E+12,-7579,2067,-1107,-189,-117,81,1,7,11
1.72313E+12,-7573,2053,-1096,-148,109,49,1,7,11
1.72313E+12,-7573,2054,-1098,-334,100,20,1,7,11
1.72313E+12,-7584,2065,-1089,-294,100,9,1,7,11
1.72313E+12,-7573,2055,-1083,-286,82,9,1,7,11
1.72313E+12,-7555,1788,-1082,-258,87,12,1,7,11
1.72313E+12,-7805,1781,-1081,36,116,15,1,7,11
1.72313E+12,-7799,1772,-1077,69,-112,21,1,7,11
1.72313E+12,-7804,1777,-1073,97,-86,19,1,7,11
1.72313E+12,-7553,1778,-1081,113,-76,22,1,7,11
1.72313E+12,-7556,1785,-1099,119,-71,6,1,7,11
1.72313E+12,-7567,1787,-1096,112,-55,-261,1,7,11
1.72313E+12,-7581,2051,-1092,95,-45,-268,1,7,11
1.72313E+12,-7584,1778,-1085,67,-44,-266,1,7,11
1.72313E+12,-7584,1760,-1085,63,-44,2,1,7,11
1.72313E+12,-7583,1746,-1089,78,-41,6,1,7,11
1.72313E+12,-7585,1738,-1088,95,-44,13,1,7,11
1.72313E+12,-7579,1723,-1087,124,-38,18,1,7,11
1.72313E+12,-7579,1717,-1093,-63,-37,16,1,7,11
1.72313E+12,-7562,1705,-1098,287,-32,-259,1,7,11
1.72313E+12,-7572,1695,-1095,128,268,-287,1,7,11
1.72313E+12,-7584,1715,-1102,217,277,-299,1,7,11
1.72313E+12,-7576,1744,-1104,250,269,-314,1,7,11
1.72313E+12,-7576,1747,-1124,225,280,-296,1,7,11
1.72313E+12,-7574,1762,-1132,184,280,-267,1,7,11
1.72313E+12,-7565,1761,-1143,371,292,24,1,7,11
1.72313E+12,-7581,1751,-1148,298,305,66,1,7,11
1.72313E+12,-7581,1754,-906,-24,292,92,1,7,11
1.72313E+12,-7574,1742,-912,-101,292,118,1,7,11
1.72313E+12,-7589,1737,-910,91,297,-113,1,7,11
1.72313E+12,-7579,1743,-919,39,279,-98,1,7,11
1.72313E+12,-7573,1745,-919,-271,275,-83,1,7,11
1.72313E+12,-7573,1749,-921,-315,273,-62,1,7,11
1.72313E+12,-7555,1756,-930,-354,268,-42,1,7,11
1.72313E+12,-7559,1761,-936,-378,271,-25,1,7,11
1.72313E+12,-7808,1762,-943,-129,267,-20,1,7,11
1.72313E+12,-7792,1766,-944,-367,263,-30,1,7,11
1.72313E+12,-7790,1773,-939,-349,269,-42,1,7,11
1.72313E+12,-7795,1786,-946,-335,272,-52,1,7,11
1.72313E+12,-7789,2055,-958,-328,263,-62,1,7,11
1.72313E+12,-7786,2067,-959,-339,-1,-72,1,7,11
1.72313E+12,-7788,2064,-976,-357,-2,-76,1,7,11
1.72313E+12,-7789,2065,-979,-361,-9,-88,1,7,11
1.72313E+12,-7784,2064,-984,-355,-26,-108,1,7,11
1.72313E+12,-7777,2078,-981,-345,-34,127,1,7,11
1.72313E+12,-7793,2091,-983,-332,-33,117,1,7,11
1.72313E+12,-7790,2085,-975,-358,-60,110,1,7,11
1.72313E+12,-7797,2082,-975,-370,-71,109,1,7,11
1.72313E+12,-7805,2087,-966,-130,-94,105,1,7,11
1.72313E+12,-7553,2093,-941,-163,123,104,1,7,11
1.72313E+12,-7557,2096,-936,-200,91,108,1,7,11
1.72313E+12,-7808,2096,-940,-232,63,123,1,7,11
1.72313E+12,-7791,2091,-934,-517,43,-125,1,7,11
1.72313E+12,-7771,2091,-921,-523,48,-115,1,7,11
1.72313E+12,-7769,2100,-912,-528,74,-110,1,7,11
1.72313E+12,-7770,2099,-913,-513,90,-111,1,7,11
1.72313E+12,-7767,2100,-910,-228,101,-124,1,7,11
1.72313E+12,-7769,2109,-912,-213,124,111,1,7,11
1.72313E+12,-7777,2124,-909,-224,-114,102,1,7,11
1.72313E+12,-7798,2124,-1152,-525,-107,95,1,7,11
1.72313E+12,-7558,2116,-1145,-570,-113,96,1,7,11
1.72313E+12,-7567,2111,-1141,-600,121,105,1,7,11
1.72313E+12,-7555,2101,-1139,-616,103,110,1,7,11
1.72313E+12,-7799,2083,-1136,-606,101,114,1,7,11
1.72313E+12,-7792,2079,-1125,-567,107,111,1,7,11
1.72313E+12,-7791,2073,-1114,-252,122,108,1,7,11
1.72313E+12,-7800,2076,-1110,-173,-112,103,1,7,11
1.72313E+12,-7795,2076,-1109,-351,-108,95,1,7,11
1.72313E+12,-7787,2089,-1117,-284,-89,79,1,7,11
1.72313E+12,-7782,2103,-1122,14,-64,63,1,7,11
1.72313E+12,-7782,2131,-1138,34,-36,57,1,7,11
1.72313E+12,-7794,2144,-1151,16,-11,68,1,7,11
1.72313E+12,-7553,2158,-1151,-259,-19,81,1,7,11
1.72313E+12,-7793,2166,-901,-267,-50,91,1,7,11
1.72313E+12,-7782,1924,-913,-276,-60,94,1,7,11
1.72313E+12,-7780,2169,-919,-301,-53,103,1,7,11
1.72313E+12,-7783,2151,-915,-317,-56,93,1,7,11
1.72313E+12,-7783,2151,-906,-319,-60,83,1,7,11
1.72313E+12,-7783,2139,-1148,-314,-64,85,1,7,11
1.72313E+12,-7773,2126,-1144,-302,-69,91,1,7,11
1.72313E+12,-7771,2118,-1147,-244,-58,100,1,7,11
1.72313E+12,-7778,2119,-1144,57,-50,105,1,7,11
1.72313E+12,-7777,2136,-1149,88,-53,108,1,7,11
1.72313E+12,-7771,2143,-1149,101,-54,112,1,7,11
1.72313E+12,-7773,2154,-1150,106,-47,122,1,7,11
1.72313E+12,-7773,2168,-901,101,-48,-125,1,7,11
1.72313E+12,-7770,1924,-905,79,-57,-116,1,7,11
1.72313E+12,-7770,1937,-913,49,-61,-110,1,7,11
1.72313E+12,-7768,1949,-926,16,-68,-108,1,7,11
1.72313E+12,-7763,1943,-930,-271,-72,-109,1,7,11
1.72313E+12,-7767,1940,-930,-286,-75,-108,1,7,11
1.72313E+12,-7766,1941,-910,-289,-78,-106,1,7,11
1.72313E+12,-7767,1934,-910,-287,-87,-110,1,7,11
1.72313E+12,-7774,1940,-912,-274,-92,-119,1,7,11
1.72313E+12,-7773,1946,-914,-271,-94,-126,1,7,11
1.72313E+12,-7781,1931,-912,-277,-96,117,1,7,11
1.72313E+12,-7790,1926,-906,-257,-107,103,1,7,11
1.72313E+12,-7789,1930,-898,11,127,80,1,7,11
1.72313E+12,-7803,1927,-1148,9,96,56,1,7,11
1.72313E+12,-7553,1929,-1146,15,71,44,1,7,11
1.72313E+12,-7798,1935,-1133,18,46,41,1,7,11
1.72313E+12,-7770,2172,-1132,12,37,45,1,7,11
1.72313E+12,-7758,2168,-1134,38,64,43,1,7,11
1.72313E+12,-7758,1924,-1137,54,102,48,1,7,11
1.72313E+12,-7765,1932,-1130,49,127,60,1,7,11
1.72313E+12,-7765,1929,-1133,36,-119,74,1,7,11
1.72313E+12,-7755,1929,-1139,29,-112,77,1,7,11
1.72313E+12,-7759,1930,-1145,22,-96,68,1,7,11
1.72313E+12,-7763,1931,-1138,12,-83,59,1,7,11
1.72313E+12,-7781,1936,-1144,1,-71,48,1,7,11
1.72313E+12,-7796,1931,-1144,-273,-63,45,1,7,11
1.72313E+12,-7775,1920,-1134,-282,-72,49,1,7,11
1.72313E+12,-7783,2168,-1132,-291,-72,47,1,7,11
1.72313E+12,-7784,2163,-1129,-295,-76,55,1,7,11
1.72313E+12,-7797,2174,-1124,-288,-81,59,1,7,11
1.72313E+12,-7798,2165,-1127,-293,-101,69,1,7,11
1.72313E+12,-7789,2159,-1120,-278,-115,70,1,7,11
1.72313E+12,-7783,2166,-1123,-257,-116,69,1,7,11
1.72313E+12,-7772,1922,-1128,11,-111,72,1,7,11
1.72313E+12,-7763,1925,-1128,21,-100,69,1,7,11
1.72313E+12,-7768,1942,-1130,35,-81,63,1,7,11
1.72313E+12,-7769,1958,-1134,32,-64,64,1,7,11
1.72313E+12,-7774,1957,-1141,13,-54,60,1,7,11
1.72313E+12,-7770,1955,-1143,-260,-53,53,1,7,11
1.72313E+12,-7776,1954,-1144,-274,-52,43,1,7,11
1.72313E+12,-7776,1936,-1144,-286,-53,31,1,7,11
1.72313E+12,-7779,1934,-1147,-292,-53,18,1,7,11
1.72313E+12,-7782,1936,-1149,-301,-61,12,1,7,11
1.72313E+12,-7777,2172,-897,-314,-70,13,1,7,11
1.72313E+12,-7779,2168,-1139,-302,-69,16,1,7,11
1.72313E+12,-7776,1920,-1138,-291,-81,19,1,7,11
1.72313E+12,-7765,2167,-1129,-295,-82,30,1,7,11
1.72313E+12,-7776,2165,-1134,-288,-74,48,1,7,11
1.72313E+12,-7770,2169,-1152,-261,-58,63,1,7,11
1.72313E+12,-7783,1924,-897,-260,-60,62,1,7,11
1.72313E+12,-7779,1928,-1152,-281,-73,60,1,7,11
1.72313E+12,-7776,1936,-910,-292,-79,64,1,7,11
1.72313E+12,-7773,1925,-914,-316,-77,75,1,7,11
1.72313E+12,-7763,2164,-911,-318,-67,73,1,7,11
1.72313E+12,-7776,2160,-902,-298,-50,57,1,7,11
1.72313E+12,-7783,2170,-908,-294,-54,44,1,7,11
1.72313E+12,-7778,2167,-911,-303,-62,34,1,7,11
1.72313E+12,-7780,2166,-917,-308,-61,31,1,7,11
1.72313E+12,-7797,2168,-917,-319,-78,25,1,7,11
1.72313E+12,-7554,2167,-914,-318,-109,19,1,7,11
1.72313E+12,-7795,2173,-912,-310,114,16,1,7,11
1.72313E+12,-7779,2171,-916,-307,102,21,1,7,11
1.72313E+12,-7764,2170,-913,-301,105,24,1,7,11
1.72313E+12,-7756,2169,-911,-293,124,31,1,7,11
1.72313E+12,-7752,2167,-901,-284,-109,34,1,7,11
1.72313E+12,-7753,2167,-1152,-274,-91,29,1,7,11
1.72313E+12,-7766,2166,-1152,-268,-89,16,1,7,11
1.72313E+12,-7770,2166,-898,-269,-104,-265,1,7,11
1.72313E+12,-7765,2163,-902,-275,-118,-293,1,7,11
1.72313E+12,-7773,2167,-899,-272,-123,-311,1,7,11
1.72313E+12,-7782,2167,-903,-274,120,-331,1,7,11
1.72313E+12,-7800,1920,-906,-273,104,-347,1,7,11
1.72313E+12,-7788,1924,-912,-326,47,-172,1,7,11
1.72313E+12,-7794,2166,-899,-335,26,-215,1,7,11
1.72313E+12,-7795,2145,-1138,-354,-258,-515,1,7,11
1.72313E+12,-7799,2123,-1150,-346,-270,-564,1,7,11
1.72313E+12,-7808,2139,-900,-323,-260,-613,1,7,11
1.72313E+12,-7554,2171,-918,-316,13,-430,1,7,11
1.72313E+12,-7561,2159,-924,-350,40,-495,1,7,11
1.72313E+12,-7567,2130,-915,-157,56,-831,1,7,11
1.72313E+12,-7556,2081,-899,-248,58,-674,1,7,11
1.72313E+12,-7574,1777,-1134,-560,73,-1053,1,7,11
1.72313E+12,-7590,1722,-1110,-617,77,-916,1,7,11
1.72313E+12,-7593,1676,-1097,-407,73,-1284,1,7,11
1.72313E+12,-7598,1903,-1086,-452,83,-1370,1,7,11
1.72313E+12,-7613,1890,-1084,-495,95,-1162,1,7,11
1.72313E+12,-7616,1881,-1077,-808,104,-1172,1,7,11
1.72313E+12,-7614,1876,-1060,-856,-126,-1395,1,7,11
1.72313E+12,-7626,1886,-1051,-666,-108,-1342,1,7,11
1.72313E+12,-7629,1895,-1044,-1035,109,-1014,1,7,11
1.72313E+12,-7643,1878,-1050,-1146,68,-950,1,7,11
1.72313E+12,-7632,1841,-1041,-969,34,-904,1,7,11
1.72313E+12,-7599,1812,-1039,-1002,19,-930,1,7,11
1.72313E+12,-7603,1529,-1028,-1022,48,-992,1,7,11
1.72313E+12,-7618,1507,-759,-1291,70,-1313,1,7,11
1.72313E+12,-7615,1485,-748,-1289,89,-1401,1,7,11
1.72313E+12,-7645,1468,-741,-1292,106,-1214,1,7,11
1.72313E+12,-7635,1421,-737,-1285,109,-1275,1,7,11
1.72313E+12,-7674,1630,-725,-996,126,-1599,1,7,11
1.72313E+12,-7954,1555,-708,-970,114,-1417,1,7,11
1.72313E+12,-7987,1224,-696,-934,76,-1529,1,7,11
1.72313E+12,-8004,1174,-674,-907,16,-1903,1,7,11
1.72313E+12,-7996,1373,-671,-911,-323,-1784,1,7,11
1.72313E+12,-7974,1316,-649,-922,-379,-1952,1,7,11
1.72313E+12,-7997,1289,-885,-941,-382,-2394,1,7,11
1.72313E+12,-8019,964,-839,-1285,-154,-2588,1,7,11
1.72313E+12,-8025,1122,-784,-1360,-189,-2514,1,7,11
1.72313E+12,-8059,1029,-466,-1407,-204,-2928,1,7,11
1.72313E+12,-7861,677,-425,-1196,-252,-3080,1,7,11
1.72313E+12,-7885,748,-392,-1238,-592,-3177,1,7,11
1.72313E+12,-7919,634,-627,-1274,-390,-2989,1,7,11
1.72313E+12,-7887,526,-386,-1259,-432,-3025,1,7,11
1.72313E+12,-7854,135,-623,-1267,-423,-3040,1,7,11
1.72313E+12,-7925,-30,-579,-1229,-633,-3057,1,7,11
1.72313E+12,-8210,116,-541,-1360,-410,-3041,1,7,11
1.72313E+12,-8228,33,-537,-997,-446,-2997,1,7,11
1.72313E+12,-8195,-342,-519,-916,-483,-3171,1,7,11
1.72313E+12,-7925,-214,-246,-1052,-495,-3107,1,7,11
1.72313E+12,-7903,-595,-226,-642,-482,-2777,1,7,11
1.72313E+12,-7896,-436,-212,-463,-454,-2705,1,7,11
1.72313E+12,-7894,-782,-187,-564,-434,-2908,1,7,11
1.72313E+12,-7870,-1043,-380,-96,-403,-2551,1,7,11
1.72313E+12,-7855,-1115,-355,-35,-397,-2541,1,7,11
1.72313E+12,-7859,-914,-340,314,-607,-2521,1,7,11
1.72313E+12,-7852,-965,-329,366,-579,-2492,1,7,11
1.72313E+12,-7819,-1296,-301,147,-538,-2460,1,7,11
1.72313E+12,-7825,-1363,-279,197,-225,-2447,1,7,11
1.72313E+12,-7839,-1177,-274,240,-172,-2656,1,7,11
1.72313E+12,-8044,-1250,-268,517,-135,-2600,1,7,11
1.72313E+12,-8041,-1280,-270,534,-302,-2282,1,7,11
1.72313E+12,-8050,-1623,-257,223,24,-2426,1,7,11
1.72313E+12,-7850,-1488,26,189,69,-2331,1,7,11
1.72313E+12,-7857,-1861,26,183,31,-1982,1,7,11
1.72313E+12,-8038,-1707,7,192,-271,-2166,1,7,11
1.72313E+12,-8016,-2055,10,204,17,-2137,1,7,11
1.72313E+12,-8032,-2142,15,206,36,-2115,1,7,11
1.72313E+12,-7997,-1983,23,193,20,-2096,1,7,11
1.72313E+12,-7989,-2337,24,203,43,-2092,1,7,11
1.72313E+12,-7982,-2415,20,229,69,-2075,1,7,11
1.72313E+12,-7974,-2260,26,255,80,-2069,1,7,11
1.72313E+12,-7978,-2602,34,555,86,-2055,1,7,11
1.72313E+12,-7982,-2665,39,602,72,-1784,1,7,11
1.72313E+12,-7973,-2451,27,633,49,-1729,1,7,11
1.72313E+12,-7970,-2513,30,632,17,-1847,1,7,11
1.72313E+12,-7964,-2558,40,607,2,-1438,1,7,11
1.72313E+12,-7945,-2844,51,590,-257,-1270,1,7,11
1.72313E+12,-7630,-2837,58,548,15,-1327,1,7,11
1.72313E+12,-7581,-2823,69,219,99,-1112,1,7,11
1.72313E+12,-7804,-2531,84,357,-43,-645,1,7,11
1.72313E+12,-7761,-2543,119,127,338,-449,1,7,11
1.72313E+12,-7752,-2839,-107,-141,218,-545,1,7,11
1.72313E+12,-7744,-2893,-99,-418,575,-163,1,7,11
1.72313E+12,-7732,-2697,-111,-676,407,-351,1,7,11
1.72313E+12,-7742,-2758,121,-1145,487,-320,1,7,11
1.72313E+12,-7751,-2801,80,-1286,785,-316,1,7,11
1.72313E+12,-7747,-3097,51,-1367,803,-330,1,7,11
1.72313E+12,-7780,-3141,26,-1364,832,-357,1,7,11
1.72313E+12,-7790,-3132,9,-1296,816,-372,1,7,11
1.72313E+12,-7568,-3177,-264,-1008,777,-142,1,7,11
1.72313E+12,-7589,-3177,-293,-900,452,-180,1,7,11
1.72313E+12,-7584,-3170,-305,-1029,633,-202,1,7,11
1.72313E+12,-7620,-3143,-337,-648,599,-217,1,7,11
1.72313E+12,-7613,-3123,-355,-785,522,-217,1,7,11
1.72313E+12,-7578,-2813,-140,-640,229,-210,1,7,11
1.72313E+12,-7560,-2763,-183,-548,240,-178,1,7,11
1.72313E+12,-7561,-2735,-207,-230,519,-379,1,7,11
1.72313E+12,-7557,-2708,-229,-186,518,-322,1,7,11
1.72313E+12,-7787,-2696,-243,-167,247,-270,1,7,11
1.72313E+12,-7755,-2689,-249,-163,246,25,1,7,11
1.72313E+12,-7747,-2699,-523,-164,513,46,1,7,11
1.72313E+12,-7739,-2942,-543,-135,520,41,1,7,11
1.72313E+12,-7757,-2717,-560,-192,521,32,1,7,11
1.72313E+12,-7779,-2932,-593,-227,217,20,1,7,11
1.72313E+12,-7762,-2874,-624,-551,142,49,1,7,11
1.72313E+12,-7761,-2835,-409,-630,134,116,1,7,11
1.72313E+12,-7776,-2865,-424,-465,144,-52,1,7,11
1.72313E+12,-7778,-2886,-448,-468,159,282,1,7,11
1.72313E+12,-7776,-2824,-472,-440,155,348,1,7,11
1.72313E+12,-7756,-2831,-471,-490,154,190,1,7,11
1.72313E+12,-7766,-2855,-463,-813,169,597,1,7,11
1.72313E+12,-7765,-2853,-463,-810,189,439,1,7,11
1.72313E+12,-7779,-2841,-485,-786,204,787,1,7,11
1.72313E+12,-7803,-2846,-504,-785,203,873,1,7,11
1.72313E+12,-7797,-2839,-774,-775,178,691,1,7,11
1.72313E+12,-7806,-2557,-786,-505,168,749,1,7,11
1.72313E+12,-7562,-2528,-808,-502,154,1077,1,7,11
1.72313E+12,-7601,-2508,-825,-505,143,1140,1,7,11
1.72313E+12,-7677,-2546,-821,-786,366,925,1,7,11
1.72313E+12,-7644,-2494,-811,-459,287,990,1,7,11
1.72313E+12,-7629,-2679,-808,-423,-4,996,1,7,11
1.72313E+12,-7941,-2658,-789,-438,261,1318,1,7,11
1.72313E+12,-7988,-2612,-772,-419,-34,1379,1,7,11
1.72313E+12,-7965,-2257,-788,-628,-108,1213,1,7,11
1.72313E+12,-7948,-2425,-805,-407,121,1584,1,7,11
1.72313E+12,-7940,-2416,-807,-783,91,1446,1,7,11
1.72313E+12,-7648,-2181,-814,-869,65,1512,1,7,11
1.72313E+12,-7946,-2188,-834,-646,77,1493,1,7,11
1.72313E+12,-7955,-2394,-861,-882,47,1430,1,7,11
1.72313E+12,-7964,-2040,-875,-875,26,1581,1,7,11
1.72313E+12,-7973,-1948,-858,-667,-263,1247,1,7,11
1.72313E+12,-7666,-2166,-857,-731,-328,1196,1,7,11
1.72313E+12,-7646,-2090,-848,-754,-323,1159,1,7,11
1.72313E+12,-7657,-1774,-836,-1059,-315,1172,1,7,11
1.72313E+12,-7677,-1721,-808,-1083,-315,1207,1,7,11
1.72313E+12,-7956,-1693,-784,-1089,-320,1268,1,7,11
1.72313E+12,-7989,-1680,-501,-1088,-322,1600,1,7,11
1.72313E+12,-7984,-1910,-481,-1052,-334,1421,1,7,11
1.72313E+12,-7975,-1862,-467,-728,-332,1498,1,7,11
1.72313E+12,-7981,-1514,-468,-873,-281,1534,1,7,11
1.72313E+12,-7988,-1663,-470,-774,51,1832,1,7,11
1.72313E+12,-8006,-1575,-470,-461,98,1881,1,7,11
1.72313E+12,-8036,-1229,-456,-396,-108,1685,1,7,11
1.72313E+12,-8046,-1390,-448,-607,-91,1748,1,7,11
1.72313E+12,-8044,-1305,-448,-575,-65,2054,1,7,11
1.72313E+12,-8054,-972,-440,-552,-22,2088,1,7,11
1.72313E+12,-8043,-1152,-447,-522,264,2099,1,7,11
1.72313E+12,-8025,-1065,-460,-236,294,2084,1,7,11
1.72313E+12,-8021,-708,-489,-232,333,2052,1,7,11
1.72313E+12,-8014,-843,-797,-248,369,1788,1,7,11
1.72313E+12,-7998,-484,-841,-571,139,2052,1,7,11
1.72313E+12,-7987,-436,-874,-431,173,2075,1,7,11
1.72313E+12,-8028,-428,-893,-809,205,2104,1,7,11
1.72313E+12,-8056,-454,-661,-654,195,2133,1,7,11
1.72313E+12,-7831,-466,-705,-700,161,2158,1,7,11
1.72313E+12,-7854,-461,-729,-721,375,1929,1,7,11
1.72313E+12,-7917,-456,-732,-723,348,1976,1,7,11
1.72313E+12,-8208,-436,-736,-701,284,2331,1,7,11
1.72313E+12,-8212,-395,-751,-642,-40,2201,1,7,11
1.72313E+12,-8207,-597,-754,-836,-84,2612,1,7,11
1.72313E+12,-8206,-546,-743,-781,-106,2525,1,7,11
1.72313E+12,-8222,-230,-714,-453,-116,2705,1,7,11
1.72313E+12,-8260,-135,-671,-610,-125,3139,1,7,11
1.72313E+12,-8305,-262,-645,-236,110,3057,1,7,11
1.72313E+12,-8313,-22,-884,-373,59,3227,1,7,11
1.72313E+12,-8258,189,-872,0,8,3640,1,7,11
1.72313E+12,-8177,462,-874,121,1,3502,1,7,11
1.72313E+12,-7879,731,-888,-54,8,3562,1,7,11
1.72313E+12,-7839,984,-889,-29,3,3491,1,7,11
1.72313E+12,-8063,1218,-881,-41,-274,3587,1,7,11
1.72313E+12,-8042,1437,-867,-78,-292,3363,1,7,11
1.72313E+12,-8034,1903,-848,105,-329,3095,1,7,11
1.72313E+12,-8025,2065,-825,14,-132,2552,1,7,11
1.72313E+12,-8020,1955,-820,-338,-199,2259,1,7,11
1.72313E+12,-8004,2329,-807,-199,-531,1975,1,7,11
1.72313E+12,-7953,2421,-794,-566,-607,1703,1,7,11
1.72313E+12,-7621,2238,-785,-418,-392,1448,1,7,11
1.72313E+12,-7569,2562,-778,-780,-387,1207,1,7,11
1.72313E+12,-7798,2599,-488,-886,-628,992,1,7,11
1.72313E+12,-7776,2608,-462,-708,-611,1050,1,7,11
1.72313E+12,-7769,2620,-432,-746,-594,876,1,7,11
1.72313E+12,-7747,2621,-417,-766,-599,463,1,7,11
1.72313E+12,-7722,2622,-388,-760,-601,568,1,7,11
1.72313E+12,-7710,2632,-625,-736,-595,173,1,7,11
1.72313E+12,-7698,2636,-624,-716,-586,307,1,7,11
1.72313E+12,-7702,2636,-601,-689,-551,-56,1,7,11
1.72313E+12,-7419,2640,-582,-650,-530,113,1,7,11
1.72313E+12,-7389,2650,-560,-865,-220,9,1,7,11
1.72313E+12,-7681,2672,-528,-828,-381,-358,1,7,11
1.72313E+12,-7740,2648,-222,-809,-326,-198,1,7,11
1.72313E+12,-7808,2617,-172,-500,-302,-515,1,7,11
1.72313E+12,-7579,2563,-373,-433,-330,-554,1,7,11
1.72313E+12,-7613,2238,-326,-607,-347,-594,1,7,11
1.72313E+12,-7630,2413,-265,-521,-369,-408,1,7,11
1.72313E+12,-7630,2357,33,-141,-146,-459,1,7,11
1.72313E+12,-7635,2330,56,0,-160,-771,1,7,11
1.72313E+12,-7646,2331,80,-121,-142,-812,1,7,11
1.72313E+12,-7633,2331,94,12,-366,-845,1,7,11
1.72313E+12,-7642,2310,110,314,-302,-887,1,7,11
1.72313E+12,-7634,2007,124,335,23,-683,1,7,11
1.72313E+12,-7628,1961,-125,359,104,-761,1,7,11
1.72313E+12,-7630,1921,-119,382,-68,-1101,1,7,11
1.72313E+12,-7629,2166,127,139,269,-905,1,7,11
1.72313E+12,-7639,2163,113,368,354,-941,1,7,11
1.72313E+12,-7651,2165,96,330,176,-953,1,7,11
1.72313E+12,-7641,1933,69,293,244,-961,1,7,11
1.72313E+12,-7643,1993,12,-14,582,-992,1,7,11
1.72313E+12,-7967,2039,-289,118,406,-1286,1,7,11
1.72313E+12,-7971,2029,-323,-310,415,-1310,1,7,11
1.72313E+12,-7993,1993,-365,-235,444,-1369,1,7,11
1.72313E+12,-7988,2173,-142,-417,447,-1168,1,7,11
1.72313E+12,-7937,2089,-195,-833,445,-1232,1,7,11
1.72313E+12,-7621,1744,-244,-722,465,-1562,1,7,11
1.72313E+12,-7595,1895,-537,-1118,768,-1634,1,7,11
1.72313E+12,-7614,1817,-566,-966,829,-1410,1,7,11
1.72313E+12,-7656,1484,-605,-1306,860,-1644,1,7,11
1.72313E+12,-7970,1661,-387,-1364,873,-1574,1,7,11
1.72313E+12,-8014,1579,-407,-1392,860,-1207,1,7,11
1.72313E+12,-7810,1252,-416,-1380,838,-1332,1,7,11
1.72313E+12,-7880,1193,-425,-1317,798,-930,1,7,11
1.72313E+12,-7915,1406,-442,-963,464,-1035,1,7,11
1.72313E+12,-7899,1367,-447,-1100,623,-645,1,7,11
1.72313E+12,-7862,1340,-458,-704,537,-795,1,7,11
1.72313E+12,-7834,1331,-454,-819,219,-472,1,7,11
1.72313E+12,-7815,1334,-426,-422,164,-435,1,7,11
1.72313E+12,-7820,1344,-398,-536,372,-421,1,7,11
1.72313E+12,-7857,1391,-633,-136,334,-413,1,7,11
1.72313E+12,-7864,1183,-618,-289,268,-397,1,7,11
1.72313E+12,-7848,1230,-621,33,-38,-637,1,7,11
1.72313E+12,-7833,1268,-622,56,-52,-618,1,7,11
1.72313E+12,-7847,1556,-625,50,-34,-601,1,7,11
1.72313E+12,-7847,1556,-621,19,-22,-589,1,7,11
1.72313E+12,-7857,1547,-625,-280,259,-594,1,7,11
1.72313E+12,-7848,1540,-386,-328,288,-597,1,7,11
1.72313E+12,-7825,1272,-398,-129,301,-603,1,7,11
1.72313E+12,-8046,1242,-405,-192,321,-619,1,7,11
1.72313E+12,-8043,1209,-412,-251,363,-395,1,7,11
1.72313E+12,-8056,1175,-418,-550,161,-425,1,7,11
1.72313E+12,-8060,1367,-417,-590,209,-455,1,7,11
1.72313E+12,-8055,1318,-445,-603,230,-497,1,7,11
1.72313E+12,-7810,1283,-465,-563,519,-809,1,7,11
1.72313E+12,-7812,992,-772,-530,547,-865,1,7,11
1.72313E+12,-7811,960,-816,-244,574,-673,1,7,11
1.72313E+12,-7820,908,-834,-224,600,-737,1,7,11
1.72313E+12,-7841,1091,-840,-198,618,-1061,1,7,11
1.72313E+12,-7870,761,-853,-153,619,-1125,1,7,11
1.72313E+12,-7865,690,-873,-356,592,-922,1,7,11
1.72313E+12,-7879,880,-891,-295,589,-975,1,7,11
1.72313E+12,-7877,814,-647,12,573,-1006,1,7,11
1.72313E+12,-7865,492,-689,66,563,-1288,1,7,11
1.72313E+12,-7826,436,-719,112,560,-1301,1,7,11
1.72313E+12,-8042,388,-760,-112,586,-1312,1,7,11
1.72313E+12,-8036,616,-1057,-102,621,-1315,1,7,11
1.72313E+12,-8060,567,-1078,-118,394,-1312,1,7,11
1.72313E+12,-7823,514,-1102,127,402,-1016,1,7,11
1.72313E+12,-7814,211,-1130,124,401,-968,1,7,11
1.72313E+12,-8045,176,-910,114,396,-905,1,7,11
1.72313E+12,-7999,142,-953,95,403,-1092,1,7,11
1.72313E+12,-7973,373,-991,67,435,-767,1,7,11
1.72313E+12,-7916,334,-1007,17,453,-698,1,7,11
1.72313E+12,-7639,303,-1003,-289,469,-895,1,7,11
1.72313E+12,-7641,284,-1013,-338,483,-815,1,7,11
1.72313E+12,-7966,279,-999,-136,495,-770,1,7,11
1.72313E+12,-8037,286,-999,-190,461,-441,1,7,11
1.72313E+12,-7841,289,-991,-252,401,-621,1,7,11
1.72313E+12,-7905,290,-998,-592,596,-532,1,7,11
1.72313E+12,-7904,272,-1015,-636,531,-187,1,7,11
1.72313E+12,-7890,264,-1293,-393,513,-368,1,7,11
1.72313E+12,-7876,-13,-1294,-415,238,-308,1,7,11
1.72313E+12,-7866,-23,-1292,-410,232,1,1,7,11
1.72313E+12,-7859,-22,-1294,-619,207,51,1,7,11
1.72313E+12,-7827,-27,-1006,-597,138,99,1,7,11
1.72313E+12,-7823,-44,-935,-586,301,126,1,7,11
1.72313E+12,-8044,-83,-1103,-579,-116,-116,1,7,11
1.72313E+12,-7994,-115,-759,-543,-294,118,1,7,11
1.72313E+12,-7952,-119,-748,-238,-211,86,1,7,11
1.72313E+12,-7562,-118,-1086,-200,-609,38,1,7,11
1.72313E+12,-7395,-126,-959,-198,-615,-307,1,7,11
1.72313E+12,-7525,104,-1329,-220,-201,-173,1,7,11
1.72313E+12,-7523,72,-1156,-224,75,-573,1,7,11
1.72313E+12,-7339,48,-1232,-218,334,-429,1,7,11
1.72313E+12,-7724,19,-1556,-191,544,-779,1,7,11
1.72313E+12,-7938,29,-1638,-132,439,-804,1,7,11
1.72313E+12,-7901,52,-1412,-325,466,-489,1,7,11
1.72313E+12,-8154,83,-1635,20,413,-601,1,7,11
1.72313E+12,-8328,116,-1571,-112,203,-332,1,7,11
1.72313E+12,-8327,-116,-1252,299,-109,-8,1,7,11
1.72313E+12,-8497,-95,-1233,217,-377,560,1,7,11
1.72313E+12,-8092,-76,-1217,389,-573,826,1,7,11
1.72313E+12,-8249,-24,-1196,826,-635,749,1,7,11
1.72313E+12,-8204,322,-1404,721,-639,1140,1,7,11
1.72313E+12,-8230,175,-1323,1083,-635,985,1,7,11
1.72313E+12,-8236,553,-952,1124,-452,1348,1,7,11
1.72313E+12,-7921,634,-1082,1094,-842,1173,1,7,11
1.72313E+12,-7883,453,-733,1035,-703,1221,1,7,11
1.72313E+12,-8047,773,-678,671,-1099,1236,1,7,11
1.72313E+12,-7654,824,-895,775,-934,1182,1,7,11
1.72313E+12,-7608,859,-869,575,-920,1317,1,7,11
1.72313E+12,-7616,856,-878,344,-1149,924,1,7,11
1.72313E+12,-7607,853,-653,-108,-1095,1028,1,7,11
1.72313E+12,-7575,854,-702,-271,-730,884,1,7,11
1.72313E+12,-7804,850,-758,-221,-465,455,1,7,11
1.72313E+12,-7600,827,-1034,-590,-222,614,1,7,11
1.72313E+12,-7979,795,-752,-393,-279,559,1,7,11
1.72313E+12,-8057,501,-715,-634,64,545,1,7,11
1.72313E+12,-7857,479,-670,-568,74,549,1,7,11
1.72313E+12,-7920,457,-896,-216,24,578,1,7,11
1.72313E+12,-8222,453,-873,-336,-342,627,1,7,11
1.72313E+12,-8257,461,-855,85,-218,425,1,7,11
1.72313E+12,-8308,502,-825,265,-615,499,1,7,11
1.72313E+12,-8065,798,-790,190,-789,856,1,7,11
1.72313E+12,-8071,856,-491,618,-696,715,1,7,11
1.72313E+12,-8100,654,-434,507,-1122,1095,1,7,11
1.72313E+12,-8319,682,-638,890,-1329,966,1,7,11
1.72313E+12,-8217,704,-592,753,-1253,1314,1,7,11
1.72313E+12,-7890,726,-558,1109,-1605,1352,1,7,11
1.72313E+12,-7846,742,-531,948,-1652,1365,1,7,11
1.72313E+12,-8027,1025,-529,1288,-1420,1364,1,7,11
1.72313E+12,-7939,1050,-528,1336,-1644,1337,1,7,11
1.72313E+12,-7649,1052,-522,1359,-1280,1280,1,7,11
1.72313E+12,-7952,1057,-255,1385,-1390,959,1,7,11
1.72313E+12,-8055,1093,-230,1155,-1011,912,1,7,11
1.72313E+12,-7917,902,-188,1164,-946,911,1,7,11
1.72313E+12,-8245,948,-363,1384,-964,967,1,7,11
1.72313E+12,-8255,957,-272,1337,-1299,1319,1,7,11
1.72313E+12,-8266,959,101,1320,-1396,1166,1,7,11
1.72313E+12,-8267,981,-43,1333,-1263,1271,1,7,11
1.72313E+12,-8234,1280,330,1368,-1661,1630,1,7,11
1.72313E+12,-7840,1339,175,1158,-1816,1487,1,7,11
1.72313E+12,-7942,1390,223,1201,-1877,1832,1,7,11
1.72313E+12,-7601,1194,199,1232,-1824,1900,1,7,11
1.72313E+12,-7725,1206,343,1226,-1452,1664,1,7,11
1.72313E+12,-7402,1201,248,1243,-1187,1854,1,7,11
1.72313E+12,-7407,1197,-119,1538,-1097,1485,1,7,11
1.72313E+12,-7718,1196,53,1591,-482,1595,1,7,11
1.72313E+12,-7681,1244,-280,1445,-373,1218,1,7,11
1.72313E+12,-7885,1255,-297,1792,-97,1401,1,7,11
1.72313E+12,-8100,1543,7,1677,296,1164,1,7,11
1.72313E+12,-8459,1565,77,2116,261,1202,1,7,11
1.72313E+12,-8543,1437,-120,2360,11,1598,1,7,11
1.72313E+12,-8479,1881,-53,2620,-593,1498,1,7,11
1.72313E+12,-8309,2071,-16,2548,-674,1901,1,7,11
1.72313E+12,-7860,1986,280,2898,-984,1759,1,7,11
1.72313E+12,-7937,2223,287,2741,-1160,2046,1,7,11
1.72313E+12,-7768,2434,316,2753,-1219,1711,1,7,11
1.72313E+12,-7401,2866,355,2553,-1399,1808,1,7,11
1.72313E+12,-7348,2736,379,2291,-1299,1588,1,7,11
1.72313E+12,-7343,3105,377,1981,-930,1328,1,7,11
1.72313E+12,-7315,3003,329,1888,-1072,1078,1,7,11
1.72313E+12,-7478,3447,267,1196,-662,832,1,7,11
1.72313E+12,-7097,3663,-30,643,-431,608,1,7,11
1.72313E+12,-7076,3852,-37,-56,-371,366,1,7,11
1.72313E+12,-7084,3946,258,-872,-78,99,1,7,11
1.72313E+12,-7491,3943,369,-1455,217,-256,1,7,11
1.72313E+12,-7352,3887,538,-2242,387,-832,1,7,11
1.72313E+12,-7799,3692,438,-2977,453,-1149,1,7,11
1.72313E+12,-7638,3432,874,-3561,397,-1394,1,7,11
1.72313E+12,-7942,3166,752,-4203,561,-1632,1,7,11
1.72313E+12,-7646,2919,1123,-4406,208,-1844,1,7,11
1.72313E+12,-7669,2463,957,-4471,524,-1780,1,7,11
1.72313E+12,-7650,2296,1306,-4438,579,-2171,1,7,11
1.72313E+12,-7560,2335,1355,-4356,422,-2047,1,7,11
1.72313E+12,-7578,2170,1374,-4137,868,-2380,1,7,11
1.72313E+12,-7571,2101,1366,-3566,1052,-2384,1,7,11
1.72313E+12,-7962,1767,1326,-3235,997,-2381,1,7,11
1.72313E+12,-7678,1734,1314,-3155,1017,-2044,1,7,11
1.72313E+12,-7650,1896,995,-2898,1301,-2048,1,7,11
1.72313E+12,-7660,1531,1148,-2434,1356,-1987,1,7,11
1.72313E+12,-7626,1482,1025,-2227,1191,-2175,1,7,11
1.72313E+12,-7940,1635,889,-2307,1596,-2146,1,7,11
1.72313E+12,-8024,1547,452,-2056,1471,-2069,1,7,11
1.72313E+12,-7872,1567,614,-1527,1834,-1708,1,7,11
1.72313E+12,-7936,1236,243,-1661,1848,-1829,1,7,11
1.72313E+12,-8219,1372,151,-1595,1845,-1439,1,7,11
1.72313E+12,-8214,1284,275,-1218,1489,-1653,1,7,11
1.72313E+12,-7901,1002,-82,-941,1431,-1635,1,7,11
1.72313E+12,-7874,953,55,-1048,1450,-1632,1,7,11
1.72313E+12,-7837,957,-339,-651,1513,-1569,1,7,11
1.72313E+12,-7820,999,-520,-826,1842,-1239,1,7,11
1.72313E+12,-7815,1299,-462,-811,1888,-1393,1,7,11
1.72313E+12,-7844,1012,-841,-850,1705,-1307,1,7,11
1.72313E+12,-8194,976,-892,-660,1762,-978,1,7,11
1.72313E+12,-7931,917,-894,-752,1884,-919,1,7,11
1.72313E+12,-8290,1088,-652,-1073,1487,-940,1,7,11
1.72313E+12,-8119,1056,-663,-1077,1210,-898,1,7,11
1.72313E+12,-8286,1098,-718,-736,1139,-1091,1,7,11
1.72313E+12,-8258,932,-742,-664,679,-746,1,7,11
1.72313E+12,-8276,963,-735,-682,510,-804,1,7,11
1.72313E+12,-8231,952,-709,-716,566,-542,1,7,11
1.72313E+12,-7895,952,-668,-732,185,-275,1,7,11
1.72313E+12,-7881,944,-855,-759,142,-41,1,7,11
1.72313E+12,-7848,899,-507,-1045,332,144,1,7,11
1.72313E+12,-8061,1099,-404,-1032,272,248,1,7,11
1.72313E+12,-8043,1090,-585,-725,-36,558,1,7,11
1.72313E+12,-8021,1083,-536,-708,-105,597,1,7,11
1.72313E+12,-7993,1050,-524,-719,89,620,1,7,11
1.72313E+12,-7971,743,-521,-733,47,616,1,7,11
1.72313E+12,-7948,665,-537,-740,36,591,1,7,11
1.72313E+12,-7974,841,-565,-714,81,547,1,7,11
1.72313E+12,-8017,738,-634,-660,-124,255,1,7,11
1.72313E+12,-7836,400,-440,-870,-64,213,1,7,11
1.72313E+12,-7930,617,-489,-818,-28,190,1,7,11
1.72313E+12,-8208,612,-512,-488,-36,171,1,7,11
1.72313E+12,-8254,625,-501,-439,-33,160,1,7,11
1.72313E+12,-8265,629,-460,-431,110,203,1,7,11
1.72313E+12,-8278,628,-414,-437,-267,515,1,7,11
1.72313E+12,-8263,617,-607,-473,-169,574,1,7,11
1.72313E+12,-7931,581,-537,-773,-591,602,1,7,11
1.72313E+12,-7870,517,-212,-811,-425,584,1,7,11
1.72313E+12,-7848,209,-380,-834,-447,532,1,7,11
1.72313E+12,-7824,134,-263,-867,-462,192,1,7,11
1.72313E+12,-7836,291,105,-870,-442,350,1,7,11
1.72313E+12,-7879,-60,-56,-840,-426,262,1,7,11
1.72313E+12,-7866,118,298,-782,-451,-53,1,7,11
1.72313E+12,-8034,65,144,-427,-469,-104,1,7,11
1.72313E+12,-7968,68,248,-569,-411,120,1,7,11
1.72313E+12,-7673,98,623,-217,-574,118,1,7,11
1.72313E+12,-7670,-70,482,-372,-220,-75,1,7,11
1.72313E+12,-7944,349,808,-269,-364,315,1,7,11
1.72313E+12,-7996,540,827,0,11,533,1,7,11
1.72313E+12,-7822,429,834,-337,-112,805,1,7,11
1.72313E+12,-8194,834,789,-380,324,1145,1,7,11
1.72313E+12,-8162,754,463,-147,562,1257,1,7,11
1.72313E+12,-8813,1117,452,-147,821,1695,1,7,11
1.72313E+12,-9103,932,460,55,1031,2577,1,7,11
1.72313E+12,-9677,1361,388,574,1091,3431,1,7,11
1.72313E+12,-10082,1599,534,996,830,4434,1,7,11
1.72313E+12,-9713,1827,171,2061,415,5027,1,7,11
1.72313E+12,-9616,2162,-7,2795,415,5974,1,7,11
1.72313E+12,-9383,2596,-279,4123,403,6474,1,7,11
1.72313E+12,-9102,3137,-589,5173,777,6741,1,7,11
1.72313E+12,-8951,3482,-890,6007,1025,6559,1,7,11
1.72313E+12,-8968,4211,-1145,6503,927,6561,1,7,11
1.72313E+12,-8353,4315,-1375,6738,1346,6708,1,7,11
1.72313E+12,-7863,4895,-1594,6718,1554,6485,1,7,11
1.72313E+12,-7524,5197,-1506,6426,1847,5776,1,7,11
1.72313E+12,-6833,5259,-1887,5624,2345,5020,1,7,11
1.72313E+12,-6924,5552,-1711,4826,2873,4398,1,7,11
1.72313E+12,-6783,5962,-2084,3817,2968,3589,1,7,11
1.72313E+12,-6315,6011,-1974,2733,3239,2897,1,7,11
1.72313E+12,-6124,5974,-2397,1856,3551,2348,1,7,11
1.72313E+12,-6155,5593,-2291,490,4137,1739,1,7,11
1.72313E+12,-5774,5699,-2523,-241,4283,1510,1,7,11
1.72313E+12,-5992,5464,-2900,-1370,4887,1626,1,7,11
1.72313E+12,-5773,5037,-2700,-2105,4857,1246,1,7,11
1.72313E+12,-5886,4851,-2714,-2680,5165,1357,1,7,11
1.72313E+12,-6170,4930,-2903,-3075,4797,922,1,7,11
1.72313E+12,-6202,4545,-2545,-3027,4554,875,1,7,11
1.72313E+12,-6262,4494,-2458,-3039,4051,483,1,7,11
1.72313E+12,-5863,4616,-2667,-2994,3792,416,1,7,11
1.72313E+12,-5629,4444,-2653,-3168,3393,608,1,7,11
1.72313E+12,-5656,4055,-2636,-2771,2953,561,1,7,11
1.72313E+12,-5284,4034,-2620,-2721,3199,586,1,7,11
1.72313E+12,-5245,4071,-2648,-2294,3118,770,1,7,11
1.72313E+12,-4870,4081,-2656,-2198,3100,695,1,7,11
1.72313E+12,-4618,4379,-2658,-2350,2948,1140,1,7,11
1.72313E+12,-4238,4243,-2437,-1952,3059,1339,1,7,11
1.72313E+12,-4365,4674,-2532,-2066,3343,1546,1,7,11
1.72313E+12,-4184,4583,-2929,-1709,3049,1434,1,7,11
1.72313E+12,-3799,4990,-2793,-1904,3044,1429,1,7,11
1.72313E+12,-3802,4843,-3084,-1893,3035,1276,1,7,11
1.72313E+12,-4151,5146,-2816,-1877,3168,1323,1,7,11
1.72313E+12,-4219,5159,-2799,-1798,2895,1102,1,7,11
1.72313E+12,-4002,5214,-3091,-1642,2573,640,1,7,11
1.72313E+12,-4032,5033,-3134,-1230,1999,489,1,7,11
1.72313E+12,-4046,5102,-3169,-1327,1732,632,1,7,11
1.72313E+12,-4360,5458,-3194,-1106,1825,565,1,7,11
1.72313E+12,-4470,5356,-2999,-854,1473,516,1,7,11
1.72313E+12,-4230,5539,-3069,-409,1578,214,1,7,11
1.72313E+12,-4474,6001,-3415,-539,1230,378,1,7,11
1.72313E+12,-4442,6224,-3272,-210,1188,310,1,7,11
1.72313E+12,-4082,6449,-3686,-193,1204,-3,1,7,11
1.72313E+12,-4028,6395,-3541,-420,1547,99,1,7,11
1.72313E+12,-3988,6531,-3846,-1076,1583,-357,1,7,11
1.72313E+12,-4175,6561,-3573,-1559,1276,-405,1,7,11
1.72313E+12,-4130,6571,-3564,-1768,1239,-1031,1,7,11
1.72313E+12,-3830,6578,-3528,-2261,1154,-1384,1,7,11
1.72313E+12,-3872,6719,-3699,-3115,1005,-1490,1,7,11
1.72313E+12,-3665,6338,-3592,-3684,1282,-1923,1,7,11
1.72313E+12,-3236,6524,-3437,-4015,1172,-2671,1,7,11
1.72313E+12,-3409,6504,-3053,-4955,1448,-3025,1,7,11
1.72313E+12,-3261,6505,-3132,-5515,2089,-3766,1,7,11
1.72313E+12,-3708,6142,-2699,-6746,2400,-4546,1,7,11
1.72313E+12,-3661,6020,-2855,-7789,2590,-5281,1,7,11
1.72313E+12,-3561,6196,-2520,-9124,3000,-6764,1,7,11
1.72313E+12,-3815,5786,-2663,-10523,3487,-7468,1,7,11
1.72313E+12,-4047,5525,-2257,-11596,4206,-8063,1,7,11
1.72313E+12,-4662,5478,-2348,-12282,4675,-8530,1,7,11
1.72313E+12,-4955,4833,-2129,-13336,4977,-8584,1,7,11
1.72313E+12,-5199,4668,-1876,-13869,5177,-8996,1,7,11
1.72313E+12,-5443,4010,-1410,-14095,5089,-8971,1,7,11
1.72313E+12,-5688,3933,-1268,-13776,5474,-8726,1,7,11
1.72313E+12,-5908,3659,-1155,-13501,5332,-8069,1,7,11
1.72313E+12,-6206,3392,-1020,-13351,5710,-7574,1,7,11
1.72313E+12,-6514,3085,-1122,-12540,5728,-7233,1,7,11
1.72313E+12,-6754,2539,-701,-12058,5352,-6344,1,7,11
1.72313E+12,-6633,2591,-496,-10888,5403,-5983,1,7,11
1.72313E+12,-6805,2281,-561,-9859,5238,-5435,1,7,11
1.72313E+12,-6815,2267,-157,-8907,4951,-4964,1,7,11
1.72313E+12,-6787,2252,-326,-8261,4483,-4684,1,7,11
1.72313E+12,-6963,2282,-304,-7160,4333,-4241,1,7,11
1.72313E+12,-6636,2584,-349,-6667,4301,-4409,1,7,11
1.72313E+12,-6569,2600,-165,-5795,4324,-4354,1,7,11
1.72313E+12,-6581,2638,-564,-5497,4717,-4063,1,7,11
1.72313E+12,-6978,2437,-474,-4827,4905,-4027,1,7,11
1.72313E+12,-7169,2459,-842,-4559,4762,-4220,1,7,11
1.72313E+12,-7235,2461,-662,-4332,4988,-4099,1,7,11
1.72313E+12,-7095,2544,-737,-4356,4960,-3946,1,7,11
1.72313E+12,-7127,2913,-1058,-4201,4517,-3703,1,7,11
1.72313E+12,-7061,2782,-1119,-3824,4233,-3433,1,7,11
1.72313E+12,-7207,3164,-926,-3726,4190,-3130,1,7,11
1.72313E+12,-6898,3034,-1008,-3879,3937,-2552,1,7,11
1.72313E+12,-6909,3208,-1328,-3538,3701,-2210,1,7,11
1.72313E+12,-6963,3610,-1390,-3543,3362,-2137,1,7,11
1.72313E+12,-6628,3705,-1194,-3524,3034,-1841,1,7,11
1.72313E+12,-6775,3497,-1271,-3534,2863,-1499,1,7,11
1.72313E+12,-6741,3703,-1621,-3582,2818,-1818,1,7,11
1.72313E+12,-6564,3602,-1490,-3584,2890,-1714,1,7,11
1.72313E+12,-6970,3251,-1861,-3529,2756,-2168,1,7,11
1.72313E+12,-6892,3440,-1713,-3694,3111,-2346,1,7,11
1.72313E+12,-7250,3404,-2076,-3325,3146,-2430,1,7,11
1.72313E+12,-7259,3405,-1933,-3237,3132,-2410,1,7,11
1.72313E+12,-6842,3403,-2311,-3203,3098,-2313,1,7,11
1.72313E+12,-6648,3447,-2412,-3435,2957,-1973,1,7,11
1.72313E+12,-6929,3281,-2202,-3451,3278,-1962,1,7,11
1.72313E+12,-7205,3598,-2431,-3308,3531,-1932,1,7,11
1.72313E+12,-7454,3250,-2378,-3463,3471,-2093,1,7,11
1.72313E+12,-7546,3064,-2339,-3560,3428,-1718,1,7,11
1.72313E+12,-7430,3088,-2350,-3847,2774,-1909,1,7,11
1.72313E+12,-7205,2866,-2375,-3569,2442,-1696,1,7,11
1.72313E+12,-7021,2434,-2413,-3518,2255,-2094,1,7,11
1.72313E+12,-6949,2299,-2183,-3493,2395,-2035,1,7,11
1.72313E+12,-6939,2179,-2203,-3494,2038,-2226,1,7,11
1.72313E+12,-7026,2366,-2224,-3499,1957,-2636,1,7,11
1.72313E+12,-6908,2041,-2229,-3551,2090,-2465,1,7,11
1.72313E+12,-7049,1973,-2214,-3859,1906,-2476,1,7,11
1.72313E+12,-7132,2167,-2207,-3877,1662,-2678,1,7,11
1.72313E+12,-7163,2107,-2197,-3873,1394,-2608,1,7,11
1.72313E+12,-7139,2050,-2200,-3568,1134,-2567,1,7,11
1.72313E+12,-7133,1752,-2388,-3494,667,-2617,1,7,11
1.72313E+12,-7069,1917,-2327,-3678,430,-2507,1,7,11
1.72313E+12,-7283,1880,-1968,-3438,535,-2753,1,7,11
1.72313E+12,-7284,1710,-2139,-3146,375,-3033,1,7,11
1.72313E+12,-7213,2049,-2072,-2898,-111,-3324,1,7,11
1.72313E+12,-6878,2117,-2084,-2687,-287,-3853,1,7,11
1.72313E+12,-7187,1982,-2092,-2254,-321,-3807,1,7,11
1.72313E+12,-7215,1962,-2085,-2214,-152,-4140,1,7,11
1.72313E+12,-7435,1951,-2092,-2187,-130,-4106,1,7,11
1.72313E+12,-7516,1931,-2061,-2195,-356,-3763,1,7,11
1.72313E+12,-7501,2127,-1774,-2261,-216,-3525,1,7,11
1.72313E+12,-7680,2080,-1921,-2490,-112,-2507,1,7,11
1.72313E+12,-7898,1721,-1942,-2942,291,-2229,1,7,11
1.72313E+12,-8237,1811,-2099,-3145,326,-2008,1,7,11
1.72313E+12,-7982,1572,-1808,-3336,-128,-2114,1,7,11
1.72313E+12,-7068,973,-1365,-3249,-553,-2087,1,7,11
1.72313E+12,-6323,790,-765,-3236,-803,-2003,1,7,11
1.72313E+12,-6601,544,-675,-3096,31,-2637,1,7,11
1.72313E+12,-8010,426,-749,-2466,569,-2842,1,7,11
1.72313E+12,-8443,498,-704,-2478,-38,-2903,1,7,11
1.72313E+12,-8816,462,-492,-2436,-519,-2927,1,7,11
1.72313E+12,-8672,799,-552,-2269,-397,-2840,1,7,11
1.72313E+12,-8863,796,-131,-2275,-434,-2644,1,7,11
1.72313E+12,-8911,495,-339,-2261,-476,-2394,1,7,11
1.72313E+12,-8924,814,-304,-2414,-407,-1964,1,7,11
1.72313E+12,-9025,650,51,-2342,-628,-1781,1,7,11
1.72313E+12,-8814,674,-43,-2341,-577,-1859,1,7,11
1.72313E+12,-8497,867,151,-2388,-602,-1423,1,7,11
1.72313E+12,-7921,488,604,-2372,-595,-1562,1,7,11
1.72313E+12,-7957,638,780,-1966,-536,-1229,1,7,11
1.72313E+12,-7787,605,643,-1711,-239,-1194,1,7,11
1.72313E+12,-7362,433,673,-1420,-205,-1159,1,7,11
1.72313E+12,-7465,508,644,-1183,-362,-1372,1,7,11
1.72313E+12,-7522,794,890,-1292,79,-1326,1,7,11
1.72313E+12,-7376,457,665,-987,-24,-993,1,7,11
1.72313E+12,-7785,531,706,-963,311,-993,1,7,11
1.72313E+12,-7651,335,700,-1115,277,-1301,1,7,11
1.72313E+12,-8055,-32,894,-705,262,-1407,1,7,11
1.72313E+12,-8049,-83,790,-150,-69,-1257,1,7,11
1.72313E+12,-7837,-61,425,-101,-28,-1630,1,7,11
1.72313E+12,-7823,259,564,144,256,-1655,1,7,11
1.72313E+12,-8259,352,167,617,160,-1628,1,7,11
1.72313E+12,-8330,228,282,492,514,-1200,1,7,11
1.72313E+12,-8664,581,-53,790,211,-963,1,7,11
1.72313E+12,-8930,396,-116,827,287,-870,1,7,11
1.72313E+12,-9428,442,-343,662,337,-567,1,7,11
1.72313E+12,-9954,432,-202,462,87,86,1,7,11
1.72313E+12,-9244,291,-304,380,-920,364,1,7,11
1.72313E+12,-8072,26,37,469,-977,-68,1,7,11
1.72313E+12,-8286,259,-333,1299,-535,34,1,7,11
1.72313E+12,-8508,249,-201,1369,85,-271,1,7,11
1.72313E+12,-8129,524,-536,908,24,26,1,7,11
1.72313E+12,-7922,186,-621,1057,92,1,1,7,11
1.72313E+12,-7847,154,-466,1067,-10,11,1,7,11
1.72313E+12,-7636,162,-896,1068,326,84,1,7,11
1.72313E+12,-7713,205,-1107,763,247,-102,1,7,11
1.72313E+12,-7352,246,-1336,671,479,262,1,7,11
1.72313E+12,-7364,531,-1550,817,741,159,1,7,11
1.72313E+12,-7745,538,-1461,450,944,605,1,7,11
1.72313E+12,-7965,249,-1839,609,1012,820,1,7,11
1.72313E+12,-7833,168,-1691,567,1120,1053,1,7,11
1.72313E+12,-7918,349,-1784,394,661,945,1,7,11
1.72313E+12,-8280,383,-2148,827,447,1296,1,7,11
1.72313E+12,-8072,225,-2001,747,207,1371,1,7,11
1.72313E+12,-8277,581,-2334,1144,-3,1169,1,7,11
1.72313E+12,-8255,414,-2424,982,-92,1204,1,7,11
1.72313E+12,-7895,467,-2220,995,80,1236,1,7,11
1.72313E+12,-7992,472,-2214,966,41,1205,1,7,11
1.72313E+12,-7766,427,-2285,943,27,1400,1,7,11
1.72313E+12,-7435,627,-2442,903,83,1282,1,7,11
1.72313E+12,-7252,575,-2671,1074,348,1029,1,7,11
1.72313E+12,-7260,182,-2287,745,626,819,1,7,11
1.72313E+12,-7256,314,-2343,724,457,400,1,7,11
1.72313E+12,-7287,-82,-2153,736,609,251,1,7,11
1.72313E+12,-7047,34,-2124,1050,336,371,1,7,11
1.72313E+12,-7062,-300,-1952,902,-291,45,1,7,11
1.72313E+12,-7448,1,-2326,1282,-323,-244,1,7,11
1.72313E+12,-7338,89,-2383,1335,-395,-479,1,7,11
1.72313E+12,-7562,-50,-2389,1301,-391,-874,1,7,11
1.72313E+12,-8019,330,-2373,970,-429,-863,1,7,11
1.72313E+12,-7885,205,-2343,1104,-783,-480,1,7,11
1.72313E+12,-7898,549,-2042,677,-670,-531,1,7,11
1.72313E+12,-8025,609,-1998,784,-1086,-299,1,7,11
1.72313E+12,-7754,413,-1973,409,-952,-100,1,7,11
1.72313E+12,-7550,482,-2006,586,-1151,281,1,7,11
1.72313E+12,-7308,841,-2030,218,-724,376,1,7,11
1.72313E+12,-7537,875,-2033,290,-651,208,1,7,11
1.72313E+12,-7543,864,-2020,103,-832,224,1,7,11
1.72313E+12,-7323,827,-2006,-328,-509,180,1,7,11
1.72313E+12,-7577,795,-1991,-215,-638,317,1,7,11
1.72313E+12,-8211,510,-1972,-625,-623,-62,1,7,11
1.72313E+12,-8574,452,-2169,-800,-786,46,1,7,11
1.72313E+12,-8728,632,-2075,-693,-1113,-355,1,7,11
1.72313E+12,-8337,550,-1691,-1081,-1234,-522,1,7,11
1.72313E+12,-8086,208,-1501,-938,-1477,-474,1,7,11
1.72313E+12,-7885,136,-1264,-1015,-1804,-666,1,7,11
1.72313E+12,-7970,350,-1021,-1288,-1819,-1048,1,7,11
1.72313E+12,-7658,343,-1048,-1006,-1507,-1130,1,7,11
1.72313E+12,-7659,350,-823,-992,-1516,-1103,1,7,11
1.72313E+12,-7562,343,-599,-989,-1875,-765,1,7,11
1.72313E+12,-7344,312,-139,-968,-1713,-652,1,7,11
1.72313E+12,-7150,281,67,-911,-1681,-815,1,7,11
1.72313E+12,-7428,290,330,-1060,-1521,-471,1,7,11
1.72313E+12,-7484,306,195,-685,-1429,-597,1,7,11
1.72313E+12,-7703,161,525,-799,-1252,-517,1,7,11
1.72313E+12,-7883,245,555,-444,-1317,-146,1,7,11
1.72313E+12,-8398,551,577,-412,-1013,-271,1,7,11
1.72313E+12,-8666,588,603,-389,-987,66,1,7,11
1.72313E+12,-8875,391,614,-619,-939,115,1,7,11
