timestamp,ax,ay,az,gx,gy,gz,Label1,Label2,Label3
1.72313E+12,-7330,2612,-1134,-339,-101,89,1,7,11
1.72313E+12,-7344,2620,-1136,-331,-51,-125,1,7,11
1.72313E+12,-7364,2627,-1139,-305,-17,-71,1,7,11
1.72313E+12,-7373,2649,-1132,-271,-8,-13,1,7,11
1.72313E+12,-7383,2676,-1136,18,-21,300,1,7,11
1.72313E+12,-7379,2451,-1143,53,-50,339,1,7,11
1.72313E+12,-7360,2503,-1146,75,-82,354,1,7,11
1.72313E+12,-7346,2549,-1149,65,-106,348,1,7,11
1.72313E+12,-7332,2841,-1144,27,120,325,1,7,11
1.72313E+12,-7313,2864,-1144,-282,98,289,1,7,11
1.72313E+12,-7531,2867,-1125,-333,89,-12,1,7,11
1.72313E+12,-7506,2862,-1120,-371,113,-61,1,7,11
1.72313E+12,-7494,2855,-1117,-140,-95,-101,1,7,11
1.72313E+12,-7504,2845,-1118,-147,-32,120,1,7,11
1.72313E+12,-7526,2826,-1123,-141,285,96,1,7,11
1.72313E+12,-7305,2554,-1120,-372,322,81,1,7,11
1.72313E+12,-7336,2549,-1127,-326,330,72,1,7,11
1.72313E+12,-7354,2555,-1149,-280,313,69,1,7,11
1.72313E+12,-7358,2816,-918,18,286,68,1,7,11
1.72313E+12,-7355,2822,-936,43,257,64,1,7,11
1.72313E+12,-7352,2827,-947,47,-34,55,1,7,11
1.72313E+12,-7337,2829,-943,35,-72,43,1,7,11
1.72313E+12,-7334,2824,-937,14,-107,30,1,7,11
1.72313E+12,-7336,2539,-916,-270,112,14,1,7,11
1.72313E+12,-7354,2504,-1138,-287,63,-258,1,7,11
1.72313E+12,-7365,2464,-1111,-282,16,-266,1,7,11
1.72313E+12,-7366,2441,-1094,7,-268,-260,1,7,11
1.72313E+12,-7360,2661,-1078,52,-278,20,1,7,11
1.72313E+12,-7361,2641,-1071,109,-250,40,1,7,11
1.72313E+12,-7377,2609,-1060,-89,30,64,1,7,11
1.72313E+12,-7420,2560,-1032,38,36,92,1,7,11
1.72313E+12,-7736,2215,-742,177,-263,-103,1,7,11
1.72313E+12,-7775,2341,-710,415,-366,-6,1,7,11
1.72313E+12,-7798,2007,-698,1069,-230,129,1,7,11
1.72313E+12,-7784,2017,-742,1544,-631,538,1,7,11
1.72313E+12,-7738,2319,-1053,1744,-506,412,1,7,11
1.72313E+12,-7715,2391,-1126,2393,-860,783,1,7,11
1.72313E+12,-7423,2428,-932,2682,-696,860,1,7,11
1.72313E+12,-7386,2205,-986,2940,-749,891,1,7,11
1.72313E+12,-7410,2286,-1297,3172,-1026,640,1,7,11
1.72313E+12,-7413,2638,-1366,3335,-1076,646,1,7,11
1.72313E+12,-7408,2495,-1194,3413,-1115,654,1,7,11
1.72313E+12,-7396,2864,-1266,3412,-1135,685,1,7,11
1.72313E+12,-7384,2712,-1618,3349,-1129,723,1,7,11
1.72313E+12,-7368,2788,-1458,2959,-1116,751,1,7,11
1.72313E+12,-7304,3079,-1530,2779,-1098,757,1,7,11
1.72313E+12,-7534,3105,-1816,2846,-1038,726,1,7,11
1.72313E+12,-7523,3116,-1533,2626,-736,671,1,7,11
1.72313E+12,-7522,3079,-1446,2376,-747,861,1,7,11
1.72313E+12,-7516,2707,-1554,2120,-1073,507,1,7,11
1.72313E+12,-7538,2826,-1393,1900,-936,637,1,7,11
1.72313E+12,-7549,2680,-956,1472,-1342,215,1,7,11
1.72313E+12,-7329,2579,-1076,1616,-1211,298,1,7,11
1.72313E+12,-7363,2254,-710,1256,-1566,-122,1,7,11
1.72313E+12,-7400,2264,-662,1181,-1624,30,1,7,11
1.72313E+12,-7297,2560,-896,1319,-1657,-263,1,7,11
1.72313E+12,-7433,2561,-863,1144,-1566,-265,1,7,11
1.72313E+12,-7056,2282,-800,715,-1382,11,1,7,11
1.72313E+12,-7269,2283,-509,850,-1115,13,1,7,11
1.72313E+12,-7270,2560,-512,500,-840,42,1,7,11
1.72313E+12,-7290,2613,-809,427,-557,77,1,7,11
1.72313E+12,-7043,2644,-873,617,-273,-127,1,7,11
1.72313E+12,-7101,2491,-683,544,295,-90,1,7,11
1.72313E+12,-7425,2534,-751,197,579,-63,1,7,11
1.72313E+12,-7530,2551,-1069,350,829,-79,1,7,11
1.72313E+12,-7350,2537,-1121,-26,764,122,1,7,11
1.72313E+12,-7409,2513,-935,124,1146,-22,1,7,11
1.72313E+12,-7695,2508,-1013,47,931,-129,1,7,11
1.72313E+12,-7686,2497,-1342,-267,1149,-213,1,7,11
1.72313E+12,-7422,2464,-1157,-323,1096,-522,1,7,11
1.72313E+12,-7403,2661,-1214,-132,765,-535,1,7,11
1.72313E+12,-7395,2577,-1255,-144,681,-532,1,7,11
1.72313E+12,-7409,2225,-1275,-372,841,-518,1,7,11
1.72313E+12,-7687,2425,-1542,-276,479,-239,1,7,11
1.72313E+12,-7711,2416,-1546,101,604,-190,1,7,11
1.72313E+12,-7730,2182,-1275,-26,214,-370,1,7,11
1.72313E+12,-7732,2236,-1257,349,327,8,1,7,11
1.72313E+12,-7719,2295,-1226,185,-63,-114,1,7,11
1.72313E+12,-7715,2616,-1214,516,78,286,1,7,11
1.72313E+12,-7698,2664,-1199,552,-293,155,1,7,11
1.72313E+12,-7384,2667,-1174,554,-144,246,1,7,11
1.72313E+12,-7319,2666,-1403,557,-215,537,1,7,11
1.72313E+12,-7549,2503,-1328,528,-547,221,1,7,11
1.72313E+12,-7544,2819,-1296,169,-591,153,1,7,11
1.72313E+12,-7539,2868,-996,278,-628,335,1,7,11
1.72313E+12,-7532,2882,-934,102,-411,259,1,7,11
1.72313E+12,-7544,2911,-1139,-303,-436,-64,1,7,11
1.72313E+12,-7307,2723,-1100,-195,-462,-109,1,7,11
1.72313E+12,-7531,2780,-1067,-621,-496,-120,1,7,11
1.72313E+12,-7518,2802,-1030,-790,-470,-126,1,7,11
1.72313E+12,-7517,2792,-726,-684,-424,-112,1,7,11
1.72313E+12,-7519,2753,-683,-1029,-619,-100,1,7,11
1.72313E+12,-7539,2717,-642,-1054,-542,-90,1,7,11
1.72313E+12,-7312,2926,-850,-1049,-234,-80,1,7,11
1.72313E+12,-7362,2875,-814,-738,-191,-80,1,7,11
1.72313E+12,-7403,2817,-790,-643,-178,-72,1,7,11
1.72313E+12,-7394,2543,-793,-783,-185,-61,1,7,11
1.72313E+12,-7388,2519,-816,-396,-162,-60,1,7,11
1.72313E+12,-7369,2506,-842,-539,-132,-66,1,7,11
1.72313E+12,-7363,2508,-865,-186,-340,-85,1,7,11
1.72313E+12,-7350,2523,-865,-369,-300,-123,1,7,11
1.72313E+12,-7344,2833,-862,-335,9,86,1,7,11
1.72313E+12,-7333,2928,-827,-363,54,45,1,7,11
1.72313E+12,-7303,2756,-777,-222,101,10,1,7,11
1.72313E+12,-7551,2804,-437,-426,-113,-285,1,7,11
1.72313E+12,-7303,2799,-606,-648,-98,-324,1,7,11
1.72313E+12,-7300,3072,-571,-1079,-107,-353,1,7,11
1.72313E+12,-7528,3079,-576,-967,-123,-364,1,7,11
1.72313E+12,-7451,2797,-594,-1369,-94,-374,1,7,11
1.72313E+12,-7150,2698,-622,-1253,276,-143,1,7,11
1.72313E+12,-7147,2548,-632,-1605,168,-178,1,7,11
1.72313E+12,-7526,2657,-606,-1612,582,-515,1,7,11
1.72313E+12,-7681,2580,-575,-1245,452,-596,1,7,11
1.72313E+12,-7806,2580,-551,-1304,486,-637,1,7,11
1.72313E+12,-7632,2634,-560,-958,400,-574,1,7,11
1.72313E+12,-7619,2466,-619,-504,563,-182,1,7,11
1.72313E+12,-7570,2538,-443,-616,526,-289,1,7,11
1.72313E+12,-7773,2827,-777,-543,540,104,1,7,11
1.72313E+12,-7747,2828,-851,-238,600,-79,1,7,11
1.72313E+12,-7727,2852,-668,-195,400,-68,1,7,11
1.72313E+12,-7687,2883,-728,-189,450,123,1,7,11
1.72313E+12,-7683,2927,-745,-233,498,12,1,7,11
1.72313E+12,-7424,2937,-739,-575,498,-358,1,7,11
1.72313E+12,-7388,2935,-703,-418,448,-205,1,7,11
1.72313E+12,-7338,2713,-669,-506,399,-547,1,7,11
1.72313E+12,-7467,2760,-661,-870,615,-609,1,7,11
1.72313E+12,-7140,2788,-654,-1034,624,-466,1,7,11
1.72313E+12,-7088,2803,-651,-1001,459,-803,1,7,11
1.72313E+12,-7080,2796,-653,-1158,821,-657,1,7,11
1.72313E+12,-7107,2726,-647,-1832,883,-770,1,7,11
1.72313E+12,-7155,2883,-881,-2137,754,-1123,1,7,11
1.72313E+12,-7469,2525,-859,-2372,932,-930,1,7,11
1.72313E+12,-7329,2453,-835,-2303,1315,-949,1,7,11
1.72313E+12,-7685,2685,-847,-2585,1379,-1148,1,7,11
1.72313E+12,-7721,2438,-878,-2563,1152,-1059,1,7,11
1.72313E+12,-7711,2484,-689,-2259,1191,-696,1,7,11
1.72313E+12,-7406,2534,-758,-2217,1229,-848,1,7,11
1.72313E+12,-7361,2839,-1082,-2430,1554,-778,1,7,11
1.72313E+12,-7375,2864,-1149,-2413,1632,-505,1,7,11
1.72313E+12,-7362,2843,-952,-2396,1410,-777,1,7,11
1.72313E+12,-7351,2835,-1281,-2356,1433,-851,1,7,11
1.72313E+12,-7350,2546,-1345,-2343,1430,-724,1,7,11
1.72313E+12,-7366,2485,-1371,-2366,1634,-1147,1,7,11
1.72313E+12,-7407,2639,-1354,-2391,1541,-1330,1,7,11
1.72313E+12,-7732,2294,-1361,-2357,1164,-1208,1,7,11
1.72313E+12,-7739,2239,-1405,-2033,1003,-1262,1,7,11
1.72313E+12,-7419,2192,-1223,-1974,1133,-1269,1,7,11
1.72313E+12,-7341,2392,-1565,-1936,1078,-1232,1,7,11
1.72313E+12,-7523,2323,-1625,-2172,1082,-1171,1,7,11
1.72313E+12,-7502,1990,-1654,-2155,1136,-1367,1,7,11
1.72313E+12,-7526,2168,-1643,-2123,916,-1313,1,7,11
1.72313E+12,-7327,2121,-1607,-2060,912,-1006,1,7,11
1.72313E+12,-7378,2125,-1564,-1731,1085,-949,1,7,11
1.72313E+12,-7403,2140,-1246,-1685,698,-1144,1,7,11
1.72313E+12,-7685,2164,-1166,-1918,805,-1066,1,7,11
1.72313E+12,-7739,1939,-1346,-1899,409,-721,1,7,11
1.72313E+12,-7776,1971,-1001,-1877,514,-862,1,7,11
1.72313E+12,-7799,1998,-915,-1854,376,-487,1,7,11
1.72313E+12,-7575,2033,-1089,-1823,271,-620,1,7,11
1.72313E+12,-7593,2311,-752,-1794,-83,-245,1,7,11
1.72313E+12,-7565,2333,-690,-1486,81,-131,1,7,11
1.72313E+12,-7759,2332,-677,-1436,47,-313,1,7,11
1.72313E+12,-7751,2323,-668,-1617,98,-267,1,7,11
1.72313E+12,-7798,2349,-659,-1250,-61,16,1,7,11
1.72313E+12,-7628,2390,-867,-1379,272,57,1,7,11
1.72313E+12,-7956,2418,-842,-966,293,-126,1,7,11
1.72313E+12,-7972,2231,-837,-1030,270,-26,1,7,11
1.72313E+12,-7668,2290,-867,-820,-24,338,1,7,11
1.72313E+12,-7795,2623,-663,-607,-51,168,1,7,11
1.72313E+12,-7724,2457,-735,-160,-43,223,1,7,11
1.72313E+12,-7417,2528,-1054,-280,-16,241,1,7,11
1.72313E+12,-7377,2545,-1115,46,258,198,1,7,11
1.72313E+12,-7371,2507,-915,77,-3,354,1,7,11
1.72313E+12,-7370,2665,-946,94,-32,-44,1,7,11
1.72313E+12,-7357,2257,-966,-114,-83,29,1,7,11
1.72313E+12,-7354,2349,-977,-35,-124,-184,1,7,11
1.72313E+12,-7371,1929,-978,323,97,-398,1,7,11
1.72313E+12,-7414,2050,-968,206,65,-838,1,7,11
1.72313E+12,-7714,1710,-954,624,26,-700,1,7,11
1.72313E+12,-7720,1666,-958,774,-276,-742,1,7,11
1.72313E+12,-7755,1685,-975,670,-274,-706,1,7,11
1.72313E+12,-7732,1725,-1003,765,-281,-844,1,7,11
1.72313E+12,-7710,1782,-1291,1079,17,-425,1,7,11
1.72313E+12,-7686,2108,-1329,1106,100,-230,1,7,11
1.72313E+12,-7413,1927,-1361,1096,-70,-275,1,7,11
1.72313E+12,-7372,2003,-1393,1052,256,-83,1,7,11
1.72313E+12,-7323,2304,-1184,711,325,331,1,7,11
1.72313E+12,-7533,2319,-1217,867,138,182,1,7,11
1.72313E+12,-7504,2326,-1267,794,208,236,1,7,11
1.72313E+12,-7484,2334,-1573,480,528,242,1,7,11
1.72313E+12,-7482,2348,-1616,426,584,213,1,7,11
1.72313E+12,-7495,2362,-1649,635,629,167,1,7,11
1.72313E+12,-7542,2384,-1422,593,397,369,1,7,11
1.72313E+12,-7333,2410,-1432,552,623,331,1,7,11
1.72313E+12,-7372,2180,-1432,514,558,300,1,7,11
1.72313E+12,-7378,2200,-1427,212,204,286,1,7,11
1.72313E+12,-7378,2204,-1422,164,371,267,1,7,11
1.72313E+12,-7387,2205,-1424,376,291,-5,1,7,11
1.72313E+12,-7395,2193,-1415,323,-41,-26,1,7,11
1.72313E+12,-7387,2428,-1422,279,-103,-45,1,7,11
1.72313E+12,-7400,2401,-1423,-45,120,-92,1,7,11
1.72313E+12,-7682,2386,-1433,-102,105,-121,1,7,11
1.72313E+12,-7682,2359,-1435,101,93,103,1,7,11
1.72313E+12,-7422,2327,-1424,62,85,65,1,7,11
1.72313E+12,-7406,2026,-1660,30,67,14,1,7,11
1.72313E+12,-7383,1977,-1607,14,40,-320,1,7,11
1.72313E+12,-7381,1924,-1267,20,6,-172,1,7,11
1.72313E+12,-7396,2142,-1158,50,-323,-538,1,7,11
1.72313E+12,-7402,2102,-1307,86,-173,-640,1,7,11
1.72313E+12,-7367,2058,-950,127,-538,-464,1,7,11
1.72313E+12,-7334,1785,-1145,-72,-590,-777,1,7,11
1.72313E+12,-7517,1789,-1147,-47,-595,-807,1,7,11
1.72313E+12,-7451,2094,-950,-58,-232,-837,1,7,11
1.72313E+12,-7168,1952,-1292,83,-262,-852,1,7,11
1.72313E+12,-7479,2322,-1339,-150,321,-845,1,7,11
1.72313E+12,-7367,2211,-1404,-426,401,-467,1,7,11
1.72313E+12,-7368,2590,-1212,-758,885,-218,1,7,11
1.72313E+12,-7326,2685,-1564,-1364,1151,92,1,7,11
1.72313E+12,-7319,2460,-1410,-1472,1164,170,1,7,11
1.72313E+12,-7516,2658,-1494,-1776,1619,458,1,7,11
1.72313E+12,-7481,2595,-1827,-1954,1803,883,1,7,11
1.72313E+12,-7504,2565,-1904,-2037,1916,671,1,7,11
1.72313E+12,-7543,2607,-1711,-2030,1904,861,1,7,11
1.72313E+12,-7337,2676,-1762,-2020,1502,447,1,7,11
1.72313E+12,-7338,2439,-1767,-2015,1251,248,1,7,11
1.72313E+12,-7321,2671,-1746,-1982,960,283,1,7,11
1.72313E+12,-7548,2601,-1694,-2150,669,60,1,7,11
1.72313E+12,-7515,2257,-1889,-1745,397,-146,1,7,11
1.72313E+12,-7484,2399,-1823,-1797,174,-578,1,7,11
1.72313E+12,-7496,2304,-1487,-1538,281,-449,1,7,11
1.72313E+12,-7545,1982,-1414,-986,-85,-508,1,7,11
1.72313E+12,-7347,1922,-1597,-671,76,-495,1,7,11
1.72313E+12,-7391,2120,-1537,-592,-268,-415,1,7,11
1.72313E+12,-7406,2092,-1248,23,-339,-554,1,7,11
1.72313E+12,-7415,2088,-1244,368,-382,-170,1,7,11
1.72313E+12,-7414,2106,-1261,437,-149,-289,1,7,11
1.72313E+12,-7400,2162,-1554,717,-153,92,1,7,11
1.72313E+12,-7401,1984,-1609,921,-137,-55,1,7,11
1.72313E+12,-7395,2348,-1434,1296,-129,289,1,7,11
1.72313E+12,-7375,2400,-1468,1342,-132,347,1,7,11
1.72313E+12,-7346,2180,-1501,1329,-382,379,1,7,11
1.72313E+12,-7317,2207,-1532,1018,-382,131,1,7,11
1.72313E+12,-7310,2226,-1794,934,-371,350,1,7,11
1.72313E+12,-7317,2237,-1794,1074,-365,300,1,7,11
1.72313E+12,-7334,2237,-1528,679,-379,-7,1,7,11
1.72313E+12,-7344,2241,-1503,794,-155,-54,1,7,11
1.72313E+12,-7352,2238,-1476,592,-195,-92,1,7,11
1.72313E+12,-7341,2216,-1441,205,-237,-125,1,7,11
1.72313E+12,-7333,2431,-1653,352,-518,98,1,7,11
1.72313E+12,-7332,2386,-1599,276,-525,63,1,7,11
1.72313E+12,-7331,2343,-1547,-26,-526,30,1,7,11
1.72313E+12,-7330,2316,-1244,-42,-519,11,1,7,11
1.72313E+12,-7320,2043,-1223,-48,-247,6,1,7,11
1.72313E+12,-7308,2043,-1206,-47,-207,19,1,7,11
1.72313E+12,-7541,2305,-1211,-59,-155,45,1,7,11
1.72313E+12,-7538,2327,-1222,-88,-331,75,1,7,11
1.72313E+12,-7311,2352,-1223,101,6,108,1,7,11
1.72313E+12,-7344,2358,-1227,15,69,-107,1,7,11
1.72313E+12,-7351,2359,-1231,-323,122,-55,1,7,11
1.72313E+12,-7353,2364,-1224,-135,-67,260,1,7,11
1.72313E+12,-7339,2357,-1220,-194,-2,329,1,7,11
1.72313E+12,-7316,2366,-1217,-229,332,140,1,7,11
1.72313E+12,-7316,2392,-1216,-248,165,200,1,7,11
1.72313E+12,-7310,2182,-1219,-514,226,249,1,7,11
1.72313E+12,-7552,2233,-1243,-528,536,556,1,7,11
1.72313E+12,-7533,2293,-1268,-550,551,587,1,7,11
1.72313E+12,-7498,2605,-1569,-586,581,611,1,7,11
1.72313E+12,-7463,2646,-1602,-397,636,614,1,7,11
1.72313E+12,-7441,2674,-1630,-495,432,605,1,7,11
1.72313E+12,-7168,2449,-1414,-673,491,583,1,7,11
1.72313E+12,-7139,2504,-1468,-1063,818,560,1,7,11
1.72313E+12,-7044,2844,-1797,-998,882,534,1,7,11
1.72313E+12,-7243,2718,-1842,-1263,1042,212,1,7,11
1.72313E+12,-7256,3098,-1854,-1908,981,153,1,7,11
1.72313E+12,-7251,3150,-1835,-2378,1153,372,1,7,11
1.72313E+12,-7251,3146,-1806,-2855,1571,349,1,7,11
1.72313E+12,-7251,3079,-1510,-3042,1459,322,1,7,11
1.72313E+12,-7269,2746,-1465,-3618,1859,287,1,7,11
1.72313E+12,-7263,2690,-1436,-3560,1714,-12,1,7,11
1.72313E+12,-7281,2930,-1425,-3921,2066,-90,1,7,11
1.72313E+12,-7051,2931,-1426,-3716,2115,68,1,7,11
1.72313E+12,-7064,2938,-1430,-3964,2120,-296,1,7,11
1.72313E+12,-7066,2701,-1443,-3916,2100,-150,1,7,11
1.72313E+12,-7066,2718,-1454,-3576,2059,-241,1,7,11
1.72313E+12,-7057,2729,-1468,-3462,1745,-570,1,7,11
1.72313E+12,-7290,2739,-1484,-3318,1679,-609,1,7,11
1.72313E+12,-7275,2740,-1509,-3401,1878,-627,1,7,11
1.72313E+12,-7269,2739,-1532,-2948,1826,-627,1,7,11
1.72313E+12,-7266,2735,-1812,-2714,1508,-609,1,7,11
1.72313E+12,-7265,2732,-1824,-2446,1442,-572,1,7,11
1.72313E+12,-7267,2740,-1848,-2406,1625,-520,1,7,11
1.72313E+12,-7285,2770,-1860,-2096,1538,-196,1,7,11
1.72313E+12,-7294,2798,-1879,-1530,1169,-363,1,7,11
1.72313E+12,-7294,3090,-1911,-1227,1289,-272,1,7,11
1.72313E+12,-7277,3108,-1685,-935,1139,74,1,7,11
1.72313E+12,-7245,3126,-1702,-644,732,-111,1,7,11
1.72313E+12,-7208,3152,-1727,-620,843,-68,1,7,11
1.72313E+12,-7189,3188,-1766,-373,447,-55,1,7,11
1.72313E+12,-7170,3009,-2057,84,495,-62,1,7,11
1.72313E+12,-6892,3049,-2085,265,358,-76,1,7,11
1.72313E+12,-6871,3069,-2097,330,-10,-89,1,7,11
1.72313E+12,-6843,3067,-2099,358,-103,-96,1,7,11
1.72313E+12,-6801,3038,-2095,372,82,-107,1,7,11
1.72313E+12,-7035,3000,-2091,139,52,126,1,7,11
1.72313E+12,-7039,2979,-2095,180,50,103,1,7,11
1.72313E+12,-6797,2977,-2108,215,48,92,1,7,11
1.72313E+12,-6795,2975,-2109,236,41,98,1,7,11
1.72313E+12,-6809,3001,-2113,517,40,121,1,7,11
1.72313E+12,-6840,3046,-2117,529,22,-85,1,7,11
1.72313E+12,-6865,3344,-2112,518,-272,-21,1,7,11
1.72313E+12,-6892,3360,-2090,229,-323,297,1,7,11
1.72313E+12,-6902,3353,-2073,217,-384,359,1,7,11
1.72313E+12,-6893,3342,-1791,241,-190,143,1,7,11
1.72313E+12,-6881,3333,-1760,546,-242,159,1,7,11
1.72313E+12,-6875,3053,-1739,608,-537,153,1,7,11
1.72313E+12,-6901,2998,-1705,439,-577,128,1,7,11
1.72313E+12,-7174,3171,-1679,831,-403,362,1,7,11
1.72313E+12,-6910,3080,-1685,1037,-771,340,1,7,11
1.72313E+12,-6881,2744,-1722,1307,-869,321,1,7,11
1.72313E+12,-6850,2719,-1764,1614,-673,299,1,7,11
1.72313E+12,-6850,2736,-2058,1894,-709,280,1,7,11
1.72313E+12,-6840,2772,-2097,2124,-1029,284,1,7,11
1.72313E+12,-6855,2809,-2136,2026,-1072,285,1,7,11
1.72313E+12,-6876,3120,-2151,2407,-1146,326,1,7,11
1.72313E+12,-6880,3152,-2142,2429,-931,348,1,7,11
1.72313E+12,-6876,3181,-2132,2411,-965,368,1,7,11
1.72313E+12,-6866,2951,-2123,2354,-993,376,1,7,11
1.72313E+12,-6853,2958,-2099,2000,-1002,373,1,7,11
1.72313E+12,-6851,2972,-2078,2135,-989,362,1,7,11
1.72313E+12,-6859,2965,-2069,1726,-972,338,1,7,11
1.72313E+12,-6865,3194,-2070,1819,-938,301,1,7,11
1.72313E+12,-6885,3165,-2075,1414,-1148,-7,1,7,11
1.72313E+12,-6901,3124,-2071,1276,-1097,-62,1,7,11
1.72313E+12,-7186,3091,-2055,1155,-1042,-117,1,7,11
1.72313E+12,-7227,2808,-1780,1310,-744,96,1,7,11
1.72313E+12,-7260,2789,-1758,966,-735,75,1,7,11
1.72313E+12,-7272,2762,-1732,1144,-750,66,1,7,11
1.72313E+12,-7281,2730,-1710,1090,-1025,67,1,7,11
1.72313E+12,-7286,2699,-1693,1048,-1054,75,1,7,11
1.72313E+12,-7279,2920,-1673,760,-1079,86,1,7,11
1.72313E+12,-7268,2895,-1668,742,-1085,89,1,7,11
1.72313E+12,-7264,2879,-1909,724,-1072,79,1,7,11
1.72313E+12,-7283,2875,-1901,711,-1043,66,1,7,11
1.72313E+12,-7046,2879,-1894,692,-763,50,1,7,11
1.72313E+12,-7069,2879,-1886,667,-745,39,1,7,11
1.72313E+12,-7091,2887,-1879,890,-722,38,1,7,11
1.72313E+12,-7125,2891,-1847,852,-701,47,1,7,11
1.72313E+12,-7158,2874,-1809,807,-704,67,1,7,11
1.72313E+12,-7431,2845,-1521,772,-722,80,1,7,11
1.72313E+12,-7429,2822,-1495,496,-750,88,1,7,11
1.72313E+12,-7144,2534,-1467,477,-768,82,1,7,11
1.72313E+12,-7125,2521,-1460,468,-744,65,1,7,11
1.72313E+12,-7113,2523,-1451,460,-699,46,1,7,11
1.72313E+12,-7103,2522,-1431,442,-644,29,1,7,11
1.72313E+12,-7113,2519,-1410,419,-830,25,1,7,11
1.72313E+12,-7154,2516,-1636,396,-506,36,1,7,11
1.72313E+12,-7448,2513,-1601,632,-449,69,1,7,11
1.72313E+12,-7482,2504,-1570,610,-416,100,1,7,11
1.72313E+12,-7499,2486,-1271,580,-414,-127,1,7,11
1.72313E+12,-7495,2485,-1245,571,-431,-116,1,7,11
1.72313E+12,-7486,2482,-1225,563,-452,-124,1,7,11
1.72313E+12,-7475,2485,-1214,553,-459,107,1,7,11
1.72313E+12,-7464,2500,-1205,542,-455,78,1,7,11
1.72313E+12,-7443,2514,-1208,520,-437,54,1,7,11
1.72313E+12,-7166,2518,-1213,230,-397,36,1,7,11
1.72313E+12,-7165,2523,-1201,194,-590,29,1,7,11
1.72313E+12,-7452,2520,-1184,146,-530,34,1,7,11
1.72313E+12,-7516,2510,-1401,343,-247,47,1,7,11
1.72313E+12,-7320,2492,-1354,296,-515,68,1,7,11
1.72313E+12,-7356,2481,-1328,272,-553,93,1,7,11
1.72313E+12,-7359,2472,-1309,260,-600,116,1,7,11
1.72313E+12,-7321,2456,-1307,261,-629,-122,1,7,11
1.72313E+12,-7530,2450,-1305,266,-610,-122,1,7,11
1.72313E+12,-7488,2450,-1310,262,-557,127,1,7,11
1.72313E+12,-7468,2439,-1320,-2,-229,106,1,7,11
1.72313E+12,-7479,2448,-1331,258,-152,93,1,7,11
1.72313E+12,-7487,2442,-1339,262,-357,96,1,7,11
1.72313E+12,-7515,2682,-1353,273,-306,100,1,7,11
1.72313E+12,-7306,2678,-1362,322,-280,-127,1,7,11
1.72313E+12,-7352,2680,-1360,132,-292,-85,1,7,11
1.72313E+12,-7392,2434,-1366,211,-335,-31,1,7,11
1.72313E+12,-7402,2444,-1350,548,-144,284,1,7,11
1.72313E+12,-7369,2456,-1353,428,-516,369,1,7,11
1.72313E+12,-7344,2485,-1354,511,-564,144,1,7,11
1.72313E+12,-7317,2510,-1349,809,-604,167,1,7,11
1.72313E+12,-7552,2523,-1341,820,-623,171,1,7,11
1.72313E+12,-7549,2525,-1332,813,-629,157,1,7,11
1.72313E+12,-7540,2519,-1331,803,-386,133,1,7,11
1.72313E+12,-7548,2534,-1338,805,-633,349,1,7,11
1.72313E+12,-7316,2847,-1346,798,-612,323,1,7,11
1.72313E+12,-7322,2881,-1352,779,-581,309,1,7,11
1.72313E+12,-7359,2886,-1353,482,-539,306,1,7,11
1.72313E+12,-7393,2867,-1342,437,-245,305,1,7,11
1.72313E+12,-7724,2860,-1339,418,-184,295,1,7,11
1.72313E+12,-7758,2852,-1321,443,-217,294,1,7,11
1.72313E+12,-7738,2553,-1302,476,-533,273,1,7,11
1.72313E+12,-7734,2505,-1312,794,-577,-7,1,7,11
1.72313E+12,-7420,2662,-1318,837,-385,-50,1,7,11
1.72313E+12,-7340,2291,-1287,895,-406,115,1,7,11
1.72313E+12,-7324,2239,-980,1073,-570,-326,1,7,11
1.72313E+12,-7349,2268,-953,1067,-569,-330,1,7,11
1.72313E+12,-7119,2615,-941,153,-542,-62,1,7,11
1.72313E+12,-7127,2652,-907,366,-199,-5,1,7,11
1.72313E+12,-7447,2688,-1090,280,-345,254,1,7,11
1.72313E+12,-7458,2720,-1095,-7,-283,207,1,7,11
1.72313E+12,-7510,2838,-1143,-281,281,-536,1,7,11
1.72313E+12,-7509,2498,-923,-321,343,-604,1,7,11
1.72313E+12,-7384,2597,-1322,-204,246,-397,1,7,11
1.72313E+12,-7374,2577,-1328,-200,206,-623,1,7,11
1.72313E+12,-7739,2199,-982,-268,51,-253,1,7,11
1.72313E+12,-7722,2407,-956,48,-318,-227,1,7,11
1.72313E+12,-7716,2318,-932,592,89,-220,1,7,11
1.72313E+12,-7762,2346,-1152,634,-127,-217,1,7,11
1.72313E+12,-7378,2458,-900,382,-312,-121,1,7,11
1.72313E+12,-7300,2682,-906,-44,-255,-84,1,7,11
1.72313E+12,-7390,2358,-1001,-412,235,-187,1,7,11
1.72313E+12,-7714,2030,-958,-627,201,-218,1,7,11
1.72313E+12,-7789,2205,-899,45,-261,-15,1,7,11
1.72313E+12,-7724,2239,-959,53,-258,312,1,7,11
1.72313E+12,-7399,2404,-1405,-419,198,63,1,7,11
1.72313E+12,-7407,2391,-1164,-467,244,40,1,7,11
1.72313E+12,-7442,2728,-657,-1152,349,218,1,7,11
1.72313E+12,-7166,2718,-688,-1020,592,212,1,7,11
1.72313E+12,-7456,2705,-1031,-1360,848,162,1,7,11
1.72313E+12,-7505,2931,-1117,-1408,1055,340,1,7,11
1.72313E+12,-7342,2907,-924,-1154,949,-23,1,7,11
1.72313E+12,-7737,2897,-945,-1361,1003,-121,1,7,11
1.72313E+12,-7642,2890,-930,-1013,922,69,1,7,11
1.72313E+12,-7412,1930,-927,1265,-350,-616,1,7,11
1.72313E+12,-7707,2019,-1629,679,-124,24,1,7,11
1.72313E+12,-7771,2038,-1653,811,-73,92,1,7,11
1.72313E+12,-7592,2352,-1213,566,-380,583,1,7,11
1.72313E+12,-7754,2363,-1175,603,-230,592,1,7,11
1.72313E+12,-7503,2352,-943,-7,-384,-518,1,7,11
1.72313E+12,-7588,2000,-1053,-478,324,-219,1,7,11
1.72313E+12,-7589,1950,-762,-483,374,-337,1,7,11
1.72313E+12,-7549,1930,-1374,-263,691,-520,1,7,11
1.72313E+12,-7307,2158,-1185,-279,1029,-632,1,7,11
1.72313E+12,-7764,1496,-1648,79,710,-663,1,7,11
1.72313E+12,-7574,1476,-1655,-75,650,-872,1,7,11
1.72313E+12,-7328,2022,-1444,-338,148,-124,1,7,11
1.72313E+12,-7351,1975,-1457,-374,197,16,1,7,11
1.72313E+12,-7411,2089,-1657,-271,104,10,1,7,11
1.72313E+12,-7398,1785,-1651,17,28,91,1,7,11
1.72313E+12,-7609,1655,-1163,414,-792,179,1,7,11
1.72313E+12,-7617,1646,-1408,882,-853,214,1,7,11
1.72313E+12,-7768,1724,-1266,1461,-810,703,1,7,11
1.72313E+12,-7682,1770,-1545,1486,-816,1073,1,7,11
1.72313E+12,-7463,2418,-1459,1374,61,651,1,7,11
1.72313E+12,-7504,2221,-1420,964,120,859,1,7,11
1.72313E+12,-7109,2669,-1479,202,-310,606,1,7,11
1.72313E+12,-7135,2670,-1463,-26,31,250,1,7,11
1.72313E+12,-7551,2624,-1618,-867,66,-94,1,7,11
1.72313E+12,-7303,2639,-1581,-715,-99,-101,1,7,11
1.72313E+12,-7338,2606,-1273,-1064,-30,-101,1,7,11
1.72313E+12,-7393,2564,-1229,-1120,257,-84,1,7,11
1.72313E+12,-7384,2262,-1207,-1127,-18,-67,1,7,11
1.72313E+12,-7357,2231,-1207,-1081,-42,-62,1,7,11
1.72313E+12,-7327,2181,-1192,-757,-57,-85,1,7,11
1.72313E+12,-7333,2392,-1182,-669,-35,120,1,7,11
1.72313E+12,-7342,2373,-1180,-789,-31,60,1,7,11
1.72313E+12,-7340,2335,-1407,-420,-67,-265,1,7,11
1.72313E+12,-7364,2026,-1371,-560,-78,-319,1,7,11
1.72313E+12,-7690,1982,-1341,-162,120,-348,1,7,11
1.72313E+12,-7721,1951,-1341,100,30,-332,1,7,11
1.72313E+12,-7735,2174,-1333,293,-308,-286,1,7,11
1.72313E+12,-7742,2140,-1335,235,-132,53,1,7,11
1.72313E+12,-7560,2051,-1305,427,-200,123,1,7,11
1.72313E+12,-7629,1878,-980,703,-583,-32,1,7,11
1.72313E+12,-7679,1507,-965,1178,-470,354,1,7,11
1.72313E+12,-7668,1519,-989,1753,-875,235,1,7,11
1.72313E+12,-7639,1900,-998,2285,-738,385,1,7,11
1.72313E+12,-7586,2087,-969,2937,-1097,782,1,7,11
1.72313E+12,-7664,2307,-935,3157,-902,652,1,7,11
1.72313E+12,-7620,2240,-1144,3168,-1323,1024,1,7,11
1.72313E+12,-7731,2624,-1105,2751,-1219,1032,1,7,11
1.72313E+12,-7477,2432,-1134,2448,-1548,685,1,7,11
1.72313E+12,-6873,2666,-963,2004,-1209,451,1,7,11
1.72313E+12,-6926,2629,-1357,1494,-1095,333,1,7,11
1.72313E+12,-6639,2642,-1264,947,-552,-321,1,7,11
1.72313E+12,-7012,2488,-1418,633,316,-395,1,7,11
1.72313E+12,-7210,2896,-1516,-262,642,-828,1,7,11
1.72313E+12,-7495,2784,-1798,-703,1357,-822,1,7,11
1.72313E+12,-7743,3097,-1498,-1659,1586,-640,1,7,11
1.72313E+12,-7945,2755,-1427,-2013,1593,-360,1,7,11
1.72313E+12,-7815,2553,-1576,-2434,1164,-72,1,7,11
1.72313E+12,-8022,2573,-1242,-2872,1108,156,1,7,11
1.72313E+12,-7648,2377,-1187,-2823,822,220,1,7,11
1.72313E+12,-7739,2018,-1155,-2608,589,163,1,7,11
1.72313E+12,-7542,1993,-1407,-2321,187,263,1,7,11
1.72313E+12,-7157,2305,-1156,-1739,179,71,1,7,11
1.72313E+12,-7121,2410,-1156,-1439,244,-347,1,7,11
1.72313E+12,-7114,2259,-1158,-1193,567,-189,1,7,11
1.72313E+12,-7145,2587,-1159,-999,388,-245,1,7,11
1.72313E+12,-7436,2632,-1175,-1097,441,-253,1,7,11
1.72313E+12,-7475,2636,-1204,-724,471,-526,1,7,11
1.72313E+12,-7510,2577,-1265,-893,480,-553,1,7,11
1.72313E+12,-7518,2563,-1558,-820,472,-613,1,7,11
1.72313E+12,-7523,2564,-1577,-769,464,-438,1,7,11
1.72313E+12,-7305,2614,-1602,-781,448,-782,1,7,11
1.72313E+12,-7344,2625,-1592,-870,389,-836,1,7,11
1.72313E+12,-7376,2652,-1569,-724,572,-843,1,7,11
1.72313E+12,-7369,2435,-1548,-1101,230,-795,1,7,11
1.72313E+12,-7298,2434,-1263,-972,158,-462,1,7,11
1.72313E+12,-7550,2460,-1229,-1321,156,-583,1,7,11
1.72313E+12,-7298,2517,-1191,-1376,193,-466,1,7,11
1.72313E+12,-7543,2848,-1155,-1197,217,-358,1,7,11
1.72313E+12,-7521,2927,-1405,-1252,244,3,1,7,11
1.72313E+12,-7468,2732,-1164,-1589,535,78,1,7,11
1.72313E+12,-7155,2732,-1173,-1438,609,84,1,7,11
1.72313E+12,-7132,2915,-1179,-1805,466,-261,1,7,11
1.72313E+12,-7153,2539,-1169,-1875,837,-181,1,7,11
1.72313E+12,-7450,2681,-1163,-1879,673,-401,1,7,11
1.72313E+12,-7506,2623,-1179,-1831,735,-880,1,7,11
1.72313E+12,-7525,2615,-1203,-1532,754,-1048,1,7,11
1.72313E+12,-7511,2632,-1246,-1533,757,-1148,1,7,11
1.72313E+12,-7489,2644,-1560,-1839,1036,-944,1,7,11
1.72313E+12,-7495,2642,-1593,-1680,1080,-964,1,7,11
1.72313E+12,-7531,2608,-1593,-2070,1118,-974,1,7,11
1.72313E+12,-7319,2288,-1554,-1949,1131,-983,1,7,11
1.72313E+12,-7385,2215,-1226,-2305,1106,-989,1,7,11
1.72313E+12,-7739,2378,-1328,-2367,1025,-981,1,7,11
1.72313E+12,-7762,2329,-1007,-2383,894,-951,1,7,11
1.72313E+12,-7715,2310,-956,-2350,411,-1107,1,7,11
1.72313E+12,-7688,2040,-901,-2039,621,-1071,1,7,11
1.72313E+12,-7699,1988,-1104,-1987,575,-741,1,7,11
1.72313E+12,-7760,1963,-1101,-2139,564,-849,1,7,11
1.72313E+12,-7694,1971,-1140,-1721,527,-794,1,7,11
1.72313E+12,-7549,1962,-973,-1815,522,-434,1,7,11
1.72313E+12,-7486,1942,-1303,-1420,625,-419,1,7,11
1.72313E+12,-7527,1946,-1375,-1182,678,-418,1,7,11
1.72313E+12,-7357,1973,-1177,-1357,763,-416,1,7,11
1.72313E+12,-7707,2023,-1233,-957,1147,-409,1,7,11
1.72313E+12,-7783,2336,-1541,-1091,1117,-385,1,7,11
1.72313E+12,-7790,2370,-1588,-731,751,-608,1,7,11
1.72313E+12,-7741,2328,-1410,-885,780,-567,1,7,11
1.72313E+12,-7423,2039,-1463,-849,415,-567,1,7,11
1.72313E+12,-7368,2019,-1493,-459,599,-591,1,7,11
1.72313E+12,-7306,1989,-1531,-404,540,-634,1,7,11
1.72313E+12,-7549,2169,-1800,-634,514,-455,1,7,11
1.72313E+12,-7357,2102,-1530,-606,237,-799,1,7,11
1.72313E+12,-7733,1777,-1507,-527,302,-647,1,7,11
1.72313E+12,-7750,1784,-1509,-237,-81,-867,1,7,11
1.72313E+12,-7702,1786,-1513,-234,76,-794,1,7,11
1.72313E+12,-7417,1790,-1521,-236,48,-432,1,7,11
1.72313E+12,-7388,1785,-1510,-527,54,-576,1,7,11
1.72313E+12,-7379,1763,-1484,-576,77,-229,1,7,11
1.72313E+12,-7338,1716,-1470,-624,95,-171,1,7,11
1.72313E+12,-7312,1687,-1468,-391,-105,-163,1,7,11
1.72313E+12,-7319,1696,-1467,-408,-25,-186,1,7,11
1.72313E+12,-7340,1725,-1453,-439,305,-210,1,7,11
1.72313E+12,-7399,1782,-1438,-478,377,-218,1,7,11
1.72313E+12,-7711,2102,-1435,-816,138,-184,1,7,11
1.72313E+12,-7712,2136,-1424,-654,380,-378,1,7,11
1.72313E+12,-7418,2145,-1427,-731,380,-296,1,7,11
1.72313E+12,-7375,2135,-1430,-1028,159,45,1,7,11
1.72313E+12,-7316,2131,-1436,-765,213,-122,1,7,11
1.72313E+12,-7487,2140,-1465,-718,555,-60,1,7,11
1.72313E+12,-7426,2163,-1499,-649,633,2,1,7,11
1.72313E+12,-7153,1934,-1525,-823,460,267,1,7,11
1.72313E+12,-7139,1967,-1817,-469,810,288,1,7,11
1.72313E+12,-7164,1980,-1843,-627,825,286,1,7,11
1.72313E+12,-7461,2001,-1873,-519,815,279,1,7,11
1.72313E+12,-7495,2013,-1895,-149,785,260,1,7,11
1.72313E+12,-7512,2028,-1920,-231,400,-17,1,7,11
1.72313E+12,-7516,2311,-1697,83,555,-38,1,7,11
1.72313E+12,-7518,2351,-1733,-75,207,-52,1,7,11
1.72313E+12,-7518,2401,-1754,256,382,-61,1,7,11
1.72313E+12,-7533,2187,-1758,257,345,-65,1,7,11
1.72313E+12,-7549,2212,-1755,-54,-31,-61,1,7,11
1.72313E+12,-7310,2229,-1758,-105,-103,-53,1,7,11
1.72313E+12,-7318,2243,-1740,89,94,-48,1,7,11
1.72313E+12,-7316,2235,-1722,20,45,-47,1,7,11
1.72313E+12,-7301,2201,-1688,-295,22,-53,1,7,11
1.72313E+12,-7537,2415,-1911,-323,22,-70,1,7,11
1.72313E+12,-7526,2375,-1876,-326,38,-104,1,7,11
1.72313E+12,-7500,2321,-1841,-308,57,107,1,7,11
1.72313E+12,-7482,2018,-1809,-263,92,52,1,7,11
1.72313E+12,-7471,1991,-1794,40,127,3,1,7,11
1.72313E+12,-7489,1953,-1509,70,-100,-307,1,7,11
1.72313E+12,-7512,1920,-1501,96,-88,-348,1,7,11
1.72313E+12,-7538,2143,-1499,108,-93,-129,1,7,11
1.72313E+12,-7310,2109,-1504,105,-105,-150,1,7,11
1.72313E+12,-7317,2065,-1836,13,-66,-302,1,7,11
1.72313E+12,-7322,2090,-1873,-273,-21,35,1,7,11
1.72313E+12,-7297,2140,-1666,-307,275,-126,1,7,11
1.72313E+12,-7533,1952,-1699,-353,335,-33,1,7,11
1.72313E+12,-7317,2027,-1704,-156,138,332,1,7,11
1.72313E+12,-7363,2331,-1692,-226,140,203,1,7,11
1.72313E+12,-7386,2363,-1677,-530,340,586,1,7,11
1.72313E+12,-7372,2377,-1907,-543,264,439,1,7,11
1.72313E+12,-7357,2414,-1882,-251,-71,771,1,7,11
1.72313E+12,-7310,2237,-1845,-188,103,813,1,7,11
1.72313E+12,-7485,2296,-1825,-369,39,819,1,7,11
1.72313E+12,-7431,2587,-1808,-306,-286,504,1,7,11
1.72313E+12,-7120,2626,-1523,68,-299,559,1,7,11
1.72313E+12,-7113,2636,-1517,-118,-267,176,1,7,11
1.72313E+12,-7125,2650,-1508,-102,27,316,1,7,11
1.72313E+12,-7119,2666,-1510,-76,69,-27,1,7,11
1.72313E+12,-7144,2675,-1496,-93,-128,-97,1,7,11
1.72313E+12,-7430,2664,-1485,119,-92,108,1,7,11
1.72313E+12,-7431,2619,-1488,75,-82,66,1,7,11
1.72313E+12,-7125,2567,-1518,48,-81,13,1,7,11
1.72313E+12,-7083,2284,-1827,37,-33,-308,1,7,11
1.72313E+12,-7055,2275,-1883,18,305,-364,1,7,11
1.72313E+12,-7087,2291,-1681,-278,155,-143,1,7,11
1.72313E+12,-7153,2574,-1720,-340,240,-137,1,7,11
1.72313E+12,-7504,2600,-1710,-160,528,-343,1,7,11
1.72313E+12,-7337,2595,-1668,-245,220,1,1,7,11
1.72313E+12,-7371,2289,-1861,-556,347,108,1,7,11
1.72313E+12,-7378,2221,-1805,-550,-58,-78,1,7,11
1.72313E+12,-7341,2408,-1491,-234,47,-57,1,7,11
1.72313E+12,-7538,2367,-1469,-382,-313,-89,1,7,11
1.72313E+12,-7435,2374,-1481,-260,-357,109,1,7,11
1.72313E+12,-7150,2382,-1488,89,-335,48,1,7,11
1.72313E+12,-7112,2409,-1796,-100,-263,3,1,7,11
1.72313E+12,-7106,2205,-1826,-67,102,-283,1,7,11
1.72313E+12,-7138,2276,-1857,-89,-42,-294,1,7,11
1.72313E+12,-7452,2568,-1855,109,315,-281,1,7,11
1.72313E+12,-7297,2569,-1865,32,373,13,1,7,11
1.72313E+12,-7300,2301,-1859,-299,363,82,1,7,11
1.72313E+12,-7541,2560,-1857,-352,354,98,1,7,11
1.72313E+12,-7509,2564,-1856,-368,337,93,1,7,11
1.72313E+12,-7470,2301,-1853,-374,330,60,1,7,11
1.72313E+12,-7441,2560,-1849,-366,319,14,1,7,11
1.72313E+12,-7164,2295,-1856,-355,302,-300,1,7,11
1.72313E+12,-7139,2282,-1863,-349,281,-363,1,7,11
1.72313E+12,-7124,2250,-1891,-348,265,-176,1,7,11
1.72313E+12,-7135,2229,-1902,-345,276,-236,1,7,11
1.72313E+12,-7155,2209,-1900,-354,271,-527,1,7,11
1.72313E+12,-7132,2406,-1896,-383,-23,-530,1,7,11
1.72313E+12,-7078,2309,-1894,-129,-31,-539,1,7,11
1.72313E+12,-7071,2005,-1908,-325,284,-541,1,7,11
1.72313E+12,-7136,2004,-1911,11,377,-525,1,7,11
1.72313E+12,-7501,2045,-1909,94,179,-186,1,7,11
1.72313E+12,-7318,2333,-1900,-112,168,-301,1,7,11
1.72313E+12,-7351,2346,-1893,-72,367,125,1,7,11
1.72313E+12,-7346,2390,-1902,-23,283,275,1,7,11
1.72313E+12,-7321,2201,-1914,290,-48,128,1,7,11
1.72313E+12,-7537,2274,-1666,316,-114,219,1,7,11
1.72313E+12,-7489,2603,-1916,-19,52,189,1,7,11
1.72313E+12,-7432,2601,-1665,124,12,360,1,7,11
1.72313E+12,-7110,2292,-1765,-185,248,-179,1,7,11
1.72313E+12,-7159,2274,-1769,-218,561,-172,1,7,11
1.72313E+12,-7457,2232,-1752,-225,565,-140,1,7,11
1.72313E+12,-7506,2185,-1724,-195,515,-360,1,7,11
1.72313E+12,-7543,2407,-1716,-143,149,-332,1,7,11
1.72313E+12,-7536,2371,-1707,-342,262,-321,1,7,11
1.72313E+12,-7517,2346,-1702,-292,-124,-339,1,7,11
1.72313E+12,-7510,2349,-1697,-267,32,-367,1,7,11
1.72313E+12,-7505,2355,-1680,-278,-317,-129,1,7,11
1.72313E+12,-7494,2358,-1915,-307,-379,-374,1,7,11
1.72313E+12,-7458,2357,-1899,-336,-146,-327,1,7,11
1.72313E+12,-7162,2355,-1896,-356,-375,2,1,7,11
1.72313E+12,-7125,2355,-1904,-346,-288,88,1,7,11
1.72313E+12,-7126,2372,-1899,-313,99,-84,1,7,11
1.72313E+12,-7162,2399,-1903,-281,-34,-6,1,7,11
1.72313E+12,-7458,2431,-1909,3,285,313,1,7,11
1.72313E+12,-7484,2202,-1908,13,292,338,1,7,11
1.72313E+12,-7494,2222,-1668,3,267,319,1,7,11
1.72313E+12,-7490,2239,-1680,-268,-37,267,1,7,11
1.72313E+12,-7466,2264,-1691,-302,-88,-61,1,7,11
1.72313E+12,-7445,2276,-1683,-359,-128,124,1,7,11
1.72313E+12,-7438,2258,-1913,-163,106,68,1,7,11
1.72313E+12,-7428,2230,-1886,-194,92,37,1,7,11
1.72313E+12,-7151,2191,-1868,-194,90,25,1,7,11
1.72313E+12,-7139,2402,-1866,-158,120,21,1,7,11
1.72313E+12,-7147,2374,-1875,-360,-84,20,1,7,11
1.72313E+12,-7173,2360,-1892,-301,-27,27,1,7,11
1.72313E+12,-7468,2366,-1916,24,298,52,1,7,11
1.72313E+12,-7496,2392,-1689,102,305,83,1,7,11
1.72313E+12,-7511,2194,-1715,-119,291,117,1,7,11
1.72313E+12,-7509,2259,-1737,-122,-5,-95,1,7,11
1.72313E+12,-7492,2568,-1746,79,-55,-51,1,7,11
1.72313E+12,-7478,2603,-1753,1,-105,-20,1,7,11
1.72313E+12,-7458,2620,-1736,-338,97,-4,1,7,11
1.72313E+12,-7426,2617,-1711,-152,54,-10,1,7,11
1.72313E+12,-7134,2603,-1684,-191,37,-37,1,7,11
1.72313E+12,-7112,2582,-1911,-204,48,-78,1,7,11
1.72313E+12,-7106,2285,-1891,-191,83,127,1,7,11
1.72313E+12,-7112,2240,-1880,-149,120,72,1,7,11
1.72313E+12,-7136,2217,-1879,-331,-97,19,1,7,11
1.72313E+12,-7155,2210,-1869,6,-61,-274,1,7,11
1.72313E+12,-7435,2216,-1872,77,-40,-286,1,7,11
1.72313E+12,-7453,2259,-1880,127,-41,-270,1,7,11
1.72313E+12,-7463,2301,-1899,-119,-60,21,1,7,11
1.72313E+12,-7461,2587,-1913,105,-78,63,1,7,11
1.72313E+12,-7442,2603,-1670,50,-95,97,1,7,11
1.72313E+12,-7425,2605,-1668,-267,-100,108,1,7,11
1.72313E+12,-7138,2593,-1915,-317,-89,78,1,7,11
1.72313E+12,-7135,2566,-1905,-360,-62,59,1,7,11
1.72313E+12,-7141,2270,-1904,-137,-11,-262,1,7,11
1.72313E+12,-7151,2215,-1896,-134,258,-311,1,7,11
1.72313E+12,-7167,2178,-1888,-336,286,-361,1,7,11
1.72313E+12,-7446,2409,-1879,-281,289,-138,1,7,11
1.72313E+12,-7461,2405,-1883,27,277,-148,1,7,11
1.72313E+12,-7481,2421,-1893,71,258,-131,1,7,11
1.72313E+12,-7482,2188,-1665,85,-23,-349,1,7,11
1.72313E+12,-7475,2201,-1684,86,-42,-301,1,7,11
1.72313E+12,-7474,2211,-1694,58,-55,-258,1,7,11
1.72313E+12,-7460,2208,-1693,25,-68,26,1,7,11
1.72313E+12,-7433,2207,-1695,2,-78,39,1,7,11
1.72313E+12,-7155,2211,-1693,-278,-72,40,1,7,11
1.72313E+12,-7155,2210,-1700,-302,-56,33,1,7,11
1.72313E+12,-7159,2222,-1699,-323,-50,38,1,7,11
1.72313E+12,-7166,2226,-1685,-339,-52,44,1,7,11
1.72313E+12,-7433,2214,-1671,-344,-63,53,1,7,11
1.72313E+12,-7456,2201,-1907,-339,-82,55,1,7,11
1.72313E+12,-7484,2193,-1893,-319,-115,51,1,7,11
1.72313E+12,-7481,2195,-1883,-294,107,49,1,7,11
1.72313E+12,-7463,2200,-1888,-261,95,39,1,7,11
1.72313E+12,-7440,2223,-1896,18,114,29,1,7,11
1.72313E+12,-7157,2245,-1916,28,-99,15,1,7,11
1.72313E+12,-7140,2260,-1700,16,-31,-268,1,7,11
1.72313E+12,-7135,2269,-1718,-284,291,-298,1,7,11
1.72313E+12,-7136,2264,-1738,-347,341,-335,1,7,11
1.72313E+12,-7165,2244,-1746,-150,369,-367,1,7,11
1.72313E+12,-7445,2204,-1742,-194,369,-384,1,7,11
1.72313E+12,-7459,2391,-1738,-206,342,-378,1,7,11
1.72313E+12,-7449,2361,-1734,-190,292,-366,1,7,11
1.72313E+12,-7446,2320,-1742,-131,267,-364,1,7,11
1.72313E+12,-7466,2329,-1753,-307,-18,-358,1,7,11
1.72313E+12,-7442,2351,-1774,12,-90,-336,1,7,11
1.72313E+12,-7164,2379,-1783,58,-104,-327,1,7,11
1.72313E+12,-7444,2415,-1790,85,-101,-291,1,7,11
1.72313E+12,-7466,2178,-1776,70,-120,5,1,7,11
1.72313E+12,-7500,2178,-1755,58,103,50,1,7,11
1.72313E+12,-7508,2428,-1729,53,53,94,1,7,11
1.72313E+12,-7518,2422,-1715,62,15,116,1,7,11
1.72313E+12,-7515,2429,-1702,76,-272,124,1,7,11
1.72313E+12,-7472,2430,-1691,82,-296,114,1,7,11
1.72313E+12,-7430,2187,-1689,91,-274,79,1,7,11
1.72313E+12,-7139,2214,-1711,74,27,40,1,7,11
1.72313E+12,-7111,2232,-1730,33,94,-257,1,7,11
1.72313E+12,-7114,2239,-1748,-279,-86,-293,1,7,11
1.72313E+12,-7114,2224,-1757,-340,-27,-329,1,7,11
1.72313E+12,-7132,2189,-1763,-133,268,-364,1,7,11
1.72313E+12,-7428,2407,-1761,-164,282,-140,1,7,11
1.72313E+12,-7538,2346,-1722,-185,-44,-166,1,7,11
1.72313E+12,-7318,2308,-1702,-171,118,-145,1,7,11
1.72313E+12,-7481,2026,-1797,-127,-305,110,1,7,11
1.72313E+12,-7466,2033,-1804,-83,-288,-64,1,7,11
1.72313E+12,-7465,2313,-1815,-43,5,-16,1,7,11
1.72313E+12,-7470,2356,-1840,-24,51,258,1,7,11
1.72313E+12,-7481,2401,-1864,-42,96,-8,1,7,11
1.72313E+12,-7492,2186,-1893,-96,-126,-32,1,7,11
1.72313E+12,-7486,2214,-1672,74,-108,-61,1,7,11
1.72313E+12,-7464,2249,-1699,-285,-83,-99,1,7,11
1.72313E+12,-7462,2258,-1703,-131,-38,125,1,7,11
1.72313E+12,-7464,2253,-1697,-231,-3,114,1,7,11
1.72313E+12,-7450,2199,-1677,-558,265,114,1,7,11
1.72313E+12,-7455,2430,-1914,-578,266,110,1,7,11
1.72313E+12,-7490,2370,-1905,-547,-8,105,1,7,11
1.72313E+12,-7510,2350,-1892,-221,-53,87,1,7,11
1.72313E+12,-7305,2337,-1876,-142,-126,63,1,7,11
1.72313E+12,-7297,2325,-1863,-319,26,42,1,7,11
1.72313E+12,-7305,2318,-1840,7,-310,30,1,7,11
1.72313E+12,-7302,2311,-1828,63,-369,16,1,7,11
1.72313E+12,-7519,2332,-1820,116,-155,20,1,7,11
1.72313E+12,-7481,2359,-1810,-107,-155,28,1,7,11
1.72313E+12,-7438,2390,-1814,-106,-380,78,1,7,11
1.72313E+12,-7143,2417,-1823,-128,-319,123,1,7,11
1.72313E+12,-7121,2178,-1846,91,23,-89,1,7,11
1.72313E+12,-7107,2195,-1874,23,-83,-53,1,7,11
1.72313E+12,-7130,2215,-1899,-282,271,-33,1,7,11
1.72313E+12,-7430,2228,-1673,-332,337,-21,1,7,11
1.72313E+12,-7501,2239,-1681,-367,364,-20,1,7,11
1.72313E+12,-7318,2244,-1676,-133,327,-20,1,7,11
1.72313E+12,-7334,2223,-1910,-142,-31,-20,1,7,11
1.72313E+12,-7300,2200,-1883,-369,119,-41,1,7,11
1.72313E+12,-7543,2197,-1855,-329,46,-87,1,7,11
1.72313E+12,-7513,2185,-1830,-300,-280,120,1,7,11
1.72313E+12,-7486,2183,-1803,-271,-317,67,1,7,11
1.72313E+12,-7463,2183,-1534,-272,-331,23,1,7,11
1.72313E+12,-7426,2420,-1532,-288,-316,-267,1,7,11
1.72313E+12,-7141,2413,-1794,-294,0,-290,1,7,11
1.72313E+12,-7149,2403,-1531,-307,86,-295,1,7,11
1.72313E+12,-7445,2394,-1531,-304,-79,-274,1,7,11
1.72313E+12,-7494,2395,-1793,-284,-20,30,1,7,11
1.72313E+12,-7517,2383,-1799,-258,-4,89,1,7,11
1.72313E+12,-7530,2373,-1815,41,-5,-116,1,7,11
1.72313E+12,-7543,2387,-1839,97,-18,-81,1,7,11
1.72313E+12,-7304,2197,-1840,-122,-44,-57,1,7,11
1.72313E+12,-7310,2247,-1840,-111,-94,-32,1,7,11
1.72313E+12,-7298,2270,-1835,115,96,-12,1,7,11
1.72313E+12,-7506,2301,-1832,53,30,-13,1,7,11
1.72313E+12,-7490,2299,-1821,-282,-271,-38,1,7,11
1.72313E+12,-7425,2289,-1806,-355,-288,-100,1,7,11
1.72313E+12,-7145,2282,-1535,-156,-268,-123,1,7,11
1.72313E+12,-7152,2261,-1509,-195,44,87,1,7,11
1.72313E+12,-7429,2234,-1510,-208,111,76,1,7,11
1.72313E+12,-7468,2218,-1501,-185,-84,75,1,7,11
1.72313E+12,-7516,2211,-1479,-347,-28,86,1,7,11
1.72313E+12,-7530,2202,-1471,-279,-39,100,1,7,11
1.72313E+12,-7522,2192,-1486,48,-66,100,1,7,11
1.72313E+12,-7506,2201,-1506,107,-91,80,1,7,11
1.72313E+12,-7489,2223,-1516,-116,-107,48,1,7,11
1.72313E+12,-7469,2252,-1529,-116,-115,25,1,7,11
1.72313E+12,-7447,2274,-1798,106,-115,19,1,7,11
1.72313E+12,-7429,2275,-1801,59,-97,24,1,7,11
1.72313E+12,-7426,2255,-1806,10,-66,32,1,7,11
1.72313E+12,-7445,2232,-1806,-271,-26,41,1,7,11
1.72313E+12,-7480,2221,-1802,-272,262,51,1,7,11
1.72313E+12,-7507,2214,-1808,-271,261,65,1,7,11
1.72313E+12,-7514,2199,-1814,-277,-16,61,1,7,11
1.72313E+12,-7519,2195,-1810,-285,-36,33,1,7,11
1.72313E+12,-7537,2197,-1814,-315,-69,-257,1,7,11
1.72313E+12,-7524,2204,-1804,-370,-118,-281,1,7,11
1.72313E+12,-7502,2206,-1797,-176,112,-286,1,7,11
1.72313E+12,-7483,2194,-1803,-232,116,-268,1,7,11
1.72313E+12,-7476,2427,-1536,-251,-111,24,1,7,11
1.72313E+12,-7467,2410,-1525,-223,-72,82,1,7,11
1.72313E+12,-7486,2417,-1527,-132,260,-90,1,7,11
1.72313E+12,-7519,2425,-1523,-324,275,-39,1,7,11
1.72313E+12,-7304,2181,-1515,1,-11,-17,1,7,11
1.72313E+12,-7310,2188,-1506,65,-86,-18,1,7,11
1.72313E+12,-7538,2205,-1501,117,93,-49,1,7,11
1.72313E+12,-7486,2231,-1514,-105,37,-90,1,7,11
1.72313E+12,-7449,2266,-1514,-107,34,117,1,7,11
1.72313E+12,-7426,2292,-1518,111,63,95,1,7,11
1.72313E+12,-7152,2579,-1526,58,108,94,1,7,11
1.72313E+12,-7137,2592,-1796,-268,-87,111,1,7,11
1.72313E+12,-7133,2589,-1809,-341,-16,-125,1,7,11
1.72313E+12,-7142,2589,-1824,-144,310,-117,1,7,11
1.72313E+12,-7426,2589,-1843,-198,364,-120,1,7,11
1.72313E+12,-7487,2591,-1847,-221,139,-117,1,7,11
1.72313E+12,-7503,2589,-1842,-232,381,-113,1,7,11
1.72313E+12,-7514,2577,-1836,-227,332,-111,1,7,11
1.72313E+12,-7498,2295,-1831,-205,278,-127,1,7,11
1.72313E+12,-7484,2280,-1816,-172,-37,90,1,7,11
1.72313E+12,-7467,2259,-1813,-380,-83,31,1,7,11
1.72313E+12,-7466,2262,-1800,-326,-120,-266,1,7,11
1.72313E+12,-7452,2252,-1798,-292,106,-275,1,7,11
1.72313E+12,-7444,2217,-1534,3,110,-261,1,7,11
1.72313E+12,-7460,2190,-1530,62,-112,45,1,7,11
1.72313E+12,-7470,2195,-1797,-50,-75,85,1,7,11
1.72313E+12,-7493,2242,-1811,293,-41,-127,1,7,11
1.72313E+12,-7507,2570,-1845,335,-35,-77,1,7,11
1.72313E+12,-7504,2638,-1870,320,-53,-39,1,7,11
1.72313E+12,-7482,2671,-1882,-25,-90,-35,1,7,11
1.72313E+12,-7435,2665,-1883,104,125,-84,1,7,11
1.72313E+12,-7151,2630,-1868,-278,108,79,1,7,11
1.72313E+12,-7137,2592,-1849,-138,101,-274,1,7,11
1.72313E+12,-7130,2561,-1825,-229,106,-354,1,7,11
1.72313E+12,-7136,2266,-1799,-542,-116,-130,1,7,11
1.72313E+12,-7168,2219,-1525,-560,-70,-365,1,7,11
1.72313E+12,-7451,2430,-1514,-526,-28,-304,1,7,11
1.72313E+12,-7467,2393,-1516,-188,270,28,1,7,11
1.72313E+12,-7501,2378,-1526,-322,314,101,1,7,11
1.72313E+12,-7548,2401,-1805,68,336,-98,1,7,11
1.72313E+12,-7324,2177,-1832,-89,305,-61,1,7,11
1.72313E+12,-7327,2225,-1857,-36,-15,-56,1,7,11
1.72313E+12,-7316,2238,-1861,-27,-98,-75,1,7,11
1.72313E+12,-7511,2269,-1864,-46,71,-101,1,7,11
1.72313E+12,-7444,2301,-1871,-97,21,122,1,7,11
1.72313E+12,-7143,2570,-1852,80,25,105,1,7,11
1.72313E+12,-7122,2565,-1842,4,60,105,1,7,11
1.72313E+12,-7118,2285,-1836,-309,114,117,1,7,11
1.72313E+12,-7145,2266,-1822,-332,-78,123,1,7,11
1.72313E+12,-7448,2257,-1816,-323,-12,-120,1,7,11
1.72313E+12,-7494,2260,-1819,-301,-11,-116,1,7,11
1.72313E+12,-7529,2291,-1832,-271,-33,-119,1,7,11
1.72313E+12,-7492,2596,-1833,-261,74,-104,1,7,11
1.72313E+12,-7454,2601,-1827,-282,38,-98,1,7,11
1.72313E+12,-7162,2604,-1818,-301,30,-105,1,7,11
1.72313E+12,-7161,2601,-1799,-320,48,-128,1,7,11
1.72313E+12,-7152,2598,-1527,-330,54,114,1,7,11
1.72313E+12,-7152,2582,-1495,-328,74,94,1,7,11
1.72313E+12,-7158,2296,-1471,-307,100,94,1,7,11
1.72313E+12,-7160,2275,-1469,11,-121,99,1,7,11
1.72313E+12,-7164,2301,-1506,95,-68,103,1,7,11
1.72313E+12,-7437,2594,-1797,-110,-7,106,1,7,11
1.72313E+12,-7454,2645,-1822,-97,294,121,1,7,11
1.72313E+12,-7465,2435,-1847,125,311,-120,1,7,11
1.72313E+12,-7458,2471,-1869,57,299,-105,1,7,11
1.72313E+12,-7437,2487,-1890,-284,277,-112,1,7,11
1.72313E+12,-7153,2479,-1896,-137,-5,106,1,7,11
1.72313E+12,-7143,2440,-1880,-248,-22,47,1,7,11
1.72313E+12,-7156,2639,-1851,-582,-44,-272,1,7,11
1.72313E+12,-7164,2577,-1827,-614,-76,-320,1,7,11
1.72313E+12,-7434,2274,-1807,-594,-92,-338,1,7,11
1.72313E+12,-7454,2246,-1518,-529,-101,-319,1,7,11
1.72313E+12,-7457,2221,-1501,-176,-99,-269,1,7,11
1.72313E+12,-7456,2203,-1499,-308,-88,45,1,7,11
1.72313E+12,-7454,2209,-1506,94,-73,96,1,7,11
1.72313E+12,-7461,2239,-1524,-21,-57,-127,1,7,11
1.72313E+12,-7485,2292,-1804,337,-51,-116,1,7,11
1.72313E+12,-7488,2606,-1823,378,-77,-112,1,7,11
1.72313E+12,-7474,2643,-1848,357,-119,127,1,7,11
1.72313E+12,-7449,2653,-1855,285,97,83,1,7,11
1.72313E+12,-7435,2654,-1862,-76,81,14,1,7,11
1.72313E+12,-7427,2630,-1846,64,69,-310,1,7,11
1.72313E+12,-7145,2593,-1833,-302,73,-368,1,7,11
1.72313E+12,-7131,2291,-1832,-142,108,-145,1,7,11
1.72313E+12,-7122,2213,-1833,-211,-86,-157,1,7,11
1.72313E+12,-7155,2179,-1839,-229,-5,-141,1,7,11
1.72313E+12,-7444,2424,-1843,-212,327,-351,1,7,11
1.72313E+12,-7495,2424,-1847,-164,135,-231,1,7,11
1.72313E+12,-7532,2429,-1861,-353,168,-119,1,7,11
1.72313E+12,-7550,2190,-1874,-266,379,-21,1,7,11
1.72313E+12,-7299,2206,-1879,-122,306,316,1,7,11
1.72313E+12,-7540,2230,-1876,-26,-40,372,1,7,11
1.72313E+12,-7492,2279,-1903,322,125,143,1,7,11
1.72313E+12,-7442,2599,-1677,132,63,145,1,7,11
1.72313E+12,-7128,2669,-1697,156,37,131,1,7,11
1.72313E+12,-7119,2470,-1692,378,45,356,1,7,11
1.72313E+12,-7124,2492,-1684,309,31,319,1,7,11
1.72313E+12,-7121,2494,-1667,-20,0,260,1,7,11
1.72313E+12,-7114,2496,-1668,-97,-287,-72,1,7,11
1.72313E+12,-7099,2482,-1908,59,-302,100,1,7,11
1.72313E+12,-7099,2465,-1895,-301,-276,10,1,7,11
1.72313E+12,-7118,2434,-1872,-165,18,-325,1,7,11
1.72313E+12,-7434,2659,-1833,-539,58,-137,1,7,11
1.72313E+12,-7521,2630,-1533,-392,58,-183,1,7,11
1.72313E+12,-7307,2588,-1485,-489,10,-201,1,7,11
1.72313E+12,-7315,2281,-1441,-796,-289,-192,1,7,11
1.72313E+12,-7312,2248,-1659,-797,-304,-155,1,7,11
1.72313E+12,-7550,2230,-1624,-496,-293,-352,1,7,11
1.72313E+12,-7518,2217,-1591,-418,-260,-286,1,7,11
1.72313E+12,-7487,2207,-1572,-576,37,27,1,7,11
1.72313E+12,-7447,2205,-1573,-209,68,58,1,7,11
1.72313E+12,-7159,2215,-1589,-362,98,47,1,7,11
1.72313E+12,-7150,2232,-1625,-292,123,5,1,7,11
1.72313E+12,-7152,2247,-1414,-264,-117,-309,1,7,11
1.72313E+12,-7157,2270,-1452,-275,-100,-363,1,7,11
1.72313E+12,-7167,2280,-1485,-322,-74,-135,1,7,11
1.72313E+12,-7437,2281,-1499,-382,-41,-382,1,7,11
1.72313E+12,-7449,2250,-1480,-212,267,-304,1,7,11
1.72313E+12,-7470,2221,-1451,-227,306,23,1,7,11
1.72313E+12,-7494,2208,-1420,-205,310,99,1,7,11
1.72313E+12,-7477,2194,-1652,-154,289,-94,1,7,11
1.72313E+12,-7461,2214,-1413,-335,281,-49,1,7,11
1.72313E+12,-7167,2247,-1436,-270,274,-20,1,7,11
1.72313E+12,-7117,2634,-1532,66,350,256,1,7,11
1.72313E+12,-7126,2679,-1825,52,153,261,1,7,11
1.72313E+12,-7151,2460,-1853,26,200,266,1,7,11
1.72313E+12,-7439,2478,-1865,2,215,274,1,7,11
1.72313E+12,-7454,2484,-1879,-265,208,280,1,7,11
1.72313E+12,-7462,2483,-1881,-260,185,278,1,7,11
1.72313E+12,-7466,2482,-1887,11,150,263,1,7,11
1.72313E+12,-7467,2481,-1887,33,357,-25,1,7,11
1.72313E+12,-7446,2488,-1878,53,293,-67,1,7,11
1.72313E+12,-7430,2492,-1877,59,-12,124,1,7,11
1.72313E+12,-7164,2485,-1869,35,-57,60,1,7,11
1.72313E+12,-7145,2470,-1855,-259,-94,-263,1,7,11
1.72313E+12,-7135,2453,-1845,-313,-106,-318,1,7,11
1.72313E+12,-7118,2683,-1846,-370,-103,-351,1,7,11
1.72313E+12,-7098,2649,-1850,-161,-75,-373,1,7,11
1.72313E+12,-7090,2611,-1860,-200,-21,-381,1,7,11
1.72313E+12,-7093,2568,-1863,-218,303,-377,1,7,11
1.72313E+12,-7123,2302,-1870,-220,362,-358,1,7,11
1.72313E+12,-7189,2285,-1887,-208,134,-319,1,7,11
1.72313E+12,-7484,2280,-1895,-180,378,-267,1,7,11
1.72313E+12,-7512,2274,-1885,-376,290,83,1,7,11
1.72313E+12,-7525,2274,-1875,-314,-55,-112,1,7,11
1.72313E+12,-7533,2273,-1850,23,110,-60,1,7,11
1.72313E+12,-7517,2289,-1817,113,22,-15,1,7,11
1.72313E+12,-7482,2569,-1815,-54,-303,275,1,7,11
1.72313E+12,-7437,2607,-1818,273,-337,293,1,7,11
1.72313E+12,-7137,2649,-1824,314,-333,290,1,7,11
1.72313E+12,-7104,2450,-1829,325,-293,264,1,7,11
1.72313E+12,-7078,2518,-1847,294,24,-45,1,7,11
1.72313E+12,-7074,2537,-1863,-28,87,-86,1,7,11
1.72313E+12,-7062,2523,-1868,-119,-78,123,1,7,11
1.72313E+12,-7066,2491,-1865,47,-17,66,1,7,11
1.72313E+12,-7080,2461,-1871,-303,283,13,1,7,11
1.72313E+12,-7102,2679,-1875,-351,297,-291,1,7,11
1.72313E+12,-7125,2646,-1879,-377,291,-328,1,7,11
1.72313E+12,-7151,2630,-1896,-379,284,-340,1,7,11
1.72313E+12,-7431,2612,-1895,-372,268,-326,1,7,11
1.72313E+12,-7458,2594,-1892,-346,-12,-285,1,7,11
1.72313E+12,-7476,2596,-1885,-304,-40,25,1,7,11
1.72313E+12,-7496,2607,-1868,-268,-75,83,1,7,11
1.72313E+12,-7499,2618,-1862,20,-128,-122,1,7,11
1.72313E+12,-7476,2620,-1853,39,62,-96,1,7,11
1.72313E+12,-7444,2619,-1847,44,19,-100,1,7,11
1.72313E+12,-7159,2627,-1851,40,3,126,1,7,11
1.72313E+12,-7137,2641,-1860,21,15,81,1,7,11
1.72313E+12,-7124,2652,-1854,-262,50,47,1,7,11
1.72313E+12,-7121,2650,-1853,-291,102,36,1,7,11
1.72313E+12,-7136,2646,-1863,-312,-103,47,1,7,11
1.72313E+12,-7153,2633,-1862,-324,-61,83,1,7,11
1.72313E+12,-7427,2615,-1859,-315,-38,122,1,7,11
1.72313E+12,-7467,2619,-1839,-289,-43,-100,1,7,11
1.72313E+12,-7491,2616,-1820,-261,-91,-76,1,7,11
1.72313E+12,-7507,2626,-1798,33,99,-64,1,7,11
1.72313E+12,-7507,2641,-1521,62,13,-66,1,7,11
1.72313E+12,-7475,2651,-1507,80,-315,-79,1,7,11
1.72313E+12,-7438,2680,-1501,81,-348,-101,1,7,11
1.72313E+12,-7155,2445,-1493,58,-341,-124,1,7,11
1.72313E+12,-7151,2466,-1470,16,-305,119,1,7,11
1.72313E+12,-7160,2476,-1433,-285,-261,120,1,7,11
1.72313E+12,-7160,2471,-1660,-332,31,-127,1,7,11
1.72313E+12,-7147,2448,-1652,-362,64,126,1,7,11
1.72313E+12,-7127,2435,-1411,-370,106,99,1,7,11
1.72313E+12,-7081,2675,-1454,-377,-98,55,1,7,11
1.72313E+12,-7261,2682,-1794,-135,-12,-263,1,7,11
1.72313E+12,-7214,2450,-1903,-180,376,-332,1,7,11
1.72313E+12,-7242,2462,-1674,-246,529,-376,1,7,11
1.72313E+12,-7106,2492,-1697,-579,388,-369,1,7,11
1.72313E+12,-7513,2501,-1677,-409,389,-300,1,7,11
1.72313E+12,-7370,2454,-1859,-455,513,69,1,7,11
1.72313E+12,-7390,2610,-1813,-425,300,-70,1,7,11
1.72313E+12,-7359,2563,-1507,-572,90,262,1,7,11
1.72313E+12,-7500,2301,-1459,-142,-331,305,1,7,11
1.72313E+12,-7161,2596,-1431,64,-173,324,1,7,11
1.72313E+12,-7077,2663,-1423,257,-211,333,1,7,11
1.72313E+12,-7266,2478,-1439,137,-204,319,1,7,11
1.72313E+12,-7228,2550,-1476,227,-359,291,1,7,11
1.72313E+12,-7225,2861,-1515,200,1,-11,1,7,11
1.72313E+12,-7254,2884,-1793,381,105,-61,1,7,11
1.72313E+12,-7292,2894,-1816,279,-62,-120,1,7,11
1.72313E+12,-7078,2888,-1834,-93,258,72,1,7,11
1.72313E+12,-7118,2871,-1843,38,299,7,1,7,11
1.72313E+12,-7142,2837,-1838,-343,315,-300,1,7,11
1.72313E+12,-7144,2533,-1827,-191,318,-334,1,7,11
1.72313E+12,-7150,2486,-1807,-256,326,-344,1,7,11
1.72313E+12,-7147,2449,-1797,-540,323,-324,1,7,11
1.72313E+12,-7138,2661,-1793,-531,317,-296,1,7,11
1.72313E+12,-7132,2634,-1802,-228,319,-265,1,7,11
1.72313E+12,-7136,2628,-1815,-154,320,18,1,7,11
1.72313E+12,-7150,2651,-1829,-325,320,38,1,7,11
1.72313E+12,-7434,2681,-1846,0,304,56,1,7,11
1.72313E+12,-7462,2467,-1862,49,272,78,1,7,11
1.72313E+12,-7482,2504,-1865,71,-42,104,1,7,11
1.72313E+12,-7471,2511,-1859,71,-117,120,1,7,11
1.72313E+12,-7440,2504,-1847,71,75,116,1,7,11
1.72313E+12,-7150,2494,-1823,75,28,93,1,7,11
1.72313E+12,-7133,2493,-1796,74,-264,55,1,7,11
1.72313E+12,-7126,2489,-1519,60,-291,24,1,7,11
1.72313E+12,-7109,2484,-1512,46,-298,6,1,7,11
1.72313E+12,-7100,2466,-1503,35,-282,-259,1,7,11
1.72313E+12,-7092,2451,-1496,36,8,-257,1,7,11
1.72313E+12,-7087,2455,-1509,49,75,2,1,7,11
1.72313E+12,-7098,2460,-1516,43,-108,7,1,7,11
1.72313E+12,-7120,2466,-1514,20,-44,15,1,7,11
1.72313E+12,-7139,2472,-1533,-268,256,23,1,7,11
1.72313E+12,-7150,2466,-1801,-314,279,31,1,7,11
1.72313E+12,-7148,2449,-1806,-350,296,37,1,7,11
1.72313E+12,-7155,2434,-1806,-363,310,43,1,7,11
1.72313E+12,-7162,2680,-1809,-361,309,53,1,7,11
1.72313E+12,-7166,2670,-1813,-343,295,64,1,7,11
1.72313E+12,-7428,2660,-1823,-312,275,73,1,7,11
1.72313E+12,-7167,2664,-1823,-279,-9,80,1,7,11
1.72313E+12,-7160,2670,-1834,5,-34,81,1,7,11
1.72313E+12,-7159,2682,-1842,22,-63,70,1,7,11
1.72313E+12,-7163,2436,-1842,21,-96,45,1,7,11
1.72313E+12,-7434,2437,-1840,18,121,19,1,7,11
1.72313E+12,-7433,2687,-1835,13,81,-266,1,7,11
1.72313E+12,-7428,2669,-1817,12,48,-286,1,7,11
1.72313E+12,-7141,2669,-1817,14,37,-300,1,7,11
1.72313E+12,-7131,2669,-1816,8,56,-304,1,7,11
1.72313E+12,-7137,2677,-1818,0,92,-290,1,7,11
1.72313E+12,-7140,2684,-1823,-266,-115,-265,1,7,11
1.72313E+12,-7147,2679,-1830,-283,-90,23,1,7,11
1.72313E+12,-7153,2671,-1824,-311,-76,59,1,7,11
1.72313E+12,-7168,2666,-1821,-313,-74,95,1,7,11
1.72313E+12,-7433,2666,-1804,-303,-85,-126,1,7,11
1.72313E+12,-7432,2671,-1798,-280,-108,-98,1,7,11
1.72313E+12,-7166,2680,-1533,2,119,-78,1,7,11
1.72313E+12,-7160,2438,-1526,28,96,-71,1,7,11
1.72313E+12,-7141,2457,-1517,52,81,-73,1,7,11
1.72313E+12,-7123,2477,-1525,64,75,-89,1,7,11
1.72313E+12,-7116,2496,-1528,60,77,-105,1,7,11
1.72313E+12,-7106,2504,-1528,46,86,-124,1,7,11
1.72313E+12,-7110,2508,-1523,26,104,113,1,7,11
1.72313E+12,-7121,2506,-1517,4,123,97,1,7,11
1.72313E+12,-7122,2499,-1504,-267,-115,80,1,7,11
1.72313E+12,-7140,2489,-1500,-273,-96,63,1,7,11
1.72313E+12,-7156,2478,-1494,-274,-82,47,1,7,11
1.72313E+12,-7166,2467,-1492,-262,-74,36,1,7,11
1.72313E+12,-7165,2463,-1493,8,-71,33,1,7,11
1.72313E+12,-7168,2459,-1488,23,-70,35,1,7,11
1.72313E+12,-7151,2493,-1521,39,-50,65,1,7,11
1.72313E+12,-7142,2492,-1524,19,-48,66,1,7,11
1.72313E+12,-7135,2486,-1531,0,-38,53,1,7,11
1.72313E+12,-7138,2472,-1528,-275,-29,34,1,7,11
1.72313E+12,-7141,2464,-1533,-290,-26,6,1,7,11
1.72313E+12,-7142,2449,-1533,-300,-25,-272,1,7,11
1.72313E+12,-7149,2440,-1530,-300,-25,-289,1,7,11
1.72313E+12,-7144,2680,-1523,-304,-33,-290,1,7,11
1.72313E+12,-7143,2666,-1531,-299,-31,-289,1,7,11
1.72313E+12,-7146,2653,-1535,-291,-27,-280,1,7,11
1.72313E+12,-7163,2654,-1795,-284,-26,-273,1,7,11
1.72313E+12,-7448,2665,-1798,-294,-42,-264,1,7,11
1.72313E+12,-7458,2667,-1536,-311,-78,8,1,7,11
1.72313E+12,-7449,2663,-1793,-326,-105,32,1,7,11
1.72313E+12,-7434,2658,-1795,-332,-116,45,1,7,11
1.72313E+12,-7156,2659,-1526,-327,-99,54,1,7,11
1.72313E+12,-7138,2665,-1527,-309,-67,53,1,7,11
1.72313E+12,-7109,2446,-1803,-262,-2,58,1,7,11
1.72313E+12,-7108,2440,-1818,2,281,60,1,7,11
1.72313E+12,-7117,2449,-1828,9,299,63,1,7,11
1.72313E+12,-7127,2451,-1833,22,301,61,1,7,11
1.72313E+12,-7141,2455,-1841,30,293,60,1,7,11
1.72313E+12,-7156,2461,-1856,36,273,63,1,7,11
1.72313E+12,-7135,2463,-1865,34,-12,71,1,7,11
1.72313E+12,-7110,2463,-1869,31,-22,66,1,7,11
1.72313E+12,-7112,2466,-1867,18,-27,56,1,7,11
1.72313E+12,-7103,2462,-1864,-260,-33,40,1,7,11
1.72313E+12,-7116,2461,-1869,-287,-30,23,1,7,11
1.72313E+12,-7131,2454,-1874,-322,-36,14,1,7,11
1.72313E+12,-7153,2440,-1871,-349,-40,5,1,7,11
1.72313E+12,-7161,2678,-1868,-366,-47,5,1,7,11
1.72313E+12,-7427,2658,-1859,-380,-49,6,1,7,11
1.72313E+12,-7433,2641,-1853,-382,-43,8,1,7,11
1.72313E+12,-7430,2624,-1848,-371,-48,13,1,7,11
1.72313E+12,-7160,2619,-1847,-356,-50,17,1,7,11
1.72313E+12,-7145,2622,-1855,-336,-42,28,1,7,11
1.72313E+12,-7138,2627,-1857,-313,-26,41,1,7,11
1.72313E+12,-7145,2638,-1856,-290,-12,62,1,7,11
1.72313E+12,-7149,2641,-1856,-262,-16,92,1,7,11
1.72313E+12,-7149,2644,-1862,32,-29,120,1,7,11
1.72313E+12,-7142,2661,-1878,70,-49,-114,1,7,11
1.72313E+12,-7141,2683,-1886,102,-67,-101,1,7,11
1.72313E+12,-7135,2457,-1891,114,-88,-99,1,7,11
1.72313E+12,-7131,2481,-1898,101,-107,-112,1,7,11
1.72313E+12,-7128,2498,-1895,65,126,126,1,7,11
1.72313E+12,-7114,2498,-1878,13,109,102,1,7,11
1.72313E+12,-7102,2496,-1862,-301,112,76,1,7,11
1.72313E+12,-7095,2488,-1858,-361,-126,53,1,7,11
1.72313E+12,-7101,2686,-1846,-178,-25,26,1,7,11
1.72313E+12,-7129,2679,-1843,-168,265,40,1,7,11
1.72313E+12,-7164,2666,-1844,-140,273,68,1,7,11
1.72313E+12,-7445,2662,-1838,-350,256,102,1,7,11
1.72313E+12,-7449,2659,-1840,-290,-34,-121,1,7,11
1.72313E+12,-7438,2672,-1831,33,-73,-98,1,7,11
1.72313E+12,-7135,2436,-1835,95,-109,-83,1,7,11
1.72313E+12,-7124,2446,-1829,-112,121,-87,1,7,11
1.72313E+12,-7101,2479,-1841,-79,107,-105,1,7,11
1.72313E+12,-7079,2492,-1845,-73,108,123,1,7,11
1.72313E+12,-7082,2495,-1847,-93,126,87,1,7,11
1.72313E+12,-7098,2497,-1859,127,-104,42,1,7,11
1.72313E+12,-7105,2488,-1868,85,-73,18,1,7,11
1.72313E+12,-7123,2475,-1860,42,-48,4,1,7,11
1.72313E+12,-7139,2470,-1852,-8,-38,3,1,7,11
1.72313E+12,-7157,2485,-1857,-297,-40,9,1,7,11
1.72313E+12,-7161,2492,-1860,-341,-64,28,1,7,11
1.72313E+12,-7099,2463,-1911,-191,-73,55,1,7,11
1.72313E+12,-7080,2453,-1666,-176,-41,41,1,7,11
1.72313E+12,-7098,2456,-1678,-167,-8,23,1,7,11
1.72313E+12,-7164,2452,-1671,-171,-5,12,1,7,11
1.72313E+12,-7478,2687,-1897,-172,-68,11,1,7,11
1.72313E+12,-7496,2658,-1869,-156,92,17,1,7,11
1.72313E+12,-7479,2630,-1831,-376,3,18,1,7,11
1.72313E+12,-7468,2603,-1530,-329,-301,13,1,7,11
1.72313E+12,-7441,2584,-1500,-275,-322,19,1,7,11
1.72313E+12,-7152,2588,-1488,42,-309,23,1,7,11
1.72313E+12,-7112,2615,-1495,89,-274,37,1,7,11
1.72313E+12,-7085,2640,-1507,108,50,49,1,7,11
1.72313E+12,-7077,2663,-1523,102,-118,72,1,7,11
1.72313E+12,-7105,2678,-1795,87,-32,101,1,7,11
1.72313E+12,-7098,2680,-1815,59,264,-122,1,7,11
1.72313E+12,-7089,2678,-1841,43,302,-114,1,7,11
1.72313E+12,-7124,2683,-1871,22,331,-124,1,7,11
1.72313E+12,-7442,2676,-1885,-270,316,112,1,7,11
1.72313E+12,-7460,2667,-1902,-295,-9,101,1,7,11
1.72313E+12,-7435,2675,-1909,-318,-90,101,1,7,11
1.72313E+12,-7444,2678,-1900,-355,127,102,1,7,11
1.72313E+12,-7466,2662,-1852,-138,85,-126,1,7,11
1.72313E+12,-7458,2641,-1819,-154,34,-96,1,7,11
1.72313E+12,-7441,2635,-1528,-151,0,-70,1,7,11
1.72313E+12,-7158,2640,-1502,-136,-268,-48,1,7,11
1.72313E+12,-7112,2660,-1497,-369,6,-27,1,7,11
1.72313E+12,-7073,2439,-1512,-361,64,-15,1,7,11
1.72313E+12,-7056,2468,-1530,-364,-105,-9,1,7,11
1.72313E+12,-7044,2498,-1816,-376,-13,-8,1,7,11
1.72313E+12,-7061,2531,-1834,-133,327,258,1,7,11
1.72313E+12,-7077,2821,-1851,-155,374,289,1,7,11
1.72313E+12,-7079,2832,-1856,-170,138,331,1,7,11
1.72313E+12,-7115,2845,-1854,-167,145,358,1,7,11
1.72313E+12,-7154,2841,-1829,-141,359,378,1,7,11
1.72313E+12,-7150,2841,-1808,-328,271,381,1,7,11
1.72313E+12,-7111,2865,-1798,20,-71,366,1,7,11
1.72313E+12,-7042,2906,-1804,103,124,347,1,7,11
1.72313E+12,-7236,2700,-1813,-92,109,317,1,7,11
1.72313E+12,-7190,2741,-1845,-70,-128,281,1,7,11
1.72313E+12,-7180,2778,-1891,-86,-84,-24,1,7,11
1.72313E+12,-7217,2809,-1906,90,-13,-107,1,7,11
1.72313E+12,-7262,2802,-1667,18,269,103,1,7,11
1.72313E+12,-7044,2782,-1671,-319,279,70,1,7,11
1.72313E+12,-7080,2750,-1916,-375,276,45,1,7,11
1.72313E+12,-7109,2710,-1895,-143,259,29,1,7,11
1.72313E+12,-7109,2921,-1877,-134,-35,24,1,7,11
1.72313E+12,-7100,2887,-1856,-354,-59,9,1,7,11
1.72313E+12,-7108,2859,-1836,-303,-79,-263,1,7,11
1.72313E+12,-7094,2835,-1834,4,-112,-285,1,7,11
1.72313E+12,-7073,2818,-1838,55,124,-318,1,7,11
1.72313E+12,-7060,2823,-1849,93,121,-344,1,7,11
1.72313E+12,-7070,2828,-1849,106,-127,-365,1,7,11
1.72313E+12,-7101,2827,-1840,83,121,-356,1,7,11
1.72313E+12,-7114,2553,-1826,60,108,-336,1,7,11
1.72313E+12,-7120,2526,-1817,53,105,-316,1,7,11
1.72313E+12,-7107,2497,-1812,67,107,-300,1,7,11
1.72313E+12,-7087,2490,-1815,106,-127,-293,1,7,11
1.72313E+12,-7081,2505,-1821,-119,-87,-296,1,7,11
1.72313E+12,-7092,2519,-1839,-116,-58,-295,1,7,11
1.72313E+12,-7105,2540,-1852,117,-52,-294,1,7,11
1.72313E+12,-7118,2540,-1854,69,-59,-288,1,7,11
1.72313E+12,-7128,2521,-1843,20,-80,-279,1,7,11
1.72313E+12,-7129,2495,-1832,-269,-102,-265,1,7,11
1.72313E+12,-7135,2478,-1823,-274,-109,3,1,7,11
1.72313E+12,-7136,2481,-1813,-257,-110,23,1,7,11
1.72313E+12,-7127,2494,-1802,22,-105,51,1,7,11
1.72313E+12,-7110,2515,-1796,38,-93,87,1,7,11
1.72313E+12,-7068,2526,-1812,41,-70,107,1,7,11
1.72313E+12,-7052,2550,-1824,43,-15,107,1,7,11
1.72313E+12,-7284,2817,-1857,25,287,86,1,7,11
1.72313E+12,-7074,2820,-1894,-356,139,-258,1,7,11
1.72313E+12,-7087,2550,-1902,-131,142,-270,1,7,11
1.72313E+12,-7106,2526,-1905,-141,138,-280,1,7,11
1.72313E+12,-7120,2500,-1891,-131,379,-282,1,7,11
1.72313E+12,-7116,2485,-1891,-357,346,-278,1,7,11
1.72313E+12,-7090,2481,-1914,-318,316,-269,1,7,11
1.72313E+12,-7058,2489,-1685,-278,311,-262,1,7,11
1.72313E+12,-7055,2500,-1695,10,317,5,1,7,11
1.72313E+12,-7068,2511,-1713,43,321,13,1,7,11
1.72313E+12,-7084,2520,-1703,52,302,24,1,7,11
1.72313E+12,-7095,2520,-1706,53,272,36,1,7,11
1.72313E+12,-7092,2516,-1716,52,-13,42,1,7,11
1.72313E+12,-7104,2512,-1711,47,-34,35,1,7,11
1.72313E+12,-7116,2507,-1690,41,-62,23,1,7,11
1.72313E+12,-7102,2503,-1670,35,-86,10,1,7,11
1.72313E+12,-7070,2500,-1672,25,-102,4,1,7,11
1.72313E+12,-7280,2496,-1672,7,-86,-260,1,7,11
1.72313E+12,-7249,2487,-1688,-266,-36,-267,1,7,11
1.72313E+12,-7242,2485,-1702,-283,283,-270,1,7,11
1.72313E+12,-7266,2488,-1723,-299,344,-268,1,7,11
1.72313E+12,-7050,2494,-1728,-313,131,4,1,7,11
1.72313E+12,-7099,2496,-1734,-331,136,34,1,7,11
1.72313E+12,-7121,2480,-1738,-335,363,71,1,7,11
1.72313E+12,-7142,2473,-1741,-324,328,90,1,7,11
1.72313E+12,-7156,2466,-1730,-300,281,101,1,7,11
1.72313E+12,-7138,2471,-1711,-262,-36,107,1,7,11
1.72313E+12,-7106,2478,-1701,20,-85,105,1,7,11
1.72313E+12,-7059,2480,-1688,29,-110,96,1,7,11
1.72313E+12,-7278,2488,-1684,34,-104,80,1,7,11
1.72313E+12,-7249,2493,-1687,29,-78,63,1,7,11
1.72313E+12,-7251,2500,-1687,20,-28,43,1,7,11
1.72313E+12,-7277,2517,-1696,-261,275,38,1,7,11
1.72313E+12,-7043,2529,-1716,-293,304,47,1,7,11
1.72313E+12,-7055,2537,-1734,-325,334,56,1,7,11
1.72313E+12,-7069,2532,-1764,-357,352,66,1,7,11
1.72313E+12,-7050,2534,-1791,-371,362,74,1,7,11
1.72313E+12,-7290,2545,-2064,-132,382,66,1,7,11
1.72313E+12,-7276,2545,-2059,-158,136,59,1,7,11
1.72313E+12,-7286,2541,-2054,-188,382,45,1,7,11
1.72313E+12,-7052,2527,-1787,-198,346,45,1,7,11
1.72313E+12,-7078,2516,-1766,-188,294,53,1,7,11
1.72313E+12,-7102,2496,-1748,-156,-21,64,1,7,11
1.72313E+12,-7115,2482,-1725,-360,-83,80,1,7,11
1.72313E+12,-7113,2475,-1711,-293,119,93,1,7,11
1.72313E+12,-7092,2476,-1708,31,86,103,1,7,11
1.72313E+12,-7292,2487,-1705,84,76,107,1,7,11
1.72313E+12,-7261,2515,-1709,121,116,96,1,7,11
1.72313E+12,-7236,2539,-1727,120,-98,86,1,7,11
1.72313E+12,-7224,2556,-1734,98,-36,72,1,7,11
1.72313E+12,-7231,2816,-1752,57,276,67,1,7,11
1.72313E+12,-7233,2556,-1773,19,312,64,1,7,11
1.72313E+12,-7250,2555,-1789,-258,353,55,1,7,11
1.72313E+12,-7274,2543,-2060,-283,370,45,1,7,11
1.72313E+12,-7056,2529,-2061,-294,375,28,1,7,11
1.72313E+12,-7078,2516,-2062,-300,347,13,1,7,11
1.72313E+12,-7080,2503,-2064,-300,302,-260,1,7,11
1.72313E+12,-7058,2500,-2073,-300,267,-273,1,7,11
1.72313E+12,-7293,2498,-2078,-310,258,-277,1,7,11
1.72313E+12,-7276,2487,-2076,-324,268,-276,1,7,11
1.72313E+12,-7267,2479,-2067,-336,283,-271,1,7,11
1.72313E+12,-7259,2473,-2075,-339,298,-261,1,7,11
1.72313E+12,-7267,2470,-2078,-335,315,12,1,7,11
1.72313E+12,-7283,2464,-2089,-328,332,26,1,7,11
1.72313E+12,-7050,2465,-2101,-319,334,42,1,7,11
1.72313E+12,-7060,2460,-2115,-312,318,55,1,7,11
1.72313E+12,-7054,2460,-2127,-296,295,61,1,7,11
1.72313E+12,-7288,2464,-2129,-284,273,62,1,7,11
1.72313E+12,-7272,2479,-2144,-280,261,62,1,7,11
1.72313E+12,-7253,2487,-2149,-277,-4,66,1,7,11
1.72313E+12,-7283,2489,-2127,-310,-32,104,1,7,11
1.72313E+12,-7282,2483,-2115,-312,-48,110,1,7,11
1.72313E+12,-7268,2474,-2114,-302,-61,108,1,7,11
1.72313E+12,-7246,2482,-2124,-282,-56,99,1,7,11
1.72313E+12,-7240,2504,-2130,-265,-29,92,1,7,11
1.72313E+12,-7238,2523,-2146,-272,-5,92,1,7,11
1.72313E+12,-7239,2538,-2159,-294,270,92,1,7,11
1.72313E+12,-7247,2547,-2162,-324,272,93,1,7,11
1.72313E+12,-7250,2539,-2169,-358,256,86,1,7,11
1.72313E+12,-7264,2527,-2164,-135,-29,75,1,7,11
1.72313E+12,-7273,2512,-2163,-162,-68,62,1,7,11
1.72313E+12,-7276,2499,-2154,-168,-99,56,1,7,11
1.72313E+12,-7280,2493,-2145,-156,-126,62,1,7,11
1.72313E+12,-7282,2488,-2145,-381,113,82,1,7,11
1.72313E+12,-7267,2494,-2149,-344,107,110,1,7,11
1.72313E+12,-7263,2508,-2151,-316,106,-114,1,7,11
1.72313E+12,-7263,2521,-2152,-284,100,-81,1,7,11
1.72313E+12,-7267,2532,-2153,10,83,-52,1,7,11
1.72313E+12,-7272,2543,-2148,41,52,-24,1,7,11
1.72313E+12,-7293,2530,-2140,90,11,259,1,7,11
1.72313E+12,-7048,2523,-2136,-86,-308,282,1,7,11
1.72313E+12,-7049,2523,-2128,268,-376,294,1,7,11
1.72313E+12,-7043,2534,-2113,366,-179,306,1,7,11
1.72313E+12,-7287,2533,-2094,201,-228,315,1,7,11
1.72313E+12,-7267,2537,-2078,553,-518,319,1,7,11
1.72313E+12,-7247,2551,-2080,390,-539,319,1,7,11
1.72313E+12,-7221,2559,-2087,446,-563,299,1,7,11
1.72313E+12,-7223,2829,-2085,472,-550,258,1,7,11
1.72313E+12,-7226,2849,-2092,474,-539,-29,1,7,11
1.72313E+12,-7231,2864,-2092,447,-531,-65,1,7,11
1.72313E+12,-7240,2880,-2099,400,-256,-85,1,7,11
1.72313E+12,-7242,2890,-2100,593,-242,-95,1,7,11
1.72313E+12,-7246,2894,-2095,521,-216,-104,1,7,11
1.72313E+12,-7276,2898,-2081,190,-185,-111,1,7,11
1.72313E+12,-7044,2887,-2062,370,-175,-112,1,7,11
1.72313E+12,-7062,2861,-1775,294,-178,-122,1,7,11
1.72313E+12,-7074,2828,-1736,-26,-189,111,1,7,11
1.72313E+12,-7061,2540,-1705,-64,-204,77,1,7,11
1.72313E+12,-7296,2529,-1682,-79,-197,39,1,7,11
1.72313E+12,-7269,2542,-1686,-95,-170,17,1,7,11
1.72313E+12,-7246,2546,-1681,-119,-378,11,1,7,11
1.72313E+12,-7250,2551,-1676,104,-282,25,1,7,11
1.72313E+12,-7260,2553,-1672,36,25,45,1,7,11
1.72313E+12,-7291,2551,-1918,-268,61,63,1,7,11
1.72313E+12,-7065,2549,-1914,-311,78,73,1,7,11
1.72313E+12,-7098,2548,-1903,-351,81,76,1,7,11
1.72313E+12,-7102,2530,-1876,-129,64,77,1,7,11
1.72313E+12,-7082,2505,-1865,-145,49,65,1,7,11
1.72313E+12,-7053,2488,-1854,-140,61,46,1,7,11
1.72313E+12,-7042,2479,-1844,-383,97,26,1,7,11
1.72313E+12,-7049,2474,-1848,-367,-110,11,1,7,11
1.72313E+12,-7065,2482,-1858,-355,-67,12,1,7,11
1.72313E+12,-7070,2487,-1870,-346,-43,30,1,7,11
1.72313E+12,-7072,2493,-1890,-341,-13,53,1,7,11
1.72313E+12,-7086,2491,-1901,-345,268,70,1,7,11
1.72313E+12,-7115,2478,-1901,-342,290,75,1,7,11
1.72313E+12,-7138,2474,-1907,-321,291,82,1,7,11
1.72313E+12,-7137,2485,-1914,-301,267,84,1,7,11
1.72313E+12,-7122,2500,-1906,-291,-10,87,1,7,11
1.72313E+12,-7094,2512,-1909,-294,-24,90,1,7,11
1.72313E+12,-7082,2508,-1910,-310,-30,75,1,7,11
1.72313E+12,-7089,2519,-1907,-337,-44,49,1,7,11
1.72313E+12,-7097,2526,-1901,-129,-77,20,1,7,11
1.72313E+12,-7096,2513,-1898,-182,-121,-261,1,7,11
1.72313E+12,-7089,2483,-1895,-206,99,-296,1,7,11
1.72313E+12,-7101,2482,-1887,-180,79,-347,1,7,11
1.72313E+12,-7446,2499,-1869,-134,96,-165,1,7,11
1.72313E+12,-7427,2539,-1915,-343,-283,-152,1,7,11
1.72313E+12,-7106,2832,-1686,-324,-337,-208,1,7,11
1.72313E+12,-7134,2854,-1683,-352,-324,-219,1,7,11
1.72313E+12,-7435,2544,-1882,-146,-327,-211,1,7,11
1.72313E+12,-7462,2497,-1814,-137,-348,-184,1,7,11
1.72313E+12,-7463,2463,-1488,-356,-378,-150,1,7,11
1.72313E+12,-7452,2683,-1457,-309,-130,-129,1,7,11
1.72313E+12,-7462,2650,-1421,-261,-353,-360,1,7,11
1.72313E+12,-7427,2626,-1409,65,-330,-344,1,7,11
1.72313E+12,-7076,2607,-1424,113,-289,-339,1,7,11
1.72313E+12,-7231,2594,-1476,-108,55,-349,1,7,11
1.72313E+12,-6870,2579,-1797,-101,-71,-384,1,7,11
1.72313E+12,-6873,2605,-1873,-91,377,-170,1,7,11
1.72313E+12,-7196,2659,-1680,-110,521,-164,1,7,11
1.72313E+12,-7273,2444,-1730,107,592,-357,1,7,11
1.72313E+12,-7112,2492,-1746,73,601,22,1,7,11
1.72313E+12,-7445,2508,-1742,54,517,-62,1,7,11
1.72313E+12,-7477,2505,-1731,79,366,369,1,7,11
1.72313E+12,-7478,2512,-1715,-108,-68,512,1,7,11
1.72313E+12,-7453,2529,-1690,-6,12,592,1,7,11
1.72313E+12,-7157,2555,-1665,370,-146,612,1,7,11
1.72313E+12,-7100,2860,-1903,223,-520,585,1,7,11
1.72313E+12,-7276,2913,-1895,553,-585,526,1,7,11
1.72313E+12,-7207,2706,-1904,588,-583,186,1,7,11
1.72313E+12,-7173,2734,-1913,579,-256,337,1,7,11
1.72313E+12,-7186,2761,-1673,547,-147,-25,1,7,11
1.72313E+12,-7223,2773,-1673,238,-285,-126,1,7,11
1.72313E+12,-7059,2754,-1904,167,83,37,1,7,11
1.72313E+12,-7114,2709,-1858,131,-106,-283,1,7,11
1.72313E+12,-7444,2920,-1827,145,-51,-342,1,7,11
1.72313E+12,-7476,2853,-1796,183,-41,-138,1,7,11
1.72313E+12,-7445,2529,-1795,247,-47,-209,1,7,11
1.72313E+12,-7111,2469,-1834,572,-39,-557,1,7,11
1.72313E+12,-7290,2648,-1892,608,257,-410,1,7,11
1.72313E+12,-7228,2601,-1696,598,321,-782,1,7,11
1.72313E+12,-7189,2295,-1758,527,150,-642,1,7,11
1.72313E+12,-7200,2252,-2102,152,237,-736,1,7,11
1.72313E+12,-7247,2239,-1922,-8,614,-1083,1,7,11
1.72313E+12,-7072,2245,-1988,-342,416,-1091,1,7,11
1.72313E+12,-7150,2232,-2019,-624,428,-1054,1,7,11
1.72313E+12,-7496,2226,-2032,-647,407,-709,1,7,11
1.72313E+12,-7545,2207,-2025,-917,581,-820,1,7,11
1.72313E+12,-7306,2186,-2011,-1398,218,-391,1,7,11
1.72313E+12,-7539,2429,-1991,-1573,364,-215,1,7,11
1.72313E+12,-7510,2426,-1949,-1432,278,-317,1,7,11
1.72313E+12,-7503,2186,-2152,-1504,-58,60,1,7,11
1.72313E+12,-7498,2210,-2092,-1796,114,-108,1,7,11
1.72313E+12,-7474,2236,-1761,-1803,34,-49,1,7,11
1.72313E+12,-7462,2249,-1696,-1516,-275,-30,1,7,11
1.72313E+12,-7429,2260,-1885,-1441,-329,-42,1,7,11
1.72313E+12,-7126,2286,-1822,-1591,-351,-99,1,7,11
1.72313E+12,-7089,2284,-1513,-1229,-343,73,1,7,11
1.72313E+12,-7067,2288,-1480,-1351,-298,-272,1,7,11
1.72313E+12,-7270,2576,-1488,-950,20,-352,1,7,11
1.72313E+12,-7234,2624,-1517,-1096,-121,-179,1,7,11
1.72313E+12,-7228,2657,-1805,-1038,293,-248,1,7,11
1.72313E+12,-7265,2669,-1833,-763,198,-562,1,7,11
1.72313E+12,-7061,2661,-1866,-765,574,-611,1,7,11
1.72313E+12,-7113,2628,-1889,-1029,389,-400,1,7,11
1.72313E+12,-7168,2601,-1911,-1034,420,-437,1,7,11
1.72313E+12,-7456,2301,-1920,-1048,395,-458,1,7,11
1.72313E+12,-7502,2266,-1671,-1044,607,-472,1,7,11
1.72313E+12,-7530,2226,-1917,-1037,516,-460,1,7,11
1.72313E+12,-7300,2202,-1903,-750,158,-422,1,7,11
1.72313E+12,-7322,2184,-1892,-683,-18,-571,1,7,11
1.72313E+12,-7324,2421,-1863,-883,125,-220,1,7,11
1.72313E+12,-7326,2408,-1834,-803,21,-378,1,7,11
1.72313E+12,-7315,2392,-1800,-447,-327,-286,1,7,11
1.72313E+12,-7314,2391,-1514,-584,-141,47,1,7,11
1.72313E+12,-7308,2397,-1476,-204,-201,116,1,7,11
1.72313E+12,-7548,2421,-1450,-332,-252,-76,1,7,11
1.72313E+12,-7526,2210,-1422,43,-545,-16,1,7,11
1.72313E+12,-7501,2254,-1655,-124,-565,290,1,7,11
1.72313E+12,-7476,2567,-1647,-59,-570,332,1,7,11
1.72313E+12,-7453,2623,-1645,-35,-564,362,1,7,11
1.72313E+12,-7440,2675,-1634,-47,-545,376,1,7,11
1.72313E+12,-7431,2452,-1623,-82,-519,378,1,7,11
1.72313E+12,-7425,2472,-1602,127,-227,372,1,7,11
1.72313E+12,-7432,2480,-1584,85,-187,360,1,7,11
1.72313E+12,-7439,2482,-1559,57,-144,343,1,7,11
1.72313E+12,-7460,2484,-1537,49,-357,329,1,7,11
1.72313E+12,-7475,2477,-1276,51,-323,312,1,7,11
1.72313E+12,-7487,2463,-1267,69,-299,291,1,7,11
1.72313E+12,-7477,2458,-1267,111,-286,264,1,7,11
1.72313E+12,-7489,2462,-1272,-102,-258,-36,1,7,11
1.72313E+12,-7465,2450,-1541,-75,-260,-64,1,7,11
1.72313E+12,-7427,2433,-1546,-38,5,-99,1,7,11
1.72313E+12,-7122,2685,-1574,258,21,-119,1,7,11
1.72313E+12,-7080,2680,-1606,296,63,112,1,7,11
1.72313E+12,-7087,2453,-1618,334,122,105,1,7,11
1.72313E+12,-7124,2461,-1629,340,-86,114,1,7,11
1.72313E+12,-7429,2479,-1623,357,-77,-100,1,7,11
1.72313E+12,-7469,2472,-1616,369,-110,-36,1,7,11
1.72313E+12,-7501,2453,-1596,131,108,-14,1,7,11
1.72313E+12,-7528,2455,-1586,174,83,-6,1,7,11
1.72313E+12,-7315,2450,-1571,231,50,-12,1,7,11
1.72313E+12,-7326,2457,-1561,254,2,-25,1,7,11
1.72313E+12,-7542,2450,-1574,252,-294,-47,1,7,11
1.72313E+12,-7468,2679,-1596,231,-285,-96,1,7,11
1.72313E+12,-7150,2661,-1638,209,40,84,1,7,11
1.72313E+12,-7104,2669,-1440,174,-106,-258,1,7,11
1.72313E+12,-7077,2451,-1513,338,281,-343,1,7,11
1.72313E+12,-7113,2486,-1814,-75,168,-155,1,7,11
1.72313E+12,-7460,2509,-1828,-288,518,-175,1,7,11
1.72313E+12,-7524,2485,-1819,-522,514,-154,1,7,11
1.72313E+12,-7550,2684,-1803,-480,205,-373,1,7,11
1.72313E+12,-7547,2612,-1519,-892,143,-326,1,7,11
1.72313E+12,-7530,2293,-1500,-722,343,-278,1,7,11
1.72313E+12,-7521,2252,-1472,-747,299,30,1,7,11
1.72313E+12,-7521,2243,-1447,-720,260,93,1,7,11
1.72313E+12,-7513,2245,-1431,-659,-49,-78,1,7,11
1.72313E+12,-7501,2264,-1648,-824,-97,265,1,7,11
1.72313E+12,-7503,2560,-1622,-463,106,353,1,7,11
1.72313E+12,-7494,2587,-1598,-613,45,168,1,7,11
1.72313E+12,-7492,2613,-1577,-236,-264,218,1,7,11
1.72313E+12,-7494,2644,-1278,-368,-317,246,1,7,11
1.72313E+12,-7515,2676,-1239,25,-355,249,1,7,11
1.72313E+12,-7524,2491,-1232,-82,-141,513,1,7,11
1.72313E+12,-7486,2859,-1261,306,-162,523,1,7,11
1.72313E+12,-7166,2720,-1555,364,-135,525,1,7,11
1.72313E+12,-7109,2796,-1594,330,-315,247,1,7,11
1.72313E+12,-7069,3077,-1628,-13,33,198,1,7,11
1.72313E+12,-7295,2770,-1651,-120,-123,353,1,7,11
1.72313E+12,-7056,2723,-1647,43,-25,-43,1,7,11
1.72313E+12,-7084,2942,-1647,-283,294,73,1,7,11
1.72313E+12,-7106,2900,-1626,-354,303,-339,1,7,11
1.72313E+12,-7134,2856,-1597,-382,274,-383,1,7,11
1.72313E+12,-7154,2817,-1560,-130,-31,-383,1,7,11
1.72313E+12,-7160,2514,-1274,-370,-92,-353,1,7,11
1.72313E+12,-7135,2474,-1248,-327,99,-308,1,7,11
1.72313E+12,-7087,2457,-1245,-267,49,-270,1,7,11
1.72313E+12,-7286,2466,-1277,42,42,23,1,7,11
1.72313E+12,-7264,2500,-1567,62,101,50,1,7,11
1.72313E+12,-7275,2519,-1597,34,-75,88,1,7,11
1.72313E+12,-7294,2527,-1629,1,261,121,1,7,11
1.72313E+12,-7086,2541,-1414,-280,351,-111,1,7,11
1.72313E+12,-7153,2558,-1439,-297,176,-81,1,7,11
1.72313E+12,-7475,2833,-1450,-294,215,-41,1,7,11
1.72313E+12,-7522,2842,-1451,-280,216,257,1,7,11
1.72313E+12,-7297,2839,-1450,11,183,296,1,7,11
1.72313E+12,-7325,2850,-1463,62,379,306,1,7,11
1.72313E+12,-7341,2879,-1468,108,300,294,1,7,11
1.72313E+12,-7351,2907,-1458,-127,-40,272,1,7,11
1.72313E+12,-7350,2909,-1433,123,-127,-22,1,7,11
1.72313E+12,-7309,2902,-1409,120,49,-65,1,7,11
1.72313E+12,-7504,2876,-1641,116,2,-125,1,7,11
1.72313E+12,-7430,2851,-1620,-128,-261,63,1,7,11
1.72313E+12,-7127,2869,-1623,-109,38,-260,1,7,11
1.72313E+12,-7099,2892,-1634,-110,90,-299,1,7,11
1.72313E+12,-7087,2909,-1634,117,-121,-313,1,7,11
1.72313E+12,-7089,2907,-1632,81,-98,-310,1,7,11
1.72313E+12,-7100,2897,-1629,38,-105,-303,1,7,11
1.72313E+12,-7124,2873,-1618,0,112,-301,1,7,11
1.72313E+12,-7152,2832,-1594,-279,59,-291,1,7,11
1.72313E+12,-7147,2532,-1566,-263,-262,-274,1,7,11
1.72313E+12,-7152,2453,-1231,34,-314,-266,1,7,11
1.72313E+12,-7481,2686,-1174,113,-333,-259,1,7,11
1.72313E+12,-7348,2432,-1372,-37,-138,13,1,7,11
1.72313E+12,-7362,2443,-1345,344,-251,43,1,7,11
1.72313E+12,-7357,2478,-1277,194,-615,71,1,7,11
1.72313E+12,-7343,2510,-1002,526,-441,103,1,7,11
1.72313E+12,-7551,2550,-1011,580,-499,-115,1,7,11
1.72313E+12,-7411,2556,-1287,596,-506,-101,1,7,11
1.72313E+12,-7070,2538,-1329,585,-437,126,1,7,11
1.72313E+12,-7267,2505,-1381,536,-553,22,1,7,11
1.72313E+12,-7238,2475,-1178,222,-364,-339,1,7,11
1.72313E+12,-7235,2448,-1235,158,-27,-180,1,7,11
1.72313E+12,-7270,2450,-1552,330,199,-246,1,7,11
1.72313E+12,-7075,2479,-1608,272,631,-247,1,7,11
1.72313E+12,-7131,2506,-1650,-55,494,-182,1,7,11
1.72313E+12,-7451,2533,-1411,-123,817,-327,1,7,11
1.72313E+12,-7531,2534,-1647,78,808,74,1,7,11
1.72313E+12,-7333,2529,-1616,68,452,-16,1,7,11
1.72313E+12,-7337,2526,-1603,104,546,137,1,7,11
1.72313E+12,-7536,2544,-1609,-82,133,246,1,7,11
1.72313E+12,-7457,2837,-1623,-3,288,549,1,7,11
1.72313E+12,-7137,2888,-1625,311,-5,541,1,7,11
1.72313E+12,-7087,2925,-1627,338,-8,231,1,7,11
1.72313E+12,-7044,2689,-1638,334,276,139,1,7,11
1.72313E+12,-7261,2699,-1409,307,329,275,1,7,11
1.72313E+12,-7236,2691,-1452,262,165,-126,1,7,11
1.72313E+12,-7236,2942,-1503,-48,543,-268,1,7,11
1.72313E+12,-7265,2924,-1796,-115,413,-382,1,7,11
1.72313E+12,-7047,2911,-1840,81,771,-200,1,7,11
1.72313E+12,-7082,2874,-1873,14,829,-239,1,7,11
1.72313E+12,-7104,2828,-1917,-301,862,-256,1,7,11
1.72313E+12,-7093,2517,-1695,-334,866,-256,1,7,11
1.72313E+12,-7073,2468,-1739,-347,865,-513,1,7,11
1.72313E+12,-7067,2681,-1780,-342,869,-513,1,7,11
1.72313E+12,-7066,2651,-2075,-313,863,-252,1,7,11
1.72313E+12,-7083,2631,-2097,-271,848,-232,1,7,11
1.72313E+12,-7101,2608,-2113,37,799,-187,1,7,11
1.72313E+12,-7101,2573,-2115,114,470,-131,1,7,11
1.72313E+12,-7124,2563,-2118,-29,402,-318,1,7,11
1.72313E+12,-7137,2575,-2135,357,573,20,1,7,11
1.72313E+12,-7136,2603,-2128,237,226,116,1,7,11
1.72313E+12,-7123,2648,-2133,615,137,-43,1,7,11
1.72313E+12,-7089,2439,-2135,457,311,289,1,7,11
1.72313E+12,-7048,2486,-2137,780,-8,322,1,7,11
1.72313E+12,-7276,2538,-2151,808,-46,314,1,7,11
1.72313E+12,-7251,2881,-2172,780,-72,276,1,7,11
1.72313E+12,-7226,2897,-1926,434,-85,-45,1,7,11
1.72313E+12,-7197,2889,-1948,563,-82,-126,1,7,11
1.72313E+12,-6900,2862,-1982,165,-63,-29,1,7,11
1.72313E+12,-6912,2825,-2009,257,21,-169,1,7,11
1.72313E+12,-7229,2523,-2027,-262,323,-555,1,7,11
1.72313E+12,-7295,2474,-2038,-174,337,-409,1,7,11
1.72313E+12,-7115,2669,-2024,-580,330,-476,1,7,11
1.72313E+12,-7453,2592,-1974,-430,288,-486,1,7,11
1.72313E+12,-7524,2262,-2161,-481,-37,-441,1,7,11
1.72313E+12,-7549,2193,-2092,-476,114,-611,1,7,11
1.72313E+12,-7500,2361,-1786,-432,4,-528,1,7,11
1.72313E+12,-7447,2047,-1749,-582,-299,-216,1,7,11
1.72313E+12,-7120,2014,-1738,-194,-306,-182,1,7,11
1.72313E+12,-7072,2031,-1743,-304,1,-172,1,7,11
1.72313E+12,-7079,2338,-1753,67,84,-161,1,7,11
1.72313E+12,-7105,2385,-1775,122,-127,-131,1,7,11
1.72313E+12,-7126,2417,-2050,-125,-114,-356,1,7,11
1.72313E+12,-7121,2431,-2087,115,-119,-337,1,7,11
1.72313E+12,-7098,2176,-2112,90,-109,-335,1,7,11
1.72313E+12,-7109,2181,-2123,67,-64,-341,1,7,11
1.72313E+12,-7129,2181,-2110,35,-46,-332,1,7,11
1.72313E+12,-7131,2417,-2087,16,-43,-313,1,7,11
1.72313E+12,-7136,2406,-2073,25,-53,-283,1,7,11
1.72313E+12,-7116,2385,-2069,57,-77,7,1,7,11
1.72313E+12,-7081,2389,-2094,125,-79,36,1,7,11
1.72313E+12,-7294,2180,-2126,-59,-50,67,1,7,11
1.72313E+12,-7292,2229,-2156,272,279,126,1,7,11
1.72313E+12,-7051,2286,-1952,284,307,-98,1,7,11
1.72313E+12,-7053,2572,-1991,257,303,-81,1,7,11
1.72313E+12,-7089,2607,-2022,-46,291,-88,1,7,11
1.72313E+12,-7107,2627,-2037,-119,-6,-104,1,7,11
1.72313E+12,-7129,2630,-2035,56,-60,126,1,7,11
1.72313E+12,-7161,2640,-2024,-286,-122,95,1,7,11
1.72313E+12,-7441,2620,-1989,-382,47,70,1,7,11
1.72313E+12,-7453,2576,-1948,-206,-305,46,1,7,11
1.72313E+12,-7448,2282,-2166,-255,-129,11,1,7,11
1.72313E+12,-7434,2243,-2109,-542,-186,-282,1,7,11
1.72313E+12,-7163,2198,-2068,-559,-212,-321,1,7,11
1.72313E+12,-7157,2424,-1765,-559,-216,-342,1,7,11
1.72313E+12,-7157,2385,-1722,-547,-203,-351,1,7,11
1.72313E+12,-7165,2374,-1695,-247,-171,-341,1,7,11
1.72313E+12,-7441,2376,-1919,-208,-136,-314,1,7,11
1.72313E+12,-7471,2378,-1893,-167,-361,-269,1,7,11
1.72313E+12,-7488,2386,-1866,-372,-342,41,1,7,11
1.72313E+12,-7490,2395,-1845,-308,-338,109,1,7,11
1.72313E+12,-7457,2417,-1831,21,-334,-75,1,7,11
1.72313E+12,-7159,2179,-1829,85,-312,-18,1,7,11
1.72313E+12,-7138,2199,-1830,-113,-266,276,1,7,11
1.72313E+12,-7112,2229,-1851,-61,26,299,1,7,11
1.72313E+12,-7073,2264,-1875,-30,59,292,1,7,11
1.72313E+12,-7043,2562,-1904,-34,97,263,1,7,11
1.72313E+12,-7266,2585,-1694,-79,-119,-41,1,7,11
1.72313E+12,-7042,2606,-1718,106,-60,-110,1,7,11
1.72313E+12,-7078,2618,-1752,9,-40,106,1,7,11
1.72313E+12,-7080,2589,-1769,-351,-41,78,1,7,11
1.72313E+12,-7102,2574,-1784,-166,-18,73,1,7,11
1.72313E+12,-7117,2301,-1788,-199,261,92,1,7,11
1.72313E+12,-7124,2300,-2058,-180,282,-87,1,7,11
1.72313E+12,-7127,2565,-2056,-129,291,-19,1,7,11
1.72313E+12,-7148,2571,-2049,-327,283,295,1,7,11
1.72313E+12,-7439,2597,-1785,6,-16,338,1,7,11
1.72313E+12,-7432,2609,-1768,121,-103,361,1,7,11
1.72313E+12,-7156,2639,-1756,-50,76,359,1,7,11
1.72313E+12,-7144,2673,-1750,279,16,339,1,7,11
1.72313E+12,-7123,2449,-1736,334,-280,308,1,7,11
1.72313E+12,-7111,2482,-1724,354,-301,271,1,7,11
1.72313E+12,-7079,2494,-1713,371,-306,-27,1,7,11
1.72313E+12,-7046,2499,-1712,355,-280,-85,1,7,11
1.72313E+12,-7044,2504,-1723,315,21,100,1,7,11
1.72313E+12,-7046,2493,-1722,-16,51,29,1,7,11
1.72313E+12,-7056,2476,-1726,-105,97,-297,1,7,11
1.72313E+12,-7078,2449,-1731,46,-112,-352,1,7,11
1.72313E+12,-7106,2664,-1737,-309,-73,-135,1,7,11
1.72313E+12,-7127,2621,-1753,-131,-37,-160,1,7,11
1.72313E+12,-7141,2582,-1756,-186,-5,-163,1,7,11
1.72313E+12,-7433,2293,-1757,-213,283,-149,1,7,11
1.72313E+12,-7510,2231,-1700,-191,-20,-331,1,7,11
1.72313E+12,-7509,2199,-1675,-146,-101,-301,1,7,11
1.72313E+12,-7487,2430,-1919,-336,77,-298,1,7,11
1.72313E+12,-7467,2425,-1901,-267,16,-309,1,7,11
1.72313E+12,-7434,2415,-1888,52,-275,-322,1,7,11
1.72313E+12,-7163,2182,-1882,114,-273,-328,1,7,11
1.72313E+12,-7145,2209,-1876,-113,-261,-314,1,7,11
1.72313E+12,-7097,2189,-1877,126,-257,-299,1,7,11
1.72313E+12,-7296,2397,-1897,110,26,-310,1,7,11
1.72313E+12,-7276,2374,-1688,120,114,-341,1,7,11
1.72313E+12,-7059,2406,-1722,-105,-24,-346,1,7,11
1.72313E+12,-7141,2195,-1730,-93,328,-292,1,7,11
1.72313E+12,-7483,2232,-1722,-91,362,89,1,7,11
1.72313E+12,-7534,2261,-1714,-77,323,-5,1,7,11
1.72313E+12,-7535,2282,-1715,-51,-11,136,1,7,11
1.72313E+12,-7533,2568,-1706,-20,-92,217,1,7,11
1.72313E+12,-7526,2594,-1693,257,76,229,1,7,11
1.72313E+12,-7494,2632,-1685,272,-268,183,1,7,11
1.72313E+12,-7443,2671,-1680,-1,-332,345,1,7,11
1.72313E+12,-7136,2682,-1683,-54,-361,-30,1,7,11
1.72313E+12,-7108,2684,-1688,-108,-336,102,1,7,11
1.72313E+12,-7116,2679,-1671,83,-281,2,1,7,11
1.72313E+12,-7141,2648,-1893,15,22,-328,1,7,11
1.72313E+12,-7463,2543,-1853,-303,54,-136,1,7,11
1.72313E+12,-7516,2193,-1813,-343,27,-181,1,7,11
1.72313E+12,-7337,2380,-1507,-337,8,-253,1,7,11
1.72313E+12,-7381,2336,-1458,-303,-306,-551,1,7,11
1.72313E+12,-7379,2325,-1419,8,-382,-561,1,7,11
1.72313E+12,-7345,2307,-1640,55,-194,-531,1,7,11
1.72313E+12,-7546,2026,-1614,83,-239,-217,1,7,11
1.72313E+12,-7487,2002,-1598,121,-222,-144,1,7,11
1.72313E+12,-7431,1981,-1590,-63,-166,-323,1,7,11
1.72313E+12,-7099,1977,-1626,-1,-356,13,1,7,11
1.72313E+12,-7276,1967,-1427,301,5,64,1,7,11
1.72313E+12,-7246,1967,-1493,340,-107,94,1,7,11
1.72313E+12,-7239,1977,-1821,378,291,110,1,7,11
1.72313E+12,-7267,2017,-1901,167,169,-121,1,7,11
1.72313E+12,-7076,2347,-1708,209,526,-60,1,7,11
1.72313E+12,-7161,2187,-1758,240,585,308,1,7,11
1.72313E+12,-7496,2284,-1792,518,580,221,1,7,11
1.72313E+12,-7550,2615,-2063,532,254,413,1,7,11
1.72313E+12,-7341,2681,-1789,549,132,831,1,7,11
1.72313E+12,-7340,2462,-1747,568,-54,678,1,7,11
1.72313E+12,-7533,2466,-1700,602,4,693,1,7,11
1.72313E+12,-7167,2469,-1685,401,-157,873,1,7,11
1.72313E+12,-7049,2463,-1712,444,-240,454,1,7,11
1.72313E+12,-7223,2471,-1741,472,-206,240,1,7,11
1.72313E+12,-7188,2494,-1773,461,-343,283,1,7,11
1.72313E+12,-7179,2510,-2063,400,68,96,1,7,11
1.72313E+12,-7195,2510,-2116,555,-13,-321,1,7,11
1.72313E+12,-7220,2498,-2172,166,156,-186,1,7,11
1.72313E+12,-7253,2475,-1991,260,562,-546,1,7,11
1.72313E+12,-7292,2434,-2027,88,436,-635,1,7,11
1.72313E+12,-7094,2631,-2046,-332,796,-451,1,7,11
1.72313E+12,-7164,2614,-2039,-217,860,-498,1,7,11
1.72313E+12,-7487,2583,-2018,-608,859,-506,1,7,11
1.72313E+12,-7507,2274,-1971,-479,793,-495,1,7,11
1.72313E+12,-7492,2211,-1924,-851,434,-483,1,7,11
1.72313E+12,-7447,2399,-2141,-692,246,-489,1,7,11
1.72313E+12,-7083,2342,-2127,-764,187,-512,1,7,11
1.72313E+12,-7231,2031,-2149,-1068,380,-811,1,7,11
1.72313E+12,-6886,2006,-1931,-1102,182,-876,1,7,11
1.72313E+12,-6851,1999,-1988,-1130,556,-674,1,7,11
1.72313E+12,-6902,2009,-2045,-1144,441,-707,1,7,11
1.72313E+12,-7271,2029,-2345,-1152,795,-678,1,7,11
1.72313E+12,-7117,2314,-2376,-1147,804,-849,1,7,11
1.72313E+12,-7481,2339,-2392,-1116,504,-470,1,7,11
1.72313E+12,-7333,2362,-2372,-1069,402,-567,1,7,11
1.72313E+12,-7401,2364,-2324,-765,228,-139,1,7,11
1.72313E+12,-7399,2337,-2026,-691,269,21,1,7,11
1.72313E+12,-7341,2304,-1992,-853,69,125,1,7,11
1.72313E+12,-7539,2027,-1960,-483,-330,-90,1,7,11
1.72313E+12,-7473,2028,-1922,-622,-171,-94,1,7,11
1.72313E+12,-7428,2047,-2143,-523,-220,126,1,7,11
1.72313E+12,-7161,2312,-2117,-198,-240,73,1,7,11
1.72313E+12,-7163,2308,-2096,-161,-514,5,1,7,11
1.72313E+12,-7157,2040,-2088,-133,-522,-330,1,7,11
1.72313E+12,-7147,2015,-2081,-375,-248,-152,1,7,11
1.72313E+12,-7155,1985,-2078,-361,-205,-216,1,7,11
1.72313E+12,-7166,1959,-2073,-341,-153,-253,1,7,11
1.72313E+12,-7446,1934,-2063,-323,-360,-522,1,7,11
1.72313E+12,-7484,2169,-1773,-297,-331,-246,1,7,11
1.72313E+12,-7514,2151,-1751,-265,-346,-192,1,7,11
1.72313E+12,-7517,2141,-1737,27,-136,-378,1,7,11
1.72313E+12,-7518,2148,-1722,68,-181,-293,1,7,11
1.72313E+12,-7521,2159,-1718,104,-209,49,1,7,11
1.72313E+12,-7542,1935,-1697,-114,-232,-110,1,7,11
1.72313E+12,-7299,1981,-1676,-85,-519,-9,1,7,11
1.72313E+12,-7322,2029,-1908,-68,-543,348,1,7,11
1.72313E+12,-7310,2326,-1868,-68,-578,187,1,7,11
1.72313E+12,-7542,2375,-1860,-74,-599,251,1,7,11
1.72313E+12,-7502,2180,-1857,-101,-605,530,1,7,11
1.72313E+12,-7483,2216,-1851,121,-574,249,1,7,11
1.72313E+12,-7434,2228,-1838,55,-525,177,1,7,11
1.72313E+12,-7164,2246,-1829,36,-207,365,1,7,11
1.72313E+12,-7163,2266,-1826,19,-137,301,1,7,11
1.72313E+12,-7425,2277,-1813,12,-333,-9,1,7,11
1.72313E+12,-7157,2266,-1796,5,-293,-52,1,7,11
1.72313E+12,-7099,2223,-1801,4,-263,-98,1,7,11
1.72313E+12,-7062,2176,-1809,27,63,92,1,7,11
1.72313E+12,-7067,2410,-1830,79,-97,30,1,7,11
1.72313E+12,-7086,2408,-1843,-122,-23,-267,1,7,11
1.72313E+12,-7128,2417,-1847,-78,285,-275,1,7,11
1.72313E+12,-7158,2426,-1875,-59,288,11,1,7,11
1.72313E+12,-7447,2424,-1895,-49,268,48,1,7,11
1.72313E+12,-7480,2194,-1917,-38,-17,97,1,7,11
1.72313E+12,-7505,2219,-1668,-47,-63,-107,1,7,11
1.72313E+12,-7529,2245,-1667,-78,-125,-52,1,7,11
1.72313E+12,-7528,2240,-1917,-127,53,-12,1,7,11
1.72313E+12,-7513,2231,-1909,95,-278,-5,1,7,11
1.72313E+12,-7500,2222,-1906,68,-328,-37,1,7,11
1.72313E+12,-7496,2225,-1905,50,-352,-76,1,7,11
1.72313E+12,-7512,2232,-1899,28,-350,-107,1,7,11
1.72313E+12,-7532,2243,-1899,13,-345,-110,1,7,11
1.72313E+12,-7309,2252,-1887,2,-340,-98,1,7,11
1.72313E+12,-7333,2254,-1861,-263,-352,-72,1,7,11
1.72313E+12,-7343,2257,-1832,-257,-380,-49,1,7,11
1.72313E+12,-7344,2236,-1802,11,-170,-41,1,7,11
1.72313E+12,-7353,2227,-1502,41,-217,-61,1,7,11
1.72313E+12,-7351,2221,-1458,75,-533,-93,1,7,11
1.72313E+12,-7341,2210,-1660,99,-600,114,1,7,11
1.72313E+12,-7325,2187,-1615,110,-397,48,1,7,11
1.72313E+12,-7550,2425,-1583,117,-450,-280,1,7,11
1.72313E+12,-7523,2410,-1552,91,-475,-375,1,7,11
1.72313E+12,-7447,2390,-1561,24,-487,-252,1,7,11
1.72313E+12,-7425,2380,-1574,-373,-410,-591,1,7,11
1.72313E+12,-7425,2372,-1588,-233,-563,-628,1,7,11
1.72313E+12,-7437,2330,-1594,-596,-206,-621,1,7,11
1.72313E+12,-7425,1999,-1602,-429,-365,-584,1,7,11
1.72313E+12,-7471,2172,-1611,-452,22,-542,1,7,11
1.72313E+12,-7336,2159,-1609,-396,-117,-220,1,7,11
1.72313E+12,-7701,1930,-1591,-569,-83,-355,1,7,11
1.72313E+12,-7761,1994,-1572,-212,-106,86,1,7,11
1.72313E+12,-7785,2304,-1278,-373,95,315,1,7,11
1.72313E+12,-7796,2348,-1245,-261,23,551,1,7,11
1.72313E+12,-7770,2386,-1205,119,-346,499,1,7,11
1.72313E+12,-7728,2176,-1170,261,-192,885,1,7,11
1.72313E+12,-7688,2250,-1157,145,-540,681,1,7,11
1.72313E+12,-7371,2603,-1400,518,-612,643,1,7,11
1.72313E+12,-7337,2450,-1398,580,-405,796,1,7,11
1.72313E+12,-7542,2527,-1388,566,-436,397,1,7,11
1.72313E+12,-7523,2849,-1370,242,-419,229,1,7,11
1.72313E+12,-7522,2876,-1351,373,-399,321,1,7,11
1.72313E+12,-7508,2848,-1317,-46,-385,-102,1,7,11
1.72313E+12,-7500,2524,-1293,29,-621,-271,1,7,11
1.72313E+12,-7442,2664,-1297,-149,-592,-196,1,7,11
1.72313E+12,-7143,2230,-1346,-562,-239,-393,1,7,11
1.72313E+12,-7131,2401,-1382,-502,17,-893,1,7,11
1.72313E+12,-7443,2337,-1397,-869,-34,-715,1,7,11
1.72313E+12,-7299,2039,-1390,-698,141,-690,1,7,11
1.72313E+12,-7403,2001,-1373,-752,240,-829,1,7,11
1.72313E+12,-7748,1956,-1349,-760,523,-387,1,7,11
1.72313E+12,-7784,2157,-1310,-724,232,-173,1,7,11
1.72313E+12,-7560,2101,-1015,-883,170,29,1,7,11
1.72313E+12,-7572,2083,-982,-468,336,-41,1,7,11
1.72313E+12,-7563,2119,-960,-522,-19,379,1,7,11
1.72313E+12,-7793,1938,-946,-311,-110,534,1,7,11
1.72313E+12,-7739,2036,-945,-120,68,420,1,7,11
1.72313E+12,-7423,2391,-954,294,26,774,1,7,11
1.72313E+12,-7377,2227,-953,160,11,818,1,7,11
1.72313E+12,-7322,2565,-963,247,11,797,1,7,11
1.72313E+12,-7536,2654,-981,549,37,453,1,7,11
1.72313E+12,-7495,2477,-1021,540,83,584,1,7,11
1.72313E+12,-7453,2536,-1330,221,-101,180,1,7,11
1.72313E+12,-7448,2848,-1384,374,263,295,1,7,11
1.72313E+12,-7459,2887,-1172,-34,370,-79,1,7,11
1.72313E+12,-7462,2895,-1223,39,197,87,1,7,11
1.72313E+12,-7476,2871,-1245,-150,532,5,1,7,11
1.72313E+12,-7527,2825,-1239,-581,584,-321,1,7,11
1.72313E+12,-7349,2505,-1217,-476,582,-131,1,7,11
1.72313E+12,-7405,2687,-1179,-846,246,-175,1,7,11
1.72313E+12,-7689,2615,-1405,-648,133,-217,1,7,11
1.72313E+12,-7684,2566,-1381,-678,260,-246,1,7,11
1.72313E+12,-7406,2266,-1361,-704,-106,-526,1,7,11
1.72313E+12,-7328,2217,-1376,-726,66,-536,1,7,11
1.72313E+12,-7507,2423,-1396,-722,80,-562,1,7,11
1.72313E+12,-7530,2402,-1404,-704,-82,-583,1,7,11
1.72313E+12,-7322,2376,-1158,-681,-15,-573,1,7,11
1.72313E+12,-7349,2337,-1408,-650,275,-545,1,7,11
1.72313E+12,-7377,2017,-1384,-881,292,-232,1,7,11
1.72313E+12,-7396,1972,-1356,-714,279,-200,1,7,11
1.72313E+12,-7385,1975,-1348,-530,260,-150,1,7,11
1.72313E+12,-7332,2002,-1355,-325,-2,-327,1,7,11
1.72313E+12,-7519,2035,-1376,-119,281,26,1,7,11
1.72313E+12,-7481,2351,-1153,353,342,-116,1,7,11
1.72313E+12,-7501,2188,-1185,569,149,276,1,7,11
1.72313E+12,-7492,2297,-1246,490,149,188,1,7,11
1.72313E+12,-7446,2635,-1567,870,128,596,1,7,11
1.72313E+12,-7460,2464,-1624,693,132,450,1,7,11
1.72313E+12,-7525,2541,-1419,726,346,769,1,7,11
1.72313E+12,-7302,2866,-1431,715,-19,786,1,7,11
1.72313E+12,-7313,2890,-1428,655,125,486,1,7,11
1.72313E+12,-7347,2895,-1658,830,3,409,1,7,11
1.72313E+12,-7338,2864,-1641,484,-375,546,1,7,11
1.72313E+12,-7341,2849,-1631,411,-195,139,1,7,11
1.72313E+12,-7379,2850,-1617,581,-230,-1,1,7,11
1.72313E+12,-7684,2851,-1578,215,-513,-114,1,7,11
1.72313E+12,-7723,2846,-1275,352,-551,73,1,7,11
1.72313E+12,-7741,2852,-1244,-8,-588,27,1,7,11
1.72313E+12,-7697,2863,-1232,-115,-633,13,1,7,11
1.72313E+12,-7364,2855,-1221,20,-638,-271,1,7,11
1.72313E+12,-7549,2817,-1188,-370,-600,-331,1,7,11
1.72313E+12,-7473,2667,-1177,-245,-558,-169,1,7,11
1.72313E+12,-7144,2294,-1168,-617,-186,-402,1,7,11
1.72313E+12,-7163,2214,-1155,-596,-341,-786,1,7,11
1.72313E+12,-7458,2409,-1387,-524,0,-859,1,7,11
1.72313E+12,-7515,2351,-1340,-153,52,-849,1,7,11
1.72313E+12,-7314,2039,-1022,0,44,-782,1,7,11
1.72313E+12,-7355,1951,-952,-80,-296,-450,1,7,11
1.72313E+12,-7354,2147,-898,158,-167,-438,1,7,11
1.72313E+12,-7357,2140,-1133,418,-567,-773,1,7,11
1.72313E+12,-7344,2135,-1143,886,-475,-697,1,7,11
1.72313E+12,-7336,2139,-914,1077,-851,-951,1,7,11
1.72313E+12,-7361,1931,-947,1019,-655,-1248,1,7,11
1.72313E+12,-7410,2308,-985,1209,-692,-1506,1,7,11
1.72313E+12,-7721,2423,-1022,1560,-725,-1665,1,7,11
1.72313E+12,-7766,2223,-1321,1537,-750,-1700,1,7,11
1.72313E+12,-7559,2215,-1354,1160,-756,-1892,1,7,11
1.72313E+12,-7610,2422,-1381,999,-722,-1504,1,7,11
1.72313E+12,-7676,2351,-1390,1065,-679,-1585,1,7,11
1.72313E+12,-7977,1999,-1370,847,-653,-1393,1,7,11
1.72313E+12,-8002,2149,-1340,631,-643,-950,1,7,11
1.72313E+12,-8007,1787,-1300,168,-656,-1036,1,7,11
1.72313E+12,-8006,1665,-1007,-36,-691,-895,1,7,11
1.72313E+12,-7982,1792,-958,58,-732,-770,1,7,11
1.72313E+12,-7968,1441,-905,-276,-738,-391,1,7,11
1.72313E+12,-7954,1645,-1100,-314,-731,-248,1,7,11
1.72313E+12,-7955,1595,-763,-327,-722,-347,1,7,11
1.72313E+12,-7940,1561,-693,-297,-729,81,1,7,11
1.72313E+12,-7953,1554,-847,2,-732,-21,1,7,11
1.72313E+12,-7977,1552,-486,70,-760,372,1,7,11
1.72313E+12,-7967,1578,-398,-102,-1075,212,1,7,11
1.72313E+12,-7663,1592,-577,-31,-1138,512,1,7,11
1.72313E+12,-7565,1600,-525,305,-910,240,1,7,11
1.72313E+12,-7770,1643,-226,161,-1079,156,1,7,11
1.72313E+12,-7738,1458,-228,250,-702,319,1,7,11
1.72313E+12,-7709,1551,-256,548,-814,-31,1,7,11
1.72313E+12,-7703,1842,-568,481,-538,-125,1,7,11
1.72313E+12,-7754,1860,-623,369,-319,101,1,7,11
1.72313E+12,-7564,1843,-428,-42,-119,94,1,7,11
1.72313E+12,-7659,1819,-470,62,340,90,1,7,11
1.72313E+12,-8021,1533,-496,-346,248,109,1,7,11
1.72313E+12,-7836,1500,-780,-225,612,-112,1,7,11
1.72313E+12,-7872,1469,-789,-580,442,-66,1,7,11
1.72313E+12,-7875,1454,-792,-628,768,-6,1,7,11
1.72313E+12,-7853,1465,-785,-615,838,307,1,7,11
1.72313E+12,-8053,1499,-784,-578,891,363,1,7,11
1.72313E+12,-7965,1519,-793,-537,673,148,1,7,11
1.72313E+12,-7617,1797,-820,-226,729,162,1,7,11
1.72313E+12,-7783,1834,-856,-169,1056,142,1,7,11
1.72313E+12,-7718,1878,-653,-133,1144,344,1,7,11
1.72313E+12,-7414,1669,-719,-138,970,281,1,7,11
1.72313E+12,-7359,1697,-1051,-193,1295,-40,1,7,11
1.72313E+12,-7323,1698,-1150,-544,1385,-103,1,7,11
1.72313E+12,-7338,1688,-992,-407,1246,102,1,7,11
1.72313E+12,-7371,1679,-1338,-786,1619,88,1,7,11
1.72313E+12,-7413,1668,-1166,-659,1461,-126,1,7,11
1.72313E+12,-7711,1667,-1230,-761,1819,-32,1,7,11
1.72313E+12,-7790,1724,-1548,-1077,1901,135,1,7,11
1.72313E+12,-7606,1781,-1594,-904,1915,613,1,7,11
1.72313E+12,-7653,2075,-1620,-984,1864,871,1,7,11
1.72313E+12,-7937,2087,-1644,-1316,1503,1110,1,7,11
1.72313E+12,-7663,2094,-1661,-1365,1594,1296,1,7,11
1.72313E+12,-7616,2096,-1437,-1369,1166,1378,1,7,11
1.72313E+12,-7591,2128,-1461,-1307,1021,1373,1,7,11
1.72313E+12,-7559,1949,-1503,-950,1134,1316,1,7,11
1.72313E+12,-7798,2311,-1522,-1092,748,979,1,7,11
1.72313E+12,-7772,2200,-1515,-736,865,911,1,7,11
1.72313E+12,-7756,2238,-1493,-678,464,1105,1,7,11
1.72313E+12,-7708,2244,-1467,-882,563,1045,1,7,11
1.72313E+12,-7416,2250,-1443,-802,151,703,1,7,11
1.72313E+12,-7388,2242,-1662,-460,262,780,1,7,11
1.72313E+12,-7383,2233,-1617,-639,-125,387,1,7,11
1.72313E+12,-7391,2219,-1565,-556,16,529,1,7,11
1.72313E+12,-7397,2191,-1253,-208,-357,197,1,7,11
1.72313E+12,-7381,2424,-1199,-344,-281,164,1,7,11
1.72313E+12,-7360,2431,-1162,73,-626,180,1,7,11
1.72313E+12,-7337,2191,-1398,74,-448,227,1,7,11
1.72313E+12,-7541,2185,-1403,221,-770,536,1,7,11
1.72313E+12,-7498,2428,-1177,616,-811,580,1,7,11
1.72313E+12,-7481,2409,-1204,480,-819,592,1,7,11
1.72313E+12,-7499,2415,-1243,854,-812,590,1,7,11
1.72313E+12,-7519,2214,-1276,708,-816,583,1,7,11
1.72313E+12,-7321,2586,-1278,1032,-813,588,1,7,11
1.72313E+12,-7682,2440,-1228,1025,-846,630,1,7,11
1.72313E+12,-7758,2504,-1393,696,-710,446,1,7,11
1.72313E+12,-7792,2519,-1023,882,-1128,491,1,7,11
1.72313E+12,-7766,2523,-902,844,-1302,503,1,7,11
1.72313E+12,-7403,2530,-1067,842,-1184,462,1,7,11
1.72313E+12,-7546,2550,-743,846,-1219,627,1,7,11
1.72313E+12,-7444,2832,-695,836,-1156,521,1,7,11
1.72313E+12,-7114,2860,-669,812,-1010,154,1,7,11
1.72313E+12,-7071,2878,-673,499,-1073,303,1,7,11
1.72313E+12,-7057,2877,-686,405,-863,-45,1,7,11
1.72313E+12,-7056,2863,-734,544,-392,124,1,7,11
1.72313E+12,-7060,2855,-1042,161,-168,51,1,7,11
1.72313E+12,-7089,2857,-1097,279,64,-259,1,7,11
1.72313E+12,-7136,2878,-1148,-124,275,-270,1,7,11
1.72313E+12,-7449,2899,-926,-260,198,20,1,7,11
1.72313E+12,-7503,2690,-943,-365,585,104,1,7,11
1.72313E+12,-7541,2745,-950,-194,405,-40,1,7,11
1.72313E+12,-7305,2787,-940,-533,418,340,1,7,11
1.72313E+12,-7319,2810,-911,-610,390,173,1,7,11
1.72313E+12,-7321,2814,-1127,-421,576,203,1,7,11
1.72313E+12,-7315,2807,-1061,-465,232,158,1,7,11
1.72313E+12,-7541,2795,-1032,-488,139,308,1,7,11
1.72313E+12,-7507,2785,-1028,-506,337,-99,1,7,11
1.72313E+12,-7455,2768,-1046,-793,316,-261,1,7,11
1.72313E+12,-7129,2699,-1108,-829,349,-169,1,7,11
1.72313E+12,-7059,2916,-930,-868,211,-577,1,7,11
1.72313E+12,-7059,2889,-995,-658,404,-445,1,7,11
1.72313E+12,-7137,2882,-1301,-708,876,-789,1,7,11
1.72313E+12,-7507,2890,-1329,-1027,1101,-777,1,7,11
1.72313E+12,-7356,2879,-1331,-1135,1136,-463,1,7,11
1.72313E+12,-7688,2847,-1322,-934,1095,-393,1,7,11
1.72313E+12,-7721,2543,-1315,-972,729,-585,1,7,11
1.72313E+12,-7417,2469,-1302,-989,843,-565,1,7,11
1.72313E+12,-7375,2648,-1282,-973,478,-595,1,7,11
1.72313E+12,-7543,2566,-1285,-943,629,-409,1,7,11
1.72313E+12,-7474,2244,-1305,-1143,594,-771,1,7,11
1.72313E+12,-7453,2227,-1341,-1062,625,-863,1,7,11
1.72313E+12,-7452,2251,-1388,-720,436,-649,1,7,11
1.72313E+12,-7470,2298,-1173,-646,776,-866,1,7,11
1.72313E+12,-7496,2574,-1194,-853,843,-500,1,7,11
1.72313E+12,-7321,2279,-1216,-465,893,-194,1,7,11
1.72313E+12,-7362,2237,-1219,-605,851,-327,1,7,11
1.72313E+12,-7387,2205,-1229,-193,775,8,1,7,11
1.72313E+12,-7683,2219,-1250,0,437,58,1,7,11
1.72313E+12,-7696,2271,-1276,-75,588,115,1,7,11
1.72313E+12,-7684,2587,-1555,331,217,-80,1,7,11
1.72313E+12,-7376,2650,-1592,180,362,-26,1,7,11
1.72313E+12,-7312,2435,-1627,228,285,-17,1,7,11
1.72313E+12,-7533,2469,-1645,242,-10,-42,1,7,11
1.72313E+12,-7518,2466,-1637,211,-42,-104,1,7,11
1.72313E+12,-7298,2449,-1627,162,-68,62,1,7,11
1.72313E+12,-7314,2651,-1618,351,127,-282,1,7,11
1.72313E+12,-7333,2593,-1597,314,80,-374,1,7,11
1.72313E+12,-7373,2295,-1572,296,43,-187,1,7,11
1.72313E+12,-7390,2244,-1543,287,-265,-219,1,7,11
1.72313E+12,-7395,2204,-1262,305,-314,-217,1,7,11
1.72313E+12,-7387,2181,-1236,333,-353,-189,1,7,11
1.72313E+12,-7384,2423,-1219,353,-132,-148,1,7,11
1.72313E+12,-7353,2409,-1201,375,-170,-350,1,7,11
1.72313E+12,-7333,2405,-1197,139,-197,-292,1,7,11
1.72313E+12,-7314,2401,-1199,143,-215,21,1,7,11
1.72313E+12,-7552,2389,-1202,147,-216,66,1,7,11
1.72313E+12,-7312,2376,-1181,161,-196,107,1,7,11
1.72313E+12,-7381,2331,-1342,201,-183,-108,1,7,11
1.72313E+12,-7798,2007,-1293,612,-227,-14,1,7,11
1.72313E+12,-7719,1971,-1324,652,-430,149,1,7,11
1.72313E+12,-7412,2049,-1386,1015,-788,516,1,7,11
1.72313E+12,-7359,2398,-1183,1607,-843,385,1,7,11
1.72313E+12,-7315,2284,-1215,1890,-852,471,1,7,11
1.72313E+12,-7547,2435,-1249,2093,-832,793,1,7,11
1.72313E+12,-7512,2546,-1270,2158,-825,806,1,7,11
1.72313E+12,-7475,2847,-1266,1755,-827,466,1,7,11
1.72313E+12,-7478,2840,-1253,1821,-806,563,1,7,11
1.72313E+12,-7495,2837,-1230,1606,-784,360,1,7,11
1.72313E+12,-7509,2839,-1196,1369,-509,-114,1,7,11
1.72313E+12,-7304,2855,-1403,1121,-468,-306,1,7,11
1.72313E+12,-7333,2862,-1338,857,-452,-169,1,7,11
1.72313E+12,-7334,2843,-1008,602,-446,-233,1,7,11
1.72313E+12,-7313,2523,-972,357,-447,-517,1,7,11
1.72313E+12,-7487,2663,-986,123,-438,-554,1,7,11
1.72313E+12,-7108,2270,-1286,-332,-604,-639,1,7,11
1.72313E+12,-7272,2421,-1336,-220,-146,-509,1,7,11
1.72313E+12,-7059,2367,-1365,-596,-122,-896,1,7,11
1.72313E+12,-7425,2335,-1386,-475,355,-713,1,7,11
1.72313E+12,-7306,2042,-1402,-850,243,-712,1,7,11
1.72313E+12,-7699,2015,-1406,-663,573,-891,1,7,11
1.72313E+12,-7790,1986,-1172,-682,584,-488,1,7,11
1.72313E+12,-7605,1977,-1183,-874,587,-538,1,7,11
1.72313E+12,-7660,1974,-1172,-774,565,-293,1,7,11
1.72313E+12,-7670,1966,-1396,-635,255,-36,1,7,11
1.72313E+12,-7680,1976,-1352,-189,175,201,1,7,11
1.72313E+12,-7642,2004,-1325,19,305,395,1,7,11
1.72313E+12,-7786,2040,-1308,-32,-87,510,1,7,11
1.72313E+12,-7415,2375,-1321,170,87,793,1,7,11
1.72313E+12,-7551,2221,-1357,584,57,506,1,7,11
1.72313E+12,-7434,2590,-1155,405,76,426,1,7,11
1.72313E+12,-7074,2671,-1207,626,-111,564,1,7,11
1.72313E+12,-7263,2675,-1251,249,260,147,1,7,11
1.72313E+12,-7288,2656,-1546,353,160,-46,1,7,11
1.72313E+12,-7065,2598,-1600,-72,532,27,1,7,11
1.72313E+12,-7103,2302,-1645,3,384,-133,1,7,11
1.72313E+12,-7155,2271,-1430,-162,509,-254,1,7,11
1.72313E+12,-7478,2232,-1448,-571,863,-243,1,7,11
1.72313E+12,-7309,2182,-1450,-430,678,-161,1,7,11
1.72313E+12,-7728,2039,-1428,-437,817,-112,1,7,11
1.72313E+12,-7764,2003,-1432,-530,412,317,1,7,11
1.72313E+12,-7774,2000,-1444,-150,237,210,1,7,11
1.72313E+12,-7753,2307,-1468,137,311,575,1,7,11
1.72313E+12,-7734,2381,-1498,387,125,625,1,7,11
1.72313E+12,-7695,2224,-1535,846,-305,628,1,7,11
1.72313E+12,-7419,2589,-1819,708,-192,594,1,7,11
1.72313E+12,-7390,2681,-1807,736,-568,552,1,7,11
1.72313E+12,-7383,2498,-1525,697,-395,250,1,7,11
1.72313E+12,-7341,2536,-1488,849,-472,206,1,7,11
1.72313E+12,-7304,2533,-1438,454,-503,135,1,7,11
1.72313E+12,-7552,2515,-1623,551,-498,309,1,7,11
1.72313E+12,-7314,2482,-1280,381,-490,-37,1,7,11
1.72313E+12,-7336,2687,-1189,-40,-485,-123,1,7,11
1.72313E+12,-7334,2628,-1364,72,-487,66,1,7,11
1.72313E+12,-7551,2561,-1320,-300,-479,10,1,7,11
1.72313E+12,-7485,2241,-1287,-376,-427,-292,1,7,11
1.72313E+12,-7452,2205,-1007,-140,-559,-316,1,7,11
1.72313E+12,-7460,2199,-982,-376,-143,-295,1,7,11
1.72313E+12,-7507,2197,-952,-321,8,32,1,7,11
1.72313E+12,-7544,2215,-915,28,111,-116,1,7,11
1.72313E+12,-7353,2261,-899,-112,-82,-16,1,7,11
1.72313E+12,-7388,2564,-1141,-23,-89,319,1,7,11
1.72313E+12,-7402,2599,-1120,301,-128,350,1,7,11
1.72313E+12,-7367,2638,-1134,341,72,337,1,7,11
1.72313E+12,-7303,2641,-902,347,41,263,1,7,11
1.72313E+12,-7502,2606,-918,311,51,-113,1,7,11
1.72313E+12,-7478,2289,-947,-9,73,5,1,7,11
1.72313E+12,-7467,2242,-995,-54,-124,-189,1,7,11
1.72313E+12,-7478,2208,-1302,-88,-28,-531,1,7,11
1.72313E+12,-7489,2189,-1354,-121,143,-561,1,7,11
1.72313E+12,-7512,2431,-1155,108,523,-538,1,7,11
1.72313E+12,-7519,2410,-1192,71,622,-222,1,7,11
1.72313E+12,-7529,2401,-1244,64,451,-149,1,7,11
1.72313E+12,-7300,2410,-1545,62,768,-331,1,7,11
1.72313E+12,-7324,2178,-1588,51,790,7,1,7,11
1.72313E+12,-7333,2204,-1631,31,777,92,1,7,11
1.72313E+12,-7320,2223,-1417,8,487,-85,1,7,11
1.72313E+12,-7297,2241,-1466,-263,455,-17,1,7,11
1.72313E+12,-7515,2251,-1510,-264,435,290,1,7,11
1.72313E+12,-7488,2266,-1805,5,432,327,1,7,11
1.72313E+12,-7486,2295,-1827,36,440,343,1,7,11
1.72313E+12,-7505,2671,-1897,126,253,307,1,7,11
1.72313E+12,-7498,2455,-1898,114,194,282,1,7,11
1.72313E+12,-7481,2487,-1908,80,150,261,1,7,11
1.72313E+12,-7468,2523,-1912,36,135,-15,1,7,11
1.72313E+12,-7487,2551,-1888,-288,137,-35,1,7,11
1.72313E+12,-7508,2823,-1844,-369,377,-50,1,7,11
1.72313E+12,-7517,2824,-1527,-197,340,-59,1,7,11
1.72313E+12,-7497,2552,-1485,-544,284,-76,1,7,11
1.72313E+12,-7451,2516,-1458,-628,-20,-123,1,7,11
1.72313E+12,-7141,2450,-1433,-459,-46,53,1,7,11
1.72313E+12,-7098,2613,-1427,-791,-33,-329,1,7,11
1.72313E+12,-7077,2270,-1446,-840,260,-218,1,7,11
1.72313E+12,-7047,2428,-1480,-869,306,-626,1,7,11
1.72313E+12,-7074,2348,-1534,-854,142,-508,1,7,11
1.72313E+12,-7149,2328,-1803,-807,231,-839,1,7,11
1.72313E+12,-7475,2337,-1812,-485,541,-829,1,7,11
1.72313E+12,-7297,2371,-1804,-413,554,-474,1,7,11
1.72313E+12,-7402,2406,-1516,-586,521,-552,1,7,11
1.72313E+12,-7752,2187,-1471,-240,147,-314,1,7,11
1.72313E+12,-7717,2189,-1494,-164,-57,-84,1,7,11
1.72313E+12,-7368,2218,-1516,-341,57,315,1,7,11
1.72313E+12,-7543,2255,-1796,-294,-269,375,1,7,11
1.72313E+12,-7522,2578,-1796,-290,-274,357,1,7,11
1.72313E+12,-7551,2659,-1530,-328,-269,315,1,7,11
1.72313E+12,-7325,2459,-1492,-159,-280,268,1,7,11
1.72313E+12,-7348,2485,-1446,-515,-302,262,1,7,11
1.72313E+12,-7333,2490,-1637,-600,-338,259,1,7,11
1.72313E+12,-7548,2478,-1577,-429,-344,-22,1,7,11
1.72313E+12,-7489,2459,-1273,-463,-336,-79,1,7,11
1.72313E+12,-7151,2440,-1242,-489,-312,83,1,7,11
1.72313E+12,-7071,2682,-1228,-774,14,-302,1,7,11
1.72313E+12,-7260,2686,-1259,-836,123,-204,1,7,11
1.72313E+12,-7197,2442,-1585,-689,-9,-631,1,7,11
1.72313E+12,-6889,2470,-1417,-1107,154,-802,1,7,11
1.72313E+12,-6893,2505,-1497,-1323,611,-682,1,7,11
1.72313E+12,-7227,2538,-1796,-1586,811,-748,1,7,11
1.72313E+12,-7092,2539,-1793,-1866,699,-735,1,7,11
1.72313E+12,-7496,2498,-1490,-2107,767,-651,1,7,11
1.72313E+12,-7364,2681,-1418,-2003,737,-507,1,7,11
1.72313E+12,-7706,2299,-1518,-2034,885,-605,1,7,11
1.72313E+12,-7786,2424,-1199,-2157,484,-202,1,7,11
1.72313E+12,-7734,1988,-1171,-1875,523,-309,1,7,11
1.72313E+12,-7381,1938,-1186,-1203,375,28,1,7,11
1.72313E+12,-7508,1951,-1204,-714,318,90,1,7,11
1.72313E+12,-7484,2620,-1651,1140,121,-337,1,7,11
1.72313E+12,-7191,2454,-2059,-245,876,-521,1,7,11
1.72313E+12,-7251,2448,-2133,-501,701,-570,1,7,11
1.72313E+12,-7056,2461,-1960,-736,744,-612,1,7,11
1.72313E+12,-7130,2480,-2322,-943,743,-395,1,7,11
1.72313E+12,-7486,2553,-2426,-1356,714,-428,1,7,11
1.72313E+12,-7323,2905,-2284,-1266,884,-431,1,7,11
1.72313E+12,-7349,2739,-2621,-1446,488,-422,1,7,11
1.72313E+12,-7368,2810,-2639,-1900,603,-418,1,7,11
1.72313E+12,-7372,3086,-2594,-2097,178,-421,1,7,11
1.72313E+12,-7373,2802,-2246,-1999,-11,-437,1,7,11
1.72313E+12,-7365,2734,-2383,-2359,51,-479,1,7,11
1.72313E+12,-7329,2902,-1990,-2393,-157,-790,1,7,11
1.72313E+12,-7489,2551,-2140,-2359,-590,-873,1,7,11
1.72313E+12,-7121,2453,-2071,-2033,-426,-725,1,7,11
1.72313E+12,-7259,2590,-1758,-1956,-422,-1118,1,7,11
1.72313E+12,-7173,2220,-1698,-2124,-560,-1284,1,7,11
1.72313E+12,-6903,2369,-1895,-1790,-376,-1200,1,7,11
1.72313E+12,-6902,1980,-1835,-1738,57,-1611,1,7,11
1.72313E+12,-7189,2104,-1528,-1681,-24,-1485,1,7,11
1.72313E+12,-7242,1743,-1481,-1869,135,-1826,1,7,11
1.72313E+12,-7064,1912,-1412,-1821,253,-1861,1,7,11
1.72313E+12,-7126,1825,-1642,-1526,584,-1828,1,7,11
1.72313E+12,-7435,1501,-1640,-1470,636,-1468,1,7,11
1.72313E+12,-7481,1504,-1637,-1624,409,-1193,1,7,11
1.72313E+12,-7532,1816,-1644,-1549,420,-979,1,7,11
1.72313E+12,-7378,1667,-1648,-1236,411,-744,1,7,11
1.72313E+12,-7711,1781,-1644,-1225,577,-483,1,7,11
1.72313E+12,-7778,2161,-1636,-1231,202,-228,1,7,11
1.72313E+12,-7802,2045,-1638,-1270,296,31,1,7,11
1.72313E+12,-7777,2394,-1637,-1591,-108,-31,1,7,11
1.72313E+12,-7773,2240,-1634,-1637,67,343,1,7,11
1.72313E+12,-7747,2285,-1622,-1434,-265,369,1,7,11
1.72313E+12,-7725,2298,-1602,-1447,-301,298,1,7,11
1.72313E+12,-7716,2264,-1557,-1437,-304,-109,1,7,11
1.72313E+12,-7726,2181,-1238,-1638,-298,-314,1,7,11
1.72313E+12,-7735,2351,-1169,-1268,-306,-540,1,7,11
1.72313E+12,-7764,2003,-1379,-1380,-334,-505,1,7,11
1.72313E+12,-7775,1922,-1335,-963,-370,-680,1,7,11
1.72313E+12,-7555,2121,-1305,-1070,-152,-1058,1,7,11
1.72313E+12,-7565,1782,-1282,-708,-214,-1126,1,7,11
1.72313E+12,-7573,1688,-994,-873,-526,-901,1,7,11
1.72313E+12,-7579,1856,-971,-790,-571,-897,1,7,11
1.72313E+12,-7593,1495,-940,-464,-610,-1129,1,7,11
1.72313E+12,-7613,1648,-910,-387,-385,-1081,1,7,11
1.72313E+12,-7645,1562,-1110,-538,-413,-760,1,7,11
1.72313E+12,-7658,1253,-1044,-149,-463,-675,1,7,11
1.72313E+12,-7659,1236,-724,12,-511,-840,1,7,11
1.72313E+12,-7668,1540,-679,-71,-808,-471,1,7,11
1.72313E+12,-7655,1641,-654,343,-855,-584,1,7,11
1.72313E+12,-7608,1518,-657,195,-872,-163,1,7,11
1.72313E+12,-7590,1912,-674,217,-832,3,1,7,11
1.72313E+12,-7575,1766,-672,155,-783,-88,1,7,11
1.72313E+12,-7559,2118,-668,307,-467,356,1,7,11
1.72313E+12,-7562,2162,-675,-56,-602,182,1,7,11
1.72313E+12,-7781,1927,-682,85,-529,216,1,7,11
1.72313E+12,-7754,1932,-694,-324,-163,193,1,7,11
1.72313E+12,-7745,2173,-703,-148,-299,134,1,7,11
1.72313E+12,-7769,2148,-702,-195,67,303,1,7,11
1.72313E+12,-7774,2139,-706,-211,-117,-45,1,7,11
1.72313E+12,-7774,2134,-714,-203,-69,114,1,7,11
1.72313E+12,-7790,2139,-710,-183,-35,15,1,7,11
1.72313E+12,-7805,2152,-712,-153,-34,-332,1,7,11
1.72313E+12,-7584,1928,-690,-380,-49,-171,1,7,11
1.72313E+12,-7602,1946,-675,-368,-101,-231,1,7,11
1.72313E+12,-7590,1931,-670,-358,91,-523,1,7,11
1.72313E+12,-7591,2158,-672,-338,52,-544,1,7,11
1.72313E+12,-7579,2119,-669,-308,18,-546,1,7,11
1.72313E+12,-7557,2069,-668,3,6,-553,1,7,11
1.72313E+12,-7802,1769,-677,73,16,-563,1,7,11
1.72313E+12,-7806,1734,-690,-122,30,-583,1,7,11
1.72313E+12,-7572,1711,-704,-60,43,-605,1,7,11
1.72313E+12,-7595,1697,-724,-18,42,-619,1,7,11
1.72313E+12,-7614,1700,-747,277,48,-623,1,7,11
1.72313E+12,-7634,1711,-1030,302,49,-604,1,7,11
1.72313E+12,-7635,1722,-1048,306,35,-568,1,7,11
1.72313E+12,-7640,1704,-1060,298,35,-530,1,7,11
1.72313E+12,-7649,1675,-1061,288,26,-236,1,7,11
1.72313E+12,-7646,1903,-1056,306,1,-215,1,7,11
1.72313E+12,-7612,1896,-1047,340,-295,-213,1,7,11
1.72313E+12,-7576,1895,-767,372,-317,-254,1,7,11
1.72313E+12,-7595,1909,-738,162,-322,-571,1,7,11
1.72313E+12,-7615,1906,-716,191,-359,-634,1,7,11
1.72313E+12,-7627,1908,-702,238,-129,-432,1,7,11
1.72313E+12,-7644,1674,-702,531,-135,-465,1,7,11
1.72313E+12,-7608,1911,-695,529,-147,-477,1,7,11
1.72313E+12,-7576,1887,-683,517,-370,-486,1,7,11
1.72313E+12,-7576,1847,-666,226,-311,-501,1,7,11
1.72313E+12,-7607,1805,-887,192,1,-510,1,7,11
1.72313E+12,-7657,1799,-858,169,33,-500,1,7,11
1.72313E+12,-7939,1827,-844,136,30,-468,1,7,11
1.72313E+12,-7655,1848,-858,295,29,-400,1,7,11
1.72313E+12,-7635,1841,-883,-60,69,-608,1,7,11
1.72313E+12,-7611,1802,-641,98,-125,-575,1,7,11
1.72313E+12,-7610,1496,-656,17,-41,-567,1,7,11
1.72313E+12,-7641,1419,-896,-311,284,-588,1,7,11
1.72313E+12,-7960,1600,-868,-323,331,-621,1,7,11
1.72313E+12,-8025,1591,-880,-276,340,-391,1,7,11
1.72313E+12,-8056,1628,-654,15,326,-400,1,7,11
1.72313E+12,-8047,1414,-688,2,315,-389,1,7,11
1.72313E+12,-8028,1418,-711,-314,321,-622,1,7,11
1.72313E+12,-8009,1638,-725,-379,334,-602,1,7,11
1.72313E+12,-8007,1584,-728,-173,350,-605,1,7,11
1.72313E+12,-8004,1539,-724,-193,357,-621,1,7,11
1.72313E+12,-8013,1252,-722,-199,350,-387,1,7,11
1.72313E+12,-8005,1229,-735,-205,330,-404,1,7,11
1.72313E+12,-7984,1184,-740,-214,308,-413,1,7,11
1.72313E+12,-7965,1384,-739,-210,299,-422,1,7,11
1.72313E+12,-7958,1317,-724,-187,297,-427,1,7,11
1.72313E+12,-7968,996,-715,-383,300,-427,1,7,11
1.72313E+12,-7970,950,-718,-296,295,-405,1,7,11
1.72313E+12,-7949,898,-741,48,290,-633,1,7,11
1.72313E+12,-7943,1114,-1035,-112,322,-611,1,7,11
1.72313E+12,-7959,1104,-1075,-14,378,-594,1,7,11
1.72313E+12,-7994,1127,-1124,325,181,-578,1,7,11
1.72313E+12,-8015,927,-907,363,216,-545,1,7,11
1.72313E+12,-8017,962,-937,335,230,-246,1,7,11
1.72313E+12,-8000,974,-930,260,226,-213,1,7,11
1.72313E+12,-8004,922,-1127,-94,201,-218,1,7,11
1.72313E+12,-7824,1129,-1049,127,147,-250,1,7,11
1.72313E+12,-7850,1121,-731,-122,-8,-534,1,7,11
1.72313E+12,-8010,1141,-714,-101,60,-549,1,7,11
1.72313E+12,-7628,1151,-745,-96,-291,-564,1,7,11
1.72313E+12,-7759,1105,-1067,-120,-286,-589,1,7,11
1.72313E+12,-7754,1040,-1126,-90,-88,-390,1,7,11
1.72313E+12,-7969,760,-1112,258,252,-411,1,7,11
1.72313E+12,-7837,1037,-1089,221,617,-606,1,7,11
1.72313E+12,-7892,1090,-1115,619,608,-211,1,7,11
1.72313E+12,-7929,1073,-1092,449,562,-339,1,7,11
1.72313E+12,-8214,1110,-1145,838,194,80,1,7,11
1.72313E+12,-7880,922,-978,664,298,-72,1,7,11
1.72313E+12,-7912,1312,-1324,685,270,264,1,7,11
1.72313E+12,-8218,1164,-1399,824,-59,366,1,7,11
1.72313E+12,-7930,1220,-1168,412,87,204,1,7,11
1.72313E+12,-7901,1259,-1162,227,15,546,1,7,11
1.72313E+12,-7894,1218,-1364,-11,-341,608,1,7,11
1.72313E+12,-7874,1376,-1294,45,-228,621,1,7,11
1.72313E+12,-7852,1018,-957,-351,-633,561,1,7,11
1.72313E+12,-7813,947,-1128,-183,-775,194,1,7,11
1.72313E+12,-8009,1142,-1063,-240,-644,305,1,7,11
1.72313E+12,-7984,1117,-741,-526,-703,-111,1,7,11
1.72313E+12,-7957,1099,-674,-568,-741,6,1,7,11
1.72313E+12,-7941,1053,-845,-613,-749,-371,1,7,11
1.72313E+12,-7971,759,-510,-619,-725,-194,1,7,11
1.72313E+12,-8002,742,-431,-585,-701,-217,1,7,11
1.72313E+12,-8007,729,-612,-253,-659,-182,1,7,11
1.72313E+12,-7998,711,-531,-142,-818,-353,1,7,11
1.72313E+12,-8013,701,-218,6,-413,32,1,7,11
1.72313E+12,-8002,683,-188,-64,-518,-82,1,7,11
1.72313E+12,-7982,678,-181,165,-348,313,1,7,11
1.72313E+12,-7956,692,-245,413,90,177,1,7,11
1.72313E+12,-7659,732,-547,666,275,520,1,7,11
1.72313E+12,-7637,1053,-461,1138,218,554,1,7,11
1.72313E+12,-7657,1113,-829,1285,404,552,1,7,11
1.72313E+12,-7944,947,-681,1382,796,524,1,7,11
1.72313E+12,-7956,1007,-1043,1174,879,222,1,7,11
1.72313E+12,-7928,1309,-1150,1166,658,169,1,7,11
1.72313E+12,-7652,1357,-996,1368,674,370,1,7,11
1.72313E+12,-7626,1388,-1352,1011,674,317,1,7,11
1.72313E+12,-7638,1162,-1163,1133,666,288,1,7,11
1.72313E+12,-7947,1192,-1197,721,888,275,1,7,11
1.72313E+12,-8042,1210,-1189,795,810,271,1,7,11
1.72313E+12,-7889,1224,-1163,513,402,289,1,7,11
1.72313E+12,-7914,1216,-1407,326,170,322,1,7,11
1.72313E+12,-7876,1200,-1387,-100,-39,330,1,7,11
1.72313E+12,-7819,1184,-1363,4,69,323,1,7,11
1.72313E+12,-7967,1153,-1350,-134,-279,296,1,7,11
1.72313E+12,-7609,1373,-1344,-236,-265,-14,1,7,11
1.72313E+12,-7760,1351,-1373,-554,94,-74,1,7,11
1.72313E+12,-7683,1350,-1166,-604,272,113,1,7,11
1.72313E+12,-7688,1355,-1195,-393,518,46,1,7,11
1.72313E+12,-7771,1381,-1195,-429,506,35,1,7,11
1.72313E+12,-7618,1152,-1175,-469,661,63,1,7,11
1.72313E+12,-7979,1402,-1393,-503,722,120,1,7,11
1.72313E+12,-8036,1372,-1337,-780,686,-79,1,7,11
1.72313E+12,-8047,1335,-1296,-773,845,-53,1,7,11
1.72313E+12,-8020,1318,-1013,-481,479,-74,1,7,11
1.72313E+12,-7947,1346,-1002,-434,389,-119,1,7,11
1.72313E+12,-7610,1403,-1004,-408,606,78,1,7,11
1.72313E+12,-7786,1204,-1016,-427,611,22,1,7,11
1.72313E+12,-7705,1240,-1308,-484,410,-285,1,7,11
1.72313E+12,-7682,1250,-1352,-827,778,-340,1,7,11
1.72313E+12,-7419,1239,-1387,-668,646,-147,1,7,11
1.72313E+12,-7704,1228,-1157,-756,767,-213,1,7,11
1.72313E+12,-7738,1221,-1193,-1093,1124,-538,1,7,11
1.72313E+12,-7780,1216,-1228,-917,939,-605,1,7,11
1.72313E+12,-7792,1199,-1253,-1005,970,-405,1,7,11
1.72313E+12,-7782,1165,-1248,-1344,983,-465,1,7,11
1.72313E+12,-7559,1395,-1235,-1405,1012,-790,1,7,11
1.72313E+12,-7620,1363,-1213,-1195,1010,-841,1,7,11
1.72313E+12,-7673,1337,-1213,-1231,976,-881,1,7,11
1.72313E+12,-7956,1324,-1235,-1247,934,-650,1,7,11
1.72313E+12,-7943,1330,-1268,-1246,913,-662,1,7,11
1.72313E+12,-7680,1337,-1563,-1247,916,-649,1,7,11
1.72313E+12,-7654,1343,-1615,-1248,942,-868,1,7,11
1.72313E+12,-7620,1338,-1423,-1257,995,-823,1,7,11
1.72313E+12,-7583,1321,-1472,-1265,1308,-787,1,7,11
1.72313E+12,-7801,1288,-1527,-1254,1368,-502,1,7,11
1.72313E+12,-7780,991,-1833,-1222,1172,-495,1,7,11
1.72313E+12,-7774,945,-1871,-1161,1211,-493,1,7,11
1.72313E+12,-7760,903,-1917,-1321,1228,-498,1,7,11
1.72313E+12,-7748,1121,-1710,-944,1217,-503,1,7,11
1.72313E+12,-7724,1091,-1741,-1066,1186,-507,1,7,11
1.72313E+12,-7710,1053,-1772,-669,1404,-502,1,7,11
1.72313E+12,-7699,767,-1792,-512,1344,-494,1,7,11
1.72313E+12,-7698,753,-2064,-610,1014,-483,1,7,11
1.72313E+12,-7697,744,-2097,-199,912,-459,1,7,11
1.72313E+12,-7703,756,-2128,-311,1071,-424,1,7,11
1.72313E+12,-7718,1063,-1929,65,709,-623,1,7,11
1.72313E+12,-7707,1109,-1989,-120,855,-550,1,7,11
1.72313E+12,-7413,1138,-2309,-95,769,-218,1,7,11
1.72313E+12,-7361,900,-2383,-113,468,-158,1,7,11
1.72313E+12,-7339,913,-2186,102,474,-378,1,7,11
1.72313E+12,-7336,927,-2234,35,485,-371,1,7,11
1.72313E+12,-7336,921,-2277,-313,490,-130,1,7,11
1.72313E+12,-7340,912,-2561,-149,496,-165,1,7,11
1.72313E+12,-7349,1149,-2577,-245,489,-209,1,7,11
1.72313E+12,-7330,1100,-2578,-598,451,-248,1,7,11
1.72313E+12,-7332,1043,-2574,-406,428,-554,1,7,11
1.72313E+12,-7368,735,-2561,-434,396,-601,1,7,11
1.72313E+12,-7683,679,-2256,-438,583,-391,1,7,11
1.72313E+12,-7773,895,-2204,-400,228,-409,1,7,11
1.72313E+12,-7559,882,-2419,-586,321,-621,1,7,11
1.72313E+12,-7805,883,-2383,-240,-103,-540,1,7,11
1.72313E+12,-7777,892,-2356,-142,18,-158,1,7,11
1.72313E+12,-7725,894,-2331,-314,-331,-278,1,7,11
1.72313E+12,-7422,643,-2332,29,-369,98,1,7,11
1.72313E+12,-7379,666,-2334,110,-374,-61,1,7,11
1.72313E+12,-7516,719,-2251,-325,187,48,1,7,11
1.72313E+12,-7330,665,-2215,-322,136,-302,1,7,11
1.72313E+12,-7396,888,-2406,-285,280,-357,1,7,11
1.72313E+12,-7681,854,-2323,21,-128,-132,1,7,11
1.72313E+12,-7693,823,-1993,79,-278,-137,1,7,11
1.72313E+12,-7709,811,-1923,-105,-143,-383,1,7,11
1.72313E+12,-7737,846,-2131,-13,-242,-358,1,7,11
1.72313E+12,-7758,677,-2136,313,-588,-309,1,7,11
1.72313E+12,-7747,1041,-2171,321,-401,30,1,7,11
1.72313E+12,-7693,1113,-1979,263,-419,-124,1,7,11
1.72313E+12,-7382,922,-2021,-79,-630,-25,1,7,11
1.72313E+12,-7347,966,-2308,72,-538,307,1,7,11
1.72313E+12,-7341,986,-2332,-286,-166,350,1,7,11
1.72313E+12,-7377,942,-2042,-149,-321,354,1,7,11
1.72313E+12,-7777,966,-2008,-211,87,316,1,7,11
1.72313E+12,-7801,1286,-2024,-191,122,357,1,7,11
1.72313E+12,-7801,1355,-2038,-184,100,145,1,7,11
1.72313E+12,-7303,1366,-2342,-572,-124,559,1,7,11
1.72313E+12,-7520,1020,-2048,-585,-84,232,1,7,11
1.72313E+12,-7497,941,-2017,-530,-70,354,1,7,11
1.72313E+12,-7487,905,-2000,-163,-79,-73,1,7,11
1.72313E+12,-7477,900,-1985,-309,-93,18,1,7,11
1.72313E+12,-7482,906,-1982,26,-99,-353,1,7,11
1.72313E+12,-7490,1144,-1979,74,-104,-155,1,7,11
1.72313E+12,-7510,1098,-1959,106,-109,-183,1,7,11
1.72313E+12,-7302,1030,-1942,-102,-118,-191,1,7,11
1.72313E+12,-7337,712,-1944,-22,115,-182,1,7,11
1.72313E+12,-7353,685,-1971,341,103,-165,1,7,11
1.72313E+12,-7384,713,-2024,197,-125,-129,1,7,11
1.72313E+12,-7405,767,-2343,524,-85,-321,1,7,11
1.72313E+12,-7685,1086,-2380,548,-28,23,1,7,11
1.72313E+12,-7727,1135,-2405,523,265,-124,1,7,11
1.72313E+12,-7776,909,-2405,205,261,-19,1,7,11
1.72313E+12,-7571,911,-2379,380,-47,316,1,7,11
1.72313E+12,-7593,903,-2358,303,115,372,1,7,11
1.72313E+12,-7571,1142,-2339,-12,1,143,1,7,11
1.72313E+12,-7787,1126,-2317,-60,-355,132,1,7,11
1.72313E+12,-7723,1101,-2033,-94,-175,357,1,7,11
1.72313E+12,-7398,1074,-2024,-107,-216,304,1,7,11
1.72313E+12,-7526,1051,-2032,-111,-240,-1,1,7,11
1.72313E+12,-7465,1047,-2040,-95,-215,-56,1,7,11
1.72313E+12,-7451,1048,-2047,-65,-134,-126,1,7,11
1.72313E+12,-7485,1047,-2037,-24,21,109,1,7,11
1.72313E+12,-7552,1040,-2019,263,92,109,1,7,11
1.72313E+12,-7363,1034,-1998,295,117,121,1,7,11
1.72313E+12,-7417,766,-1993,327,102,-124,1,7,11
1.72313E+12,-7700,757,-1988,354,59,-114,1,7,11
1.72313E+12,-7696,749,-1979,376,17,-116,1,7,11
1.72313E+12,-7712,766,-1974,139,-262,-113,1,7,11
1.72313E+12,-7704,1040,-1982,136,-288,-93,1,7,11
1.72313E+12,-7688,1067,-2001,375,-302,-58,1,7,11
1.72313E+12,-7404,1082,-2007,333,-306,-11,1,7,11
1.72313E+12,-7371,1078,-2024,289,-291,290,1,7,11
1.72313E+12,-7386,1086,-2035,263,14,322,1,7,11
1.72313E+12,-7683,1093,-2031,-20,48,348,1,7,11
1.72313E+12,-7567,1091,-1965,-41,-262,172,1,7,11
1.72313E+12,-7574,1072,-1928,-22,-365,224,1,7,11
1.72313E+12,-7805,1046,-2152,288,-207,525,1,7,11
1.72313E+12,-7762,765,-2132,371,-545,566,1,7,11
1.72313E+12,-7723,750,-2108,227,-604,601,1,7,11
1.72313E+12,-7692,756,-2093,609,-388,638,1,7,11
1.72313E+12,-7413,1029,-2088,481,-417,418,1,7,11
1.72313E+12,-7404,1057,-2090,858,-441,458,1,7,11
1.72313E+12,-7421,1091,-2096,703,-464,497,1,7,11
1.72313E+12,-7704,1128,-2101,1036,-493,794,1,7,11
1.72313E+12,-7735,911,-2105,1096,-788,834,1,7,11
1.72313E+12,-7751,942,-2099,1132,-842,873,1,7,11
1.72313E+12,-7754,969,-2076,898,-876,643,1,7,11
1.72313E+12,-7786,995,-1785,907,-649,667,1,7,11
1.72313E+12,-7805,1021,-1764,916,-682,694,1,7,11
1.72313E+12,-7562,1304,-1734,926,-722,741,1,7,11
1.72313E+12,-7575,1326,-1691,932,-754,1042,1,7,11
1.72313E+12,-7578,1347,-1897,934,-1069,1088,1,7,11
1.72313E+12,-7584,1368,-1852,942,-1110,1135,1,7,11
1.72313E+12,-7566,1385,-1822,954,-1148,912,1,7,11
1.72313E+12,-7800,1406,-1535,977,-914,930,1,7,11
1.72313E+12,-7768,1188,-1518,993,-915,927,1,7,11
1.72313E+12,-7753,1235,-1494,1012,-1138,909,1,7,11
1.72313E+12,-7747,1544,-1476,1006,-1093,1143,1,7,11
1.72313E+12,-7734,1584,-1446,976,-1053,1119,1,7,11
1.72313E+12,-7717,1617,-1430,930,-757,1091,1,7,11
1.72313E+12,-7704,1646,-1654,1123,-709,1058,1,7,11
1.72313E+12,-7718,1419,-1635,1034,-666,763,1,7,11
1.72313E+12,-7720,1434,-1597,675,-889,721,1,7,11
1.72313E+12,-7735,1451,-1565,825,-842,681,1,7,11
1.72313E+12,-7732,1470,-1545,459,-798,658,1,7,11
1.72313E+12,-7691,1477,-1538,599,-485,645,1,7,11
1.72313E+12,-7376,1496,-1548,223,-637,892,1,7,11
1.72313E+12,-7331,1518,-1559,344,-227,880,1,7,11
1.72313E+12,-7332,1804,-1574,-48,-298,858,1,7,11
1.72313E+12,-7368,1848,-1573,83,127,835,1,7,11
1.72313E+12,-7686,1902,-1559,-296,-8,822,1,7,11
1.72313E+12,-7751,1695,-1544,-165,311,814,1,7,11
1.72313E+12,-7803,1718,-1271,-536,309,804,1,7,11
1.72313E+12,-7568,1729,-1240,-627,260,776,1,7,11
1.72313E+12,-7553,1723,-1214,-441,-60,461,1,7,11
1.72313E+12,-7784,1720,-1182,-483,-110,629,1,7,11
1.72313E+12,-7740,1716,-1165,-497,111,527,1,7,11
1.72313E+12,-7700,1731,-1160,-488,95,158,1,7,11
1.72313E+12,-7385,1738,-1170,-483,97,310,1,7,11
1.72313E+12,-7339,1747,-1198,-470,-106,-42,1,7,11
1.72313E+12,-7326,1758,-1223,-459,-15,-115,1,7,11
1.72313E+12,-7371,1759,-1240,-455,373,72,1,7,11
1.72313E+12,-7690,1756,-1254,-429,175,46,1,7,11
1.72313E+12,-7758,1747,-1263,-409,197,38,1,7,11
1.72313E+12,-7567,1749,-1258,-634,181,51,1,7,11
1.72313E+12,-7598,1752,-1242,-603,382,85,1,7,11
1.72313E+12,-7584,1742,-1223,-574,302,-127,1,7,11
1.72313E+12,-7807,1731,-1212,-538,-24,-93,1,7,11
1.72313E+12,-7749,1722,-1202,-245,-81,-74,1,7,11
1.72313E+12,-7700,1726,-1202,-202,-105,-79,1,7,11
1.72313E+12,-7402,1745,-1217,-162,-106,-89,1,7,11
1.72313E+12,-7376,1783,-1246,-139,-78,-106,1,7,11
1.72313E+12,-7382,2081,-1270,-155,-33,-121,1,7,11
1.72313E+12,-7404,2127,-1551,-202,262,118,1,7,11
1.72313E+12,-7681,2169,-1573,-535,283,94,1,7,11
1.72313E+12,-7424,1949,-1612,-394,280,51,1,7,11
1.72313E+12,-7406,1990,-1654,-806,263,-286,1,7,11
1.72313E+12,-7372,2040,-1455,-760,260,-160,1,7,11
1.72313E+12,-7313,2380,-1535,-1297,262,-613,1,7,11
1.72313E+12,-7297,2237,-1840,-1439,301,-643,1,7,11
1.72313E+12,-7329,2597,-1851,-1949,333,-956,1,7,11
1.72313E+12,-7379,2646,-1821,-2542,315,-1272,1,7,11
1.72313E+12,-7701,2639,-1491,-3396,-1,-1813,1,7,11
1.72313E+12,-7764,2296,-1654,-3957,-98,-1785,1,7,11
1.72313E+12,-7771,2382,-1553,-4417,24,-1949,1,7,11
1.72313E+12,-7706,2146,-1217,-4495,-363,-2334,1,7,11
1.72313E+12,-7363,1856,-1164,-4933,-136,-2194,1,7,11
1.72313E+12,-7356,1621,-1376,-4892,-273,-2283,1,7,11
1.72313E+12,-7400,1214,-1324,-4692,-91,-2303,1,7,11
1.72313E+12,-7747,1371,-980,-4392,369,-2225,1,7,11
1.72313E+12,-7600,1311,-898,-3768,521,-2033,1,7,11
