timestamp,ax,ay,az,gx,gy,gz,Label1,Label2,Label3
1.72313E+12,-7699,-61,-2754,-2096,1046,1295,1,7,11
1.72313E+12,-7786,-3,-2773,-2121,668,1201,1,7,11
1.72313E+12,-7557,294,-2805,-2081,497,1418,1,7,11
1.72313E+12,-7776,302,-2799,-1726,571,1869,1,7,11
1.72313E+12,-7764,278,-2750,-1808,146,1761,1,7,11
1.72313E+12,-7745,263,-2694,-1259,-22,2133,1,7,11
1.72313E+12,-7696,-15,-2922,-1124,21,1945,1,7,11
1.72313E+12,-7499,313,-2884,-444,-351,1935,1,7,11
1.72313E+12,-7325,337,-2829,-165,-279,2088,1,7,11
1.72313E+12,-7510,332,-2519,111,-374,1918,1,7,11
1.72313E+12,-7461,193,-2480,380,-332,1541,1,7,11
1.72313E+12,-7546,599,-2440,580,-270,1133,1,7,11
1.72313E+12,-7542,483,-2681,386,-332,484,1,7,11
1.72313E+12,-7311,817,-2638,602,-354,350,1,7,11
1.72313E+12,-7326,676,-2636,243,-334,23,1,7,11
1.72313E+12,-7318,701,-2607,-63,-357,-327,1,7,11
1.72313E+12,-7507,872,-2285,-266,-357,-152,1,7,11
1.72313E+12,-7512,800,-2230,-363,-258,-216,1,7,11
1.72313E+12,-7509,466,-2191,-209,60,-248,1,7,11
1.72313E+12,-7462,574,-2181,-520,104,-225,1,7,11
1.72313E+12,-7162,248,-2226,-213,-88,-254,1,7,11
1.72313E+12,-7308,262,-2211,-152,-46,-251,1,7,11
1.72313E+12,-7314,303,-2258,-43,97,-372,1,7,11
1.72313E+12,-7480,524,-2635,-97,-279,-480,1,7,11
1.72313E+12,-7314,-17,-2562,-602,68,-1031,1,7,11
1.72313E+12,-7538,98,-2233,-455,-5,-853,1,7,11
1.72313E+12,-7384,28,-2406,-554,235,-555,1,7,11
1.72313E+12,-7401,-110,-2403,-337,559,-129,1,7,11
1.72313E+12,-7713,-54,-2385,18,512,-326,1,7,11
1.72313E+12,-7718,-44,-2430,-126,373,-268,1,7,11
1.72313E+12,-7407,-43,-2215,298,-6,-120,1,7,11
1.72313E+12,-7420,259,-2280,528,-59,289,1,7,11
1.72313E+12,-7419,372,-2595,413,86,200,1,7,11
1.72313E+12,-7388,136,-2615,424,4,562,1,7,11
1.72313E+12,-7700,184,-2605,769,-289,423,1,7,11
1.72313E+12,-7707,537,-2620,479,-201,433,1,7,11
1.72313E+12,-7361,564,-2636,639,-586,450,1,7,11
1.72313E+12,-7342,393,-2649,561,-591,434,1,7,11
1.72313E+12,-7367,453,-2636,152,-596,434,1,7,11
1.72313E+12,-7370,783,-2634,-25,-607,494,1,7,11
1.72313E+12,-7393,837,-2646,37,-603,653,1,7,11
1.72313E+12,-7697,867,-2687,-148,-601,1109,1,7,11
1.72313E+12,-7750,797,-2461,-616,-594,1387,1,7,11
1.72313E+12,-7754,424,-2455,-879,-603,1441,1,7,11
1.72313E+12,-7737,592,-2687,-885,-590,1777,1,7,11
1.72313E+12,-7708,612,-2626,-453,-560,2339,1,7,11
1.72313E+12,-7701,830,-2627,-165,-558,2293,1,7,11
1.72313E+12,-7709,742,-2647,-281,-396,2605,1,7,11
1.72313E+12,-7420,1064,-2644,34,-830,2192,1,7,11
1.72313E+12,-7405,755,-2593,54,-1092,1746,1,7,11
1.72313E+12,-7301,740,-2568,263,-1364,1172,1,7,11
1.72313E+12,-7505,1060,-2566,575,-1541,780,1,7,11
1.72313E+12,-7521,901,-2286,852,-1656,-53,1,7,11
1.72313E+12,-7355,920,-2216,751,-1504,-247,1,7,11
1.72313E+12,-7697,1091,-2375,1144,-1907,-786,1,7,11
1.72313E+12,-7747,717,-2014,1309,-2102,-706,1,7,11
1.72313E+12,-7787,835,-2163,1259,-2043,-1084,1,7,11
1.72313E+12,-7600,473,-1788,1493,-2214,-897,1,7,11
1.72313E+12,-7660,397,-1912,1726,-2654,-920,1,7,11
1.72313E+12,-7973,596,-1508,1931,-2838,-901,1,7,11
1.72313E+12,-7998,575,-1646,2369,-2767,-1087,1,7,11
1.72313E+12,-7940,566,-1544,2245,-3175,-744,1,7,11
1.72313E+12,-7665,575,-1183,2589,-2960,-648,1,7,11
1.72313E+12,-7634,594,-1332,2622,-2946,-777,1,7,11
1.72313E+12,-7622,619,-977,2609,-3118,-404,1,7,11
1.72313E+12,-7633,431,-1114,2568,-2721,-524,1,7,11
1.72313E+12,-7959,489,-1044,2229,-2544,-303,1,7,11
1.72313E+12,-7954,789,-737,2348,-2628,115,1,7,11
1.72313E+12,-7970,803,-677,2166,-2314,262,1,7,11
1.72313E+12,-8011,796,-868,1699,-2075,150,1,7,11
1.72313E+12,-7822,786,-802,1643,-1864,532,1,7,11
1.72313E+12,-7917,792,-469,1453,-1442,630,1,7,11
1.72313E+12,-8262,810,-387,1283,-1591,463,1,7,11
1.72313E+12,-8294,854,-565,896,-1541,805,1,7,11
1.72313E+12,-8299,672,-523,1037,-1236,643,1,7,11
1.72313E+12,-8277,1033,-513,660,-1177,766,1,7,11
1.72313E+12,-8212,1129,-254,782,-1366,896,1,7,11
1.72313E+12,-7844,965,-240,384,-1016,1291,1,7,11
1.72313E+12,-7988,1319,-241,237,-1128,1165,1,7,11
1.72313E+12,-7672,1375,-221,296,-685,1274,1,7,11
1.72313E+12,-7625,1367,-189,86,-777,1610,1,7,11
1.72313E+12,-7600,1341,-144,-327,-626,1613,1,7,11
1.72313E+12,-7623,1313,-357,-178,-236,1571,1,7,11
1.72313E+12,-7643,1010,-318,-252,-162,1216,1,7,11
1.72313E+12,-7674,952,-277,-536,-355,1329,1,7,11
1.72313E+12,-7973,932,19,-250,-298,908,1,7,11
1.72313E+12,-7825,930,35,-185,-297,735,1,7,11
1.72313E+12,-7839,920,69,-357,-371,830,1,7,11
1.72313E+12,-7876,944,77,22,-167,430,1,7,11
1.72313E+12,-7885,969,76,-116,-235,594,1,7,11
1.72313E+12,-7892,1006,99,263,-539,543,1,7,11
1.72313E+12,-7898,1310,101,131,-590,528,1,7,11
1.72313E+12,-7893,1359,118,237,-385,531,1,7,11
1.72313E+12,-7868,1167,123,578,-424,557,1,7,11
1.72313E+12,-7857,1229,-125,587,-426,590,1,7,11
1.72313E+12,-7887,1256,-90,530,-385,621,1,7,11
1.72313E+12,-7924,1268,-54,186,-611,403,1,7,11
1.72313E+12,-7934,1264,-25,337,-601,431,1,7,11
1.72313E+12,-7929,1212,280,-36,-585,424,1,7,11
1.72313E+12,-7914,1407,332,-119,-562,637,1,7,11
1.72313E+12,-7907,1375,361,99,-533,549,1,7,11
1.72313E+12,-7903,1368,375,91,-247,199,1,7,11
1.72313E+12,-7910,1357,139,77,-203,359,1,7,11
1.72313E+12,-7923,1319,163,77,-147,-4,1,7,11
1.72313E+12,-7931,1282,174,92,-384,105,1,7,11
1.72313E+12,-7896,1015,186,123,-158,-210,1,7,11
1.72313E+12,-7891,1320,171,-79,-150,-447,1,7,11
1.72313E+12,-7885,1370,147,-45,-156,-681,1,7,11
1.72313E+12,-7873,1399,379,-34,-164,-923,1,7,11
1.72313E+12,-7852,1154,361,-36,-161,-1387,1,7,11
1.72313E+12,-7836,1393,339,-52,-380,-1544,1,7,11
1.72313E+12,-7830,1343,325,-67,-309,-1634,1,7,11
1.72313E+12,-7847,1281,321,-68,45,-1416,1,7,11
1.72313E+12,-7862,956,321,-64,-105,-1659,1,7,11
1.72313E+12,-7868,1151,299,-58,-13,-1619,1,7,11
1.72313E+12,-7874,1097,280,-65,331,-1560,1,7,11
1.72313E+12,-7898,1046,266,-96,154,-1224,1,7,11
1.72313E+12,-7931,749,-11,-125,206,-1379,1,7,11
1.72313E+12,-8204,716,-33,85,243,-1004,1,7,11
1.72313E+12,-8227,681,-47,35,524,-1112,1,7,11
1.72313E+12,-8219,888,-78,-270,523,-691,1,7,11
1.72313E+12,-7936,849,-107,-304,532,-798,1,7,11
1.72313E+12,-8198,819,-111,-333,545,-403,1,7,11
1.72313E+12,-7933,785,-124,-355,543,-523,1,7,11
1.72313E+12,-7928,502,112,-356,548,-152,1,7,11
1.72313E+12,-8195,490,109,-347,542,-293,1,7,11
1.72313E+12,-8201,484,101,-337,533,82,1,7,11
1.72313E+12,-8203,499,86,-334,539,-41,1,7,11
1.72313E+12,-8206,510,68,-354,553,344,1,7,11
1.72313E+12,-8200,492,62,-130,557,202,1,7,11
1.72313E+12,-8210,468,56,-145,576,556,1,7,11
1.72313E+12,-8261,415,56,-167,596,616,1,7,11
1.72313E+12,-8241,412,66,-149,561,401,1,7,11
1.72313E+12,-8267,483,42,-358,567,399,1,7,11
1.72313E+12,-8276,504,34,-362,545,415,1,7,11
1.72313E+12,-8279,815,22,-329,541,418,1,7,11
1.72313E+12,-8289,871,-257,-323,515,427,1,7,11
1.72313E+12,-8262,875,-267,-329,224,412,1,7,11
1.72313E+12,-8273,888,-266,-308,211,636,1,7,11
1.72313E+12,-8257,664,-271,-278,158,566,1,7,11
1.72313E+12,-8267,718,-281,8,138,227,1,7,11
1.72313E+12,-8275,1029,-296,27,361,139,1,7,11
1.72313E+12,-8286,1047,-324,50,339,292,1,7,11
1.72313E+12,-8250,1052,-335,71,304,-88,1,7,11
1.72313E+12,-8229,1054,-338,63,319,11,1,7,11
1.72313E+12,-8239,1090,-341,46,318,-133,1,7,11
1.72313E+12,-8248,1111,-341,6,269,-515,1,7,11
1.72313E+12,-8236,1069,-349,-300,-55,-598,1,7,11
1.72313E+12,-7928,1035,-328,-257,122,-406,1,7,11
1.72313E+12,-7906,1037,-321,104,116,-463,1,7,11
1.72313E+12,-7923,1074,-316,-85,-126,-470,1,7,11
1.72313E+12,-7922,1054,-296,-108,84,-446,1,7,11
1.72313E+12,-7883,738,-285,-97,85,-410,1,7,11
1.72313E+12,-7920,724,-271,-79,117,-390,1,7,11
1.72313E+12,-7888,731,-274,-74,62,-636,1,7,11
1.72313E+12,-7855,756,-286,-80,26,-611,1,7,11
1.72313E+12,-7829,1056,-301,-108,57,-545,1,7,11
1.72313E+12,-8051,1075,-323,123,105,-189,1,7,11
1.72313E+12,-8036,1065,-331,110,-58,-331,1,7,11
1.72313E+12,-8062,1032,-316,100,294,42,1,7,11
1.72313E+12,-7867,751,-355,74,380,-73,1,7,11
1.72313E+12,-8039,761,-326,50,378,310,1,7,11
1.72313E+12,-7899,762,-365,-353,197,232,1,7,11
1.72313E+12,-7863,695,-384,-143,192,539,1,7,11
1.72313E+12,-7901,667,-383,-143,241,577,1,7,11
1.72313E+12,-7915,894,-365,-177,243,620,1,7,11
1.72313E+12,-7911,653,-358,-182,236,415,1,7,11
1.72313E+12,-7919,659,-357,-191,224,449,1,7,11
1.72313E+12,-8212,647,-350,-188,206,474,1,7,11
1.72313E+12,-8215,648,-368,-152,150,483,1,7,11
1.72313E+12,-7914,649,-134,-357,361,468,1,7,11
1.72313E+12,-7907,676,-167,-300,373,420,1,7,11
1.72313E+12,-8208,691,-184,-266,149,636,1,7,11
1.72313E+12,-8247,689,-187,30,158,607,1,7,11
1.72313E+12,-8315,713,-178,91,145,577,1,7,11
1.72313E+12,-8305,732,-172,-110,321,563,1,7,11
1.72313E+12,-8297,757,-170,-53,269,521,1,7,11
1.72313E+12,-8270,1050,-177,-4,-45,202,1,7,11
1.72313E+12,-8244,1095,-187,291,-88,342,1,7,11
1.72313E+12,-8220,901,-202,316,-116,-47,1,7,11
1.72313E+12,-7933,956,-215,312,126,76,1,7,11
1.72313E+12,-7924,966,-223,287,-119,-307,1,7,11
1.72313E+12,-7898,963,-226,-7,85,-531,1,7,11
1.72313E+12,-7888,983,-244,-28,65,-422,1,7,11
1.72313E+12,-7866,1005,-254,-69,49,-505,1,7,11
1.72313E+12,-7864,1284,-518,-128,51,-802,1,7,11
1.72313E+12,-7872,1016,-255,51,57,-787,1,7,11
1.72313E+12,-7861,998,-231,-278,57,-467,1,7,11
1.72313E+12,-7860,981,-211,-334,74,-386,1,7,11
1.72313E+12,-7864,938,-184,-142,77,-515,1,7,11
1.72313E+12,-7845,1136,-160,-155,83,-134,1,7,11
1.72313E+12,-7823,1106,-146,-135,101,-266,1,7,11
1.72313E+12,-8047,1095,-145,-358,-123,106,1,7,11
1.72313E+12,-8032,1074,-139,-328,-68,-50,1,7,11
1.72313E+12,-8038,1049,-138,-290,-19,278,1,7,11
1.72313E+12,-8036,1035,-132,26,-7,327,1,7,11
1.72313E+12,-8030,1064,-142,103,284,340,1,7,11
1.72313E+12,-7815,1144,-155,-115,318,381,1,7,11
1.72313E+12,-7822,930,-157,-125,307,169,1,7,11
1.72313E+12,-8047,965,-169,-117,326,231,1,7,11
1.72313E+12,-7874,1001,-197,123,364,550,1,7,11
1.72313E+12,-8059,955,-212,88,297,625,1,7,11
1.72313E+12,-8053,944,-246,-122,349,391,1,7,11
1.72313E+12,-7821,958,-533,-99,142,429,1,7,11
1.72313E+12,-7852,947,-546,-90,177,441,1,7,11
1.72313E+12,-7936,969,-568,-87,207,465,1,7,11
1.72313E+12,-8251,973,-562,-127,160,490,1,7,11
1.72313E+12,-8273,966,-544,79,318,500,1,7,11
1.72313E+12,-8269,974,-548,37,-34,773,1,7,11
1.72313E+12,-8246,962,-538,-258,-122,508,1,7,11
1.72313E+12,-8212,984,-520,8,76,435,1,7,11
1.72313E+12,-7931,1015,-256,35,9,600,1,7,11
1.72313E+12,-7885,1288,-254,48,-275,222,1,7,11
1.72313E+12,-7869,1295,-246,59,-259,323,1,7,11
1.72313E+12,-7873,1322,-246,74,10,-86,1,7,11
1.72313E+12,-7880,1349,-238,69,22,33,1,7,11
1.72313E+12,-7887,1374,-245,52,31,-316,1,7,11
1.72313E+12,-7877,1375,-243,13,25,-370,1,7,11
1.72313E+12,-7863,1365,-248,-270,43,-144,1,7,11
1.72313E+12,-7860,1364,-516,-293,66,-158,1,7,11
1.72313E+12,-7856,1356,-514,-309,91,-173,1,7,11
1.72313E+12,-7849,1361,-514,-308,105,-188,1,7,11
1.72313E+12,-7859,1366,-247,-302,109,-203,1,7,11
1.72313E+12,-7847,1368,-244,-288,85,-196,1,7,11
1.72313E+12,-7851,1374,-235,-267,64,-187,1,7,11
1.72313E+12,-7838,1369,-230,4,28,-157,1,7,11
1.72313E+12,-7823,1368,-207,70,4,-317,1,7,11
1.72313E+12,-7809,1369,-193,114,-263,-257,1,7,11
1.72313E+12,-8058,1370,-188,-94,-264,64,1,7,11
1.72313E+12,-7814,1399,-183,-38,-258,-125,1,7,11
1.72313E+12,-7820,1172,-185,-10,-274,-58,1,7,11
1.72313E+12,-7816,1213,-179,-2,-278,268,1,7,11
1.72313E+12,-7827,1265,-187,-18,-268,349,1,7,11
1.72313E+12,-7822,1586,-184,-60,-260,250,1,7,11
1.72313E+12,-7819,1594,-181,-121,10,559,1,7,11
1.72313E+12,-7817,1582,-163,54,26,400,1,7,11
1.72313E+12,-8057,1564,-155,-262,32,477,1,7,11
1.72313E+12,-8016,1537,-145,-306,42,491,1,7,11
1.72313E+12,-7995,1256,-365,-327,80,436,1,7,11
1.72313E+12,-8026,1241,-354,-327,-123,578,1,7,11
1.72313E+12,-8025,1248,-326,-329,-111,187,1,7,11
1.72313E+12,-8043,1543,-329,-313,-82,294,1,7,11
1.72313E+12,-7809,1566,-330,-328,-74,-82,1,7,11
1.72313E+12,-8064,1567,-308,-348,-28,78,1,7,11
1.72313E+12,-8210,1541,-319,-142,-42,16,1,7,11
1.72313E+12,-7830,1205,-292,-145,107,-317,1,7,11
1.72313E+12,-7889,1242,-299,-294,-101,-150,1,7,11
1.72313E+12,-7873,1197,-307,-267,113,-211,1,7,11
1.72313E+12,-7890,1181,-321,65,122,-543,1,7,11
1.72313E+12,-7900,1192,-337,103,108,-605,1,7,11
1.72313E+12,-7891,1158,-339,-125,90,-416,1,7,11
1.72313E+12,-7884,1401,-346,-84,85,-479,1,7,11
1.72313E+12,-7871,1381,-343,-64,98,-792,1,7,11
1.72313E+12,-7872,1381,-357,-61,123,-830,1,7,11
1.72313E+12,-7889,1379,-370,-84,-126,-857,1,7,11
1.72313E+12,-7893,1355,-381,-112,101,-872,1,7,11
1.72313E+12,-7886,1320,-377,120,89,-889,1,7,11
1.72313E+12,-7895,1281,-374,93,88,-642,1,7,11
1.72313E+12,-7886,978,-371,68,70,-647,1,7,11
1.72313E+12,-7873,955,-370,38,64,-648,1,7,11
1.72313E+12,-7872,932,-362,2,74,-891,1,7,11
1.72313E+12,-7880,915,-356,-285,82,-852,1,7,11
1.72313E+12,-7876,899,-343,-320,80,-786,1,7,11
1.72313E+12,-7849,1130,-340,-355,80,-427,1,7,11
1.72313E+12,-7822,1078,-326,-129,108,-555,1,7,11
1.72313E+12,-7825,1025,-315,-361,-91,-175,1,7,11
1.72313E+12,-7841,760,-321,-299,-38,-305,1,7,11
1.72313E+12,-7851,1033,-325,10,289,99,1,7,11
1.72313E+12,-7887,1055,-343,39,358,-19,1,7,11
1.72313E+12,-7882,1092,-371,59,375,355,1,7,11
1.72313E+12,-7868,896,-138,68,135,190,1,7,11
1.72313E+12,-7850,946,-155,50,155,253,1,7,11
1.72313E+12,-7854,980,-168,48,186,528,1,7,11
1.72313E+12,-7848,1007,-176,28,198,518,1,7,11
1.72313E+12,-7893,1289,-178,22,217,198,1,7,11
1.72313E+12,-7905,1294,-181,10,213,157,1,7,11
1.72313E+12,-7913,1302,-191,2,169,349,1,7,11
1.72313E+12,-7916,1325,-200,12,143,294,1,7,11
1.72313E+12,-7907,1338,-223,20,379,-23,1,7,11
1.72313E+12,-7899,1302,-227,1,370,-86,1,7,11
1.72313E+12,-7920,994,-206,-275,373,97,1,7,11
1.72313E+12,-8210,950,-195,-268,313,28,1,7,11
1.72313E+12,-7923,966,-177,2,279,-330,1,7,11
1.72313E+12,-8249,980,-198,-298,-19,-352,1,7,11
1.72313E+12,-7881,918,-196,-333,-121,-372,1,7,11
1.72313E+12,-7887,935,-205,-289,-81,-163,1,7,11
1.72313E+12,-7868,943,-204,-293,-85,-190,1,7,11
1.72313E+12,-7866,949,-200,-285,-74,-211,1,7,11
1.72313E+12,-7883,946,-195,-291,-69,-217,1,7,11
1.72313E+12,-7886,953,-188,-272,-69,-216,1,7,11
1.72313E+12,-7883,951,-199,-260,-71,-211,1,7,11
1.72313E+12,-7861,929,-195,6,-64,-207,1,7,11
1.72313E+12,-7855,912,-190,9,-47,-210,1,7,11
1.72313E+12,-7848,927,-199,1,-40,-189,1,7,11
1.72313E+12,-7853,939,-223,-291,-25,-145,1,7,11
1.72313E+12,-7819,930,-232,-324,-14,-367,1,7,11
1.72313E+12,-7820,902,-236,-336,298,-362,1,7,11
1.72313E+12,-7842,1143,-240,-309,330,-365,1,7,11
1.72313E+12,-7830,904,-255,0,351,-380,1,7,11
1.72313E+12,-7840,945,-532,43,382,-131,1,7,11
1.72313E+12,-7849,950,-532,37,379,-130,1,7,11
1.72313E+12,-7869,944,-543,13,374,-382,1,7,11
1.72313E+12,-7858,958,-550,-270,355,-362,1,7,11
1.72313E+12,-7838,968,-566,-296,350,-338,1,7,11
1.72313E+12,-7818,997,-573,-331,369,-289,1,7,11
1.72313E+12,-8060,994,-588,-137,159,25,1,7,11
1.72313E+12,-7826,942,-586,-144,216,68,1,7,11
1.72313E+12,-7847,1148,-584,-321,243,101,1,7,11
1.72313E+12,-7892,1113,-586,-258,516,87,1,7,11
1.72313E+12,-7851,1088,-576,51,130,-263,1,7,11
1.72313E+12,-7820,1075,-608,79,364,-139,1,7,11
1.72313E+12,-7864,744,-609,77,362,-524,1,7,11
1.72313E+12,-7851,710,-611,-66,323,-422,1,7,11
1.72313E+12,-7890,758,-616,309,335,-824,1,7,11
1.72313E+12,-7899,1061,-619,285,310,-847,1,7,11
1.72313E+12,-7893,750,-613,-87,283,-844,1,7,11
1.72313E+12,-7917,640,-607,78,266,-840,1,7,11
1.72313E+12,-7910,878,-613,58,-16,-855,1,7,11
1.72313E+12,-8216,662,-637,17,-38,-855,1,7,11
1.72313E+12,-8205,687,-632,-335,-95,-789,1,7,11
1.72313E+12,-8235,666,-638,-171,112,-458,1,7,11
1.72313E+12,-7935,850,-638,-208,14,-402,1,7,11
1.72313E+12,-7873,848,-620,-170,40,-631,1,7,11
1.72313E+12,-8217,830,-403,-176,82,-581,1,7,11
1.72313E+12,-7819,808,-610,-152,49,-558,1,7,11
1.72313E+12,-7932,815,-636,-368,-83,-547,1,7,11
1.72313E+12,-7903,773,-624,-136,-124,-562,1,7,11
1.72313E+12,-7899,501,-617,-375,-117,-605,1,7,11
1.72313E+12,-7909,504,-612,-358,121,-403,1,7,11
1.72313E+12,-7915,508,-608,-334,111,-432,1,7,11
1.72313E+12,-7925,780,-617,-330,113,-422,1,7,11
1.72313E+12,-7918,500,-606,-348,103,-393,1,7,11
1.72313E+12,-7902,486,-606,-358,115,-593,1,7,11
1.72313E+12,-7898,454,-607,-364,-128,-533,1,7,11
1.72313E+12,-7909,415,-609,-361,-114,-221,1,7,11
1.72313E+12,-7908,426,-591,-346,-115,-200,1,7,11
1.72313E+12,-7921,434,-591,-329,124,-191,1,7,11
1.72313E+12,-7912,424,-582,-328,92,-194,1,7,11
1.72313E+12,-7897,440,-590,-314,78,-196,1,7,11
1.72313E+12,-7869,483,-570,-317,90,-179,1,7,11
1.72313E+12,-8227,462,-603,-145,122,-155,1,7,11
1.72313E+12,-7878,407,-589,-172,32,-360,1,7,11
1.72313E+12,-7887,631,-588,-378,77,-129,1,7,11
1.72313E+12,-7904,620,-586,-343,95,-137,1,7,11
1.72313E+12,-7911,602,-581,-309,96,-155,1,7,11
1.72313E+12,-8200,623,-569,-270,106,-155,1,7,11
1.72313E+12,-8250,569,-541,-282,99,-166,1,7,11
1.72313E+12,-8264,241,-520,-259,76,-180,1,7,11
1.72313E+12,-8215,206,-523,82,29,-228,1,7,11
1.72313E+12,-7905,225,-543,-38,16,-538,1,7,11
1.72313E+12,-7895,545,-573,351,49,-565,1,7,11
1.72313E+12,-7897,573,-587,143,92,-539,1,7,11
1.72313E+12,-8198,583,-576,140,126,-243,1,7,11
1.72313E+12,-7930,550,-551,360,97,-186,1,7,11
1.72313E+12,-8197,588,-547,364,82,-157,1,7,11
1.72313E+12,-7927,589,-555,282,40,-132,1,7,11
1.72313E+12,-7860,560,-544,-51,24,-130,1,7,11
1.72313E+12,-7913,591,-566,-82,106,-158,1,7,11
1.72313E+12,-7898,575,-564,71,65,-383,1,7,11
1.72313E+12,-7914,537,-556,28,82,-166,1,7,11
1.72313E+12,-7936,541,-546,-265,87,-157,1,7,11
1.72313E+12,-8206,519,-523,-316,64,-168,1,7,11
1.72313E+12,-8210,248,-254,-336,48,-164,1,7,11
1.72313E+12,-8227,226,-244,-352,45,-160,1,7,11
1.72313E+12,-8232,197,-223,-353,39,-141,1,7,11
1.72313E+12,-8236,181,-207,-333,43,-384,1,7,11
1.72313E+12,-8231,176,-197,-315,42,-369,1,7,11
1.72313E+12,-8223,150,-181,-304,46,-353,1,7,11
1.72313E+12,-8223,142,-168,-283,59,-331,1,7,11
1.72313E+12,-8212,158,-166,-271,68,-298,1,7,11
1.72313E+12,-8214,160,-163,-276,80,2,1,7,11
1.72313E+12,-7913,137,-163,-295,84,46,1,7,11
1.72313E+12,-7921,150,-174,-297,127,68,1,7,11
1.72313E+12,-7921,171,-183,-268,-78,92,1,7,11
1.72313E+12,-7919,170,-192,-262,-49,82,1,7,11
1.72313E+12,-7934,188,-208,10,263,62,1,7,11
1.72313E+12,-8206,191,-223,19,282,43,1,7,11
1.72313E+12,-7926,182,-246,47,299,29,1,7,11
1.72313E+12,-7928,218,-524,106,366,4,1,7,11
1.72313E+12,-8196,536,-545,-113,141,32,1,7,11
1.72313E+12,-8212,533,-549,120,164,82,1,7,11
1.72313E+12,-8267,210,-534,97,166,-127,1,7,11
1.72313E+12,-8209,139,-249,-119,376,-123,1,7,11
1.72313E+12,-8208,161,-236,-48,143,-125,1,7,11
1.72313E+12,-8295,171,-514,-86,144,116,1,7,11
1.72313E+12,-8218,154,-247,86,273,-122,1,7,11
1.72313E+12,-8202,149,-251,27,-3,92,1,7,11
1.72313E+12,-8275,173,-255,-327,-17,79,1,7,11
1.72313E+12,-8275,197,-514,-191,108,78,1,7,11
1.72313E+12,-8239,197,-522,-530,20,83,1,7,11
1.72313E+12,-8203,190,-526,-543,19,108,1,7,11
1.72313E+12,-8202,143,-518,-527,59,-128,1,7,11
1.72313E+12,-7924,341,-240,-203,94,-127,1,7,11
1.72313E+12,-8209,296,-218,-371,119,83,1,7,11
1.72313E+12,-7888,306,-205,-257,84,60,1,7,11
1.72313E+12,-7883,377,-238,-128,-128,33,1,7,11
1.72313E+12,-7861,158,-523,-44,-72,60,1,7,11
1.72313E+12,-7837,191,-533,332,271,86,1,7,11
1.72313E+12,-7895,245,-592,210,149,127,1,7,11
1.72313E+12,-7897,522,-607,562,180,-92,1,7,11
1.72313E+12,-7886,540,-627,384,218,-109,1,7,11
1.72313E+12,-7926,511,-385,601,551,-114,1,7,11
1.72313E+12,-8211,216,-638,234,570,123,1,7,11
1.72313E+12,-8222,183,-389,173,555,91,1,7,11
1.72313E+12,-8237,174,-396,343,520,58,1,7,11
1.72313E+12,-8242,145,-413,-23,203,37,1,7,11
1.72313E+12,-8290,129,-426,-91,372,-282,1,7,11
1.72313E+12,-8301,149,-420,103,-42,-363,1,7,11
1.72313E+12,-8289,224,-422,92,30,-170,1,7,11
1.72313E+12,-8246,245,-419,3,-150,-380,1,7,11
1.72313E+12,-8205,204,-389,-275,-152,-323,1,7,11
1.72313E+12,-8228,140,-615,7,-357,-285,1,7,11
1.72313E+12,-7872,374,-585,78,-367,-279,1,7,11
1.72313E+12,-7911,166,-581,-92,5,-273,1,7,11
1.72313E+12,-7927,159,-568,-96,47,45,1,7,11
1.72313E+12,-7929,131,-546,-55,54,53,1,7,11
1.72313E+12,-8202,142,-538,257,31,41,1,7,11
1.72313E+12,-8199,167,-524,287,-273,37,1,7,11
1.72313E+12,-7933,184,-520,282,-307,50,1,7,11
1.72313E+12,-7882,147,-254,268,-315,57,1,7,11
1.72313E+12,-7898,380,-236,270,12,49,1,7,11
1.72313E+12,-7934,379,-228,256,59,45,1,7,11
1.72313E+12,-7926,375,-217,-42,56,17,1,7,11
1.72313E+12,-7906,137,-222,-89,78,-288,1,7,11
1.72313E+12,-7920,157,-228,84,119,-322,1,7,11
1.72313E+12,-7916,194,-242,-278,-107,-333,1,7,11
1.72313E+12,-7924,188,-249,-173,-70,-327,1,7,11
1.72313E+12,-8207,153,-527,-563,-54,-320,1,7,11
1.72313E+12,-8235,350,-527,-628,-85,-347,1,7,11
1.72313E+12,-7905,273,-239,-565,116,-141,1,7,11
1.72313E+12,-7918,265,-255,-132,-64,-229,1,7,11
1.72313E+12,-7936,293,-537,13,-45,-526,1,7,11
1.72313E+12,-7932,302,-552,123,-26,-569,1,7,11
1.72313E+12,-8252,332,-570,-74,251,-568,1,7,11
1.72313E+12,-8223,312,-587,-82,-87,-548,1,7,11
1.72313E+12,-8198,288,-576,-29,-114,-543,1,7,11
1.72313E+12,-8239,272,-547,259,-118,-531,1,7,11
1.72313E+12,-8254,-10,-543,266,86,-242,1,7,11
1.72313E+12,-8262,-45,-531,279,45,-217,1,7,11
1.72313E+12,-8275,-78,-521,322,22,-200,1,7,11
1.72313E+12,-8242,-91,-244,132,-263,-189,1,7,11
1.72313E+12,-8243,-95,-228,178,4,-199,1,7,11
1.72313E+12,-7927,123,-233,199,-275,-195,1,7,11
1.72313E+12,-7855,97,-518,237,0,-245,1,7,11
1.72313E+12,-7823,79,-523,515,63,-551,1,7,11
1.72313E+12,-7859,49,-246,527,124,-601,1,7,11
1.72313E+12,-7881,35,-234,551,121,-625,1,7,11
1.72313E+12,-7881,40,-252,555,88,-412,1,7,11
1.72313E+12,-7931,34,-519,523,70,-460,1,7,11
1.72313E+12,-8225,45,-546,226,10,-495,1,7,11
1.72313E+12,-8241,13,-546,161,-320,-815,1,7,11
1.72313E+12,-8278,30,-526,136,-151,-887,1,7,11
1.72313E+12,-8278,93,-538,375,-519,-693,1,7,11
1.72313E+12,-8303,66,-525,283,-583,-735,1,7,11
1.72313E+12,-8313,25,-247,-40,-630,-768,1,7,11
1.72313E+12,-8079,5,-213,-110,-447,-1068,1,7,11
1.72313E+12,-8294,-280,-185,68,-507,-1080,1,7,11
1.72313E+12,-8286,-332,-160,-272,-508,-1062,1,7,11
1.72313E+12,-8277,-381,-380,-319,-492,-754,1,7,11
1.72313E+12,-8282,-165,-349,-330,-462,-677,1,7,11
1.72313E+12,-8263,-201,-313,-314,-427,-823,1,7,11
1.72313E+12,-8279,-222,-294,-275,-613,-442,1,7,11
1.72313E+12,-8276,-238,-273,19,-567,-562,1,7,11
1.72313E+12,-8289,-255,10,53,-256,-190,1,7,11
1.72313E+12,-8281,-526,39,78,-238,-328,1,7,11
1.72313E+12,-8283,-553,80,109,-208,-259,1,7,11
1.72313E+12,-8300,-561,108,-110,-210,62,1,7,11
1.72313E+12,-8274,-563,-106,-86,-252,92,1,7,11
1.72313E+12,-8256,-545,-91,-65,-529,104,1,7,11
1.72313E+12,-8296,-529,-77,-49,-527,103,1,7,11
1.72313E+12,-8311,-252,-58,-52,-535,93,1,7,11
1.72313E+12,-8287,-241,-33,-64,-559,92,1,7,11
1.72313E+12,-8255,-235,-11,-85,-561,79,1,7,11
1.72313E+12,-8213,-230,261,-100,-554,87,1,7,11
1.72313E+12,-8196,-215,272,-113,-255,92,1,7,11
1.72313E+12,-7927,-199,281,-118,-154,116,1,7,11
1.72313E+12,-7918,-187,271,124,-328,-112,1,7,11
1.72313E+12,-7926,-186,263,101,27,-73,1,7,11
1.72313E+12,-7927,-188,259,89,114,-37,1,7,11
1.72313E+12,-8212,-195,-11,78,-56,-20,1,7,11
1.72313E+12,-8263,-203,-22,75,266,-11,1,7,11
1.72313E+12,-8293,-205,-32,78,289,-6,1,7,11
1.72313E+12,-8308,-190,-46,80,294,-11,1,7,11
1.72313E+12,-8307,-181,-59,70,298,-21,1,7,11
1.72313E+12,-8309,-178,-71,53,310,-29,1,7,11
1.72313E+12,-8302,-168,-87,33,319,-43,1,7,11
1.72313E+12,-8316,-157,-81,-267,322,-61,1,7,11
1.72313E+12,-8070,-165,-82,-319,300,-70,1,7,11
1.72313E+12,-8320,-179,-68,-368,269,-81,1,7,11
1.72313E+12,-8311,-192,-67,-152,-11,-80,1,7,11
1.72313E+12,-8299,-205,-64,-178,-30,-75,1,7,11
1.72313E+12,-8293,-218,-62,-191,-37,-69,1,7,11
1.72313E+12,-8311,-221,-51,-195,-40,-55,1,7,11
1.72313E+12,-8308,-211,-55,-189,-60,-24,1,7,11
1.72313E+12,-8303,-201,-55,-181,-66,263,1,7,11
1.72313E+12,-8316,-194,-54,-175,-74,302,1,7,11
1.72313E+12,-8065,-193,-62,-168,-92,327,1,7,11
1.72313E+12,-8301,-199,-54,-159,-117,334,1,7,11
1.72313E+12,-8290,-159,-72,-372,-113,318,1,7,11
1.72313E+12,-8277,-374,-84,-351,-122,304,1,7,11
1.72313E+12,-8278,-347,-93,-357,-127,296,1,7,11
1.72313E+12,-8275,-326,-106,-375,-121,309,1,7,11
1.72313E+12,-8240,-315,-106,-174,-109,339,1,7,11
1.72313E+12,-8239,-265,-123,-197,-36,383,1,7,11
1.72313E+12,-8270,-268,-116,-555,-40,208,1,7,11
1.72313E+12,-8225,-314,-87,-608,-83,243,1,7,11
1.72313E+12,-8244,-300,-72,-608,-72,537,1,7,11
1.72313E+12,-8267,-292,-71,-630,-102,558,1,7,11
1.72313E+12,-8260,-290,-67,-634,-121,577,1,7,11
1.72313E+12,-8255,-272,-62,-627,-119,585,1,7,11
1.72313E+12,-8255,9,-59,-612,-105,580,1,7,11
1.72313E+12,-8252,39,-60,-597,-89,587,1,7,11
1.72313E+12,-8248,66,-49,-588,-63,588,1,7,11
1.72313E+12,-8258,84,-46,-580,-45,588,1,7,11
1.72313E+12,-8264,101,-43,-566,-36,579,1,7,11
1.72313E+12,-8264,127,-47,-542,-37,565,1,7,11
1.72313E+12,-8259,-104,-48,-528,-36,546,1,7,11
1.72313E+12,-8267,-77,-55,-255,-27,526,1,7,11
1.72313E+12,-8281,-45,-67,-236,-22,255,1,7,11
1.72313E+12,-8299,-16,-73,-232,-30,248,1,7,11
1.72313E+12,-8310,265,-69,-235,-62,250,1,7,11
1.72313E+12,-8315,277,-75,-240,-105,248,1,7,11
1.72313E+12,-8080,280,-63,-254,98,238,1,7,11
1.72313E+12,-8318,310,-55,-212,-305,181,1,7,11
1.72313E+12,-8311,327,-36,-183,-326,174,1,7,11
1.72313E+12,-8302,350,-17,-158,-341,177,1,7,11
1.72313E+12,-8288,372,257,-138,-346,189,1,7,11
1.72313E+12,-8287,128,273,-378,-343,207,1,7,11
1.72313E+12,-8268,131,297,-366,-345,213,1,7,11
1.72313E+12,-8240,377,309,-352,-326,199,1,7,11
1.72313E+12,-8244,382,319,-331,-298,149,1,7,11
1.72313E+12,-8231,147,311,-315,-282,368,1,7,11
1.72313E+12,-8256,179,306,-295,-244,327,1,7,11
1.72313E+12,-8226,200,313,-277,11,308,1,7,11
1.72313E+12,-8202,222,314,-252,55,256,1,7,11
1.72313E+12,-8245,533,311,-277,91,-42,1,7,11
1.72313E+12,-8066,551,323,-272,113,-62,1,7,11
1.72313E+12,-8113,560,329,-266,68,-79,1,7,11
1.72313E+12,-8098,549,342,2,-259,-112,1,7,11
1.72313E+12,-8068,542,355,18,-294,102,1,7,11
1.72313E+12,-8273,553,349,47,-309,48,1,7,11
1.72313E+12,-8202,567,348,67,-285,2,1,7,11
1.72313E+12,-7911,574,339,74,37,-290,1,7,11
1.72313E+12,-7886,570,342,70,119,-308,1,7,11
1.72313E+12,-7891,573,328,64,-43,-313,1,7,11
1.72313E+12,-7884,547,314,44,294,-304,1,7,11
1.72313E+12,-7896,522,308,37,131,-302,1,7,11
1.72313E+12,-7924,241,279,30,204,-299,1,7,11
1.72313E+12,-8227,211,270,29,522,-296,1,7,11
1.72313E+12,-8264,184,256,44,553,-285,1,7,11
1.72313E+12,-8254,179,-28,61,555,-269,1,7,11
1.72313E+12,-8242,187,-59,63,575,15,1,7,11
1.72313E+12,-8260,183,-70,49,615,71,1,7,11
1.72313E+12,-8267,383,-88,29,634,-117,1,7,11
1.72313E+12,-8285,337,-87,39,412,-69,1,7,11
1.72313E+12,-8315,314,-90,56,413,-36,1,7,11
1.72313E+12,-8295,306,-103,41,613,-41,1,7,11
1.72313E+12,-8295,314,-118,36,592,-81,1,7,11
1.72313E+12,-8320,363,-128,30,556,-123,1,7,11
1.72313E+12,-8081,166,111,4,221,101,1,7,11
1.72313E+12,-8110,226,105,-318,144,104,1,7,11
1.72313E+12,-8127,241,98,-153,305,-110,1,7,11
1.72313E+12,-8117,240,107,-228,-45,-77,1,7,11
1.72313E+12,-8104,213,-116,-538,-114,-44,1,7,11
1.72313E+12,-8084,200,-91,-556,78,-23,1,7,11
1.72313E+12,-8312,174,-64,-548,31,-7,1,7,11
1.72313E+12,-8279,165,-45,-242,1,-8,1,7,11
1.72313E+12,-8234,172,-32,-182,-261,-11,1,7,11
1.72313E+12,-7934,181,-16,-371,22,-15,1,7,11
1.72313E+12,-7922,200,-12,-281,62,-31,1,7,11
1.72313E+12,-7918,190,-8,40,114,-38,1,7,11
1.72313E+12,-7917,177,-3,95,-71,-72,1,7,11
1.72313E+12,-7911,193,-19,-42,-24,-117,1,7,11
1.72313E+12,-8195,219,-41,12,293,99,1,7,11
1.72313E+12,-7931,250,-62,284,330,62,1,7,11
1.72313E+12,-8223,238,-79,-21,377,20,1,7,11
1.72313E+12,-8225,517,-110,-54,129,-260,1,7,11
1.72313E+12,-8211,247,-126,-115,148,-297,1,7,11
1.72313E+12,-8239,239,113,93,182,-342,1,7,11
1.72313E+12,-8234,513,107,64,170,-134,1,7,11
1.72313E+12,-8259,546,101,31,161,-184,1,7,11
1.72313E+12,-8268,588,80,-274,377,-213,1,7,11
1.72313E+12,-8259,615,57,-340,326,-223,1,7,11
1.72313E+12,-8236,387,29,-156,295,-215,1,7,11
1.72313E+12,-8238,386,15,-250,284,-203,1,7,11
1.72313E+12,-8238,633,12,-581,269,-173,1,7,11
1.72313E+12,-8261,630,18,-638,268,-143,1,7,11
1.72313E+12,-8298,623,24,-431,-4,-358,1,7,11
1.72313E+12,-8311,611,25,-465,-40,-310,1,7,11
1.72313E+12,-8313,589,21,-484,-80,-265,1,7,11
1.72313E+12,-8302,564,32,-492,-110,23,1,7,11
1.72313E+12,-8294,527,46,-482,-124,40,1,7,11
1.72313E+12,-8283,243,59,-453,122,43,1,7,11
1.72313E+12,-8286,223,83,-415,116,30,1,7,11
1.72313E+12,-8265,205,94,-630,90,12,1,7,11
1.72313E+12,-8247,191,105,-581,74,-275,1,7,11
1.72313E+12,-8221,184,110,-530,64,-309,1,7,11
1.72313E+12,-8216,182,119,-229,63,-357,1,7,11
1.72313E+12,-8225,193,120,-191,57,-130,1,7,11
1.72313E+12,-8235,221,119,-179,37,-130,1,7,11
1.72313E+12,-8249,220,117,-211,3,-367,1,7,11
1.72313E+12,-8247,197,125,-249,-287,-345,1,7,11
1.72313E+12,-8218,158,-119,-519,-300,-344,1,7,11
1.72313E+12,-7936,128,-124,-236,-259,-353,1,7,11
1.72313E+12,-8196,359,-125,-183,93,-363,1,7,11
1.72313E+12,-8225,364,127,-365,-66,-358,1,7,11
1.72313E+12,-8213,370,108,-314,-10,-353,1,7,11
1.72313E+12,-8251,133,96,-282,319,-348,1,7,11
1.72313E+12,-8263,378,93,-263,352,-330,1,7,11
1.72313E+12,-8295,366,91,42,143,-325,1,7,11
1.72313E+12,-8066,356,87,92,181,-296,1,7,11
1.72313E+12,-8080,336,86,-115,203,-273,1,7,11
1.72313E+12,-8090,338,88,-57,204,2,1,7,11
1.72313E+12,-8087,330,85,-33,171,15,1,7,11
1.72313E+12,-8311,318,92,-20,131,21,1,7,11
1.72313E+12,-8259,328,84,-15,359,20,1,7,11
1.72313E+12,-8242,354,70,-15,346,23,1,7,11
1.72313E+12,-8228,135,55,-37,333,45,1,7,11
1.72313E+12,-8227,165,34,-68,331,75,1,7,11
1.72313E+12,-8243,174,7,-102,339,100,1,7,11
1.72313E+12,-8230,152,2,63,345,125,1,7,11
1.72313E+12,-8230,132,1,31,375,107,1,7,11
1.72313E+12,-8228,368,-264,5,137,73,1,7,11
1.72313E+12,-8203,355,-281,-272,154,14,1,7,11
1.72313E+12,-7925,344,-288,-289,192,-313,1,7,11
1.72313E+12,-7928,343,-285,-303,241,-371,1,7,11
1.72313E+12,-7929,340,-285,-313,527,-147,1,7,11
1.72313E+12,-7934,333,-296,-330,551,-156,1,7,11
1.72313E+12,-7932,334,-309,-338,562,-148,1,7,11
1.72313E+12,-8196,326,-319,-367,581,-141,1,7,11
1.72313E+12,-8233,340,-320,-145,581,-129,1,7,11
1.72313E+12,-8280,361,-335,-213,547,-376,1,7,11
1.72313E+12,-8311,380,-360,-559,209,-352,1,7,11
1.72313E+12,-8069,379,-366,-387,375,-331,1,7,11
1.72313E+12,-8311,130,-372,-424,288,-301,1,7,11
1.72313E+12,-8301,382,-373,-425,-28,-277,1,7,11
1.72313E+12,-8303,378,-357,-400,-71,9,1,7,11
1.72313E+12,-8290,128,-327,-553,83,-92,1,7,11
1.72313E+12,-8069,309,-329,-559,44,127,1,7,11
1.72313E+12,-7846,289,-324,-247,-360,49,1,7,11
1.72313E+12,-7858,184,-343,-365,43,-372,1,7,11
1.72313E+12,-7916,546,-338,-140,42,-136,1,7,11
1.72313E+12,-7921,516,-356,-216,41,-142,1,7,11
1.72313E+12,-7927,222,-359,-565,54,-358,1,7,11
1.72313E+12,-8216,195,-378,-606,127,-361,1,7,11
1.72313E+12,-8221,162,-374,-628,-82,-361,1,7,11
1.72313E+12,-8271,144,-367,-634,-29,-143,1,7,11
1.72313E+12,-8199,195,-350,-621,256,-383,1,7,11
1.72313E+12,-8080,205,-377,-406,315,-130,1,7,11
1.72313E+12,-8199,143,-383,-442,-39,-372,1,7,11
1.72313E+12,-8218,162,-154,-406,267,-184,1,7,11
1.72313E+12,-7933,173,-148,-440,-9,-232,1,7,11
1.72313E+12,-7897,176,-143,-458,-5,-571,1,7,11
1.72313E+12,-7878,197,-153,-501,259,-626,1,7,11
1.72313E+12,-7877,186,-151,-845,284,-418,1,7,11
1.72313E+12,-7916,180,-183,-670,304,-441,1,7,11
1.72313E+12,-7905,149,-200,-752,304,-446,1,7,11
1.72313E+12,-7923,148,-203,-1068,352,-434,1,7,11
1.72313E+12,-8217,307,-189,-954,380,-415,1,7,11
1.72313E+12,-8256,-113,-130,-1291,344,-470,1,7,11
1.72313E+12,-8225,-106,-146,-1009,-9,-838,1,7,11
1.72313E+12,-8240,-118,-171,-1310,-59,-654,1,7,11
1.72313E+12,-8241,113,-203,-1408,-108,-690,1,7,11
1.72313E+12,-8246,-108,-254,-1233,-114,-689,1,7,11
1.72313E+12,-8229,-74,-556,-1419,107,-720,1,7,11
1.72313E+12,-8209,-13,-609,-1687,45,-1060,1,7,11
1.72313E+12,-8219,302,-410,-2380,-275,-970,1,7,11
1.72313E+12,-8289,381,-470,-2712,-372,-1234,1,7,11
1.72313E+12,-8316,226,-776,-3672,-565,-1814,1,7,11
1.72313E+12,-8103,252,-769,-4448,-780,-2102,1,7,11
1.72313E+12,-8148,173,-460,-5181,-729,-2001,1,7,11
1.72313E+12,-8478,-78,-398,-5605,-934,-2042,1,7,11
1.72313E+12,-8142,-520,-524,-6051,-1165,-1996,1,7,11
1.72313E+12,-8253,-672,-136,-6269,-1222,-1970,1,7,11
1.72313E+12,-8203,-1122,-304,-5930,-1160,-2161,1,7,11
1.72313E+12,-7897,-1318,48,-5297,-1343,-1764,1,7,11
1.72313E+12,-7907,-1168,-113,-4775,-963,-1851,1,7,11
1.72313E+12,-8206,-1200,-32,-4470,-1113,-1615,1,7,11
1.72313E+12,-8067,-1243,303,-3927,-1031,-1368,1,7,11
1.72313E+12,-8086,-1228,354,-3335,-1069,-1093,1,7,11
1.72313E+12,-8066,-1332,351,-2470,-1103,-842,1,7,11
1.72313E+12,-8320,-967,348,-1936,-1077,-528,1,7,11
1.72313E+12,-8086,-931,374,-1448,-766,79,1,7,11
1.72313E+12,-8081,-917,139,-973,-728,129,1,7,11
1.72313E+12,-8301,-1145,172,-805,-716,613,1,7,11
1.72313E+12,-8256,-1096,208,-191,-666,510,1,7,11
1.72313E+12,-8224,-748,231,122,-848,869,1,7,11
1.72313E+12,-8265,-893,549,353,-507,678,1,7,11
1.72313E+12,-8312,-807,575,236,-769,720,1,7,11
1.72313E+12,-8280,-445,611,581,-835,692,1,7,11
1.72313E+12,-8227,-226,612,441,-889,894,1,7,11
1.72313E+12,-8241,-287,599,466,-643,839,1,7,11
1.72313E+12,-8070,-275,396,603,-831,842,1,7,11
1.72313E+12,-8289,-264,453,248,-888,805,1,7,11
1.72313E+12,-8304,78,488,248,-643,475,1,7,11
1.72313E+12,-8295,125,787,166,-651,455,1,7,11
1.72313E+12,-8072,-127,843,318,-648,432,1,7,11
1.72313E+12,-8077,-125,892,-7,-660,429,1,7,11
1.72313E+12,-8074,114,693,-74,-665,405,1,7,11
1.72313E+12,-8313,69,738,-114,-669,622,1,7,11
1.72313E+12,-8271,35,1058,-117,-659,543,1,7,11
1.72313E+12,-8267,23,1114,-82,-876,162,1,7,11
1.72313E+12,-8256,28,1145,-38,-846,295,1,7,11
1.72313E+12,-8247,65,1145,277,-807,-93,1,7,11
1.72313E+12,-8250,83,896,315,-496,42,1,7,11
1.72313E+12,-8259,124,897,356,-427,-309,1,7,11
1.72313E+12,-8230,-88,900,373,-622,-361,1,7,11
1.72313E+12,-8265,-116,920,295,-542,-148,1,7,11
1.72313E+12,-8293,-282,998,-101,-533,-242,1,7,11
1.72313E+12,-8242,-541,1324,-87,-569,-771,1,7,11
1.72313E+12,-8233,-526,1289,168,-543,-958,1,7,11
1.72313E+12,-8293,-371,981,513,-546,-1619,1,7,11
1.72313E+12,-8072,-277,934,165,-599,-1873,1,7,11
1.72313E+12,-8087,40,908,273,-636,-1724,1,7,11
1.72313E+12,-8092,68,912,64,-390,-1682,1,7,11
1.72313E+12,-8073,12,949,-190,-635,-1507,1,7,11
1.72313E+12,-8094,-324,984,-395,-577,-1242,1,7,11
1.72313E+12,-8067,-156,1007,-786,-554,-903,1,7,11
1.72313E+12,-8245,-518,1290,-833,-187,-807,1,7,11
1.72313E+12,-8261,-630,1312,-840,-265,-223,1,7,11
1.72313E+12,-8244,-493,1355,-795,120,95,1,7,11
1.72313E+12,-8261,-830,1364,-423,263,360,1,7,11
1.72313E+12,-8270,-838,1353,-253,135,629,1,7,11
1.72313E+12,-8097,-823,1345,-370,524,893,1,7,11
1.72313E+12,-8277,-779,1330,40,580,969,1,7,11
1.72313E+12,-8301,-640,988,-58,478,1462,1,7,11
1.72313E+12,-8266,-621,962,273,852,2076,1,7,11
1.72313E+12,-8288,-388,959,317,770,2323,1,7,11
1.72313E+12,-8278,-612,963,192,1101,2254,1,7,11
1.72313E+12,-8242,-556,946,518,1149,2603,1,7,11
1.72313E+12,-8211,-254,923,572,959,2650,1,7,11
1.72313E+12,-8285,-167,1139,630,1301,2647,1,7,11
1.72313E+12,-8074,-309,1098,445,1293,2655,1,7,11
1.72313E+12,-8107,54,1040,493,1283,2659,1,7,11
1.72313E+12,-8172,-92,731,811,1020,2687,1,7,11
1.72313E+12,-8479,-23,684,833,974,2440,1,7,11
1.72313E+12,-8463,285,888,648,1149,2457,1,7,11
1.72313E+12,-8454,345,827,1024,1078,2687,1,7,11
1.72313E+12,-8156,168,773,909,732,2652,1,7,11
1.72313E+12,-8306,514,462,1286,647,2626,1,7,11
1.72313E+12,-8272,627,410,1346,649,2600,1,7,11
1.72313E+12,-8262,491,589,1285,866,2634,1,7,11
1.72313E+12,-7928,640,537,937,801,2475,1,7,11
1.72313E+12,-8193,1054,212,1072,792,2551,1,7,11
1.72313E+12,-7912,933,163,654,793,2707,1,7,11
1.72313E+12,-7910,1322,378,455,815,3117,1,7,11
1.72313E+12,-7926,1159,359,224,834,2996,1,7,11
1.72313E+12,-8193,1239,347,-7,811,3064,1,7,11
1.72313E+12,-7899,1608,317,42,489,3026,1,7,11
1.72313E+12,-7862,1473,302,-165,411,3136,1,7,11
1.72313E+12,-7818,1842,301,-623,558,2896,1,7,11
1.72313E+12,-8041,1713,285,-775,186,2259,1,7,11
1.72313E+12,-8009,2149,263,-850,321,1752,1,7,11
1.72313E+12,-8002,2337,261,-896,-66,1194,1,7,11
1.72313E+12,-7958,2209,272,-694,32,674,1,7,11
1.72313E+12,-7676,2574,306,-687,-336,171,1,7,11
1.72313E+12,-7948,2432,340,-876,-161,-292,1,7,11
1.72313E+12,-7959,2502,128,-771,-249,-440,1,7,11
1.72313E+12,-7940,2559,180,-394,-602,-1039,1,7,11
1.72313E+12,-7640,2531,217,-555,-411,-1304,1,7,11
1.72313E+12,-7612,2478,515,-176,-415,-1252,1,7,11
1.72313E+12,-7596,2640,567,-298,-388,-1421,1,7,11
1.72313E+12,-7564,2283,602,84,-615,-1856,1,7,11
1.72313E+12,-7771,2193,619,-5,-568,-1955,1,7,11
1.72313E+12,-7379,2017,627,355,-526,-2569,1,7,11
1.72313E+12,-7321,1924,611,251,-337,-3108,1,7,11
1.72313E+12,-7424,1962,604,446,-35,-3675,1,7,11
1.72313E+12,-7579,1985,614,772,225,-3835,1,7,11
1.72313E+12,-7986,1948,626,474,390,-4032,1,7,11
1.72313E+12,-7841,2093,620,596,450,-4008,1,7,11
1.72313E+12,-7917,1682,609,175,436,-3793,1,7,11
1.72313E+12,-7935,1473,586,-18,636,-3696,1,7,11
1.72313E+12,-7902,1249,544,79,618,-2987,1,7,11
1.72313E+12,-7879,1280,248,-304,410,-2517,1,7,11
1.72313E+12,-7901,1077,228,-129,505,-2027,1,7,11
1.72313E+12,-7928,649,218,-183,830,-1794,1,7,11
1.72313E+12,-8213,507,208,-195,892,-1299,1,7,11
1.72313E+12,-8253,400,191,-173,699,-799,1,7,11
1.72313E+12,-8284,594,160,-379,732,-290,1,7,11
1.72313E+12,-8313,518,382,-360,749,208,1,7,11
1.72313E+12,-8078,149,353,-367,746,669,1,7,11
1.72313E+12,-8125,301,335,-373,719,1291,1,7,11
1.72313E+12,-8464,108,348,-169,874,1263,1,7,11
1.72313E+12,-8163,-263,363,-333,482,1634,1,7,11
1.72313E+12,-8449,-285,355,52,404,1598,1,7,11
1.72313E+12,-8453,-347,365,-98,543,1239,1,7,11
1.72313E+12,-8148,-365,325,345,173,1299,1,7,11
1.72313E+12,-8153,27,262,565,149,1056,1,7,11
1.72313E+12,-8192,-115,-25,634,306,858,1,7,11
1.72313E+12,-8080,-20,-67,449,-36,631,1,7,11
1.72313E+12,-8085,328,-91,785,272,147,1,7,11
1.72313E+12,-8309,358,-105,510,257,-82,1,7,11
1.72313E+12,-8308,193,118,779,274,-273,1,7,11
1.72313E+12,-8091,571,87,800,315,-839,1,7,11
1.72313E+12,-8096,618,62,730,292,-1113,1,7,11
1.72313E+12,-8102,621,33,415,281,-1398,1,7,11
1.72313E+12,-8095,602,18,623,256,-1460,1,7,11
1.72313E+12,-8088,598,-262,616,-35,-2073,1,7,11
1.72313E+12,-8095,409,-289,390,-72,-2390,1,7,11
1.72313E+12,-8105,469,-317,639,-125,-2584,1,7,11
1.72313E+12,-8089,497,-332,578,63,-2633,1,7,11
1.72313E+12,-8067,485,-321,233,12,-2294,1,7,11
1.72313E+12,-8291,429,-302,140,-274,-2366,1,7,11
1.72313E+12,-8257,603,-283,327,-279,-2108,1,7,11
1.72313E+12,-8233,524,15,289,-266,-1824,1,7,11
1.72313E+12,-8226,208,56,274,-263,-1266,1,7,11
1.72313E+12,-7935,168,83,272,-270,-956,1,7,11
1.72313E+12,-7920,150,93,264,-260,-645,1,7,11
1.72313E+12,-7889,138,98,-16,-258,-588,1,7,11
1.72313E+12,-7874,135,89,-46,26,-274,1,7,11
1.72313E+12,-7880,147,89,-85,74,298,1,7,11
1.72313E+12,-7925,171,116,70,-100,681,1,7,11
1.72313E+12,-7934,172,123,18,-76,988,1,7,11
1.72313E+12,-8198,172,-119,-272,-57,1538,1,7,11
1.72313E+12,-8204,176,-106,-301,-51,1804,1,7,11
1.72313E+12,-8204,148,-80,-345,-61,1767,1,7,11
1.72313E+12,-8198,329,-46,-380,-97,2130,1,7,11
1.72313E+12,-8228,-7,-11,-370,97,2078,1,7,11
1.72313E+12,-8194,-58,262,-305,-280,1871,1,7,11
1.72313E+12,-8202,278,259,118,-334,1277,1,7,11
1.72313E+12,-8275,157,-12,-25,-146,948,1,7,11
1.72313E+12,-8318,528,-21,299,-239,662,1,7,11
1.72313E+12,-8119,405,-20,324,-579,427,1,7,11
1.72313E+12,-8108,456,-4,309,-402,217,1,7,11
1.72313E+12,-8176,820,-24,342,-635,-84,1,7,11
1.72313E+12,-8522,864,-6,340,-632,84,1,7,11
1.72313E+12,-8190,818,282,270,-506,-312,1,7,11
1.72313E+12,-8191,803,332,259,-484,-533,1,7,11
1.72313E+12,-8180,487,372,-21,-465,-769,1,7,11
1.72313E+12,-8159,421,151,-32,-429,-642,1,7,11
1.72313E+12,-8139,628,178,-3,-640,-736,1,7,11
1.72313E+12,-8120,594,211,282,-599,-1046,1,7,11
1.72313E+12,-8093,558,237,313,-561,-1049,1,7,11
1.72313E+12,-8071,254,512,321,-523,-765,1,7,11
1.72313E+12,-8295,202,539,325,-255,-711,1,7,11
1.72313E+12,-8251,139,565,338,-206,-648,1,7,11
1.72313E+12,-8210,337,581,376,-159,-841,1,7,11
1.72313E+12,-7928,303,599,193,-361,-773,1,7,11
1.72313E+12,-7926,290,606,222,-302,-438,1,7,11
1.72313E+12,-7910,277,608,566,-257,-591,1,7,11
1.72313E+12,-7917,283,601,616,56,-220,1,7,11
1.72313E+12,-7913,291,593,403,89,-344,1,7,11
1.72313E+12,-7886,308,583,436,120,49,1,7,11
1.72313E+12,-7880,333,577,460,-75,-78,1,7,11
1.72313E+12,-7899,377,565,470,-28,320,1,7,11
1.72313E+12,-7893,166,542,465,260,202,1,7,11
1.72313E+12,-7934,227,523,447,308,588,1,7,11
1.72313E+12,-8217,549,251,401,317,476,1,7,11
1.72313E+12,-8197,399,213,208,356,1042,1,7,11
1.72313E+12,-7906,428,198,167,131,1085,1,7,11
1.72313E+12,-7910,469,190,144,185,1082,1,7,11
1.72313E+12,-7926,494,183,363,223,1058,1,7,11
1.72313E+12,-8207,786,169,336,245,749,1,7,11
1.72313E+12,-8240,836,141,324,523,672,1,7,11
1.72313E+12,-8271,886,363,306,535,829,1,7,11
1.72313E+12,-8304,645,339,269,539,449,1,7,11
1.72313E+12,-8067,879,319,-20,535,555,1,7,11
1.72313E+12,-8086,873,298,-17,530,128,1,7,11
1.72313E+12,-8105,859,269,-18,525,-52,1,7,11
1.72313E+12,-8134,822,-7,-17,521,39,1,7,11
1.72313E+12,-8145,793,-4,-18,240,-360,1,7,11
1.72313E+12,-8159,480,268,-30,203,-224,1,7,11
1.72313E+12,-8164,429,269,-19,149,-579,1,7,11
1.72313E+12,-8164,602,282,-9,341,-398,1,7,11
1.72313E+12,-8092,573,288,290,272,-487,1,7,11
1.72313E+12,-8129,566,292,300,-13,-772,1,7,11
1.72313E+12,-8079,546,290,275,-121,-785,1,7,11
1.72313E+12,-8305,237,303,-37,45,-804,1,7,11
1.72313E+12,-8283,171,322,-105,-308,-829,1,7,11
1.72313E+12,-8275,157,331,123,-188,-868,1,7,11
1.72313E+12,-8230,157,335,114,-610,-885,1,7,11
1.72313E+12,-7898,375,353,117,-426,-861,1,7,11
1.72313E+12,-7888,342,376,-101,-619,-837,1,7,11
1.72313E+12,-7867,356,367,-37,-541,-806,1,7,11
1.72313E+12,-8039,173,310,-2,-209,-821,1,7,11
1.72313E+12,-7989,582,-6,-26,-298,-891,1,7,11
1.72313E+12,-7945,854,-113,127,-92,-700,1,7,11
1.72313E+12,-8012,1061,99,-212,176,-1062,1,7,11
1.72313E+12,-7902,922,91,-683,639,-1129,1,7,11
1.72313E+12,-8248,981,88,-1216,423,-926,1,7,11
1.72313E+12,-8097,938,114,-2072,418,-927,1,7,11
1.72313E+12,-8464,759,-128,-2437,581,-1150,1,7,11
1.72313E+12,-8160,471,-44,-3191,347,-910,1,7,11
1.72313E+12,-8281,199,271,-3230,-17,-1351,1,7,11
1.72313E+12,-8163,118,343,-3327,-66,-1650,1,7,11
1.72313E+12,-7936,-371,145,-3368,-285,-1756,1,7,11
1.72313E+12,-7923,-206,194,-2768,54,-2186,1,7,11
1.72313E+12,-8209,-194,227,-2649,-118,-2634,1,7,11
1.72313E+12,-8280,-155,245,-2028,257,-2622,1,7,11
1.72313E+12,-8112,-151,527,-1713,361,-2346,1,7,11
1.72313E+12,-8079,-530,538,-1430,165,-1673,1,7,11
1.72313E+12,-8282,-411,526,-1330,553,-1241,1,7,11
1.72313E+12,-8217,-503,520,-710,455,-1071,1,7,11
1.72313E+12,-7918,-792,223,-622,870,-445,1,7,11
1.72313E+12,-7819,-490,176,-327,1032,-350,1,7,11
1.72313E+12,-8211,-418,352,-125,999,-53,1,7,11
1.72313E+12,-8203,-621,292,-11,1313,536,1,7,11
1.72313E+12,-8258,-535,-62,319,1154,780,1,7,11
1.72313E+12,-8091,-224,-113,257,1182,749,1,7,11
1.72313E+12,-8149,-556,110,122,1357,1127,1,7,11
1.72313E+12,-8094,-397,79,-276,954,1050,1,7,11
1.72313E+12,-8086,-416,48,-331,1112,690,1,7,11
1.72313E+12,-8086,-639,-269,-318,1062,445,1,7,11
1.72313E+12,-8106,-564,-373,-306,765,198,1,7,11
1.72313E+12,-8172,-235,-171,-312,710,260,1,7,11
1.72313E+12,-8140,-163,-201,-339,839,-114,1,7,11
1.72313E+12,-8087,-136,-215,-361,491,72,1,7,11
1.72313E+12,-8256,-139,-216,-132,423,55,1,7,11
1.72313E+12,-8212,-154,-200,-136,608,45,1,7,11
1.72313E+12,-7910,-163,-206,-376,538,24,1,7,11
1.72313E+12,-7851,-163,-231,-345,203,-259,1,7,11
1.72313E+12,-8039,-131,-537,-285,383,-301,1,7,11
1.72313E+12,-8037,-339,-586,26,148,-346,1,7,11
1.72313E+12,-8035,-319,-609,43,153,-372,1,7,11
1.72313E+12,-8062,-325,-611,41,166,-148,1,7,11
1.72313E+12,-7866,-333,-601,45,167,-191,1,7,11
1.72313E+12,-7908,-356,-595,42,375,-244,1,7,11
1.72313E+12,-8194,-130,-598,43,331,-570,1,7,11
1.72313E+12,-8228,-137,-629,62,324,-389,1,7,11
1.72313E+12,-8288,-133,-408,61,340,-461,1,7,11
1.72313E+12,-8308,-139,-437,42,370,-769,1,7,11
1.72313E+12,-8080,-134,-453,9,187,-814,1,7,11
1.72313E+12,-8284,-381,-463,-303,247,-826,1,7,11
1.72313E+12,-8195,-384,-454,-130,581,-830,1,7,11
1.72313E+12,-7872,-153,-426,-227,420,-819,1,7,11
1.72313E+12,-7850,-192,-401,-577,488,-794,1,7,11
1.72313E+12,-7850,-230,-395,-639,497,-488,1,7,11
1.72313E+12,-7870,-255,-401,-413,476,-421,1,7,11
1.72313E+12,-7897,-528,-416,-436,416,-581,1,7,11
1.72313E+12,-7889,-553,-431,-450,574,-199,1,7,11
1.72313E+12,-7888,-568,-450,-439,234,-327,1,7,11
1.72313E+12,-7875,-586,-468,-424,153,64,1,7,11
1.72313E+12,-7901,-602,-486,-391,345,-78,1,7,11
1.72313E+12,-7933,-622,-488,-606,276,278,1,7,11
1.72313E+12,-8223,-398,-497,-551,-48,340,1,7,11
1.72313E+12,-8286,-407,-776,-227,-103,363,1,7,11
1.72313E+12,-8089,-420,-791,-166,97,359,1,7,11
1.72313E+12,-8121,-430,-786,-362,35,322,1,7,11
1.72313E+12,-8154,-433,-774,-272,-285,-36,1,7,11
1.72313E+12,-8180,-424,-499,45,-331,-94,1,7,11
1.72313E+12,-8183,-410,-491,108,-130,123,1,7,11
1.72313E+12,-8159,-385,-467,-81,-190,115,1,7,11
1.72313E+12,-8091,-610,-450,-17,-251,-126,1,7,11
1.72313E+12,-8276,-584,-420,282,-537,-94,1,7,11
1.72313E+12,-8219,-543,-397,314,-556,-51,1,7,11
1.72313E+12,-7913,-254,-616,335,-572,263,1,7,11
1.72313E+12,-7875,-210,-600,363,-584,337,1,7,11
1.72313E+12,-7860,-165,-578,382,-578,164,1,7,11
1.72313E+12,-7871,-370,-584,137,-565,519,1,7,11
1.72313E+12,-7866,-329,-583,379,-551,629,1,7,11
1.72313E+12,-7868,-279,-593,352,-256,474,1,7,11
1.72313E+12,-7890,-284,-575,271,-225,808,1,7,11
1.72313E+12,-7888,-303,-565,-59,-215,839,1,7,11
1.72313E+12,-7909,-283,-560,-126,-210,796,1,7,11
1.72313E+12,-7909,2,-579,43,-234,429,1,7,11
1.72313E+12,-8205,91,-594,-312,-246,223,1,7,11
1.72313E+12,-8214,-1,-597,-222,-513,300,1,7,11
1.72313E+12,-8095,354,-571,-784,-556,-83,1,7,11
1.72313E+12,-8256,345,-517,-1125,-476,125,1,7,11
1.72313E+12,-8216,326,-233,-1398,-793,81,1,7,11
1.72313E+12,-7874,-19,-187,-1654,-852,83,1,7,11
1.72313E+12,-7845,90,-352,-1534,-844,58,1,7,11
1.72313E+12,-7896,-266,-264,-1503,-773,65,1,7,11
1.72313E+12,-8224,-331,43,-1630,-473,110,1,7,11
1.72313E+12,-8264,-369,69,-1180,-449,-64,1,7,11
1.72313E+12,-8283,-382,82,-947,-407,310,1,7,11
1.72313E+12,-8275,-374,79,-706,-606,184,1,7,11
1.72313E+12,-8277,-354,89,-496,-526,585,1,7,11
1.72313E+12,-8073,-136,109,-570,-232,434,1,7,11
1.72313E+12,-8225,-180,-92,-365,-245,460,1,7,11
1.72313E+12,-8311,-175,-70,87,-185,402,1,7,11
1.72313E+12,-8267,-152,-82,277,-563,544,1,7,11
1.72313E+12,-8198,-366,-101,251,-620,356,1,7,11
1.72313E+12,-8226,44,-101,479,-584,-77,1,7,11
1.72313E+12,-8255,-62,-93,787,-585,60,1,7,11
1.72313E+12,-8293,-12,-92,486,-586,14,1,7,11
1.72313E+12,-8298,-38,-55,614,-622,5,1,7,11
1.72313E+12,-8067,-64,-29,234,-627,9,1,7,11
1.72313E+12,-8309,-44,-8,379,-402,-271,1,7,11
1.72313E+12,-8108,-32,267,-7,-397,-271,1,7,11
1.72313E+12,-8318,-33,272,110,-439,3,1,7,11
1.72313E+12,-8311,-5,286,-269,-407,5,1,7,11
1.72313E+12,-8304,294,302,-173,-618,43,1,7,11
1.72313E+12,-8308,321,309,-401,-578,97,1,7,11
1.72313E+12,-8292,285,297,-873,-565,-113,1,7,11
1.72313E+12,-8252,-71,340,-754,-525,-128,1,7,11
1.72313E+12,-8278,-121,358,-738,-198,43,1,7,11
1.72313E+12,-8067,-120,363,-664,-193,-316,1,7,11
1.72313E+12,-8160,-63,342,-647,-516,-167,1,7,11
1.72313E+12,-8541,-25,324,-1030,-447,-228,1,7,11
1.72313E+12,-8402,-18,321,-1011,-1061,-205,1,7,11
1.72313E+12,-8390,277,317,-1169,-1215,-308,1,7,11
1.72313E+12,-8743,262,317,-1604,-1846,-80,1,7,11
1.72313E+12,-8418,-112,358,-1460,-2020,537,1,7,11
1.72313E+12,-8549,-261,198,-1445,-2594,881,1,7,11
1.72313E+12,-8190,-326,587,-1235,-2656,1326,1,7,11
1.72313E+12,-8119,-154,510,-935,-2593,1843,1,7,11
1.72313E+12,-7836,-545,708,-461,-2180,2360,1,7,11
1.72313E+12,-7618,-241,1090,-57,-2081,2434,1,7,11
1.72313E+12,-7360,-132,983,779,-1620,2835,1,7,11
1.72313E+12,-7488,50,1334,967,-720,2493,1,7,11
1.72313E+12,-7168,-50,1155,1230,-351,2429,1,7,11
1.72313E+12,-7450,151,1174,1466,573,1910,1,7,11
1.72313E+12,-7421,443,1374,1882,960,1012,1,7,11
1.72313E+12,-8007,963,896,1850,1632,605,1,7,11
1.72313E+12,-8292,1189,1040,1620,1661,18,1,7,11
1.72313E+12,-8487,1493,749,1069,1153,-482,1,7,11
1.72313E+12,-8723,1873,638,318,1120,-713,1,7,11
1.72313E+12,-8691,1570,418,-814,609,-721,1,7,11
1.72313E+12,-8726,1316,452,-1539,-315,-809,1,7,11
1.72313E+12,-8555,894,843,-1689,-477,-598,1,7,11
1.72313E+12,-8126,213,1028,-2050,-892,-351,1,7,11
1.72313E+12,-8298,299,896,-1422,-857,-370,1,7,11
1.72313E+12,-7917,276,979,-1152,-821,-149,1,7,11
1.72313E+12,-7921,320,1284,-617,-554,-241,1,7,11
1.72313E+12,-7887,196,1294,89,-154,-516,1,7,11
1.72313E+12,-7878,578,1020,341,-263,-590,1,7,11
1.72313E+12,-7837,615,1022,503,-110,-607,1,7,11
1.72313E+12,-7902,628,1007,851,305,-433,1,7,11
1.72313E+12,-7932,561,1011,853,338,-492,1,7,11
1.72313E+12,-7918,384,971,874,347,-835,1,7,11
1.72313E+12,-8266,772,1135,768,148,-809,1,7,11
1.72313E+12,-8255,463,1123,566,382,-467,1,7,11
1.72313E+12,-8291,422,1093,233,162,-640,1,7,11
1.72313E+12,-8316,395,1082,156,373,-555,1,7,11
1.72313E+12,-8233,401,1108,340,332,-183,1,7,11
1.72313E+12,-8107,442,1072,-43,148,-140,1,7,11
1.72313E+12,-8147,492,1053,16,282,-312,1,7,11
1.72313E+12,-8131,821,726,-137,-64,-304,1,7,11
1.72313E+12,-8131,661,676,-606,-109,-294,1,7,11
1.72313E+12,-8141,661,894,-655,90,-272,1,7,11
1.72313E+12,-8160,874,887,-959,8,9,1,7,11
1.72313E+12,-8179,506,684,-1256,-355,16,1,7,11
1.72313E+12,-8455,574,1026,-1459,-230,21,1,7,11
1.72313E+12,-8165,361,931,-1473,-603,20,1,7,11
1.72313E+12,-8280,-69,1009,-1273,-425,13,1,7,11
1.72313E+12,-7851,-30,1339,-1136,-604,-341,1,7,11
1.72313E+12,-7605,-289,1392,-550,-334,-248,1,7,11
1.72313E+12,-7576,6,1152,145,374,-674,1,7,11
1.72313E+12,-7720,4,1201,752,821,-1006,1,7,11
1.72313E+12,-7719,115,1160,1415,1389,-1601,1,7,11
1.72313E+12,-7355,-69,1344,2244,2033,-1919,1,7,11
1.72313E+12,-7497,-7,960,2919,2727,-2316,1,7,11
1.72313E+12,-7101,341,1081,2956,3704,-2480,1,7,11
1.72313E+12,-7285,327,725,3338,4295,-3178,1,7,11
1.72313E+12,-7469,291,866,3201,5484,-3239,1,7,11
1.72313E+12,-7422,-55,412,3287,6199,-3607,1,7,11
1.72313E+12,-7747,115,355,3627,6384,-3627,1,7,11
1.72313E+12,-7755,-273,-266,3590,6925,-3604,1,7,11
1.72313E+12,-7746,-158,-419,3242,6833,-3292,1,7,11
1.72313E+12,-7678,-244,-1053,3048,7212,-3271,1,7,11
1.72313E+12,-8301,-605,-1341,2943,6853,-3448,1,7,11
1.72313E+12,-8428,-480,-1569,2223,6356,-3041,1,7,11
1.72313E+12,-8787,-890,-1807,1705,5698,-3087,1,7,11
1.72313E+12,-8736,-736,-1767,1152,4714,-2894,1,7,11
1.72313E+12,-8402,-1078,-1942,819,3547,-2677,1,7,11
1.72313E+12,-8510,-916,-2326,-13,2730,-2380,1,7,11
1.72313E+12,-8501,-1015,-2421,-579,2312,-2061,1,7,11
1.72313E+12,-8122,-1220,-2210,-1129,1606,-1646,1,7,11
1.72313E+12,-8217,-1664,-2229,-1259,711,-1309,1,7,11
1.72313E+12,-8025,-1520,-2260,-1536,185,-747,1,7,11
1.72313E+12,-7677,-1884,-2263,-1703,116,-479,1,7,11
1.72313E+12,-7628,-1704,-2274,-1729,-358,-183,1,7,11
1.72313E+12,-7591,-1745,-2278,-1695,-524,99,1,7,11
1.72313E+12,-7625,-1711,-2569,-1867,-419,138,1,7,11
1.72313E+12,-7609,-1911,-2607,-1858,-875,464,1,7,11
1.72313E+12,-7576,-1919,-2619,-1901,-1058,1029,1,7,11
1.72313E+12,-7553,-1902,-2607,-1884,-924,1298,1,7,11
1.72313E+12,-7577,-1897,-2575,-1855,-1019,1538,1,7,11
1.72313E+12,-7555,-1667,-2284,-1836,-1402,1838,1,7,11
1.72313E+12,-7776,-1690,-2229,-1534,-1270,1716,1,7,11
1.72313E+12,-7732,-1905,-2431,-1617,-1612,2093,1,7,11
1.72313E+12,-7775,-1818,-2376,-1337,-1609,1935,1,7,11
1.72313E+12,-7763,-1483,-2034,-1112,-1617,2329,1,7,11
1.72313E+12,-7733,-1648,-1971,-846,-1559,2227,1,7,11
1.72313E+12,-7747,-1595,-2159,-466,-1166,2617,1,7,11
1.72313E+12,-7751,-1537,-2087,-577,-1288,2456,1,7,11
1.72313E+12,-7720,-1231,-1759,-166,-1149,2463,1,7,11
1.72313E+12,-7727,-1163,-1703,33,-729,2624,1,7,11
1.72313E+12,-7765,-1305,-1890,257,-860,2431,1,7,11
1.72313E+12,-7561,-1118,-1855,208,-804,2164,1,7,11
1.72313E+12,-7584,-879,-1842,592,-824,1871,1,7,11
1.72313E+12,-7613,-436,-1823,618,-861,1615,1,7,11
1.72313E+12,-7632,-239,-1812,624,-652,1165,1,7,11
1.72313E+12,-7596,-324,-1522,580,-711,1019,1,7,11
1.72313E+12,-7613,76,-1494,253,-684,921,1,7,11
1.72313E+12,-7947,-118,-1434,142,-713,1123,1,7,11
1.72313E+12,-7676,-122,-1597,378,-1053,1036,1,7,11
1.72313E+12,-7962,-47,-1253,179,-1093,689,1,7,11
1.72313E+12,-7984,359,-1168,213,-900,641,1,7,11
1.72313E+12,-7666,523,-1347,183,-927,710,1,7,11
1.72313E+12,-8055,409,-1305,332,-1102,1108,1,7,11
1.72313E+12,-8034,445,-961,-120,-950,1353,1,7,11
1.72313E+12,-8028,445,-1142,23,-955,1550,1,7,11
1.72313E+12,-8057,413,-1065,-294,-924,1482,1,7,11
1.72313E+12,-8038,418,-751,-260,-919,1832,1,7,11
1.72313E+12,-8003,510,-689,-263,-917,1879,1,7,11
1.72313E+12,-8002,881,-873,-331,-1134,1689,1,7,11
1.72313E+12,-7842,728,-817,-201,-1123,1762,1,7,11
1.72313E+12,-7880,750,-474,-635,-974,2103,1,7,11
1.72313E+12,-7880,1061,-397,-484,-1333,2163,1,7,11
1.72313E+12,-7840,1104,-618,-800,-1177,1970,1,7,11
1.72313E+12,-8047,1050,-572,-512,-1170,1987,1,7,11
1.72313E+12,-8004,746,-246,-601,-1345,2151,1,7,11
1.72313E+12,-8034,705,-141,-147,-1011,1910,1,7,11
1.72313E+12,-8000,1065,-369,-52,-997,1185,1,7,11
1.72313E+12,-8062,910,-343,349,-956,1116,1,7,11
1.72313E+12,-7809,947,-315,195,-956,843,1,7,11
1.72313E+12,-8023,979,-281,544,-930,606,1,7,11
1.72313E+12,-7836,1317,-282,617,-1069,156,1,7,11
1.72313E+12,-7816,1300,-276,595,-1071,308,1,7,11
1.72313E+12,-8004,984,-260,386,-702,-64,1,7,11
1.72313E+12,-8034,990,10,448,-774,90,1,7,11
1.72313E+12,-7810,951,23,455,-396,-273,1,7,11
1.72313E+12,-8049,926,39,459,-553,-134,1,7,11
1.72313E+12,-7814,933,21,465,-132,-514,1,7,11
1.72313E+12,-7872,920,19,412,-302,-607,1,7,11
1.72313E+12,-7814,1116,23,586,-274,-454,1,7,11
1.72313E+12,-7848,1145,-276,544,-118,-783,1,7,11
1.72313E+12,-7897,898,-299,136,-94,-785,1,7,11
1.72313E+12,-7853,1032,-309,258,-65,-824,1,7,11
1.72313E+12,-7900,743,-338,-44,269,-866,1,7,11
1.72313E+12,-7889,710,-347,-119,287,-661,1,7,11
1.72313E+12,-7900,713,-370,73,323,-690,1,7,11
1.72313E+12,-7883,720,-139,-264,336,-693,1,7,11
1.72313E+12,-7894,686,-165,-341,360,-705,1,7,11
1.72313E+12,-7878,884,-179,-144,360,-721,1,7,11
1.72313E+12,-7823,842,-197,-165,353,-767,1,7,11
1.72313E+12,-7817,831,-225,-166,135,-1060,1,7,11
1.72313E+12,-7828,821,-249,-192,178,-1066,1,7,11
1.72313E+12,-7852,789,-531,-209,209,-1041,1,7,11
1.72313E+12,-7875,794,-547,-193,226,-719,1,7,11
1.72313E+12,-7915,795,-560,-187,236,-864,1,7,11
1.72313E+12,-8196,491,-583,-190,221,-424,1,7,11
1.72313E+12,-7916,434,-573,-213,192,-154,1,7,11
1.72313E+12,-7916,436,-579,-190,219,-327,1,7,11
1.72313E+12,-7897,427,-601,-153,220,90,1,7,11
1.72313E+12,-7893,422,-629,-372,240,-56,1,7,11
1.72313E+12,-7906,439,-409,-345,525,282,1,7,11
1.72313E+12,-7905,455,-442,-334,522,295,1,7,11
1.72313E+12,-7926,469,-474,-346,518,286,1,7,11
1.72313E+12,-8223,455,-484,-377,235,264,1,7,11
1.72313E+12,-8231,450,-467,-139,186,-14,1,7,11
1.72313E+12,-8246,459,-451,-374,133,-38,1,7,11
1.72313E+12,-8225,451,-437,-362,333,-47,1,7,11
1.72313E+12,-8308,466,-447,-347,301,-43,1,7,11
1.72313E+12,-8212,438,-454,-355,-76,-23,1,7,11
1.72313E+12,-7936,435,-461,-327,-80,-38,1,7,11
1.72313E+12,-8193,444,-457,-315,-85,-34,1,7,11
1.72313E+12,-8225,447,-438,-304,-97,-49,1,7,11
1.72313E+12,-8252,461,-420,-292,-127,-46,1,7,11
1.72313E+12,-8250,453,-409,-286,87,-41,1,7,11
1.72313E+12,-8247,464,-398,-261,51,-32,1,7,11
1.72313E+12,-8234,481,-637,7,18,-28,1,7,11
1.72313E+12,-8201,502,-633,19,-271,-30,1,7,11
1.72313E+12,-7935,795,-619,27,-287,-43,1,7,11
1.72313E+12,-7929,826,-597,16,-306,-46,1,7,11
1.72313E+12,-7913,850,-585,-263,-331,-48,1,7,11
1.72313E+12,-7894,867,-581,-289,-342,-48,1,7,11
1.72313E+12,-7881,891,-576,-313,-342,-48,1,7,11
1.72313E+12,-7879,661,-567,-332,-333,-47,1,7,11
1.72313E+12,-7887,666,-554,-345,-319,-39,1,7,11
1.72313E+12,-7881,682,-549,-352,-300,-33,1,7,11
1.72313E+12,-7870,697,-543,-354,-301,-20,1,7,11
1.72313E+12,-7879,714,-537,-355,-298,-12,1,7,11
1.72313E+12,-7882,730,-525,-356,-306,-4,1,7,11
1.72313E+12,-7892,747,-518,-357,-308,258,1,7,11
1.72313E+12,-7915,753,-250,-359,-327,262,1,7,11
1.72313E+12,-7907,747,-233,-381,-365,258,1,7,11
1.72313E+12,-7903,758,-215,-373,-135,-5,1,7,11
1.72313E+12,-7886,763,-201,-372,-162,-13,1,7,11
1.72313E+12,-7874,1026,-181,-364,-176,-20,1,7,11
1.72313E+12,-7860,1048,-165,-352,-174,-21,1,7,11
1.72313E+12,-7868,1055,-156,-341,-158,-19,1,7,11
1.72313E+12,-7879,1059,-149,-337,-150,-17,1,7,11
1.72313E+12,-7878,1064,-130,-336,-145,-19,1,7,11
1.72313E+12,-7874,1061,-369,-335,-130,-28,1,7,11
1.72313E+12,-7886,1050,-361,-333,-369,-43,1,7,11
1.72313E+12,-7891,1038,-347,-316,-352,-71,1,7,11
1.72313E+12,-7903,1029,-329,-302,-334,-104,1,7,11
1.72313E+12,-7908,763,-310,-284,-327,112,1,7,11
1.72313E+12,-7905,754,-308,-269,-315,70,1,7,11
1.72313E+12,-7911,739,-306,2,-297,26,1,7,11
1.72313E+12,-7913,731,-296,18,-280,-275,1,7,11
1.72313E+12,-7923,714,-292,31,-259,-316,1,7,11
1.72313E+12,-7936,707,-290,43,16,-352,1,7,11
1.72313E+12,-7933,695,-290,54,26,-381,1,7,11
1.72313E+12,-7921,677,-296,54,41,-151,1,7,11
1.72313E+12,-7921,671,-295,55,67,-176,1,7,11
1.72313E+12,-7930,668,-292,53,94,-195,1,7,11
1.72313E+12,-8200,660,-291,41,114,-203,1,7,11
1.72313E+12,-8210,647,-285,23,125,-205,1,7,11
1.72313E+12,-8208,889,-286,7,-127,-202,1,7,11
1.72313E+12,-8206,878,-295,-271,-123,-194,1,7,11
1.72313E+12,-8206,866,-291,-287,-118,-178,1,7,11
1.72313E+12,-8202,857,-289,-299,-110,-162,1,7,11
1.72313E+12,-8223,851,-292,-305,-101,-142,1,7,11
1.72313E+12,-8225,848,-285,-315,-111,-366,1,7,11
1.72313E+12,-8214,831,-281,-325,-119,-334,1,7,11
1.72313E+12,-8201,832,-276,-327,-122,-305,1,7,11
1.72313E+12,-8217,833,-270,-335,-123,-281,1,7,11
1.72313E+12,-8222,834,-262,-348,120,1,1,7,11
1.72313E+12,-8213,845,-266,-349,92,51,1,7,11
1.72313E+12,-8197,859,-275,-345,77,93,1,7,11
1.72313E+12,-7924,873,-270,-340,97,-117,1,7,11
1.72313E+12,-7906,893,-285,-323,-126,-72,1,7,11
1.72313E+12,-7901,652,-290,-322,-87,-28,1,7,11
1.72313E+12,-7911,670,-279,-328,-54,264,1,7,11
1.72313E+12,-7917,679,-282,-336,-39,291,1,7,11
1.72313E+12,-7918,692,-288,-342,-35,301,1,7,11
1.72313E+12,-7921,704,-299,-352,-31,300,1,7,11
1.72313E+12,-7934,714,-303,-365,-24,290,1,7,11
1.72313E+12,-8201,720,-305,-381,-27,279,1,7,11
1.72313E+12,-8206,718,-302,-134,-38,264,1,7,11
1.72313E+12,-8197,710,-293,-135,-52,-8,1,7,11
1.72313E+12,-8212,715,-287,-384,-60,-32,1,7,11
1.72313E+12,-8207,705,-279,-376,-80,-57,1,7,11
1.72313E+12,-8203,701,-269,-353,-93,-84,1,7,11
1.72313E+12,-8206,699,-269,-333,-109,-107,1,7,11
1.72313E+12,-8196,692,-266,-310,-124,126,1,7,11
1.72313E+12,-7930,701,-269,-279,-124,104,1,7,11
1.72313E+12,-7934,709,-272,2,-114,85,1,7,11
1.72313E+12,-8197,716,-266,23,-107,71,1,7,11
1.72313E+12,-8203,722,-269,35,-103,63,1,7,11
1.72313E+12,-8200,726,-277,37,-103,61,1,7,11
1.72313E+12,-8200,731,-283,34,-104,59,1,7,11
1.72313E+12,-7936,732,-277,31,-103,57,1,7,11
1.72313E+12,-8193,730,-270,25,-100,59,1,7,11
1.72313E+12,-7931,732,-274,26,-98,69,1,7,11
1.72313E+12,-7921,730,-266,28,-98,80,1,7,11
1.72313E+12,-7912,736,-271,26,-95,90,1,7,11
1.72313E+12,-7908,743,-275,25,-85,102,1,7,11
1.72313E+12,-7902,754,-281,18,-73,114,1,7,11
1.72313E+12,-7913,759,-283,9,-59,126,1,7,11
1.72313E+12,-7925,756,-294,-264,-42,-114,1,7,11
1.72313E+12,-7918,747,-297,-281,-40,-107,1,7,11
1.72313E+12,-7913,745,-303,-291,-21,-104,1,7,11
1.72313E+12,-7921,747,-305,-296,-10,-99,1,7,11
1.72313E+12,-7929,753,-309,-298,-4,-96,1,7,11
1.72313E+12,-8194,764,-305,-300,-7,-82,1,7,11
1.72313E+12,-8202,1026,-316,-302,-19,-67,1,7,11
1.72313E+12,-8204,1027,-314,-307,-39,-56,1,7,11
1.72313E+12,-7936,1026,-316,-309,-60,-53,1,7,11
1.72313E+12,-7927,1033,-317,-302,-71,-57,1,7,11
1.72313E+12,-7929,1046,-316,-295,-75,-67,1,7,11
1.72313E+12,-7930,1061,-318,-296,-86,-74,1,7,11
1.72313E+12,-7927,1062,-316,-303,-100,-78,1,7,11
1.72313E+12,-7926,1058,-300,-302,-108,-86,1,7,11
1.72313E+12,-7918,1054,-289,-290,-113,-101,1,7,11
1.72313E+12,-7918,1054,-292,-275,-113,-121,1,7,11
1.72313E+12,-7909,1058,-289,-262,-108,113,1,7,11
1.72313E+12,-7917,1063,-292,12,-92,90,1,7,11
1.72313E+12,-7923,1076,-290,21,-90,78,1,7,11
1.72313E+12,-7912,1071,-295,16,-94,61,1,7,11
1.72313E+12,-7901,1071,-302,11,-88,43,1,7,11
1.72313E+12,-7923,1074,-306,-258,-85,14,1,7,11
1.72313E+12,-8200,1063,-300,-285,-105,-264,1,7,11
1.72313E+12,-8206,1057,-295,-298,124,-274,1,7,11
1.72313E+12,-7933,1056,-296,-304,98,-270,1,7,11
1.72313E+12,-7916,1043,-293,-304,92,-260,1,7,11
1.72313E+12,-7898,1037,-295,-282,112,16,1,7,11
1.72313E+12,-7894,1042,-293,-265,-108,39,1,7,11
1.72313E+12,-7895,1043,-287,3,-80,62,1,7,11
1.72313E+12,-7906,1046,-277,13,-67,80,1,7,11
1.72313E+12,-7907,1058,-283,14,-65,90,1,7,11
1.72313E+12,-7905,1071,-295,-257,-66,95,1,7,11
1.72313E+12,-7905,1072,-303,-284,-63,91,1,7,11
1.72313E+12,-7922,1079,-307,-313,-57,82,1,7,11
1.72313E+12,-8197,1068,-296,-338,-66,72,1,7,11
1.72313E+12,-8201,1059,-284,-351,-82,64,1,7,11
1.72313E+12,-7931,1045,-278,-345,-100,58,1,7,11
1.72313E+12,-7929,1044,-277,-326,-105,48,1,7,11
1.72313E+12,-7926,1047,-262,-307,-114,43,1,7,11
1.72313E+12,-8194,1050,-257,-280,-113,42,1,7,11
1.72313E+12,-7931,1046,7,0,118,54,1,7,11
1.72313E+12,-7917,1045,0,23,116,50,1,7,11
1.72313E+12,-7900,1052,-264,44,-120,43,1,7,11
1.72313E+12,-7894,1062,-272,55,-86,35,1,7,11
1.72313E+12,-7901,1074,-277,50,-55,31,1,7,11
1.72313E+12,-7909,1084,-284,35,-40,30,1,7,11
1.72313E+12,-7917,1094,-297,12,-31,36,1,7,11
1.72313E+12,-7918,1095,-293,-272,-27,41,1,7,11
1.72313E+12,-7931,1091,-294,-302,-23,43,1,7,11
1.72313E+12,-8196,1077,-291,-326,-20,41,1,7,11
1.72313E+12,-8205,1062,-291,-346,-35,33,1,7,11
1.72313E+12,-8196,1054,-278,-352,-57,19,1,7,11
1.72313E+12,-7925,1047,-270,-351,-73,4,1,7,11
1.72313E+12,-7927,1047,-275,-345,-69,-257,1,7,11
1.72313E+12,-7921,1043,-275,-336,-64,-261,1,7,11
1.72313E+12,-7920,1045,-277,-322,-55,-257,1,7,11
1.72313E+12,-7915,1048,-276,-311,-43,3,1,7,11
1.72313E+12,-7911,1047,-276,-308,-29,5,1,7,11
1.72313E+12,-7896,1046,-282,-307,-14,7,1,7,11
1.72313E+12,-7886,1060,-293,-300,269,4,1,7,11
1.72313E+12,-7873,1112,-299,-298,301,7,1,7,11
1.72313E+12,-7877,906,-301,-343,343,1,1,7,11
1.72313E+12,-7863,1147,-269,-170,368,10,1,7,11
1.72313E+12,-7835,1049,43,-213,160,-264,1,7,11
1.72313E+12,-8000,681,73,-162,210,-277,1,7,11
1.72313E+12,-7782,849,65,-278,583,-337,1,7,11
1.72313E+12,-7320,778,52,-37,653,-242,1,7,11
1.72313E+12,-7530,777,70,557,1197,-475,1,7,11
1.72313E+12,-7371,817,74,888,1759,-724,1,7,11
1.72313E+12,-7775,849,39,963,2224,-1013,1,7,11
1.72313E+12,-7617,649,-317,1551,2848,-1335,1,7,11
1.72313E+12,-8026,1039,-254,1847,3158,-1159,1,7,11
1.72313E+12,-7828,896,-490,1728,3032,-1348,1,7,11
1.72313E+12,-7906,942,-743,1683,3336,-1001,1,7,11
1.72313E+12,-8243,948,-945,1478,3303,-908,1,7,11
1.72313E+12,-8477,990,-1388,1157,3121,-1097,1,7,11
1.72313E+12,-8338,951,-1538,652,2615,-677,1,7,11
1.72313E+12,-8355,1069,-1649,80,1771,-777,1,7,11
1.72313E+12,-8351,666,-1470,-447,1185,-609,1,7,11
1.72313E+12,-8518,493,-1500,-899,865,-190,1,7,11
1.72313E+12,-8168,620,-1508,-1214,143,-290,1,7,11
1.72313E+12,-8082,244,-1484,-1453,6,126,1,7,11
1.72313E+12,-8239,366,-1429,-1842,-586,-24,1,7,11
1.72313E+12,-7877,261,-1645,-1813,-813,316,1,7,11
1.72313E+12,-7849,265,-1600,-1623,-679,378,1,7,11
1.72313E+12,-8024,304,-1548,-1207,-1057,193,1,7,11
1.72313E+12,-7680,344,-1274,-1323,-1053,568,1,7,11
1.72313E+12,-7673,295,-1227,-970,-664,430,1,7,11
1.72313E+12,-7677,-14,-1180,-1069,-512,473,1,7,11
1.72313E+12,-7972,260,-1395,-888,-398,432,1,7,11
1.72313E+12,-7982,301,-1364,-482,-576,634,1,7,11
1.72313E+12,-7997,359,-1362,-619,-515,541,1,7,11
1.72313E+12,-7993,172,-1362,-518,-236,171,1,7,11
1.72313E+12,-7989,525,-1349,-177,-198,321,1,7,11
1.72313E+12,-8004,627,-1337,-136,-162,-11,1,7,11
1.72313E+12,-8037,456,-1334,-139,-151,-53,1,7,11
1.72313E+12,-8052,510,-1347,-184,-188,-51,1,7,11
1.72313E+12,-8008,510,-1343,-205,-225,-44,1,7,11
1.72313E+12,-8003,493,-1308,-170,-181,-46,1,7,11
1.72313E+12,-8025,469,-1012,-384,-135,-56,1,7,11
1.72313E+12,-8054,510,-1000,-335,-370,-57,1,7,11
1.72313E+12,-7817,806,-979,-310,-354,-45,1,7,11
1.72313E+12,-7816,841,-961,-298,-352,4,1,7,11
1.72313E+12,-8061,867,-938,-267,-364,292,1,7,11
1.72313E+12,-7813,877,-914,5,-352,328,1,7,11
1.72313E+12,-7831,643,-1149,29,-371,346,1,7,11
1.72313E+12,-7844,666,-1118,70,-159,340,1,7,11
1.72313E+12,-7864,681,-1083,66,-229,327,1,7,11
1.72313E+12,-7862,715,-1041,61,-586,320,1,7,11
1.72313E+12,-7847,1034,-761,53,-431,322,1,7,11
1.72313E+12,-7852,1061,-717,14,-504,346,1,7,11
1.72313E+12,-7824,1087,-661,1,-825,131,1,7,11
1.72313E+12,-7833,919,-642,3,-835,191,1,7,11
1.72313E+12,-7873,962,-860,-326,-641,551,1,7,11
1.72313E+12,-7809,937,-807,-369,-715,619,1,7,11
1.72313E+12,-7821,937,-501,-362,-711,409,1,7,11
1.72313E+12,-7810,922,-454,-356,-739,416,1,7,11
1.72313E+12,-8049,940,-413,-318,-766,393,1,7,11
1.72313E+12,-8018,989,-625,-292,-760,633,1,7,11
1.72313E+12,-8011,1285,-589,-271,-733,634,1,7,11
1.72313E+12,-7996,1295,-562,16,-684,393,1,7,11
1.72313E+12,-8021,995,-521,29,-867,639,1,7,11
1.72313E+12,-7984,1006,-238,104,-793,637,1,7,11
1.72313E+12,-8017,1299,-251,-93,-435,583,1,7,11
1.72313E+12,-8002,1005,-226,-89,-600,542,1,7,11
1.72313E+12,-7997,992,-221,-20,-234,179,1,7,11
1.72313E+12,-7980,1010,-225,298,-135,300,1,7,11
1.72313E+12,-7991,1293,-233,330,-266,-97,1,7,11
1.72313E+12,-8045,1332,-251,340,102,36,1,7,11
1.72313E+12,-7825,1367,-515,308,-84,-320,1,7,11
1.72313E+12,-7874,1384,-531,-8,-35,-134,1,7,11
1.72313E+12,-7887,1374,-539,-83,-65,-176,1,7,11
1.72313E+12,-7878,1312,-551,112,-91,-216,1,7,11
1.72313E+12,-7875,1004,-566,68,-114,-519,1,7,11
1.72313E+12,-8041,948,-617,48,116,-589,1,7,11
1.72313E+12,-8039,925,-614,8,-110,-412,1,7,11
1.72313E+12,-7823,1092,-588,-291,-59,-482,1,7,11
1.72313E+12,-7896,1056,-565,-300,-53,-786,1,7,11
1.72313E+12,-7948,749,-547,-292,-116,-794,1,7,11
1.72313E+12,-8221,714,-534,-261,67,-786,1,7,11
1.72313E+12,-7936,686,-535,47,-268,-480,1,7,11
1.72313E+12,-7885,663,-545,107,-331,-453,1,7,11
1.72313E+12,-7867,643,-545,-89,-332,-428,1,7,11
1.72313E+12,-7848,640,-551,-23,-322,-403,1,7,11
1.72313E+12,-7868,895,-553,319,-306,-637,1,7,11
1.72313E+12,-7892,644,-554,365,-323,-605,1,7,11
1.72313E+12,-7909,644,-549,144,-353,-565,1,7,11
1.72313E+12,-8199,643,-551,162,-136,-525,1,7,11
1.72313E+12,-8195,878,-540,164,-196,-224,1,7,11
1.72313E+12,-8208,864,-528,191,-233,-175,1,7,11
1.72313E+12,-8207,869,-521,226,-522,-380,1,7,11
1.72313E+12,-8220,884,-523,526,-543,-335,1,7,11
1.72313E+12,-8222,646,-516,562,-563,-281,1,7,11
1.72313E+12,-8217,647,-520,577,-574,21,1,7,11
1.72313E+12,-8200,640,-521,592,-570,64,1,7,11
1.72313E+12,-7930,893,-249,611,-542,88,1,7,11
1.72313E+12,-7936,643,-230,628,-235,108,1,7,11
1.72313E+12,-8203,650,-204,627,-188,122,1,7,11
1.72313E+12,-8222,670,-177,615,-152,-114,1,7,11
1.72313E+12,-8222,695,-165,581,-384,-90,1,7,11
1.72313E+12,-8208,720,-152,530,-371,-67,1,7,11
1.72313E+12,-8194,749,-155,205,-345,-67,1,7,11
1.72313E+12,-8194,1045,-155,365,-320,-92,1,7,11
1.72313E+12,-8198,1076,-146,-23,-307,117,1,7,11
1.72313E+12,-8214,1084,-379,74,-312,59,1,7,11
1.72313E+12,-8201,1069,-352,-343,-335,-257,1,7,11
1.72313E+12,-7928,1039,-322,-217,-347,-325,1,7,11
1.72313E+12,-7913,1030,-292,-573,-343,-143,1,7,11
1.72313E+12,-7890,1034,-275,-399,-321,-210,1,7,11
1.72313E+12,-7872,762,-273,-472,-283,-530,1,7,11
1.72313E+12,-7862,732,-258,-784,11,-605,1,7,11
1.72313E+12,-7882,689,-259,-847,42,-460,1,7,11
1.72313E+12,-8198,868,25,-674,35,-878,1,7,11
1.72313E+12,-8235,859,16,-759,-294,-1076,1,7,11
1.72313E+12,-8256,659,-262,-1100,-137,-1291,1,7,11
1.72313E+12,-8268,878,-257,-1286,-535,-1221,1,7,11
1.72313E+12,-8250,776,43,-1236,-395,-1428,1,7,11
1.72313E+12,-8210,638,111,-1651,-476,-1527,1,7,11
1.72313E+12,-8281,574,-98,-1457,-464,-1861,1,7,11
1.72313E+12,-7902,194,-65,-1421,-832,-1861,1,7,11
1.72313E+12,-7816,382,-33,-1379,-492,-1883,1,7,11
1.72313E+12,-7840,320,-11,-1149,-605,-1848,1,7,11
1.72313E+12,-7825,-81,299,-672,-254,-1816,1,7,11
1.72313E+12,-7809,76,339,-624,-132,-1820,1,7,11
1.72313E+12,-7827,55,335,-291,22,-1802,1,7,11
1.72313E+12,-7858,14,329,-5,-63,-1523,1,7,11
1.72313E+12,-7904,-284,338,248,377,-1466,1,7,11
1.72313E+12,-8244,-281,317,476,521,-1651,1,7,11
1.72313E+12,-8281,-269,299,864,570,-1547,1,7,11
1.72313E+12,-8285,54,-13,700,599,-1400,1,7,11
1.72313E+12,-8309,-87,-76,724,399,-1139,1,7,11
1.72313E+12,-8122,-71,-118,675,458,-797,1,7,11
1.72313E+12,-8177,110,113,687,442,-141,1,7,11
1.72313E+12,-8098,90,80,1112,625,-20,1,7,11
1.72313E+12,-8070,-91,82,1296,410,590,1,7,11
1.72313E+12,-8122,279,100,1324,489,1062,1,7,11
1.72313E+12,-8494,261,115,1071,480,1601,1,7,11
1.72313E+12,-8155,87,-105,499,599,2103,1,7,11
1.72313E+12,-8123,-272,122,619,583,2329,1,7,11
1.72313E+12,-8308,-228,115,224,519,2351,1,7,11
1.72313E+12,-8248,-522,99,212,245,2082,1,7,11
1.72313E+12,-8272,-242,82,529,214,1606,1,7,11
1.72313E+12,-8275,-302,51,574,375,1045,1,7,11
1.72313E+12,-8290,-85,-261,617,276,248,1,7,11
1.72313E+12,-8274,351,-300,572,-77,84,1,7,11
1.72313E+12,-8204,556,-358,231,116,-150,1,7,11
1.72313E+12,-8211,388,-133,304,-91,-175,1,7,11
1.72313E+12,-8207,517,-366,-288,281,-327,1,7,11
1.72313E+12,-8224,192,-372,-518,147,-309,1,7,11
1.72313E+12,-8248,373,-362,-606,141,-284,1,7,11
1.72313E+12,-8244,331,-354,-611,354,-281,1,7,11
1.72313E+12,-8210,318,-350,-593,310,-268,1,7,11
1.72313E+12,-8219,337,-351,-575,324,12,1,7,11
1.72313E+12,-8268,314,-351,-385,304,26,1,7,11
1.72313E+12,-8228,318,-357,-388,-35,19,1,7,11
1.72313E+12,-8226,140,-137,-604,-68,-267,1,7,11
1.72313E+12,-8225,376,-155,-613,-97,-272,1,7,11
1.72313E+12,-8230,327,-132,-568,-107,-307,1,7,11
1.72313E+12,-8249,336,-377,-248,117,-365,1,7,11
1.72313E+12,-8262,136,-366,-247,58,-151,1,7,11
1.72313E+12,-8243,141,-337,-553,-273,-194,1,7,11
1.72313E+12,-8233,369,-331,-567,-313,-526,1,7,11
1.72313E+12,-8228,377,-335,-537,-343,-586,1,7,11
1.72313E+12,-8222,136,-344,-520,-377,-630,1,7,11
1.72313E+12,-8213,128,-312,-231,-147,-391,1,7,11
1.72313E+12,-8237,137,-283,-187,-144,-628,1,7,11
1.72313E+12,-8209,134,18,-183,-171,-550,1,7,11
1.72313E+12,-8320,133,26,-239,-143,-233,1,7,11
1.72313E+12,-8262,333,81,-609,-224,-336,1,7,11
1.72313E+12,-8233,313,90,-620,-159,34,1,7,11
1.72313E+12,-8233,316,98,-631,-307,-81,1,7,11
1.72313E+12,-8245,261,-124,-432,45,277,1,7,11
1.72313E+12,-8271,-84,-99,-431,95,340,1,7,11
1.72313E+12,-8242,-112,-100,-574,-126,264,1,7,11
1.72313E+12,-8252,-108,-95,-192,-119,-50,1,7,11
1.72313E+12,-8240,-65,-105,-194,-121,90,1,7,11
1.72313E+12,-8235,281,-123,-104,-125,0,1,7,11
1.72313E+12,-8248,309,111,122,114,-332,1,7,11
1.72313E+12,-8217,335,85,105,96,-383,1,7,11
1.72313E+12,-8293,338,72,86,102,-160,1,7,11
1.72313E+12,-8232,341,64,103,60,-139,1,7,11
1.72313E+12,-8273,351,64,101,122,-369,1,7,11
1.72313E+12,-8293,266,66,56,124,-329,1,7,11
1.72313E+12,-8231,-29,100,74,-127,-338,1,7,11
1.72313E+12,-8265,-26,122,71,-65,-345,1,7,11
1.72313E+12,-8077,-69,114,27,-56,-359,1,7,11
1.72313E+12,-8294,-78,109,19,103,-382,1,7,11
1.72313E+12,-8260,-56,111,41,77,-157,1,7,11
1.72313E+12,-8256,-15,103,47,79,-146,1,7,11
1.72313E+12,-8250,-25,92,41,98,-356,1,7,11
1.72313E+12,-8299,-56,80,34,103,-308,1,7,11
1.72313E+12,-7926,-78,121,43,75,8,1,7,11
1.72313E+12,-8296,-16,100,83,-72,44,1,7,11
1.72313E+12,-8229,-13,101,59,-119,-86,1,7,11
1.72313E+12,-8219,270,72,108,-45,-21,1,7,11
1.72313E+12,-8281,264,69,52,286,334,1,7,11
1.72313E+12,-8252,-120,106,-264,289,362,1,7,11
1.72313E+12,-8256,29,-126,66,329,265,1,7,11
1.72313E+12,-8297,35,-128,-63,301,116,1,7,11
1.72313E+12,-8237,-113,96,291,-21,-287,1,7,11
1.72313E+12,-8290,21,78,271,-15,-368,1,7,11
1.72313E+12,-8305,-2,84,-128,-92,-131,1,7,11
1.72313E+12,-8251,290,87,4,76,-140,1,7,11
1.72313E+12,-8238,336,81,-169,34,-324,1,7,11
1.72313E+12,-8256,-9,92,-530,53,3,1,7,11
1.72313E+12,-8275,-120,-126,-546,71,-260,1,7,11
1.72313E+12,-8243,108,-109,-205,51,-280,1,7,11
1.72313E+12,-8240,-67,120,-335,92,-324,1,7,11
1.72313E+12,-8264,-23,121,-310,-118,-305,1,7,11
1.72313E+12,-8259,-17,116,-278,-83,-261,1,7,11
1.72313E+12,-8249,-11,111,31,-49,48,1,7,11
1.72313E+12,-8212,-4,124,82,-13,103,1,7,11
1.72313E+12,-8267,264,110,97,322,-111,1,7,11
1.72313E+12,-8262,-39,114,42,307,-51,1,7,11
1.72313E+12,-8243,-114,125,31,302,-81,1,7,11
1.72313E+12,-8258,-124,118,73,327,122,1,7,11
1.72313E+12,-8278,-110,115,87,317,49,1,7,11
1.72313E+12,-8283,-72,111,73,300,13,1,7,11
1.72313E+12,-8307,-49,104,18,275,3,1,7,11
1.72313E+12,-8289,-41,85,-296,-21,19,1,7,11
1.72313E+12,-8274,-31,80,-356,-47,43,1,7,11
1.72313E+12,-8255,-35,80,-158,-58,69,1,7,11
1.72313E+12,-8236,-12,77,-195,-55,107,1,7,11
1.72313E+12,-8237,-27,79,-238,-47,-117,1,7,11
1.72313E+12,-8230,-39,71,-242,-47,-90,1,7,11
1.72313E+12,-8228,-35,65,-206,-27,-98,1,7,11
1.72313E+12,-8230,-27,57,-196,-20,-103,1,7,11
1.72313E+12,-8246,-27,55,-177,-4,125,1,7,11
1.72313E+12,-8256,-14,53,-156,-1,112,1,7,11
1.72313E+12,-8270,-13,58,-145,-4,102,1,7,11
1.72313E+12,-8273,-17,56,-136,-15,104,1,7,11
1.72313E+12,-8263,-19,59,-370,-27,103,1,7,11
1.72313E+12,-8265,-14,56,-362,-34,106,1,7,11
1.72313E+12,-8258,-19,60,-347,-42,107,1,7,11
1.72313E+12,-8264,-8,65,-314,-43,110,1,7,11
1.72313E+12,-8252,-4,65,-300,-53,117,1,7,11
1.72313E+12,-8241,-6,58,-286,-47,120,1,7,11
1.72313E+12,-8230,258,53,-270,-29,124,1,7,11
1.72313E+12,-8231,272,47,-262,-12,127,1,7,11
1.72313E+12,-8235,282,33,-266,260,-126,1,7,11
1.72313E+12,-8243,292,27,-274,275,-121,1,7,11
1.72313E+12,-8253,293,13,-284,284,-117,1,7,11
1.72313E+12,-8253,288,-258,-294,284,-115,1,7,11
1.72313E+12,-8253,289,-272,-306,283,-121,1,7,11
1.72313E+12,-8249,282,-277,-316,286,125,1,7,11
1.72313E+12,-8254,267,-282,-321,284,116,1,7,11
1.72313E+12,-8260,261,-279,-315,275,106,1,7,11
1.72313E+12,-8263,269,-280,-306,257,100,1,7,11
1.72313E+12,-8272,274,-283,-299,-24,95,1,7,11
1.72313E+12,-8280,276,-282,-295,-52,92,1,7,11
1.72313E+12,-8284,276,-277,-291,-82,87,1,7,11
1.72313E+12,-8282,281,-268,-282,-119,82,1,7,11
1.72313E+12,-8274,289,-261,-269,108,81,1,7,11
1.72313E+12,-8266,303,5,-257,93,85,1,7,11
1.72313E+12,-8252,317,4,0,91,94,1,7,11
1.72313E+12,-8249,322,11,-268,96,102,1,7,11
1.72313E+12,-8244,301,30,-275,102,106,1,7,11
1.72313E+12,-8241,294,45,-269,106,98,1,7,11
1.72313E+12,-8232,289,46,4,115,84,1,7,11
1.72313E+12,-8231,292,46,22,-124,67,1,7,11
1.72313E+12,-8229,297,35,33,-102,56,1,7,11
1.72313E+12,-8235,306,29,34,-80,50,1,7,11
1.72313E+12,-8236,314,26,28,-61,51,1,7,11
1.72313E+12,-8243,317,26,12,-49,52,1,7,11
1.72313E+12,-8247,302,29,-267,-47,56,1,7,11
1.72313E+12,-8242,288,25,-281,-44,49,1,7,11
1.72313E+12,-8247,286,20,-285,-37,45,1,7,11
1.72313E+12,-8256,289,8,-287,-33,50,1,7,11
1.72313E+12,-8259,293,9,-291,-33,61,1,7,11
1.72313E+12,-8262,290,6,-292,-35,76,1,7,11
1.72313E+12,-8261,285,5,-295,-38,96,1,7,11
1.72313E+12,-8261,283,2,-294,-44,117,1,7,11
1.72313E+12,-8249,278,9,-291,-51,-127,1,7,11
1.72313E+12,-8256,282,10,-276,-50,-124,1,7,11
1.72313E+12,-8269,300,19,-266,-57,-123,1,7,11
1.72313E+12,-8257,304,10,-272,-77,-126,1,7,11
1.72313E+12,-8253,305,6,-274,-89,115,1,7,11
1.72313E+12,-8261,313,14,-283,-99,89,1,7,11
1.72313E+12,-8274,305,19,-304,-123,65,1,7,11
1.72313E+12,-8275,302,35,-316,108,45,1,7,11
1.72313E+12,-8254,294,40,-323,91,46,1,7,11
1.72313E+12,-8232,289,33,-318,110,57,1,7,11
1.72313E+12,-8222,300,30,-282,-97,74,1,7,11
1.72313E+12,-8224,314,35,-270,-49,98,1,7,11
1.72313E+12,-8229,314,42,-259,-17,122,1,7,11
1.72313E+12,-8230,329,29,9,-2,-115,1,7,11
1.72313E+12,-8216,349,15,7,266,-95,1,7,11
1.72313E+12,-8214,355,5,-265,281,-87,1,7,11
1.72313E+12,-8221,355,-257,-287,298,-85,1,7,11
1.72313E+12,-8233,358,-268,-312,302,-89,1,7,11
1.72313E+12,-8243,360,-287,-336,301,-95,1,7,11
1.72313E+12,-8255,361,-293,-354,297,-100,1,7,11
1.72313E+12,-8265,322,-310,-381,-6,-78,1,7,11
1.72313E+12,-8253,311,-314,-367,-30,-73,1,7,11
1.72313E+12,-8235,291,-308,-354,-67,-77,1,7,11
1.72313E+12,-8195,-11,-287,-380,121,-89,1,7,11
1.72313E+12,-7902,-109,-260,-187,44,-118,1,7,11
1.72313E+12,-7875,22,53,-536,-301,-125,1,7,11
1.72313E+12,-8020,-343,-99,-441,-194,-9,1,7,11
1.72313E+12,-8009,-198,-69,-648,-532,411,1,7,11
1.72313E+12,-7829,-467,-38,-914,-572,1596,1,7,11
1.72313E+12,-8215,-1400,278,-1213,-134,2893,1,7,11
1.72313E+12,-8157,-2086,129,-1200,-55,4372,1,7,11
1.72313E+12,-8484,-2276,225,-972,374,5717,1,7,11
1.72313E+12,-8104,-2875,633,-750,181,6578,1,7,11
1.72313E+12,-7915,-2710,481,-605,598,7763,1,7,11
1.72313E+12,-7829,-2613,443,-31,693,8547,1,7,11
1.72313E+12,-8015,-2141,630,672,1258,9593,1,7,11
1.72313E+12,-7967,-1272,512,1378,1727,9918,1,7,11
1.72313E+12,-7777,-818,330,1452,2392,10458,1,7,11
1.72313E+12,-7429,99,121,1883,2528,10668,1,7,11
1.72313E+12,-7227,1103,-161,1985,3058,10612,1,7,11
1.72313E+12,-7188,2038,-500,2181,3685,9457,1,7,11
1.72313E+12,-7117,3265,-1136,2240,3561,8549,1,7,11
1.72313E+12,-7350,4304,-1223,2329,3689,7160,1,7,11
1.72313E+12,-7791,5119,-1510,1759,3373,6141,1,7,11
1.72313E+12,-7647,5578,-1691,1245,2896,5438,1,7,11
1.72313E+12,-7668,5975,-1785,720,2036,4479,1,7,11
1.72313E+12,-7553,5569,-1788,542,1650,3245,1,7,11
1.72313E+12,-7366,5304,-1721,286,1138,2564,1,7,11
1.72313E+12,-7453,5061,-1866,-56,788,1473,1,7,11
1.72313E+12,-7244,5149,-1511,-94,230,1038,1,7,11
1.72313E+12,-6611,4940,-1658,28,-86,213,1,7,11
1.72313E+12,-6511,4727,-1539,-349,55,-282,1,7,11
1.72313E+12,-6237,4349,-1208,-176,110,-411,1,7,11
1.72313E+12,-5773,4329,-1408,-563,-60,-744,1,7,11
1.72313E+12,-5593,4253,-1340,-788,-4,-1014,1,7,11
1.72313E+12,-5662,4424,-1287,-724,263,-1157,1,7,11
1.72313E+12,-5250,4395,-985,-1104,328,-1220,1,7,11
1.72313E+12,-5471,4448,-968,-921,204,-1236,1,7,11
1.72313E+12,-5285,4618,-982,-967,600,-1240,1,7,11
1.72313E+12,-5341,4869,-1320,-1290,420,-1256,1,7,11
1.72313E+12,-5348,5146,-1398,-1406,465,-1596,1,7,11
1.72313E+12,-5662,5439,-1249,-1273,844,-1486,1,7,11
1.72313E+12,-5561,5674,-1635,-1494,740,-1710,1,7,11
1.72313E+12,-6208,5564,-1466,-1712,953,-2045,1,7,11
1.72313E+12,-6567,5825,-1564,-1737,1362,-2247,1,7,11
1.72313E+12,-7369,6734,-1666,-1883,1190,-2342,1,7,11
1.72313E+12,-7821,6983,-2066,-1759,733,-1774,1,7,11
1.72313E+12,-8158,6867,-2332,-2175,834,-1616,1,7,11
1.72313E+12,-8717,7260,-2272,-2038,786,-1014,1,7,11
1.72313E+12,-8633,7244,-2299,-2182,411,-745,1,7,11
1.72313E+12,-8747,6817,-2192,-2207,130,-714,1,7,11
1.72313E+12,-8450,6546,-2315,-2315,-85,-962,1,7,11
1.72313E+12,-8167,6309,-1923,-1755,259,-1582,1,7,11
1.72313E+12,-8567,6430,-2097,-1409,346,-1841,1,7,11
1.72313E+12,-8364,6025,-1758,-1186,298,-1765,1,7,11
1.72313E+12,-8559,5792,-1885,-1331,-49,-2168,1,7,11
1.72313E+12,-8315,5724,-1443,-1303,59,-2305,1,7,11
1.72313E+12,-7997,5099,-1218,-1014,-289,-2243,1,7,11
1.72313E+12,-7382,4788,-1294,-898,-318,-2685,1,7,11
1.72313E+12,-7257,4596,-932,-1043,1,-2883,1,7,11
1.72313E+12,-6998,4639,-1110,-1063,-71,-2816,1,7,11
1.72313E+12,-6772,4457,-1095,-1106,141,-3151,1,7,11
1.72313E+12,-6323,4085,-1135,-1139,404,-3147,1,7,11
1.72313E+12,-6333,4018,-1137,-932,733,-2794,1,7,11
1.72313E+12,-6678,4215,-1051,-1011,1144,-2854,1,7,11
1.72313E+12,-6519,3791,-719,-1358,691,-2626,1,7,11
1.72313E+12,-6211,3574,-1028,-1348,500,-2271,1,7,11
1.72313E+12,-5858,3560,-1104,-904,861,-2259,1,7,11
1.72313E+12,-6245,3757,-921,-718,1039,-2385,1,7,11
1.72313E+12,-6088,4001,-977,-657,750,-2102,1,7,11
1.72313E+12,-6064,4308,-1296,-658,833,-1795,1,7,11
1.72313E+12,-6130,4587,-1397,-1067,496,-1548,1,7,11
1.72313E+12,-6679,4935,-1225,-1384,497,-1358,1,7,11
1.72313E+12,-6947,4877,-1255,-1451,396,-987,1,7,11
1.72313E+12,-7020,4480,-1237,-1726,185,-1313,1,7,11
1.72313E+12,-6964,4463,-1180,-1944,281,-1559,1,7,11
1.72313E+12,-6920,4138,-1375,-2332,-30,-1848,1,7,11
1.72313E+12,-6729,3540,-1324,-2403,-109,-2079,1,7,11
1.72313E+12,-6519,3435,-1024,-2416,-84,-2034,1,7,11
1.72313E+12,-6442,3147,-1284,-2024,308,-2210,1,7,11
1.72313E+12,-6442,2749,-1318,-1779,142,-2570,1,7,11
1.72313E+12,-6263,2740,-1378,-1487,129,-2563,1,7,11
1.72313E+12,-6238,3135,-1170,-1223,537,-2264,1,7,11
1.72313E+12,-6032,3347,-1243,-1367,396,-2308,1,7,11
1.72313E+12,-6267,3255,-1280,-1404,418,-1778,1,7,11
1.72313E+12,-6198,3590,-1272,-1570,430,-1448,1,7,11
1.72313E+12,-5798,3209,-1233,-1835,481,-1358,1,7,11
1.72313E+12,-5608,3405,-1196,-2073,891,-1050,1,7,11
1.72313E+12,-5652,3022,-1399,-2386,1151,-828,1,7,11
1.72313E+12,-5304,3124,-1353,-2556,1216,-456,1,7,11
1.72313E+12,-5298,2745,-1317,-3214,2067,-845,1,7,11
1.72313E+12,-5708,2878,-1010,-3928,2193,-1029,1,7,11
1.72313E+12,-5928,2480,-983,-4378,2446,-912,1,7,11
1.72313E+12,-6222,2584,-989,-4526,2855,-1023,1,7,11
1.72313E+12,-6508,2221,-1313,-4857,2850,-1346,1,7,11
1.72313E+12,-6770,2360,-1387,-5390,2491,-1201,1,7,11
1.72313E+12,-6838,1991,-1400,-5325,2591,-1568,1,7,11
1.72313E+12,-7071,2094,-1345,-5719,2010,-1414,1,7,11
1.72313E+12,-7096,1691,-994,-5712,1865,-1806,1,7,11
1.72313E+12,-7462,1671,-922,-5317,1601,-1713,1,7,11
1.72313E+12,-7304,1726,-1107,-5425,1316,-2072,1,7,11
1.72313E+12,-7406,1763,-1050,-5047,761,-2156,1,7,11
1.72313E+12,-7706,1778,-729,-5184,473,-2166,1,7,11
1.72313E+12,-7407,1766,-891,-4815,209,-2126,1,7,11
1.72313E+12,-7545,1704,-795,-4948,260,-2054,1,7,11
1.72313E+12,-7449,1898,-459,-4561,-94,-1732,1,7,11
1.72313E+12,-7099,1821,-633,-4705,122,-1919,1,7,11
1.72313E+12,-7240,1656,-253,-4616,-128,-1872,1,7,11
1.72313E+12,-6844,1548,-203,-4262,-74,-1857,1,7,11
1.72313E+12,-6831,1194,-180,-4415,280,-1881,1,7,11
1.72313E+12,-6891,1344,-202,-4063,152,-1677,1,7,11
1.72313E+12,-7261,1004,-229,-4199,620,-1787,1,7,11
1.72313E+12,-7425,921,-528,-3730,773,-2122,1,7,11
1.72313E+12,-7384,1107,-552,-3556,660,-1929,1,7,11
1.72313E+12,-7638,1037,-529,-3613,745,-1964,1,7,11
1.72313E+12,-7858,729,-205,-3383,735,-1947,1,7,11
1.72313E+12,-8238,732,-141,-2989,867,-2109,1,7,11
1.72313E+12,-8320,765,-309,-2820,445,-1688,1,7,11
1.72313E+12,-8131,1068,46,-2274,544,-1426,1,7,11
1.72313E+12,-8185,1135,-91,-1997,381,-1325,1,7,11
1.72313E+12,-8456,930,295,-1734,-33,-652,1,7,11
1.72313E+12,-8453,951,187,-1489,67,-235,1,7,11
1.72313E+12,-8130,934,580,-1220,-343,-122,1,7,11
1.72313E+12,-8070,917,432,-902,-148,171,1,7,11
1.72313E+12,-8258,912,794,-835,-133,637,1,7,11
1.72313E+12,-7870,929,879,-252,-319,488,1,7,11
1.72313E+12,-7973,982,652,62,107,494,1,7,11
1.72313E+12,-7636,1315,874,323,144,421,1,7,11
1.72313E+12,-7660,1401,846,220,477,540,1,7,11
1.72313E+12,-7941,1403,802,528,737,375,1,7,11
1.72313E+12,-7987,1374,492,566,954,-91,1,7,11
1.72313E+12,-8054,1396,431,604,1336,-314,1,7,11
1.72313E+12,-8050,1221,389,582,1334,-531,1,7,11
1.72313E+12,-7981,1548,585,243,1336,-409,1,7,11
1.72313E+12,-7939,1582,525,160,1191,-428,1,7,11
1.72313E+12,-8016,1538,519,330,1640,-621,1,7,11
1.72313E+12,-7869,1189,549,262,1462,-520,1,7,11
1.72313E+12,-7866,1388,555,263,1618,-157,1,7,11
1.72313E+12,-8022,1365,240,292,1232,-327,1,7,11
1.72313E+12,-7945,1301,188,299,1179,44,1,7,11
1.72313E+12,-7645,977,162,135,1182,-86,1,7,11
1.72313E+12,-7628,909,364,567,1182,281,1,7,11
1.72313E+12,-7559,1125,290,834,1195,378,1,7,11
1.72313E+12,-7603,1291,86,1178,1516,209,1,7,11
1.72313E+12,-7950,1396,-365,1466,1716,592,1,7,11
1.72313E+12,-7763,1180,-535,1736,2148,400,1,7,11
1.72313E+12,-7575,1606,-846,2044,2575,582,1,7,11
1.72313E+12,-8286,1875,-993,2410,2793,216,1,7,11
1.72313E+12,-8742,2154,-1575,1927,3142,350,1,7,11
1.72313E+12,-8614,2418,-1900,1508,2450,260,1,7,11
1.72313E+12,-8341,2649,-1985,973,1691,-51,1,7,11
1.72313E+12,-8209,2677,-2302,577,931,-58,1,7,11
1.72313E+12,-7635,2593,-2845,63,559,262,1,7,11
1.72313E+12,-7341,2212,-2806,-223,12,362,1,7,11
1.72313E+12,-7130,2424,-3005,-221,-559,231,1,7,11
1.72313E+12,-7516,2036,-3411,-382,-832,560,1,7,11
1.72313E+12,-7539,1737,-3204,-115,-899,446,1,7,11
1.72313E+12,-7572,1815,-3201,448,-1329,499,1,7,11
1.72313E+12,-8063,1616,-3445,1374,-1410,644,1,7,11
1.72313E+12,-8318,1316,-3391,1971,-1788,1130,1,7,11
1.72313E+12,-8462,1053,-3015,3359,-2277,1401,1,7,11
1.72313E+12,-8160,820,-3146,4641,-3105,1499,1,7,11
1.72313E+12,-7821,455,-2810,5785,-3653,2167,1,7,11
1.72313E+12,-7371,496,-2730,7112,-3727,2295,1,7,11
1.72313E+12,-6880,640,-2691,8503,-3811,2927,1,7,11
1.72313E+12,-6682,909,-2697,9141,-3936,2976,1,7,11
1.72313E+12,-6076,1254,-2744,9668,-3613,3441,1,7,11
1.72313E+12,-5878,1808,-2763,10022,-3128,3592,1,7,11
1.72313E+12,-5793,1758,-2769,9799,-2585,3613,1,7,11
1.72313E+12,-5814,1975,-2784,9132,-1767,3443,1,7,11
1.72313E+12,-6247,2255,-2809,8745,-1226,3092,1,7,11
1.72313E+12,-6476,2826,-3097,7586,-1082,2657,1,7,11
1.72313E+12,-6750,3141,-3128,6726,-777,1941,1,7,11
1.72313E+12,-6793,3382,-3161,5421,-591,1822,1,7,11
1.72313E+12,-7117,3253,-3169,3761,-253,1594,1,7,11
1.72313E+12,-7347,3422,-3099,2562,-596,1262,1,7,11
1.72313E+12,-7761,2804,-2715,980,-810,1219,1,7,11
1.72313E+12,-7779,2296,-2823,333,-1127,1355,1,7,11
1.72313E+12,-7747,2111,-2636,-383,-1404,1056,1,7,11
1.72313E+12,-7420,1532,-2429,-250,-1581,411,1,7,11
1.72313E+12,-7482,1606,-1958,-146,-1422,-30,1,7,11
1.72313E+12,-7222,1257,-2067,57,-1599,-245,1,7,11
1.72313E+12,-7035,1548,-1718,285,-1286,-690,1,7,11
1.72313E+12,-6921,1431,-1786,209,-857,-1021,1,7,11
1.72313E+12,-6934,1534,-2129,340,-114,-1566,1,7,11
1.72313E+12,-7039,1532,-2157,46,578,-1450,1,7,11
1.72313E+12,-7262,1792,-2160,-254,863,-1799,1,7,11
1.72313E+12,-7546,1532,-1935,-832,881,-1500,1,7,11
1.72313E+12,-7564,1488,-2024,-907,633,-1593,1,7,11
1.72313E+12,-7657,1600,-2421,-1187,-93,-1360,1,7,11
1.72313E+12,-7593,1164,-2264,-1586,-519,-914,1,7,11
1.72313E+12,-7555,991,-2566,-1559,-508,-1048,1,7,11
1.72313E+12,-7958,1135,-2291,-1368,-885,-710,1,7,11
1.72313E+12,-7877,1086,-2178,-1125,-1077,-653,1,7,11
1.72313E+12,-8355,948,-2337,-830,-927,-849,1,7,11
1.72313E+12,-8605,1351,-2004,-398,-1578,-638,1,7,11
1.72313E+12,-8666,1189,-2117,-523,-1666,-190,1,7,11
1.72313E+12,-9067,1254,-1707,-178,-1997,3,1,7,11
1.72313E+12,-8780,1153,-1463,-368,-2452,-90,1,7,11
1.72313E+12,-8508,1205,-1253,114,-2908,-94,1,7,11
1.72313E+12,-8207,1237,-1004,-9,-2803,110,1,7,11
1.72313E+12,-7637,1211,-728,351,-2956,12,1,7,11
1.72313E+12,-7419,1391,-428,192,-3018,-149,1,7,11
1.72313E+12,-7365,1286,-179,576,-3044,-550,1,7,11
1.72313E+12,-7474,974,75,801,-3385,-425,1,7,11
1.72313E+12,-7352,976,-25,1070,-3047,-816,1,7,11
1.72313E+12,-7753,971,368,1299,-3064,-810,1,7,11
1.72313E+12,-7807,937,196,1276,-3345,-773,1,7,11
1.72313E+12,-7719,926,521,1521,-3070,-424,1,7,11
1.72313E+12,-7297,912,591,1763,-2945,-586,1,7,11
1.72313E+12,-7160,906,401,2000,-2714,-230,1,7,11
1.72313E+12,-7225,1127,459,2212,-2485,-132,1,7,11
1.72313E+12,-7083,940,493,2510,-2306,-353,1,7,11
1.72313E+12,-7616,1203,489,3099,-1882,81,1,7,11
1.72313E+12,-8267,1505,447,3057,-1534,146,1,7,11
1.72313E+12,-8508,2058,384,3451,-1500,507,1,7,11
1.72313E+12,-8724,2336,615,3238,-1438,905,1,7,11
1.72313E+12,-8826,2270,583,3204,-1445,1556,1,7,11
1.72313E+12,-8734,2619,562,3418,-1462,1851,1,7,11
1.72313E+12,-8559,2656,548,3436,-1642,1764,1,7,11
1.72313E+12,-8274,2686,564,3272,-1258,2083,1,7,11
1.72313E+12,-7776,2553,574,3694,-1322,2053,1,7,11
1.72313E+12,-7468,2895,588,3865,-1026,1915,1,7,11
1.72313E+12,-7197,2705,606,3728,-891,1517,1,7,11
1.72313E+12,-7002,2783,607,4161,-810,1614,1,7,11
1.72313E+12,-6595,3103,591,3978,-786,1193,1,7,11
1.72313E+12,-6757,3161,562,4006,-775,1297,1,7,11
1.72313E+12,-6757,2963,520,4011,-483,1145,1,7,11
1.72313E+12,-6643,3062,237,3994,-420,1025,1,7,11
1.72313E+12,-7478,3423,230,4177,-529,674,1,7,11
1.72313E+12,-7657,3436,218,3753,-477,759,1,7,11
1.72313E+12,-7863,3391,210,3901,-732,747,1,7,11
1.72313E+12,-8345,3429,211,3583,-1067,719,1,7,11
1.72313E+12,-8424,3350,228,3641,-1177,1026,1,7,11
1.72313E+12,-8119,3125,555,3429,-1523,647,1,7,11
1.72313E+12,-8009,2858,406,3055,-1915,404,1,7,11
1.72313E+12,-7556,2623,770,3049,-1857,367,1,7,11
1.72313E+12,-7731,2214,836,3352,-1522,-101,1,7,11
1.72313E+12,-7345,2349,850,3354,-1529,57,1,7,11
1.72313E+12,-7254,1943,843,3047,-1814,48,1,7,11
1.72313E+12,-6923,1759,830,3020,-1633,74,1,7,11
1.72313E+12,-6724,1869,793,3067,-1004,-91,1,7,11
1.72313E+12,-6714,1499,488,3411,-772,269,1,7,11
1.72313E+12,-6962,1435,425,3300,36,146,1,7,11
1.72313E+12,-7052,1486,534,3473,223,596,1,7,11
1.72313E+12,-7350,1820,362,3845,789,811,1,7,11
1.72313E+12,-8191,1755,14,3720,966,1315,1,7,11
1.72313E+12,-8826,1742,-136,3733,1134,1603,1,7,11
1.72313E+12,-9078,1665,-537,3817,883,1823,1,7,11
1.72313E+12,-8941,1846,-424,4032,552,1703,1,7,11
1.72313E+12,-8959,1532,-832,4345,-58,1763,1,7,11
1.72313E+12,-8889,1502,-751,4979,-146,2050,1,7,11
1.72313E+12,-9002,1457,-1114,5104,-487,2093,1,7,11
1.72313E+12,-8820,1431,-944,5757,-1078,1922,1,7,11
1.72313E+12,-8067,1451,-1004,6187,-1296,2027,1,7,11
1.72313E+12,-7834,1476,-1305,6336,-1206,2330,1,7,11
1.72313E+12,-7648,1504,-1325,6880,-1422,2868,1,7,11
1.72313E+12,-7715,1815,-1358,7486,-1823,2976,1,7,11
1.72313E+12,-7529,1891,-1164,7552,-1710,3631,1,7,11
1.72313E+12,-7126,1747,-1221,7831,-2072,3765,1,7,11
1.72313E+12,-7044,2138,-1259,8285,-2149,4364,1,7,11
1.72313E+12,-7271,2325,-1574,8156,-1969,4641,1,7,11
1.72313E+12,-7238,2289,-1652,8190,-2314,4551,1,7,11
1.72313E+12,-7220,2523,-1467,8104,-2389,4590,1,7,11
1.72313E+12,-7206,2761,-1804,7908,-2187,4492,1,7,11
1.72313E+12,-7196,2992,-1886,7620,-2207,4251,1,7,11
1.72313E+12,-6909,3216,-1705,7516,-2200,4160,1,7,11
1.72313E+12,-7208,3476,-1760,6850,-2351,3492,1,7,11
1.72313E+12,-7212,3730,-2061,6315,-2047,3391,1,7,11
1.72313E+12,-6696,4215,-1749,3509,-1803,2121,1,7,11
1.72313E+12,-6349,4176,-1720,3150,-1538,1525,1,7,11
1.72313E+12,-6552,4150,-1722,2560,-1316,1223,1,7,11
1.72313E+12,-6537,3967,-1918,1765,-1336,927,1,7,11
1.72313E+12,-6620,3851,-1877,1660,-1019,886,1,7,11
1.72313E+12,-6918,3491,-1834,1336,-1300,636,1,7,11
1.72313E+12,-6982,3643,-1526,1082,-1333,153,1,7,11
1.72313E+12,-7033,3277,-1481,874,-1364,-4,1,7,11
1.72313E+12,-6857,3423,-1435,464,-1381,120,1,7,11
1.72313E+12,-7187,3364,-1663,634,-1395,52,1,7,11
1.72313E+12,-7232,3070,-1617,556,-1397,35,1,7,11
1.72313E+12,-7065,3056,-1562,232,-1336,55,1,7,11
1.72313E+12,-7471,3367,-1213,160,-1006,-125,1,7,11
1.72313E+12,-7462,3395,-1403,255,-985,310,1,7,11
1.72313E+12,-7130,3447,-1348,-102,-1135,162,1,7,11
1.72313E+12,-7443,3242,-1019,34,-895,221,1,7,11
1.72313E+12,-7411,3596,-969,-343,-387,562,1,7,11
1.72313E+12,-7381,3656,-939,-527,-567,417,1,7,11
1.72313E+12,-7096,3662,-902,-465,-215,462,1,7,11
1.72313E+12,-6891,3681,-1096,-895,76,443,1,7,11
1.72313E+12,-7021,3708,-1040,-1101,381,422,1,7,11
1.72313E+12,-7035,3486,-707,-1335,387,639,1,7,11
1.72313E+12,-6812,3490,-885,-1592,506,637,1,7,11
1.72313E+12,-6880,3477,-785,-1843,774,397,1,7,11
1.72313E+12,-6877,3686,-450,-2109,392,434,1,7,11
1.72313E+12,-6842,3688,-630,-2033,208,464,1,7,11
1.72313E+12,-6798,3668,-255,-2201,-30,468,1,7,11
1.72313E+12,-6968,3635,-145,-2281,-282,471,1,7,11
1.72313E+12,-6652,3695,-314,-2240,-211,458,1,7,11
1.72313E+12,-6545,3848,4,-2422,-602,502,1,7,11
1.72313E+12,-6732,3784,37,-2374,-619,832,1,7,11
1.72313E+12,-6750,3980,101,-2357,-568,710,1,7,11
1.72313E+12,-6541,4418,-77,-2332,-249,1139,1,7,11
1.72313E+12,-6592,4645,260,-2026,-189,1346,1,7,11
1.72313E+12,-6632,4606,362,-2002,-172,1275,1,7,11
1.72313E+12,-6923,4747,545,-1993,-216,1416,1,7,11
1.72313E+12,-6941,4835,500,-2158,-594,1802,1,7,11
1.72313E+12,-6605,5132,694,-1703,-840,1683,1,7,11
1.72313E+12,-6672,5232,1107,-1563,-1108,2079,1,7,11
1.72313E+12,-6454,5394,940,-1087,-1350,1930,1,7,11
1.72313E+12,-6225,5371,979,-398,-1273,1988,1,7,11
1.72313E+12,-5785,5753,1000,-314,-1624,1947,1,7,11
1.72313E+12,-5526,5896,1014,-47,-1434,2068,1,7,11
1.72313E+12,-5322,5778,1012,372,-1506,1861,1,7,11
1.72313E+12,-5284,5860,1019,139,-1448,1412,1,7,11
1.72313E+12,-5274,6170,1376,-7,-1654,1112,1,7,11
1.72313E+12,-5695,6125,1183,72,-1246,693,1,7,11
1.72313E+12,-5563,6483,1536,-232,-1564,662,1,7,11
1.72313E+12,-5573,6517,1632,-511,-1423,682,1,7,11
1.72313E+12,-5524,6506,1482,-767,-1526,651,1,7,11
1.72313E+12,-5672,6415,1826,-1010,-1801,844,1,7,11
1.72313E+12,-5360,6120,1806,-1161,-1657,451,1,7,11
1.72313E+12,-5114,6041,1830,-1564,-1553,226,1,7,11
1.72313E+12,-5040,6229,1820,-1599,-1139,-118,1,7,11
1.72313E+12,-5378,5887,1825,-1412,-462,-152,1,7,11
1.72313E+12,-5500,5819,1809,-1664,-383,-631,1,7,11
1.72313E+12,-5336,5794,1495,-1414,106,-489,1,7,11
1.72313E+12,-5702,5786,1432,-1454,333,-827,1,7,11
1.72313E+12,-5514,5772,1630,-1798,217,-876,1,7,11
1.72313E+12,-5622,5951,1591,-1675,628,-711,1,7,11
1.72313E+12,-5979,5560,1579,-2069,476,-1046,1,7,11
1.72313E+12,-5846,5665,1564,-2129,811,-924,1,7,11
1.72313E+12,-5883,5335,1550,-2089,822,-1023,1,7,11
1.72313E+12,-6247,5331,1247,-1766,662,-1390,1,7,11
1.72313E+12,-6133,5335,1225,-1772,697,-1398,1,7,11
1.72313E+12,-6138,5475,1196,-2102,893,-1380,1,7,11
1.72313E+12,-6424,5056,1194,-2113,649,-1164,1,7,11
1.72313E+12,-6528,5001,1214,-1759,668,-1190,1,7,11
1.72313E+12,-6340,5229,1239,-1692,883,-1213,1,7,11
1.72313E+12,-6669,5173,1544,-1698,781,-1260,1,7,11
1.72313E+12,-6678,4820,1609,-1747,625,-1593,1,7,11
1.72313E+12,-6691,4989,1422,-2078,516,-1420,1,7,11
1.72313E+12,-6723,4913,1511,-2164,210,-1459,1,7,11
1.72313E+12,-6750,4602,1827,-1968,180,-1430,1,7,11
1.72313E+12,-6538,4497,1912,-2305,197,-1659,1,7,11
1.72313E+12,-6624,4629,1713,-2356,224,-1602,1,7,11
1.72313E+12,-6614,4278,2061,-2369,183,-1572,1,7,11
1.72313E+12,-6623,4428,2131,-2027,523,-1613,1,7,11
1.72313E+12,-6653,4450,2162,-2130,387,-1662,1,7,11
1.72313E+12,-6924,4233,2168,-1781,448,-1793,1,7,11
1.72313E+12,-6573,4346,2147,-1686,492,-1727,1,7,11
1.72313E+12,-6632,4690,2127,-1740,646,-1959,1,7,11
1.72313E+12,-6651,4712,2064,-2152,740,-2343,1,7,11
1.72313E+12,-6922,4687,1730,-2371,1105,-2194,1,7,11
1.72313E+12,-7017,4304,1667,-2589,972,-2271,1,7,11
1.72313E+12,-6873,4372,1673,-2472,1016,-2302,1,7,11
1.72313E+12,-6807,4057,1890,-2500,1002,-2281,1,7,11
1.72313E+12,-6829,3925,1842,-2482,1300,-2253,1,7,11
1.72313E+12,-6786,3530,1514,-2543,1288,-2427,1,7,11
1.72313E+12,-7175,3607,1529,-2762,1377,-2305,1,7,11
1.72313E+12,-7118,3224,1822,-3077,1344,-2170,1,7,11
1.72313E+12,-7128,3359,1822,-3084,915,-2053,1,7,11
1.72313E+12,-7115,3064,1529,-2796,1047,-1920,1,7,11
1.72313E+12,-7054,3032,1487,-3084,731,-1525,1,7,11
1.72313E+12,-7152,3006,1507,-3129,1055,-1651,1,7,11
1.72313E+12,-7300,2974,1830,-3161,1107,-1223,1,7,11
1.72313E+12,-7420,3171,1672,-3146,1053,-1296,1,7,11
1.72313E+12,-7412,3115,1764,-2759,661,-1129,1,7,11
1.72313E+12,-7343,3137,2085,-2495,841,-1046,1,7,11
1.72313E+12,-7706,2948,1929,-2198,839,-1099,1,7,11
1.72313E+12,-7700,2990,2029,-2175,449,-989,1,7,11
1.72313E+12,-7392,3056,2339,-1910,563,-1217,1,7,11
1.72313E+12,-7542,3359,2313,-1452,255,-1416,1,7,11
1.72313E+12,-7548,3434,2039,-1614,601,-1798,1,7,11
1.72313E+12,-7373,3413,2329,-1466,411,-1818,1,7,11
1.72313E+12,-7526,3174,2340,-1838,636,-1819,1,7,11
1.72313E+12,-7501,2763,2352,-1482,499,-1675,1,7,11
1.72313E+12,-7315,2705,2339,-1629,665,-1744,1,7,11
1.72313E+12,-8377,2037,3150,-1494,772,-1349,1,7,11
1.72313E+12,-8529,2322,3021,-1459,344,-1149,1,7,11
1.72313E+12,-8202,2318,3048,-1444,103,-1054,1,7,11
1.72313E+12,-7677,2026,3027,-1488,-84,-745,1,7,11
1.72313E+12,-7682,2140,2980,-1528,147,-749,1,7,11
1.72313E+12,-7416,2063,3183,-1662,865,-1070,1,7,11
1.72313E+12,-7387,1745,2815,-1252,1007,-1089,1,7,11
1.72313E+12,-7386,1699,2939,-1346,1415,-1151,1,7,11
1.72313E+12,-7694,1716,2524,-957,1782,-903,1,7,11
1.72313E+12,-7772,1667,2670,-929,2320,-927,1,7,11
1.72313E+12,-7665,1818,2562,-1108,2277,-981,1,7,11
1.72313E+12,-7837,1820,2226,-1048,2303,-1318,1,7,11
1.72313E+12,-7889,1823,2385,-1121,2388,-1398,1,7,11
1.72313E+12,-7837,1834,2045,-1330,1979,-1243,1,7,11
1.72313E+12,-8021,1910,1957,-1551,2165,-1544,1,7,11
1.72313E+12,-7986,1803,2150,-1669,2171,-1591,1,7,11
1.72313E+12,-7945,1799,2059,-2133,1967,-1623,1,7,11
1.72313E+12,-7660,1900,1918,-2418,2307,-1608,1,7,11
1.72313E+12,-7672,1450,1815,-2493,2294,-1553,1,7,11
1.72313E+12,-8003,1214,1484,-2515,2883,-1252,1,7,11
1.72313E+12,-7813,1376,1632,-2606,3158,-1592,1,7,11
1.72313E+12,-8211,1353,1234,-2236,3371,-1452,1,7,11
1.72313E+12,-8265,1335,1305,-2199,3242,-1523,1,7,11
1.72313E+12,-8141,1307,1030,-2423,3678,-1889,1,7,11
1.72313E+12,-8567,938,500,-2403,3558,-1688,1,7,11
1.72313E+12,-8477,1120,512,-2351,3546,-1772,1,7,11
1.72313E+12,-7853,1119,-12,-2383,3463,-2116,1,7,11
1.72313E+12,-7346,1079,-300,-2279,3679,-2099,1,7,11
1.72313E+12,-7067,661,-552,-2445,3923,-2074,1,7,11
1.72313E+12,-7456,770,-475,-2843,3997,-1675,1,7,11
1.72313E+12,-7340,622,-888,-2903,4215,-1506,1,7,11
1.72313E+12,-7687,544,-1041,-2839,3958,-1647,1,7,11
1.72313E+12,-7564,526,-933,-2498,3662,-1277,1,7,11
1.72313E+12,-7949,232,-1340,-2448,3015,-1386,1,7,11
1.72313E+12,-8014,175,-1219,-2628,2558,-998,1,7,11
1.72313E+12,-7830,143,-1604,-2225,2401,-917,1,7,11
1.72313E+12,-7922,132,-1473,-2048,1755,-1129,1,7,11
1.72313E+12,-7936,136,-1831,-2113,1620,-1072,1,7,11
1.72313E+12,-7917,171,-1822,-1886,1301,-768,1,7,11
1.72313E+12,-7998,212,-1519,-1531,842,-891,1,7,11
1.72313E+12,-7802,193,-1465,-1305,587,-833,1,7,11
1.72313E+12,-7423,176,-1459,-1069,156,-834,1,7,11
1.72313E+12,-7728,146,-1487,-868,289,-887,1,7,11
1.72313E+12,-7761,154,-1844,-393,-110,-700,1,7,11
1.72313E+12,-7579,232,-1785,-204,-127,-1039,1,7,11
1.72313E+12,-7601,605,-2013,-337,-39,-1053,1,7,11
1.72313E+12,-7946,473,-2257,-267,235,-1074,1,7,11
1.72313E+12,-8053,865,-2683,-292,849,-1053,1,7,11
1.72313E+12,-7906,727,-2554,-374,948,-1036,1,7,11
1.72313E+12,-8265,1120,-2865,-544,1210,-730,1,7,11
1.72313E+12,-8232,967,-2866,-837,1274,-883,1,7,11
1.72313E+12,-8055,1306,-2842,-927,1203,-775,1,7,11
1.72313E+12,-7650,1309,-2510,-1597,1324,-446,1,7,11
1.72313E+12,-7744,935,-2665,-1772,1087,-396,1,7,11
1.72313E+12,-7539,1070,-2562,-2362,481,-437,1,7,11
1.72313E+12,-7072,717,-2216,-2567,145,-797,1,7,11
1.72313E+12,-7290,892,-2399,-2456,-21,-662,1,7,11
1.72313E+12,-7117,789,-2354,-2820,92,-703,1,7,11
1.72313E+12,-7078,411,-2001,-2888,-327,-729,1,7,11
1.72313E+12,-7538,602,-1930,-2832,-268,-1049,1,7,11
1.72313E+12,-7624,252,-2120,-2539,5,-1040,1,7,11
1.72313E+12,-7985,151,-1792,-2638,-378,-737,1,7,11
1.72313E+12,-7874,151,-2095,-2348,-332,-1034,1,7,11
1.72313E+12,-8068,144,-2101,-1960,7,-751,1,7,11
1.72313E+12,-8215,135,-2122,-1931,-267,-713,1,7,11
1.72313E+12,-7862,275,-1782,-1998,-117,-717,1,7,11
1.72313E+12,-7865,-15,-1690,-2044,372,-1033,1,7,11
1.72313E+12,-8049,-51,-1814,-2410,241,-1053,1,7,11
1.72313E+12,-7939,-97,-1655,-2584,245,-1109,1,7,11
1.72313E+12,-7619,-119,-1275,-2564,242,-900,1,7,11
1.72313E+12,-7614,116,-1406,-2939,162,-954,1,7,11
1.72313E+12,-7565,-116,-1308,-2723,284,-970,1,7,11
1.72313E+12,-7598,-41,-1006,-2726,-34,-910,1,7,11
1.72313E+12,-7964,-77,-919,-2765,-62,-1048,1,7,11
1.72313E+12,-7848,121,-1051,-2749,-104,-890,1,7,11
1.72313E+12,-7864,-95,-720,-2715,9,-442,1,7,11
1.72313E+12,-8018,-24,-667,-2771,-367,-207,1,7,11
1.72313E+12,-7961,271,-886,-3126,-311,23,1,7,11
1.72313E+12,-7889,344,-817,-2985,127,-60,1,7,11
1.72313E+12,-8528,365,-493,-3419,-17,367,1,7,11
1.72313E+12,-8600,165,-391,-3289,-72,546,1,7,11
1.72313E+12,-8844,576,-597,-3636,70,467,1,7,11
1.72313E+12,-8901,473,-541,-3556,-352,665,1,7,11
1.72313E+12,-8893,864,-248,-3740,-237,1070,1,7,11
1.72313E+12,-8689,713,-178,-4186,-409,937,1,7,11
1.72313E+12,-8358,1141,-149,-4090,-401,1281,1,7,11
1.72313E+12,-8279,1320,-132,-4622,-209,1362,1,7,11
1.72313E+12,-7960,1327,-137,-4965,62,1376,1,7,11
1.72313E+12,-7337,960,-321,-5174,364,1019,1,7,11
1.72313E+12,-7096,1088,14,-5017,798,1052,1,7,11
1.72313E+12,-7203,787,32,-5083,1202,163,1,7,11
1.72313E+12,-7254,622,-285,-5114,1461,15,1,7,11
1.72313E+12,-7152,230,-370,-5102,1690,-597,1,7,11
1.72313E+12,-7419,158,-243,-5245,2123,-651,1,7,11
1.72313E+12,-7978,378,-602,-5131,1945,-1103,1,7,11
1.72313E+12,-8083,362,-444,-4757,2162,-947,1,7,11
1.72313E+12,-8359,333,-816,-4565,1701,-969,1,7,11
1.72313E+12,-8604,185,-847,-4294,1430,-951,1,7,11
1.72313E+12,-8644,515,-657,-4378,1285,-1078,1,7,11
1.72313E+12,-8730,538,-670,-4207,659,-650,1,7,11
1.72313E+12,-8568,589,-642,-3736,449,-455,1,7,11
1.72313E+12,-8148,444,-857,-3538,569,-224,1,7,11
1.72313E+12,-8127,841,-864,-3605,254,21,1,7,11
1.72313E+12,-8076,826,-849,-3266,130,185,1,7,11
1.72313E+12,-8293,502,-793,-3239,276,536,1,7,11
1.72313E+12,-8221,548,-497,-3349,-38,614,1,7,11
1.72313E+12,-7837,540,-487,-3081,120,536,1,7,11
1.72313E+12,-7800,393,-786,-2529,82,376,1,7,11
1.72313E+12,-7758,830,-842,-2574,-46,-79,1,7,11
1.72313E+12,-7716,705,-862,-2280,282,40,1,7,11
1.72313E+12,-7616,1079,-834,-2611,375,-356,1,7,11
1.72313E+12,-7811,938,-503,-2486,159,-291,1,7,11
1.72313E+12,-8238,1304,-414,-2857,197,126,1,7,11
1.72313E+12,-8118,1176,-579,-2904,0,139,1,7,11
1.72313E+12,-8158,1269,-218,-2691,-539,450,1,7,11
1.72313E+12,-8282,1581,-352,-2690,-883,761,1,7,11
1.72313E+12,-7883,1619,19,-2876,-1091,992,1,7,11
1.72313E+12,-7864,1416,-104,-2498,-911,1387,1,7,11
1.72313E+12,-7868,1506,311,-2299,-977,1213,1,7,11
1.72313E+12,-7820,1865,232,-2034,-1295,1236,1,7,11
1.72313E+12,-7836,1742,403,-1697,-998,1194,1,7,11
1.72313E+12,-7881,2168,808,-1604,-955,1152,1,7,11
1.72313E+12,-7856,2016,688,-1285,-967,1307,1,7,11
1.72313E+12,-8032,2366,1054,-720,-964,1129,1,7,11
1.72313E+12,-7965,2208,1134,-438,-1136,669,1,7,11
1.72313E+12,-7959,2212,955,-237,-1033,480,1,7,11
1.72313E+12,-7947,2357,1283,15,-712,560,1,7,11
1.72313E+12,-7958,2131,1369,142,-660,371,1,7,11
1.72313E+12,-8035,1702,1166,743,-881,-25,1,7,11
1.72313E+12,-7859,1811,1376,1484,-713,-102,1,7,11
1.72313E+12,-7897,1444,1344,2622,-1092,-114,1,7,11
1.72313E+12,-7928,1455,921,3318,-969,-62,1,7,11
1.72313E+12,-7887,1519,702,4246,-1405,322,1,7,11
1.72313E+12,-7944,1749,460,5415,-1262,195,1,7,11
1.72313E+12,-7676,2005,510,5766,-1359,163,1,7,11
1.72313E+12,-7888,2199,172,6039,-927,369,1,7,11
1.72313E+12,-8074,2292,355,6090,-914,282,1,7,11
1.72313E+12,-8548,2597,274,6250,-968,-111,1,7,11
1.72313E+12,-8324,2285,-66,6014,-1167,-258,1,7,11
1.72313E+12,-8087,2222,100,5712,-1630,-188,1,7,11
1.72313E+12,-8251,2395,20,5104,-1420,-388,1,7,11
1.72313E+12,-7862,1989,-298,4907,-1474,-867,1,7,11
1.72313E+12,-8025,2078,-351,4214,-1476,-742,1,7,11
1.72313E+12,-7615,1889,-151,3502,-1497,-1082,1,7,11
1.72313E+12,-7713,1451,-190,3333,-1454,-1150,1,7,11
1.72313E+12,-7351,1262,-200,2926,-1615,-901,1,7,11
1.72313E+12,-7543,1314,-200,2594,-1235,-1129,1,7,11
1.72313E+12,-7531,1149,-202,2407,-1328,-1063,1,7,11
1.72313E+12,-7317,1032,-196,2356,-1130,-702,1,7,11
1.72313E+12,-7405,728,-176,2393,-675,-817,1,7,11
1.72313E+12,-7723,721,-153,2215,-777,-617,1,7,11
1.72313E+12,-7748,761,-153,2585,-395,-363,1,7,11
1.72313E+12,-7733,1091,-179,2678,-540,-73,1,7,11
1.72313E+12,-7765,1138,-210,2458,-138,196,1,7,11
1.72313E+12,-7779,912,-247,2471,-298,451,1,7,11
1.72313E+12,-7710,931,-530,2476,10,878,1,7,11
1.72313E+12,-7357,951,-552,2488,72,706,1,7,11
1.72313E+12,-7318,973,-565,2494,-108,702,1,7,11
1.72313E+12,-7381,980,-602,2463,-46,882,1,7,11
1.72313E+12,-7572,950,-407,2648,-1,482,1,7,11
1.72313E+12,-7859,905,-511,2604,272,566,1,7,11
1.72313E+12,-8515,1120,-892,2573,300,381,1,7,11
1.72313E+12,-8628,1108,-742,2563,-1,269,1,7,11
1.72313E+12,-9054,1141,-1100,2562,120,-16,1,7,11
1.72313E+12,-8860,938,-937,2270,25,265,1,7,11
1.72313E+12,-8881,1009,-997,2187,-260,340,1,7,11
1.72313E+12,-8843,1344,-1010,2333,-261,181,1,7,11
1.72313E+12,-8979,1400,-974,1945,-283,545,1,7,11
1.72313E+12,-8369,1170,-1093,2073,-338,445,1,7,11
1.72313E+12,-8129,1187,-733,1672,-138,803,1,7,11
1.72313E+12,-7871,1201,-889,1869,-208,893,1,7,11
1.72313E+12,-7631,1237,-794,1836,-552,697,1,7,11
1.72313E+12,-7702,1278,-461,1821,-609,717,1,7,11
1.72313E+12,-7353,1582,-396,1803,-399,698,1,7,11
1.72313E+12,-7304,1625,-599,1524,-462,660,1,7,11
1.72313E+12,-7313,1425,-561,1501,-510,854,1,7,11
1.72313E+12,-7524,1457,-544,1439,-833,788,1,7,11
1.72313E+12,-7501,1441,-540,1637,-819,407,1,7,11
1.72313E+12,-7685,1453,-549,1610,-400,220,1,7,11
1.72313E+12,-7827,1490,-595,1594,-166,270,1,7,11
1.72313E+12,-8809,1820,-446,1242,88,80,1,7,11
1.72313E+12,-8631,1431,-492,957,-153,35,1,7,11
1.72313E+12,-8129,1195,-449,1060,-524,-146,1,7,11
1.72313E+12,-7763,1338,-397,1063,-295,-581,1,7,11
1.72313E+12,-7732,994,-639,1080,239,-787,1,7,11
1.72313E+12,-7754,1125,-613,1057,504,-509,1,7,11
1.72313E+12,-7366,761,-616,1087,833,-486,1,7,11
1.72313E+12,-7464,688,-402,912,641,-432,1,7,11
1.72313E+12,-7095,659,-484,1283,749,-580,1,7,11
1.72313E+12,-7294,699,-861,1157,1121,-185,1,7,11
1.72313E+12,-7137,1045,-734,1267,1003,-291,1,7,11
1.72313E+12,-7323,1141,-1133,1591,1296,-94,1,7,11
1.72313E+12,-7794,971,-1285,1653,995,368,1,7,11
1.72313E+12,-8027,1328,-1195,1483,1137,599,1,7,11
1.72313E+12,-8220,1181,-1619,1794,717,829,1,7,11
1.72313E+12,-8090,1563,-1507,1798,786,1060,1,7,11
1.72313E+12,-8154,1446,-1916,1501,595,1284,1,7,11
1.72313E+12,-8179,1502,-1765,1623,181,1162,1,7,11
1.72313E+12,-8452,1437,-1779,1186,282,1394,1,7,11
1.72313E+12,-8066,1460,-1763,1391,118,950,1,7,11
1.72313E+12,-8218,1827,-1745,1344,-279,664,1,7,11
1.72313E+12,-8058,1916,-1686,1007,-162,384,1,7,11
1.72313E+12,-7949,1782,-1848,1129,-245,154,1,7,11
1.72313E+12,-7602,2068,-1824,836,-582,260,1,7,11
1.72313E+12,-7720,1688,-1511,521,-423,-128,1,7,11
1.72313E+12,-7408,1859,-1466,375,-787,-304,1,7,11
1.72313E+12,-7310,1486,-1637,-2,-652,-187,1,7,11
1.72313E+12,-7546,1581,-1228,116,-713,-603,1,7,11
1.72313E+12,-7305,1523,-1156,-294,-1071,-467,1,7,11
1.72313E+12,-7364,1262,-1386,-148,-903,-813,1,7,11
1.72313E+12,-7689,1235,-1280,-251,-980,-837,1,7,11
1.72313E+12,-7759,1161,-929,-555,-1327,-848,1,7,11
1.72313E+12,-7807,1228,-1092,-553,-1395,-862,1,7,11
1.72313E+12,-7976,1150,-746,-193,-1367,-693,1,7,11
1.72313E+12,-8229,1082,-641,-319,-1354,-1068,1,7,11
1.72313E+12,-8609,758,-777,71,-1379,-985,1,7,11
1.72313E+12,-8598,678,-409,-51,-1491,-1296,1,7,11
1.72313E+12,-8532,872,-567,146,-1731,-1395,1,7,11
1.72313E+12,-8312,874,-212,478,-1711,-1228,1,7,11
1.72313E+12,-7928,656,-145,882,-1917,-1206,1,7,11
1.72313E+12,-8014,694,-348,690,-1884,-1353,1,7,11
1.72313E+12,-7647,737,-314,716,-1487,-936,1,7,11
1.72313E+12,-7609,714,-310,706,-1550,-724,1,7,11
1.72313E+12,-7784,672,-340,718,-1372,-771,1,7,11
1.72313E+12,-7763,656,-358,722,-1135,-627,1,7,11
1.72313E+12,-7567,687,-367,713,-873,-230,1,7,11
1.72313E+12,-7666,1025,-363,673,-406,-324,1,7,11
1.72313E+12,-7995,1147,-329,864,-522,-101,1,7,11
1.72313E+12,-8057,1332,-282,798,-187,197,1,7,11
1.72313E+12,-7862,1271,12,421,-159,822,1,7,11
1.72313E+12,-7891,1639,64,226,-194,971,1,7,11
1.72313E+12,-8025,1418,-98,283,-541,1594,1,7,11
1.72313E+12,-7657,1652,-5,-115,-616,1826,1,7,11
1.72313E+12,-7602,1412,325,105,-387,1881,1,7,11
1.72313E+12,-7599,1459,128,-128,-385,1795,1,7,11
1.72313E+12,-7576,1500,149,-72,-628,1634,1,7,11
1.72313E+12,-7592,1824,161,-4,-546,1159,1,7,11
1.72313E+12,-7628,1868,165,-45,-191,914,1,7,11
1.72313E+12,-7983,1814,207,68,-356,881,1,7,11
1.72313E+12,-8036,1653,534,-356,-367,554,1,7,11
1.72313E+12,-7863,1192,612,-223,-140,-99,1,7,11
1.72313E+12,-8231,1310,425,-520,-192,-240,1,7,11
1.72313E+12,-8118,985,500,-556,-532,-837,1,7,11
1.72313E+12,-8462,935,822,-607,-415,-1061,1,7,11
1.72313E+12,-8159,1139,656,-409,-842,-938,1,7,11
1.72313E+12,-8299,1084,1027,-445,-699,-999,1,7,11
1.72313E+12,-8245,1044,1135,-429,-723,-991,1,7,11
1.72313E+12,-8235,1040,961,-618,-696,-899,1,7,11
1.72313E+12,-8086,1111,978,-524,-869,-748,1,7,11
1.72313E+12,-8510,963,948,-201,-502,-770,1,7,11
1.72313E+12,-8375,1351,906,-178,-394,-192,1,7,11
1.72313E+12,-8337,1214,1118,-209,-515,-37,1,7,11
1.72313E+12,-8505,1574,1063,-569,5,421,1,7,11
1.72313E+12,-8123,1414,1038,-476,341,1139,1,7,11
1.72313E+12,-8102,1523,735,-681,440,1548,1,7,11
1.72313E+12,-8157,1851,745,-909,646,1912,1,7,11
1.72313E+12,-8262,1879,763,-1344,654,1965,1,7,11
1.72313E+12,-7854,1918,762,-1178,676,2383,1,7,11
1.72313E+12,-7920,1680,761,-1240,894,2418,1,7,11
1.72313E+12,-7804,1775,743,-1193,819,1926,1,7,11
1.72313E+12,-7639,2018,711,-1000,828,1936,1,7,11
1.72313E+12,-8052,2617,643,-681,862,1817,1,7,11
1.72313E+12,-7865,2926,816,-668,817,1529,1,7,11
1.72313E+12,-8253,3131,505,-1093,774,1476,1,7,11
1.72313E+12,-8150,2952,776,-1343,418,1650,1,7,11
1.72313E+12,-8312,3167,858,-1586,369,1250,1,7,11
1.72313E+12,-8040,3122,694,-1811,126,937,1,7,11
1.72313E+12,-7948,2774,1047,-2059,14,849,1,7,11
1.72313E+12,-7353,2868,1126,-2000,-217,227,1,7,11
1.72313E+12,-7446,2558,914,-2016,-170,116,1,7,11
1.72313E+12,-7097,2537,1150,-2036,-138,-359,1,7,11
1.72313E+12,-7229,2509,1109,-2311,-358,-211,1,7,11
1.72313E+12,-6910,2551,709,-2335,39,-218,1,7,11
1.72313E+12,-6877,2469,844,-2242,281,-201,1,7,11
1.72313E+12,-7189,2279,783,-2666,634,-213,1,7,11
1.72313E+12,-7146,2323,769,-2526,707,-544,1,7,11
1.72313E+12,-7402,2138,808,-2534,1113,-406,1,7,11
1.72313E+12,-7669,2066,853,-2650,1121,-501,1,7,11
1.72313E+12,-7929,2109,874,-2417,765,-505,1,7,11
1.72313E+12,-8111,1997,864,-2112,843,-629,1,7,11
1.72313E+12,-8078,2287,772,-1793,384,-360,1,7,11
1.72313E+12,-8212,2833,393,-1635,564,-47,1,7,11
1.72313E+12,-7829,2777,595,-1421,574,514,1,7,11
1.72313E+12,-7950,3121,617,-1838,578,444,1,7,11
1.72313E+12,-7641,3096,462,-1768,574,473,1,7,11
1.72313E+12,-7633,2779,824,-2163,225,396,1,7,11
1.72313E+12,-7769,2929,676,-1984,-1,241,1,7,11
1.72313E+12,-7372,2816,738,-1943,72,-9,1,7,11
1.72313E+12,-7313,2668,1071,-2109,-319,-311,1,7,11
1.72313E+12,-7321,2231,929,-1708,-219,-633,1,7,11
1.72313E+12,-7372,2020,1343,-1481,-395,-891,1,7,11
1.72313E+12,-7796,1953,1153,-1180,-481,-1089,1,7,11
1.72313E+12,-8028,2014,1405,-1084,-394,-909,1,7,11
1.72313E+12,-7931,2196,1331,-771,-387,-1092,1,7,11
1.72313E+12,-8296,2648,981,-385,-603,-690,1,7,11
1.72313E+12,-8111,2452,939,-816,-543,-488,1,7,11
1.72313E+12,-8121,2589,962,-1028,-256,-569,1,7,11
1.72313E+12,-8250,2369,1308,-1134,-515,-239,1,7,11
1.72313E+12,-7859,1947,1389,-1047,-192,-534,1,7,11
1.72313E+12,-8003,2169,1165,-865,-139,-622,1,7,11
1.72313E+12,-7617,2150,1183,-455,-360,-460,1,7,11
1.72313E+12,-7771,2135,1174,-578,-286,-793,1,7,11
1.72313E+12,-7732,2142,1404,-220,71,-844,1,7,11
1.72313E+12,-7768,1928,1351,-147,122,-845,1,7,11
1.72313E+12,-7761,1938,1298,-365,-110,-827,1,7,11
1.72313E+12,-7614,1951,993,-349,261,-790,1,7,11
1.72313E+12,-7960,1947,963,-131,311,-451,1,7,11
1.72313E+12,-8052,2175,939,-184,349,-616,1,7,11
1.72313E+12,-7891,2115,931,-552,374,-239,1,7,11
1.72313E+12,-8218,1754,948,-440,332,-138,1,7,11
1.72313E+12,-8230,1684,960,-776,-34,-347,1,7,11
1.72313E+12,-8207,1684,1000,-842,105,-347,1,7,11
1.72313E+12,-7921,1720,1023,-661,52,-301,1,7,11
1.72313E+12,-7935,1742,1307,-763,19,5,1,7,11
1.72313E+12,-7901,1697,1344,-1108,-316,55,1,7,11
1.72313E+12,-7867,1918,1366,-1142,-347,62,1,7,11
1.72313E+12,-7857,1897,1394,-897,-361,54,1,7,11
1.72313E+12,-7852,1870,1403,-1084,-361,41,1,7,11
1.72313E+12,-7857,1874,1379,-689,-323,28,1,7,11
1.72313E+12,-7852,1883,1366,-811,-276,20,1,7,11
1.72313E+12,-7847,1876,1359,-386,51,12,1,7,11
1.72313E+12,-7864,1678,1359,-178,-112,5,1,7,11
1.72313E+12,-7877,1782,1353,-275,-42,18,1,7,11
1.72313E+12,-7872,2125,1335,68,259,47,1,7,11
1.72313E+12,-7882,2162,1316,83,321,70,1,7,11
1.72313E+12,-7884,2149,1305,49,361,74,1,7,11
1.72313E+12,-7886,2063,1314,5,133,23,1,7,11
1.72313E+12,-7915,1711,1313,22,150,-321,1,7,11
1.72313E+12,-8193,1879,1321,100,379,-177,1,7,11
1.72313E+12,-7898,1852,1325,-31,311,-532,1,7,11
1.72313E+12,-7861,1869,1293,317,-31,-609,1,7,11
1.72313E+12,-8040,1666,1017,340,87,-396,1,7,11
1.72313E+12,-7965,1896,982,292,-274,-416,1,7,11
1.72313E+12,-7937,1847,992,-28,-338,-414,1,7,11
1.72313E+12,-7680,1483,1027,-93,-161,-403,1,7,11
1.72313E+12,-7676,1619,1326,-107,-238,-396,1,7,11
1.72313E+12,-7985,1525,1368,-62,-537,-385,1,7,11
1.72313E+12,-8064,1236,1168,-15,-597,-596,1,7,11
1.72313E+12,-7862,1211,1228,269,-406,-533,1,7,11
1.72313E+12,-7908,1160,1580,294,-480,-221,1,7,11
1.72313E+12,-8194,1177,1654,359,-832,-153,1,7,11
1.72313E+12,-8213,1273,1423,230,-868,-318,1,7,11
1.72313E+12,-8221,1660,1663,630,-855,63,1,7,11
1.72313E+12,-7935,1831,1622,394,-802,-17,1,7,11
1.72313E+12,-7889,1780,1571,617,-420,213,1,7,11
1.72313E+12,-7866,2003,1255,517,-233,502,1,7,11
1.72313E+12,-7825,2177,1221,328,-311,1074,1,7,11
1.72313E+12,-8032,2253,1210,101,98,1360,1,7,11
1.72313E+12,-7959,2231,1223,-355,-41,1543,1,7,11
1.72313E+12,-7581,2202,1214,-193,316,1575,1,7,11
1.72313E+12,-7764,2193,1216,-203,187,1195,1,7,11
1.72313E+12,-7743,2238,1199,-144,569,979,1,7,11
1.72313E+12,-7778,2572,1163,-339,411,736,1,7,11
1.72313E+12,-7563,2626,1390,-319,451,769,1,7,11
1.72313E+12,-7603,2645,1356,-335,455,570,1,7,11
1.72313E+12,-7636,2626,1335,-362,436,146,1,7,11
1.72313E+12,-7944,2574,1327,-380,419,269,1,7,11
1.72313E+12,-7985,2272,1308,-364,395,-93,1,7,11
1.72313E+12,-8017,2228,1293,-345,620,88,1,7,11
1.72313E+12,-8046,2196,1020,-307,603,57,1,7,11
1.72313E+12,-7831,2427,1019,-275,575,57,1,7,11
1.72313E+12,-7857,2354,1304,-261,247,80,1,7,11
1.72313E+12,-7821,2307,1321,23,139,116,1,7,11
1.72313E+12,-8049,1982,1339,37,262,120,1,7,11
1.72313E+12,-8050,2139,1374,55,-61,87,1,7,11
1.72313E+12,-8029,2050,1392,107,-110,25,1,7,11
1.72313E+12,-8043,1753,1394,-80,-117,-318,1,7,11
1.72313E+12,-7810,1711,1391,-49,-119,-139,1,7,11
1.72313E+12,-7848,1890,1388,-67,124,-214,1,7,11
1.72313E+12,-7842,1822,1399,-61,93,-518,1,7,11
1.72313E+12,-7864,1799,1157,-46,105,-556,1,7,11
1.72313E+12,-7836,1817,1178,-57,114,-535,1,7,11
1.72313E+12,-8057,1885,1181,-102,-88,-219,1,7,11
1.72313E+12,-7982,1700,1168,25,269,-366,1,7,11
1.72313E+12,-7628,2053,1389,-142,214,21,1,7,11
1.72313E+12,-7788,1974,1338,-586,786,-56,1,7,11
1.72313E+12,-7708,2183,1281,-865,939,158,1,7,11
1.72313E+12,-7388,2644,968,-1001,1409,396,1,7,11
1.72313E+12,-7347,2816,907,-1480,2166,894,1,7,11
1.72313E+12,-7300,2735,1079,-2004,2673,1105,1,7,11
1.72313E+12,-7495,3118,733,-2857,3168,996,1,7,11
1.72313E+12,-7488,3185,889,-3217,3662,1316,1,7,11
1.72313E+12,-7522,2963,509,-3809,3823,1340,1,7,11
1.72313E+12,-7550,2957,638,-4621,4411,1339,1,7,11
1.72313E+12,-7361,3199,232,-4855,4665,1304,1,7,11
1.72313E+12,-7687,3153,331,-5298,4542,969,1,7,11
1.72313E+12,-7745,3083,-67,-5927,4551,1066,1,7,11
1.72313E+12,-7571,2786,75,-6160,4486,849,1,7,11
1.72313E+12,-7676,2808,-272,-6031,4350,392,1,7,11
1.72313E+12,-8021,3085,-363,-6137,4367,183,1,7,11
1.72313E+12,-7974,2804,-196,-6490,3889,361,1,7,11
1.72313E+12,-7597,2783,-523,-6475,3624,293,1,7,11
1.72313E+12,-7655,2936,-581,-6462,3425,-103,1,7,11
1.72313E+12,-7779,2469,-569,-6129,3135,15,1,7,11
1.72313E+12,-7620,2658,-589,-5851,2810,-172,1,7,11
1.72313E+12,-8025,2647,-532,-5587,2557,-519,1,7,11
1.72313E+12,-8049,2574,-170,-5274,2229,-571,1,7,11
1.72313E+12,-8016,2628,-340,-4823,1960,-229,1,7,11
1.72313E+12,-7654,2458,-280,-4664,1714,-346,1,7,11
1.72313E+12,-7750,2538,30,-4027,1513,78,1,7,11
1.72313E+12,-7548,3175,104,-3048,1565,320,1,7,11
1.72313E+12,-7313,3344,-109,-3093,1225,336,1,7,11
1.72313E+12,-7530,3222,-91,-2729,1351,319,1,7,11
1.72313E+12,-7514,3303,-83,-2927,1289,-16,1,7,11
1.72313E+12,-7338,3327,-52,-2907,1283,111,1,7,11
1.72313E+12,-7699,3245,-20,-2862,979,-318,1,7,11
1.72313E+12,-7782,3333,308,-2482,1090,-565,1,7,11
1.72313E+12,-7758,3000,337,-2242,700,-844,1,7,11
1.72313E+12,-7587,2957,366,-2306,864,-1052,1,7,11
1.72313E+12,-7808,2806,161,-2130,453,-899,1,7,11
1.72313E+12,-7560,2925,199,-1867,390,-957,1,7,11
1.72313E+12,-7586,2484,242,-1622,550,-961,1,7,11
1.72313E+12,-7786,2297,586,-1322,176,-963,1,7,11
1.72313E+12,-7555,2218,393,-677,145,-964,1,7,11
1.72313E+12,-7601,2425,445,-566,341,-908,1,7,11
1.72313E+12,-7808,2366,508,59,-12,-1098,1,7,11
1.72313E+12,-7774,2352,800,216,-49,-1053,1,7,11
1.72313E+12,-7753,2430,808,882,-41,-721,1,7,11
1.72313E+12,-7802,2214,809,902,273,-651,1,7,11
1.72313E+12,-7604,2202,818,1362,282,-854,1,7,11
1.72313E+12,-7659,2181,818,1631,313,-643,1,7,11
1.72313E+12,-7856,2293,788,1664,143,-733,1,7,11
1.72313E+12,-8265,2643,466,1746,362,-1055,1,7,11
1.72313E+12,-8135,2609,398,1690,335,-918,1,7,11
1.72313E+12,-8461,2585,608,1872,307,-1307,1,7,11
1.72313E+12,-7935,2219,615,1485,-34,-1590,1,7,11
1.72313E+12,-8024,2392,580,1596,37,-1831,1,7,11
1.72313E+12,-7954,2384,245,1191,185,-2050,1,7,11
1.72313E+12,-7565,2428,133,1030,585,-2145,1,7,11
1.72313E+12,-7692,2326,293,591,815,-1924,1,7,11
1.72313E+12,-7364,2088,-10,-16,1140,-1952,1,7,11
1.72313E+12,-7363,1892,-72,36,1178,-2023,1,7,11
1.72313E+12,-7332,1799,73,-382,1630,-2351,1,7,11
1.72313E+12,-7313,1506,-331,-581,1839,-2335,1,7,11
1.72313E+12,-7378,1473,-201,-813,2080,-1986,1,7,11
1.72313E+12,-7730,1654,-590,-763,1981,-2083,1,7,11
1.72313E+12,-7758,1590,-476,-1133,2308,-1870,1,7,11
1.72313E+12,-7728,1262,-890,-1124,2374,-1639,1,7,11
1.72313E+12,-7738,1211,-754,-1029,2238,-1402,1,7,11
1.72313E+12,-7562,1208,-1119,-649,2593,-1124,1,7,11
1.72313E+12,-7603,1189,-992,-824,2571,-840,1,7,11
1.72313E+12,-7606,1346,-1365,-441,2231,-613,1,7,11
1.72313E+12,-7590,974,-1181,-186,2395,-220,1,7,11
1.72313E+12,-7648,922,-1228,-117,2310,-156,1,7,11
1.72313E+12,-7966,1140,-1538,172,2136,-358,1,7,11
1.72313E+12,-7990,1106,-1602,468,1895,-333,1,7,11
1.72313E+12,-7986,1091,-1643,754,1623,-325,1,7,11
1.72313E+12,-7947,1131,-1456,1308,1402,-344,1,7,11
1.72313E+12,-8012,1300,-1804,1278,974,-291,1,7,11
1.72313E+12,-8005,1377,-1876,1587,696,99,1,7,11
1.72313E+12,-7671,1175,-1686,1656,480,271,1,7,11
1.72313E+12,-7953,1406,-1728,1449,622,178,1,7,11
1.72313E+12,-7666,1281,-1701,1818,208,572,1,7,11
1.72313E+12,-7650,939,-1700,1759,304,612,1,7,11
1.72313E+12,-7560,957,-1749,1943,99,403,1,7,11
1.72313E+12,-7737,982,-1764,2334,-315,404,1,7,11
1.72313E+12,-7695,906,-1755,2429,-162,442,1,7,11
1.72313E+12,-7419,1096,-1747,2572,-252,477,1,7,11
1.72313E+12,-7708,1084,-1752,2523,-612,782,1,7,11
1.72313E+12,-7564,1072,-2072,3090,-444,861,1,7,11
1.72313E+12,-7644,871,-2090,3416,-707,1033,1,7,11
1.72313E+12,-7559,499,-2143,3885,-957,899,1,7,11
1.72313E+12,-7643,463,-1940,4250,-1293,1293,1,7,11
1.72313E+12,-7673,458,-1973,4859,-1185,1196,1,7,11
1.72313E+12,-7943,770,-2019,5706,-1601,1638,1,7,11
1.72313E+12,-7660,862,-2307,6202,-1896,1451,1,7,11
1.72313E+12,-7608,733,-2341,6325,-1739,1468,1,7,11
1.72313E+12,-7777,896,-2376,6575,-2006,1454,1,7,11
1.72313E+12,-7722,1335,-2407,6940,-2353,1410,1,7,11
1.72313E+12,-7401,1259,-2424,6587,-2384,1635,1,7,11
1.72313E+12,-7342,1429,-2420,6370,-2340,1601,1,7,11
1.72313E+12,-7338,1834,-2396,6035,-1959,1579,1,7,11
1.72313E+12,-7347,1718,-2345,5600,-2066,1569,1,7,11
1.72313E+12,-7369,2071,-2041,5086,-1670,1548,1,7,11
1.72313E+12,-7370,2058,-1958,4536,-1838,1202,1,7,11
1.72313E+12,-7297,2076,-2137,4041,-1498,1297,1,7,11
1.72313E+12,-7524,2084,-2069,3528,-1608,1112,1,7,11
1.72313E+12,-7504,1778,-1754,3049,-1187,646,1,7,11
1.72313E+12,-7302,1721,-1689,2883,-997,395,1,7,11
1.72313E+12,-7390,1896,-1878,2263,-1097,159,1,7,11
1.72313E+12,-7750,1797,-1833,1969,-737,-55,1,7,11
1.72313E+12,-7793,1417,-1805,1743,-716,30,1,7,11
1.72313E+12,-7732,1258,-1534,1825,-723,-134,1,7,11
1.72313E+12,-7684,1402,-1531,1469,-888,-541,1,7,11
1.72313E+12,-7789,973,-1533,1621,-804,-639,1,7,11
1.72313E+12,-7786,767,-1490,1627,-828,-449,1,7,11
1.72313E+12,-7563,641,-1469,1500,-806,-791,1,7,11
1.72313E+12,-7626,837,-1447,1890,-804,-818,1,7,11
1.72313E+12,-7939,790,-1430,1742,-827,-822,1,7,11
1.72313E+12,-7973,792,-1664,2082,-862,-779,1,7,11
1.72313E+12,-7977,777,-1652,2121,-651,-464,1,7,11
1.72313E+12,-7971,783,-1621,2129,-682,-385,1,7,11
1.72313E+12,-7952,786,-1602,2096,-702,-559,1,7,11
1.72313E+12,-7956,782,-1576,1783,-707,-218,1,7,11
1.72313E+12,-7940,782,-1554,1714,-709,-384,1,7,11
1.72313E+12,-7666,784,-1264,1905,-706,-293,1,7,11
1.72313E+12,-7644,786,-1240,1831,-685,49,1,7,11
1.72313E+12,-7671,783,-1210,1482,-655,121,1,7,11
1.72313E+12,-7942,502,-1180,1636,-654,-71,1,7,11
1.72313E+12,-7983,484,-1393,1549,-647,-28,1,7,11
1.72313E+12,-8030,482,-1322,1206,-664,263,1,7,11
1.72313E+12,-8062,466,-1281,1377,-698,290,1,7,11
1.72313E+12,-7853,479,-985,1307,-723,307,1,7,11
1.72313E+12,-7912,490,-941,968,-765,328,1,7,11
1.72313E+12,-7920,503,-900,1137,-1066,366,1,7,11
1.72313E+12,-7929,769,-1114,750,-1107,132,1,7,11
1.72313E+12,-7922,778,-1062,662,-1114,145,1,7,11
1.72313E+12,-7903,781,-746,813,-1123,153,1,7,11
1.72313E+12,-7890,768,-684,465,-1115,147,1,7,11
1.72313E+12,-7895,503,-880,395,-1098,139,1,7,11
1.72313E+12,-7854,494,-820,601,-1107,133,1,7,11
1.72313E+12,-7842,494,-507,564,-1088,360,1,7,11
1.72313E+12,-7839,506,-459,523,-1076,342,1,7,11
1.72313E+12,-7835,508,-413,211,-1075,306,1,7,11
1.72313E+12,-7831,507,-621,159,-1064,262,1,7,11
1.72313E+12,-7842,504,-569,373,-1041,-42,1,7,11
1.72313E+12,-7838,508,-516,349,-757,-81,1,7,11
1.72313E+12,-7848,787,-213,330,-706,-111,1,7,11
1.72313E+12,-7863,828,-175,308,-659,-118,1,7,11
1.72313E+12,-7866,873,-165,256,-866,-110,1,7,11
1.72313E+12,-7855,641,-169,-86,-792,-89,1,7,11
1.72313E+12,-7850,641,-181,66,-420,-74,1,7,11
1.72313E+12,-7854,887,-203,-297,-549,-80,1,7,11
1.72313E+12,-7859,856,-241,-150,-191,-118,1,7,11
1.72313E+12,-7860,785,-542,-179,-364,74,1,7,11
1.72313E+12,-7907,489,-549,-358,-276,-299,1,7,11
1.72313E+12,-8257,768,-526,-315,23,-198,1,7,11
1.72313E+12,-8103,786,-519,-189,-283,-534,1,7,11
1.72313E+12,-8137,780,-249,-427,-135,-238,1,7,11
1.72313E+12,-8182,477,-230,-686,-513,-163,1,7,11
1.72313E+12,-8156,388,-169,-916,-423,-342,1,7,11
1.72313E+12,-8144,629,-132,-1325,-832,-285,1,7,11
