timestamp,ax,ay,az,gx,gy,gz,Label1,Label2,Label3
1.72313E+12,-4510,6313,-591,-154,377,-363,1,7,11
1.72313E+12,-4515,6300,-590,-382,371,-352,1,7,11
1.72313E+12,-4523,6291,-604,-348,371,-342,1,7,11
1.72313E+12,-4534,6280,-611,-316,367,-328,1,7,11
1.72313E+12,-4530,6523,-617,-276,352,-307,1,7,11
1.72313E+12,-4516,6520,-630,27,346,-289,1,7,11
1.72313E+12,-4527,6520,-639,65,345,-270,1,7,11
1.72313E+12,-4526,6501,-393,98,332,12,1,7,11
1.72313E+12,-4520,6479,-418,-117,315,29,1,7,11
1.72313E+12,-4507,6479,-437,-67,302,47,1,7,11
1.72313E+12,-4503,6495,-456,-18,300,85,1,7,11
1.72313E+12,-4496,6509,-471,286,283,126,1,7,11
1.72313E+12,-4487,6525,-488,305,265,-86,1,7,11
1.72313E+12,-4735,6295,-509,314,-13,-37,1,7,11
1.72313E+12,-4707,6316,-778,310,-43,262,1,7,11
1.72313E+12,-4694,6339,-802,301,-61,289,1,7,11
1.72313E+12,-4689,6368,-806,280,-77,308,1,7,11
1.72313E+12,-4674,6382,-804,-1,-112,321,1,7,11
1.72313E+12,-4665,6391,-803,-19,121,314,1,7,11
1.72313E+12,-4664,6394,-791,-34,104,295,1,7,11
1.72313E+12,-4652,6390,-777,-45,80,263,1,7,11
1.72313E+12,-4641,6381,-508,-46,61,-32,1,7,11
1.72313E+12,-4635,6369,-490,-40,53,-67,1,7,11
1.72313E+12,-4631,6349,-470,-20,52,-91,1,7,11
1.72313E+12,-4632,6354,-461,274,62,-96,1,7,11
1.72313E+12,-4619,6358,-461,296,78,-83,1,7,11
1.72313E+12,-4343,6373,-462,311,106,-61,1,7,11
1.72313E+12,-4314,6383,-458,317,-107,-43,1,7,11
1.72313E+12,-4245,6694,-497,295,362,-4,1,7,11
1.72313E+12,-4226,6732,-790,260,175,269,1,7,11
1.72313E+12,-4452,6743,-824,-59,247,271,1,7,11
1.72313E+12,-4464,6750,-842,-113,580,266,1,7,11
1.72313E+12,-4226,6760,-860,77,620,-1,1,7,11
1.72313E+12,-4477,6755,-881,15,638,-18,1,7,11
1.72313E+12,-4475,6757,-644,-278,398,-37,1,7,11
1.72313E+12,-4449,6760,-675,-312,406,-50,1,7,11
1.72313E+12,-4441,6772,-687,-349,427,-71,1,7,11
1.72313E+12,-4447,6774,-692,-130,452,-91,1,7,11
1.72313E+12,-4448,6771,-689,-164,455,-106,1,7,11
1.72313E+12,-4454,6774,-690,-196,456,-126,1,7,11
1.72313E+12,-4439,6764,-694,-237,450,112,1,7,11
1.72313E+12,-4432,6747,-699,-537,455,87,1,7,11
1.72313E+12,-4422,6737,-692,-577,465,68,1,7,11
1.72313E+12,-4418,6737,-681,-614,483,52,1,7,11
1.72313E+12,-4418,6774,-673,-401,498,39,1,7,11
1.72313E+12,-4407,6564,-665,-475,769,33,1,7,11
1.72313E+12,-4404,6611,-641,-855,774,37,1,7,11
1.72313E+12,-4390,6914,-879,-754,805,52,1,7,11
1.72313E+12,-4385,6933,-846,-948,816,54,1,7,11
1.72313E+12,-4381,6929,-801,-1396,844,63,1,7,11
1.72313E+12,-4091,6924,-772,-1567,866,78,1,7,11
1.72313E+12,-4060,6925,-479,-1445,655,75,1,7,11
1.72313E+12,-4068,6652,-443,-1811,732,67,1,7,11
1.72313E+12,-4062,6627,-410,-1886,1077,58,1,7,11
1.72313E+12,-4060,6624,-394,-1916,1121,39,1,7,11
1.72313E+12,-4064,6621,-633,-1920,899,11,1,7,11
1.72313E+12,-4067,6618,-619,-1906,914,-260,1,7,11
1.72313E+12,-4070,6609,-594,-1876,916,-276,1,7,11
1.72313E+12,-4092,6607,-576,-1822,920,-288,1,7,11
1.72313E+12,-4087,6595,-548,-1516,897,-296,1,7,11
1.72313E+12,-4081,6577,-515,-1435,1137,-310,1,7,11
1.72313E+12,-4081,6589,-239,-1587,1125,-324,1,7,11
1.72313E+12,-4082,6591,-217,-1238,1107,-340,1,7,11
1.72313E+12,-4079,6588,-193,-1391,1094,-344,1,7,11
1.72313E+12,-4066,6597,-186,-1281,1096,-344,1,7,11
1.72313E+12,-4066,6608,-173,-922,1106,-348,1,7,11
1.72313E+12,-4062,6624,-177,-1084,1116,-349,1,7,11
1.72313E+12,-4058,6637,-179,-742,1133,-353,1,7,11
1.72313E+12,-4065,6650,-182,-675,903,-373,1,7,11
1.72313E+12,-4071,6651,-192,-885,913,-130,1,7,11
1.72313E+12,-4063,6655,-201,-845,915,-149,1,7,11
1.72313E+12,-4073,6945,-221,-822,927,-175,1,7,11
1.72313E+12,-4091,6945,-213,-831,927,-213,1,7,11
1.72313E+12,-4365,6934,-215,-861,917,-232,1,7,11
1.72313E+12,-4357,6924,-202,-885,1145,-247,1,7,11
1.72313E+12,-4086,6920,-182,-645,1135,-535,1,7,11
1.72313E+12,-4367,6925,-180,-658,1150,-571,1,7,11
1.72313E+12,-4403,6940,-182,-679,897,-595,1,7,11
1.72313E+12,-4437,6950,-195,-699,899,-603,1,7,11
1.72313E+12,-4459,6970,-218,-715,906,-600,1,7,11
1.72313E+12,-4227,6973,-248,-734,932,-603,1,7,11
1.72313E+12,-4249,6955,-536,-757,963,-616,1,7,11
1.72313E+12,-4276,6653,-570,-762,989,-388,1,7,11
1.72313E+12,-4298,6600,-604,-739,1008,-426,1,7,11
1.72313E+12,-4311,6540,-389,-711,1001,-461,1,7,11
1.72313E+12,-4309,6725,-426,-668,996,-508,1,7,11
1.72313E+12,-4344,6660,-466,-866,1000,-816,1,7,11
1.72313E+12,-4636,6346,-509,-813,979,-851,1,7,11
1.72313E+12,-4671,6298,-812,-507,941,-862,1,7,11
1.72313E+12,-4718,6514,-848,-459,1137,-850,1,7,11
1.72313E+12,-4488,6479,-878,-420,1041,-811,1,7,11
1.72313E+12,-4518,6440,-880,-637,686,-505,1,7,11
1.72313E+12,-4538,6422,-864,-593,820,-433,1,7,11
1.72313E+12,-4558,6417,-832,-542,426,-612,1,7,11
1.72313E+12,-4544,6443,-802,-234,531,-525,1,7,11
1.72313E+12,-4519,6472,-502,-196,145,-186,1,7,11
1.72313E+12,-4735,6511,-463,-170,296,-363,1,7,11
1.72313E+12,-4725,6302,-414,-172,-37,-301,1,7,11
1.72313E+12,-4708,6341,-621,-192,-103,12,1,7,11
1.72313E+12,-4682,6387,-548,-220,89,65,1,7,11
1.72313E+12,-4646,6685,-242,-248,53,102,1,7,11
1.72313E+12,-4656,6701,-185,-527,38,124,1,7,11
1.72313E+12,-4655,6691,-381,-557,-276,-119,1,7,11
1.72313E+12,-4630,6698,-339,-519,-310,119,1,7,11
1.72313E+12,-4350,6733,-321,-187,-313,101,1,7,11
1.72313E+12,-4324,6781,-302,-367,-286,88,1,7,11
1.72313E+12,-4309,6559,-283,-315,19,70,1,7,11
1.72313E+12,-4296,6575,-277,-268,73,40,1,7,11
1.72313E+12,-4288,6584,-279,31,-123,-259,1,7,11
1.72313E+12,-4290,6590,-302,63,-60,-315,1,7,11
1.72313E+12,-4302,6585,-334,80,-1,-375,1,7,11
1.72313E+12,-4322,6569,-365,90,309,-168,1,7,11
1.72313E+12,-4617,6540,-157,102,356,-203,1,7,11
1.72313E+12,-4651,6755,-197,114,372,-222,1,7,11
1.72313E+12,-4672,6703,-240,-121,382,-239,1,7,11
1.72313E+12,-4686,6660,-532,-97,376,-245,1,7,11
1.72313E+12,-4697,6381,-569,-81,364,-255,1,7,11
1.72313E+12,-4726,6366,-601,-88,348,-515,1,7,11
1.72313E+12,-4497,6339,-627,-116,311,-245,1,7,11
1.72313E+12,-4504,6298,-629,114,256,-222,1,7,11
1.72313E+12,-4498,6511,-628,101,-47,-194,1,7,11
1.72313E+12,-4519,6499,-623,108,-84,-155,1,7,11
1.72313E+12,-4534,6508,-608,110,118,-354,1,7,11
1.72313E+12,-4538,6505,-592,107,58,-291,1,7,11
1.72313E+12,-4550,6523,-570,117,2,37,1,7,11
1.72313E+12,-4543,6273,-540,121,-331,114,1,7,11
1.72313E+12,-4512,6285,-248,-110,-156,-69,1,7,11
1.72313E+12,-4482,6325,-225,-53,-216,-8,1,7,11
1.72313E+12,-4712,6391,-222,267,-513,303,1,7,11
1.72313E+12,-4676,6699,-199,307,-556,352,1,7,11
1.72313E+12,-4645,6736,-184,356,-569,377,1,7,11
1.72313E+12,-4627,6759,-174,152,-568,377,1,7,11
1.72313E+12,-4617,6779,-173,211,-557,341,1,7,11
1.72313E+12,-4350,6541,-189,525,-543,278,1,7,11
1.72313E+12,-4610,6541,-208,573,-526,-66,1,7,11
1.72313E+12,-4635,6781,-237,615,-515,107,1,7,11
1.72313E+12,-4643,6750,-521,391,-529,40,1,7,11
1.72313E+12,-4671,6711,-543,424,-541,-280,1,7,11
1.72313E+12,-4710,6676,-590,460,-564,-318,1,7,11
1.72313E+12,-4712,6643,-616,476,-615,-331,1,7,11
1.72313E+12,-4723,6353,-636,490,-405,-325,1,7,11
1.72313E+12,-4736,6320,-386,508,-455,-298,1,7,11
1.72313E+12,-4736,6307,-399,791,-498,-259,1,7,11
1.72313E+12,-4733,6289,-405,826,-793,62,1,7,11
1.72313E+12,-4726,6282,-418,864,-824,100,1,7,11
1.72313E+12,-4482,6307,-436,652,-854,-126,1,7,11
1.72313E+12,-4736,6354,-456,686,-887,-94,1,7,11
1.72313E+12,-4716,6372,-471,668,-668,-68,1,7,11
1.72313E+12,-4716,6373,-479,894,-684,-57,1,7,11
1.72313E+12,-4727,6362,-477,873,-710,-42,1,7,11
1.72313E+12,-4713,6335,-466,876,-750,-29,1,7,11
1.72313E+12,-4708,6328,-461,653,-765,-36,1,7,11
1.72313E+12,-4710,6327,-469,683,-1040,-46,1,7,11
1.72313E+12,-4707,6327,-475,715,-1060,-64,1,7,11
1.72313E+12,-4720,6332,-487,738,-1073,-78,1,7,11
1.72313E+12,-4716,6321,-504,748,-1093,-82,1,7,11
1.72313E+12,-4702,6298,-769,759,-1105,-84,1,7,11
1.72313E+12,-4715,6288,-772,1034,-1093,-93,1,7,11
1.72313E+12,-4734,6284,-799,1053,-1085,-94,1,7,11
1.72313E+12,-4494,6284,-819,1060,-1084,-84,1,7,11
1.72313E+12,-4512,6285,-841,1058,-1084,-72,1,7,11
1.72313E+12,-4526,6278,-858,1029,-1106,-63,1,7,11
1.72313E+12,-4512,6510,-865,745,-1131,-55,1,7,11
1.72313E+12,-4503,6513,-891,737,-1122,-61,1,7,11
1.72313E+12,-4509,6526,-649,721,-1103,-61,1,7,11
1.72313E+12,-4522,6274,-665,696,-1084,-46,1,7,11
1.72313E+12,-4530,6519,-671,662,-1072,-32,1,7,11
1.72313E+12,-4553,6500,-671,646,-1058,-19,1,7,11
1.72313E+12,-4548,6485,-664,882,-1070,-4,1,7,11
1.72313E+12,-4530,6480,-659,867,-1077,258,1,7,11
1.72313E+12,-4526,6484,-652,850,-1085,275,1,7,11
1.72313E+12,-4509,6486,-892,829,-1103,302,1,7,11
1.72313E+12,-4509,6501,-869,808,-1111,334,1,7,11
1.72313E+12,-4512,6511,-844,776,-1127,378,1,7,11
1.72313E+12,-4499,6505,-813,503,-1148,166,1,7,11
1.72313E+12,-4721,6515,-786,776,-897,196,1,7,11
1.72313E+12,-4712,6321,-500,813,-1114,209,1,7,11
1.72313E+12,-4679,6664,-455,828,-1082,215,1,7,11
1.72313E+12,-4346,6693,-441,837,-756,176,1,7,11
1.72313E+12,-4334,6732,-455,867,-892,284,1,7,11
1.72313E+12,-4348,6760,-483,643,-430,-90,1,7,11
1.72313E+12,-4614,6756,-780,889,-575,55,1,7,11
1.72313E+12,-4635,6729,-816,870,-227,-290,1,7,11
1.72313E+12,-4689,6379,-894,840,-345,-173,1,7,11
1.72313E+12,-4720,6317,-670,826,-322,-219,1,7,11
1.72313E+12,-4501,6273,-702,834,-320,-255,1,7,11
1.72313E+12,-4524,6506,-738,836,-347,-520,1,7,11
1.72313E+12,-4527,6482,-749,827,-133,-525,1,7,11
1.72313E+12,-4537,6453,-746,831,-160,-248,1,7,11
1.72313E+12,-4549,6439,-752,850,-190,-222,1,7,11
1.72313E+12,-4564,6420,-750,881,-222,-199,1,7,11
1.72313E+12,-4585,6412,-749,669,-250,-183,1,7,11
1.72313E+12,-4871,6412,-762,723,-532,-178,1,7,11
1.72313E+12,-4883,6409,-1049,1040,-563,-180,1,7,11
1.72313E+12,-4898,6143,-1090,1100,-585,-194,1,7,11
1.72313E+12,-4893,6121,-1137,901,-604,-218,1,7,11
1.72313E+12,-4909,6104,-923,948,-598,-529,1,7,11
1.72313E+12,-4945,6083,-970,990,-595,-588,1,7,11
1.72313E+12,-4969,6049,-1011,1281,-609,-387,1,7,11
1.72313E+12,-4977,6265,-1318,1312,-619,-433,1,7,11
1.72313E+12,-4763,6224,-1367,1346,-606,-484,1,7,11
1.72313E+12,-4798,6163,-1155,1385,-610,-774,1,7,11
1.72313E+12,-5123,5793,-1214,1194,-620,-804,1,7,11
1.72313E+12,-5196,6005,-1229,1278,-409,-816,1,7,11
1.72313E+12,-5073,5912,-1262,1415,-483,-830,1,7,11
1.72313E+12,-5488,5545,-1576,1873,-656,-810,1,7,11
1.72313E+12,-5376,5661,-1634,1936,-928,-779,1,7,11
1.72313E+12,-5731,5273,-1482,2658,-1539,-478,1,7,11
1.72313E+12,-5522,5374,-1846,2994,-1690,-433,1,7,11
1.72313E+12,-5575,5021,-1920,3907,-2337,-446,1,7,11
1.72313E+12,-5979,5182,-1749,4639,-2457,-478,1,7,11
1.72313E+12,-6002,4809,-2089,5437,-3143,-469,1,7,11
1.72313E+12,-5956,4924,-1947,6264,-3591,-420,1,7,11
1.72313E+12,-5894,4520,-2324,6834,-3730,-635,1,7,11
1.72313E+12,-5628,4682,-2203,7654,-4170,-585,1,7,11
1.72313E+12,-5616,4654,-2618,9055,-4676,-254,1,7,11
1.72313E+12,-5613,4635,-2517,9388,-4919,-184,1,7,11
1.72313E+12,-5553,4617,-2931,10082,-5132,-153,1,7,11
1.72313E+12,-5522,4342,-2805,10366,-5244,-196,1,7,11
1.72313E+12,-5551,4346,-3167,10511,-5026,-535,1,7,11
1.72313E+12,-5631,4610,-2974,10534,-5045,-389,1,7,11
1.72313E+12,-5916,4631,-3056,10179,-5087,-496,1,7,11
1.72313E+12,-5909,4612,-3369,9918,-5087,-652,1,7,11
1.72313E+12,-5961,4260,-3343,9777,-5238,-1123,1,7,11
1.72313E+12,-5832,4092,-3021,9337,-4821,-1370,1,7,11
1.72313E+12,-6230,4133,-2946,8669,-4944,-1618,1,7,11
1.72313E+12,-6060,3914,-3156,8337,-4599,-1827,1,7,11
1.72313E+12,-6084,3457,-3134,8318,-4485,-1755,1,7,11
1.72313E+12,-6410,3262,-3113,8033,-4283,-1954,1,7,11
1.72313E+12,-6289,3333,-3075,7747,-4063,-2372,1,7,11
1.72313E+12,-6682,3121,-2775,7167,-4145,-2243,1,7,11
1.72313E+12,-6534,2883,-2727,6863,-3759,-2602,1,7,11
1.72313E+12,-6646,2436,-2694,6619,-3880,-2683,1,7,11
1.72313E+12,-6987,2213,-2881,6325,-3522,-2507,1,7,11
1.72313E+12,-6849,1979,-2536,6086,-3651,-2832,1,7,11
1.72313E+12,-7207,1772,-2479,6152,-3301,-2879,1,7,11
1.72313E+12,-7276,1881,-2450,6013,-3218,-2914,1,7,11
1.72313E+12,-7067,1491,-2652,5563,-3383,-2717,1,7,11
1.72313E+12,-7426,1559,-2566,5335,-3014,-2790,1,7,11
1.72313E+12,-7525,1385,-2231,5411,-3192,-3088,1,7,11
1.72313E+12,-7329,959,-2416,5000,-3164,-3117,1,7,11
1.72313E+12,-7368,971,-2321,5128,-3128,-3142,1,7,11
1.72313E+12,-7733,790,-2004,4971,-3094,-2965,1,7,11
1.72313E+12,-7764,635,-1954,4559,-3107,-3046,1,7,11
1.72313E+12,-7776,253,-2141,4677,-3086,-3431,1,7,11
1.72313E+12,-7590,136,-1777,4436,-2781,-3314,1,7,11
1.72313E+12,-7634,296,-1685,3981,-2798,-3674,1,7,11
1.72313E+12,-7628,-55,-1848,3723,-3089,-3510,1,7,11
1.72313E+12,-7621,65,-1464,3667,-3095,-3862,1,7,11
1.72313E+12,-7655,-367,-1572,3345,-2805,-3950,1,7,11
1.72313E+12,-7941,-574,-1157,2798,-2793,-3756,1,7,11
1.72313E+12,-7942,-506,-1287,2836,-2783,-3803,1,7,11
1.72313E+12,-7677,-712,-900,2649,-2787,-4103,1,7,11
1.72313E+12,-7641,-926,-761,2560,-2738,-4179,1,7,11
1.72313E+12,-7646,-1404,-891,2280,-2891,-4010,1,7,11
1.72313E+12,-7629,-1580,-512,2289,-2525,-4360,1,7,11
1.72313E+12,-7594,-1483,-405,2267,-2686,-4467,1,7,11
1.72313E+12,-7801,-1909,-556,2212,-2596,-4318,1,7,11
1.72313E+12,-7742,-2075,-223,2378,-2233,-4693,1,7,11
1.72313E+12,-7374,-1969,-165,1996,-2380,-4565,1,7,11
1.72313E+12,-7504,-2363,-355,2065,-1950,-4767,1,7,11
1.72313E+12,-7516,-2589,27,1524,-1700,-5019,1,7,11
1.72313E+12,-7766,-3230,145,1771,-679,-3762,1,7,11
1.72313E+12,-7687,-3665,209,1859,-666,-3593,1,7,11
1.72313E+12,-7382,-3866,530,1629,-680,-3022,1,7,11
1.72313E+12,-7538,-3763,565,1588,-733,-2793,1,7,11
1.72313E+12,-7158,-3839,611,1538,-735,-2925,1,7,11
1.72313E+12,-7112,-4106,406,1229,-671,-2837,1,7,11
1.72313E+12,-7076,-4119,451,1395,-881,-2505,1,7,11
1.72313E+12,-7279,-4144,498,1010,-855,-2433,1,7,11
1.72313E+12,-7206,-4219,812,1101,-813,-2613,1,7,11
1.72313E+12,-6893,-4069,866,699,-464,-2291,1,7,11
1.72313E+12,-6869,-4438,669,868,-605,-2225,1,7,11
1.72313E+12,-6843,-4267,694,833,-518,-2399,1,7,11
1.72313E+12,-6789,-4341,716,811,-193,-2047,1,7,11
1.72313E+12,-7006,-4682,732,789,-375,-1961,1,7,11
1.72313E+12,-6987,-4495,738,790,-306,-2150,1,7,11
1.72313E+12,-6980,-4537,745,798,-260,-2085,1,7,11
1.72313E+12,-6967,-4583,764,775,4,-1759,1,7,11
1.72313E+12,-6633,-4920,1035,468,-287,-1695,1,7,11
1.72313E+12,-6569,-4752,1057,441,-274,-1897,1,7,11
1.72313E+12,-6770,-4802,1054,443,18,-1838,1,7,11
1.72313E+12,-6759,-4835,1072,432,65,-1528,1,7,11
1.72313E+12,-6759,-4861,1085,385,75,-1445,1,7,11
1.72313E+12,-6728,-5139,1114,572,55,-1603,1,7,11
1.72313E+12,-6686,-5203,1137,224,35,-1246,1,7,11
1.72313E+12,-6660,-5011,904,167,40,-1388,1,7,11
1.72313E+12,-6377,-5044,922,146,50,-1015,1,7,11
1.72313E+12,-6350,-5083,933,375,64,-901,1,7,11
1.72313E+12,-6324,-5107,936,369,80,-1051,1,7,11
1.72313E+12,-6311,-5120,936,380,101,-712,1,7,11
1.72313E+12,-6304,-5392,940,374,116,-647,1,7,11
1.72313E+12,-6301,-5412,945,374,115,-851,1,7,11
1.72313E+12,-6277,-5430,946,128,93,-831,1,7,11
1.72313E+12,-6506,-5425,951,149,87,-819,1,7,11
1.72313E+12,-6477,-5416,967,145,89,-812,1,7,11
1.72313E+12,-6460,-5417,977,378,92,-803,1,7,11
1.72313E+12,-6451,-5426,989,337,91,-792,1,7,11
1.72313E+12,-6425,-5457,999,253,83,-784,1,7,11
1.72313E+12,-6423,-5494,1012,-47,105,-775,1,7,11
1.72313E+12,-6424,-5496,1023,-73,120,-503,1,7,11
1.72313E+12,-6425,-5251,1022,-126,122,-489,1,7,11
1.72313E+12,-6434,-5277,1300,60,108,-465,1,7,11
1.72313E+12,-6141,-5333,1327,-257,73,-442,1,7,11
1.72313E+12,-6135,-5374,1345,-282,72,-430,1,7,11
1.72313E+12,-6133,-5635,1352,-291,68,-412,1,7,11
1.72313E+12,-6132,-5375,1357,-303,66,-638,1,7,11
1.72313E+12,-6126,-5636,1351,-341,61,-605,1,7,11
1.72313E+12,-6107,-5654,1354,-382,51,-576,1,7,11
1.72313E+12,-6078,-5655,1354,-146,44,-563,1,7,11
1.72313E+12,-6057,-5638,1344,-163,55,-566,1,7,11
1.72313E+12,-6032,-5658,1315,-532,106,-560,1,7,11
1.72313E+12,-6026,-5685,1326,-524,117,-541,1,7,11
1.72313E+12,-6030,-5718,1334,-241,-106,-253,1,7,11
1.72313E+12,-6020,-5741,1326,-202,-76,-201,1,7,11
1.72313E+12,-6270,-5751,1310,-167,-38,-160,1,7,11
1.72313E+12,-6264,-5514,1294,-136,-13,-380,1,7,11
1.72313E+12,-6027,-5515,1280,-348,272,-362,1,7,11
1.72313E+12,-6045,-5744,1006,-294,273,-342,1,7,11
1.72313E+12,-6049,-5726,992,-271,259,-320,1,7,11
1.72313E+12,-6042,-5722,986,5,-23,-302,1,7,11
1.72313E+12,-6019,-5717,987,29,-54,-301,1,7,11
1.72313E+12,-6253,-5707,981,54,-72,-311,1,7,11
1.72313E+12,-6267,-5705,995,68,-74,-326,1,7,11
1.72313E+12,-6024,-5711,1005,78,-90,-329,1,7,11
1.72313E+12,-6019,-5723,1287,100,-120,-340,1,7,11
1.72313E+12,-6024,-5698,1309,-124,-128,-357,1,7,11
1.72313E+12,-6024,-5666,1323,-105,126,-369,1,7,11
1.72313E+12,-6238,-5638,1337,-99,100,-367,1,7,11
1.72313E+12,-6215,-5671,1373,2,110,-161,1,7,11
1.72313E+12,-6209,-5692,1374,-296,113,-167,1,7,11
1.72313E+12,-6205,-5709,1375,-332,116,-164,1,7,11
1.72313E+12,-6202,-5745,1374,-369,-128,-157,1,7,11
1.72313E+12,-6196,-5524,1370,-380,-115,-150,1,7,11
1.72313E+12,-6208,-5528,1360,-368,-94,-143,1,7,11
1.72313E+12,-6214,-5527,1345,-356,-88,-129,1,7,11
1.72313E+12,-6198,-5539,1336,-351,-91,-379,1,7,11
1.72313E+12,-6193,-5548,1335,-337,-92,-377,1,7,11
1.72313E+12,-6173,-5539,1333,-317,-109,-376,1,7,11
1.72313E+12,-6171,-5540,1351,-315,-108,-376,1,7,11
1.72313E+12,-6174,-5529,1359,-305,-111,-367,1,7,11
1.72313E+12,-6174,-5512,1364,-302,-113,-358,1,7,11
1.72313E+12,-6179,-5518,1364,-318,-110,-338,1,7,11
1.72313E+12,-6165,-5531,1371,-338,-111,-320,1,7,11
1.72313E+12,-6164,-5562,1377,-363,-99,-318,1,7,11
1.72313E+12,-6150,-5600,1368,-380,-97,-322,1,7,11
1.72313E+12,-5882,-5630,1371,-373,-91,-336,1,7,11
1.72313E+12,-5880,-5915,1363,-347,-78,-344,1,7,11
1.72313E+12,-6145,-5916,1359,-300,-76,-338,1,7,11
1.72313E+12,-5874,-5905,1349,0,-79,-320,1,7,11
1.72313E+12,-5869,-5629,1335,27,-70,-300,1,7,11
1.72313E+12,-5871,-5627,1328,30,-56,-277,1,7,11
1.72313E+12,-5882,-5623,1326,30,-49,-259,1,7,11
1.72313E+12,-5887,-5615,1315,31,-52,16,1,7,11
1.72313E+12,-6149,-5600,1315,26,-56,33,1,7,11
1.72313E+12,-6155,-5595,1307,11,-73,48,1,7,11
1.72313E+12,-6146,-5595,1322,1,-89,59,1,7,11
1.72313E+12,-5887,-5592,1333,-258,-95,62,1,7,11
1.72313E+12,-6154,-5580,1352,-267,-95,69,1,7,11
1.72313E+12,-6149,-5567,1353,-275,-103,72,1,7,11
1.72313E+12,-6145,-5558,1356,-281,-102,67,1,7,11
1.72313E+12,-5886,-5558,1354,-292,-101,61,1,7,11
1.72313E+12,-6145,-5569,1368,-289,-93,49,1,7,11
1.72313E+12,-6146,-5567,1372,-266,-103,39,1,7,11
1.72313E+12,-5884,-5571,1372,10,-105,42,1,7,11
1.72313E+12,-5876,-5566,1382,5,-84,42,1,7,11
1.72313E+12,-5864,-5577,1388,-277,-65,42,1,7,11
1.72313E+12,-5875,-5591,1383,-296,-44,38,1,7,11
1.72313E+12,-6147,-5594,1390,-305,-26,31,1,7,11
1.72313E+12,-6150,-5584,1387,-324,-17,49,1,7,11
1.72313E+12,-6158,-5576,1374,-372,-3,79,1,7,11
1.72313E+12,-6158,-5592,1366,-156,266,110,1,7,11
1.72313E+12,-6160,-5588,1362,-135,280,119,1,7,11
1.72313E+12,-5885,-5560,1350,-335,301,115,1,7,11
1.72313E+12,-5869,-5529,1330,-299,344,97,1,7,11
1.72313E+12,-5872,-5506,1310,-285,136,81,1,7,11
1.72313E+12,-5860,-5759,1293,-289,167,64,1,7,11
1.72313E+12,-5854,-5759,1020,-300,207,35,1,7,11
1.72313E+12,-5876,-5522,1011,-310,239,15,1,7,11
1.72313E+12,-6145,-5553,997,-299,244,1,1,7,11
1.72313E+12,-5887,-5590,991,-277,253,-270,1,7,11
1.72313E+12,-6156,-5609,981,18,518,-282,1,7,11
1.72313E+12,-6165,-5610,968,61,252,-285,1,7,11
1.72313E+12,-5884,-5611,961,72,227,-266,1,7,11
1.72313E+12,-5880,-5625,940,74,224,9,1,7,11
1.72313E+12,-5871,-5912,950,86,217,30,1,7,11
1.72313E+12,-5855,-5955,944,83,204,54,1,7,11
1.72313E+12,-5865,-5971,947,97,201,104,1,7,11
1.72313E+12,-5868,-5982,938,109,192,-86,1,7,11
1.72313E+12,-5869,-6004,932,110,193,-1,1,7,11
1.72313E+12,-6146,-6012,935,108,197,354,1,7,11
1.72313E+12,-6171,-5978,935,-125,182,206,1,7,11
1.72313E+12,-6174,-5948,942,121,153,586,1,7,11
1.72313E+12,-6175,-5916,951,94,129,455,1,7,11
1.72313E+12,-6179,-5905,953,44,375,827,1,7,11
1.72313E+12,-6202,-5628,965,25,373,675,1,7,11
1.72313E+12,-6224,-5624,969,18,374,761,1,7,11
1.72313E+12,-6244,-5583,972,49,135,1086,1,7,11
1.72313E+12,-6268,-5528,962,73,155,1143,1,7,11
1.72313E+12,-6034,-5731,954,103,176,944,1,7,11
1.72313E+12,-6056,-5672,946,117,197,989,1,7,11
1.72313E+12,-6073,-5360,926,109,227,1296,1,7,11
1.72313E+12,-6097,-5317,897,79,515,1349,1,7,11
1.72313E+12,-6142,-5280,1130,45,544,1157,1,7,11
1.72313E+12,-6430,-5503,1090,0,560,1234,1,7,11
1.72313E+12,-6478,-5471,1054,-301,580,1579,1,7,11
1.72313E+12,-6309,-5481,727,-152,594,1831,1,7,11
1.72313E+12,-6667,-5481,699,-141,605,1763,1,7,11
1.72313E+12,-6739,-5477,664,-347,552,2007,1,7,11
1.72313E+12,-6779,-5479,650,39,249,2251,1,7,11
1.72313E+12,-6585,-5434,890,275,230,2521,1,7,11
1.72313E+12,-6594,-5377,867,548,228,3095,1,7,11
1.72313E+12,-6609,-5047,857,855,551,3396,1,7,11
1.72313E+12,-6927,-5188,862,914,416,3695,1,7,11
1.72313E+12,-6988,-4841,872,1185,501,3771,1,7,11
1.72313E+12,-7018,-4751,645,1457,813,4093,1,7,11
1.72313E+12,-6788,-4910,675,1722,868,4624,1,7,11
1.72313E+12,-6880,-4549,716,1993,701,4866,1,7,11
1.72313E+12,-7223,-4345,742,2576,764,5120,1,7,11
1.72313E+12,-7270,-4083,747,2820,1050,5092,1,7,11
1.72313E+12,-7286,-3835,743,2931,1067,5317,1,7,11
1.72313E+12,-7085,-3864,745,2736,901,5747,1,7,11
1.72313E+12,-7458,-3662,763,2808,1304,5916,1,7,11
1.72313E+12,-7320,-3450,1057,3144,1178,5794,1,7,11
1.72313E+12,-7383,-2791,1056,3335,1456,6166,1,7,11
1.72313E+12,-7700,-2646,1044,3071,1871,6192,1,7,11
1.72313E+12,-7738,-2382,1036,2962,1721,6191,1,7,11
1.72313E+12,-7807,-2145,1063,2792,2087,6160,1,7,11
1.72313E+12,-7610,-1908,1067,2852,2148,5864,1,7,11
1.72313E+12,-7628,-1660,1017,2633,1931,5805,1,7,11
1.72313E+12,-7633,-1156,708,2376,2002,6006,1,7,11
1.72313E+12,-7652,-1019,660,2081,2388,5967,1,7,11
1.72313E+12,-7951,-782,859,1474,2274,5952,1,7,11
1.72313E+12,-8052,-578,784,1332,2434,5953,1,7,11
1.72313E+12,-7870,-370,444,689,2858,5982,1,7,11
1.72313E+12,-8227,91,601,567,2763,5783,1,7,11
1.72313E+12,-8287,333,219,-15,3150,5852,1,7,11
1.72313E+12,-8265,556,330,-230,2963,6175,1,7,11
1.72313E+12,-7910,487,-80,-834,2972,6220,1,7,11
1.72313E+12,-7842,892,45,-920,3030,6197,1,7,11
1.72313E+12,-8059,1029,-322,-1209,3338,5859,1,7,11
1.72313E+12,-8061,920,-161,-1440,3377,5961,1,7,11
1.72313E+12,-7865,1004,-205,-1667,3349,5717,1,7,11
1.72313E+12,-7868,1337,-252,-2049,2944,5421,1,7,11
1.72313E+12,-7843,1270,-571,-1764,2778,4778,1,7,11
1.72313E+12,-8056,1498,-399,-1723,2856,4622,1,7,11
1.72313E+12,-8006,1726,-487,-1713,2683,3975,1,7,11
1.72313E+12,-7672,1925,-812,-1761,2245,3872,1,7,11
1.72313E+12,-7581,2332,-860,-2084,2351,3279,1,7,11
1.72313E+12,-7757,2186,-896,-2156,1980,3193,1,7,11
1.72313E+12,-7697,2300,-674,-2175,2159,2848,1,7,11
1.72313E+12,-7399,2435,-715,-2153,2093,2257,1,7,11
1.72313E+12,-7358,2817,-756,-2115,1776,1944,1,7,11
1.72313E+12,-7320,2922,-1057,-2084,1722,1915,1,7,11
1.72313E+12,-7531,2719,-1106,-2085,1909,1409,1,7,11
1.72313E+12,-7461,2760,-935,-2071,1851,1175,1,7,11
1.72313E+12,-7431,3072,-986,-1721,1527,1108,1,7,11
1.72313E+12,-7130,3154,-1309,-1915,1470,681,1,7,11
1.72313E+12,-7125,2970,-1363,-1909,1431,776,1,7,11
1.72313E+12,-7135,3004,-1408,-1692,1620,620,1,7,11
1.72313E+12,-7111,2990,-1184,-1743,1267,200,1,7,11
1.72313E+12,-7066,2998,-1206,-1755,1197,272,1,7,11
1.72313E+12,-7296,3033,-1248,-1772,1182,101,1,7,11
1.72313E+12,-7286,3329,-1542,-2081,1182,-285,1,7,11
1.72313E+12,-7269,3360,-1570,-2169,1190,-141,1,7,11
1.72313E+12,-7266,3382,-1604,-2021,1217,-223,1,7,11
1.72313E+12,-7267,3385,-1632,-2410,1248,-538,1,7,11
1.72313E+12,-7259,3359,-1658,-2290,1270,-584,1,7,11
1.72313E+12,-7237,3068,-1419,-2649,1277,-624,1,7,11
1.72313E+12,-7214,3055,-1442,-2433,1548,-400,1,7,11
1.72313E+12,-7194,3335,-1472,-2437,1564,-413,1,7,11
1.72313E+12,-7186,3346,-1490,-2449,1578,-415,1,7,11
1.72313E+12,-7199,3358,-1493,-2470,1587,-415,1,7,11
1.72313E+12,-7225,3390,-1508,-2505,1562,-408,1,7,11
1.72313E+12,-7230,3419,-1505,-2822,1233,-409,1,7,11
1.72313E+12,-7220,3448,-1500,-2885,1161,-415,1,7,11
1.72313E+12,-7213,3219,-1493,-2699,1370,-425,1,7,11
1.72313E+12,-7210,3222,-1472,-2802,1330,-446,1,7,11
1.72313E+12,-7206,3218,-1438,-3150,1288,-477,1,7,11
1.72313E+12,-7197,3209,-1652,-2974,997,-787,1,7,11
1.72313E+12,-7205,3206,-1618,-3035,991,-839,1,7,11
1.72313E+12,-7215,3207,-1577,-3357,976,-875,1,7,11
1.72313E+12,-7230,3206,-1278,-3424,962,-890,1,7,11
1.72313E+12,-7278,3206,-1265,-3240,950,-885,1,7,11
1.72313E+12,-7051,3404,-1232,-3602,1141,-887,1,7,11
1.72313E+12,-7070,3330,-1184,-3622,1069,-641,1,7,11
1.72313E+12,-7086,3050,-1405,-3298,739,-655,1,7,11
1.72313E+12,-7117,3006,-1345,-3246,643,-680,1,7,11
1.72313E+12,-7127,2992,-1300,-3403,794,-694,1,7,11
1.72313E+12,-7123,3021,-1002,-3026,416,-693,1,7,11
1.72313E+12,-7082,3007,-987,-3163,613,-677,1,7,11
1.72313E+12,-7075,2993,-949,-2758,629,-660,1,7,11
1.72313E+12,-7069,2967,-903,-2874,386,-662,1,7,11
1.72313E+12,-7104,3182,-1136,-2524,396,-706,1,7,11
1.72313E+12,-7086,3167,-1124,-2643,607,-744,1,7,11
1.72313E+12,-7104,3153,-1107,-2279,608,-1080,1,7,11
1.72313E+12,-7140,3143,-1103,-2353,629,-1121,1,7,11
1.72313E+12,-7155,3104,-1097,-1993,612,-1150,1,7,11
1.72313E+12,-7452,3085,-1089,-2116,611,-921,1,7,11
1.72313E+12,-7489,2813,-1087,-1751,587,-941,1,7,11
1.72313E+12,-7515,2763,-1082,-1916,546,-968,1,7,11
1.72313E+12,-7478,2740,-1087,-1531,242,-980,1,7,11
1.72313E+12,-7503,2733,-1087,-1659,240,-987,1,7,11
1.72313E+12,-7537,2707,-1085,-1579,210,-970,1,7,11
1.72313E+12,-7526,2908,-1075,-1243,157,-936,1,7,11
1.72313E+12,-7521,2868,-1061,-1393,135,-920,1,7,11
1.72313E+12,-7549,2861,-1044,-1023,130,-898,1,7,11
1.72313E+12,-7337,2859,-761,-931,353,-1121,1,7,11
1.72313E+12,-7341,2902,-743,-1082,301,-1061,1,7,11
1.72313E+12,-7356,2754,-742,-745,288,-1036,1,7,11
1.72313E+12,-7350,3090,-752,-758,-8,-1036,1,7,11
1.72313E+12,-7308,3102,-731,-1092,-3,-1072,1,7,11
1.72313E+12,-7480,2779,-731,-932,273,-1132,1,7,11
1.72313E+12,-7436,2933,-725,-990,142,-1286,1,7,11
1.72313E+12,-7453,2826,-736,-1009,559,-1158,1,7,11
1.72313E+12,-7441,2674,-734,-991,427,-1551,1,7,11
1.72313E+12,-7496,2575,-741,-1133,862,-1413,1,7,11
1.72313E+12,-7315,2238,-1028,-759,744,-1484,1,7,11
1.72313E+12,-7383,2409,-1064,-642,1073,-1492,1,7,11
1.72313E+12,-7421,2350,-1111,-775,1096,-1444,1,7,11
1.72313E+12,-7703,2010,-1149,-422,1096,-1617,1,7,11
1.72313E+12,-7744,1999,-912,-573,1082,-1240,1,7,11
1.72313E+12,-7789,1993,-927,-230,1039,-1286,1,7,11
1.72313E+12,-7791,2007,-954,-177,720,-1128,1,7,11
1.72313E+12,-7792,2318,-992,-382,878,-690,1,7,11
1.72313E+12,-7556,2378,-1003,-133,812,-496,1,7,11
1.72313E+12,-7793,2197,-1016,-158,455,-544,1,7,11
1.72313E+12,-7742,2261,-1284,-237,624,-366,1,7,11
1.72313E+12,-7690,2292,-1017,-586,575,30,1,7,11
1.72313E+12,-7395,2567,-996,-408,559,-126,1,7,11
1.72313E+12,-7392,2569,-964,-467,547,-55,1,7,11
1.72313E+12,-7393,2567,-922,-500,518,258,1,7,11
1.72313E+12,-7407,2567,-1144,-478,218,308,1,7,11
1.72313E+12,-7404,2561,-1130,-395,156,351,1,7,11
1.72313E+12,-7689,2293,-1140,-317,295,321,1,7,11
1.72313E+12,-7421,2290,-1149,-102,-63,277,1,7,11
1.72313E+12,-7397,2286,-910,153,115,-59,1,7,11
1.72313E+12,-7382,2293,-931,423,59,118,1,7,11
1.72313E+12,-7344,2560,-957,673,4,46,1,7,11
1.72313E+12,-7301,2566,-976,1151,-289,-275,1,7,11
1.72313E+12,-7536,2563,-995,1340,-302,-326,1,7,11
1.72313E+12,-7540,2563,-1011,1239,-301,-367,1,7,11
1.72313E+12,-7551,2575,-1284,1624,-321,-142,1,7,11
1.72313E+12,-7306,2599,-1300,1447,-355,-158,1,7,11
1.72313E+12,-7300,2619,-1323,1476,-142,-155,1,7,11
1.72313E+12,-7298,2627,-1351,1472,-153,-148,1,7,11
1.72313E+12,-7326,2633,-1359,1451,-151,-384,1,7,11
1.72313E+12,-7331,2634,-1369,1413,-172,-361,1,7,11
1.72313E+12,-7343,2628,-1376,1631,-184,-347,1,7,11
1.72313E+12,-7344,2617,-1371,1581,-213,-342,1,7,11
1.72313E+12,-7370,2582,-1366,1264,-236,-364,1,7,11
1.72313E+12,-7342,2262,-1342,1227,-549,-130,1,7,11
1.72313E+12,-7369,2238,-1334,1234,-543,-193,1,7,11
1.72313E+12,-7376,2195,-1308,1223,-579,-213,1,7,11
1.72313E+12,-7380,2412,-1307,1244,-590,-518,1,7,11
1.72313E+12,-7396,2363,-1278,1260,-587,-554,1,7,11
1.72313E+12,-7395,2304,-1006,1544,-584,-601,1,7,11
1.72313E+12,-7396,1976,-1002,1586,-578,-394,1,7,11
1.72313E+12,-7410,1927,-986,1628,-555,-471,1,7,11
1.72313E+12,-7726,2142,-989,1421,-544,-813,1,7,11
1.72313E+12,-7789,2122,-1010,1500,-548,-666,1,7,11
1.72313E+12,-7795,2097,-1295,1845,-601,-1116,1,7,11
1.72313E+12,-7802,1790,-1290,1916,-407,-1281,1,7,11
1.72313E+12,-7740,1458,-1300,2149,-598,-1687,1,7,11
1.72313E+12,-7710,1574,-1323,2172,-558,-2088,1,7,11
1.72313E+12,-7718,1239,-1323,1979,-206,-2001,1,7,11
1.72313E+12,-7556,1181,-1328,1948,-364,-2398,1,7,11
1.72313E+12,-7625,1327,-1339,1747,-151,-2260,1,7,11
1.72313E+12,-7601,992,-1361,1799,-225,-2567,1,7,11
1.72313E+12,-7567,1142,-1392,1611,-212,-2598,1,7,11
1.72313E+12,-7576,716,-1391,1276,-304,-2581,1,7,11
1.72313E+12,-7659,865,-1156,1556,-125,-2277,1,7,11
1.72313E+12,-7986,499,-1171,1272,-75,-2234,1,7,11
1.72313E+12,-8005,384,-1196,1261,-99,-2197,1,7,11
1.72313E+12,-8022,535,-1247,1554,127,-2182,1,7,11
1.72313E+12,-7814,191,-1554,1630,98,-2419,1,7,11
1.72313E+12,-7896,344,-1581,1451,20,-2399,1,7,11
1.72313E+12,-8196,-41,-1592,1808,-154,-2388,1,7,11
1.72313E+12,-8218,110,-1595,1703,-634,-2414,1,7,11
1.72313E+12,-8224,7,-1569,2103,-895,-2236,1,7,11
1.72313E+12,-8215,-359,-1249,1985,-910,-2627,1,7,11
1.72313E+12,-7934,-239,-1187,2378,-1198,-2821,1,7,11
1.72313E+12,-7893,-393,-1369,2573,-1469,-3081,1,7,11
1.72313E+12,-8064,-778,-1302,2824,-1730,-3421,1,7,11
1.72313E+12,-7985,-874,-953,2784,-2130,-3553,1,7,11
1.72313E+12,-7977,-737,-1095,3134,-2167,-4148,1,7,11
1.72313E+12,-7958,-1124,-711,3177,-1941,-4426,1,7,11
1.72313E+12,-7636,-964,-867,3195,-2160,-4636,1,7,11
1.72313E+12,-7636,-1326,-789,3129,-1744,-4507,1,7,11
1.72313E+12,-7638,-1200,-444,2742,-1827,-4561,1,7,11
1.72313E+12,-7626,-1614,-415,2835,-1416,-4866,1,7,11
1.72313E+12,-7661,-1505,-622,2667,-1242,-4897,1,7,11
1.72313E+12,-7955,-1887,-559,2242,-1355,-4871,1,7,11
1.72313E+12,-7990,-2064,-522,2015,-1001,-4556,1,7,11
1.72313E+12,-7968,-2082,-229,2052,-965,-4700,1,7,11
1.72313E+12,-7672,-2253,-160,1841,-929,-4334,1,7,11
1.72313E+12,-7655,-2445,-358,1560,-1082,-4383,1,7,11
1.72313E+12,-7640,-2896,-307,1193,-1058,-3972,1,7,11
1.72313E+12,-7807,-2767,-265,1379,-1062,-3836,1,7,11
1.72313E+12,-7736,-3147,28,1009,-764,-3716,1,7,11
1.72313E+12,-7394,-2988,64,919,-712,-3845,1,7,11
1.72313E+12,-7361,-3382,115,1067,-881,-3490,1,7,11
1.72313E+12,-7345,-3262,-87,749,-823,-3647,1,7,11
1.72313E+12,-7298,-3626,-52,721,-790,-3301,1,7,11
1.72313E+12,-7503,-3458,-25,705,-492,-3207,1,7,11
1.72313E+12,-7491,-3541,263,680,-427,-3372,1,7,11
1.72313E+12,-7502,-3934,302,876,-408,-3028,1,7,11
1.72313E+12,-7468,-4103,343,840,-439,-2965,1,7,11
1.72313E+12,-7428,-4224,379,865,-458,-2957,1,7,11
1.72313E+12,-7147,-4089,173,874,-475,-2986,1,7,11
1.72313E+12,-7054,-4424,215,648,-787,-3040,1,7,11
1.72313E+12,-7205,-4432,248,715,-812,-3396,1,7,11
1.72313E+12,-6845,-4078,249,1062,-780,-3436,1,7,11
1.72313E+12,-6865,-4004,250,760,-431,-3411,1,7,11
1.72313E+12,-6884,-4015,538,849,-410,-3012,1,7,11
1.72313E+12,-6853,-4365,579,614,-443,-3097,1,7,11
1.72313E+12,-7031,-4258,627,129,-483,-2941,1,7,11
1.72313E+12,-6943,-4659,399,-20,-487,-2822,1,7,11
1.72313E+12,-6622,-4514,422,-111,-471,-2488,1,7,11
1.72313E+12,-6583,-4879,440,82,-450,-2667,1,7,11
1.72313E+12,-6552,-4980,460,42,-443,-2584,1,7,11
1.72313E+12,-6755,-4809,477,33,-452,-2229,1,7,11
1.72313E+12,-6709,-5135,478,34,-452,-2368,1,7,11
1.72313E+12,-6676,-5174,492,3,-448,-1991,1,7,11
1.72313E+12,-6399,-5195,508,-334,-465,-2143,1,7,11
1.72313E+12,-6358,-5008,791,-237,-769,-1785,1,7,11
1.72313E+12,-6278,-5388,829,-418,-829,-1689,1,7,11
1.72313E+12,-6454,-5365,872,-795,-858,-1878,1,7,11
1.72313E+12,-6120,-5728,662,-810,-852,-1812,1,7,11
1.72313E+12,-6035,-5536,689,-490,-802,-1427,1,7,11
1.72313E+12,-6254,-5575,716,-403,-480,-1586,1,7,11
1.72313E+12,-6235,-5592,735,-565,-623,-1223,1,7,11
1.72313E+12,-6207,-5583,744,-225,-558,-1365,1,7,11
1.72313E+12,-6191,-5580,755,-162,-239,-1006,1,7,11
1.72313E+12,-6179,-5589,1026,-371,-148,-1092,1,7,11
1.72313E+12,-6163,-5604,1033,-375,-382,-764,1,7,11
1.72313E+12,-5858,-5897,1031,-147,-373,-704,1,7,11
1.72313E+12,-5850,-5938,1040,-154,-322,-667,1,7,11
1.72313E+12,-5846,-5954,1042,-131,-275,-893,1,7,11
1.72313E+12,-5868,-5947,1043,-357,22,-853,1,7,11
1.72313E+12,-6146,-5929,1034,-345,44,-796,1,7,11
1.72313E+12,-6145,-5901,762,-362,46,-480,1,7,11
1.72313E+12,-5878,-5893,753,-158,43,-427,1,7,11
1.72313E+12,-5850,-5900,749,-219,25,-630,1,7,11
1.72313E+12,-5818,-5915,752,-519,5,-601,1,7,11
1.72313E+12,-5792,-5940,1029,-546,-264,-577,1,7,11
1.72313E+12,-5763,-5977,1044,-559,-285,-556,1,7,11
1.72313E+12,-5988,-6007,1052,-553,-297,-540,1,7,11
1.72313E+12,-5980,-5772,1051,-534,-281,-525,1,7,11
1.72313E+12,-5973,-5791,1050,-254,-265,-248,1,7,11
1.72313E+12,-5964,-5805,1037,-224,16,-230,1,7,11
1.72313E+12,-5962,-5802,1029,-193,49,-208,1,7,11
1.72313E+12,-5976,-5793,757,-157,83,-187,1,7,11
1.72313E+12,-6006,-5801,753,-143,103,-163,1,7,11
1.72313E+12,-5769,-5802,753,-382,110,-130,1,7,11
1.72313E+12,-5765,-5800,753,-374,105,-344,1,7,11
1.72313E+12,-5772,-5797,760,-372,115,-292,1,7,11
1.72313E+12,-5769,-5790,1034,-371,122,42,1,7,11
1.72313E+12,-6004,-5775,1030,-355,120,75,1,7,11
1.72313E+12,-5989,-6004,1032,-340,-118,103,1,7,11
1.72313E+12,-5997,-5976,1031,-341,-93,127,1,7,11
1.72313E+12,-5995,-5960,1043,-363,-68,-119,1,7,11
1.72313E+12,-6000,-5946,1046,-367,-47,-105,1,7,11
1.72313E+12,-6014,-5962,1051,-380,-34,-102,1,7,11
1.72313E+12,-6007,-5984,1056,-366,-46,-105,1,7,11
1.72313E+12,-6007,-5989,1057,-327,-43,117,1,7,11
1.72313E+12,-5765,-5991,1052,-283,-30,96,1,7,11
1.72313E+12,-5781,-5980,1040,22,-18,86,1,7,11
1.72313E+12,-5795,-5965,1028,59,257,87,1,7,11
1.72313E+12,-5790,-5952,765,92,268,87,1,7,11
1.72313E+12,-5789,-5934,761,111,285,83,1,7,11
1.72313E+12,-5791,-5909,738,118,287,78,1,7,11
1.72313E+12,-5796,-5627,724,109,285,71,1,7,11
1.72313E+12,-5803,-5616,715,69,286,64,1,7,11
1.72313E+12,-5796,-5629,713,24,278,58,1,7,11
1.72313E+12,-5804,-5905,712,-262,273,49,1,7,11
1.72313E+12,-5801,-5911,713,-262,261,49,1,7,11
1.72313E+12,-5821,-5900,699,-261,266,43,1,7,11
1.72313E+12,-5843,-5613,692,-282,-2,45,1,7,11
1.72313E+12,-5851,-5555,679,-322,-39,45,1,7,11
1.72313E+12,-5807,-5522,672,-176,-75,43,1,7,11
1.72313E+12,-5785,-5569,679,-569,-83,15,1,7,11
1.72313E+12,-5790,-5906,709,-385,-84,-289,1,7,11
1.72313E+12,-5795,-5978,721,-629,-97,-302,1,7,11
1.72313E+12,-5785,-5792,729,-550,-104,-299,1,7,11
1.72313E+12,-5997,-5833,731,-257,-45,-277,1,7,11
1.72313E+12,-5994,-5807,732,-117,-7,-273,1,7,11
1.72313E+12,-5995,-5766,718,-31,275,-271,1,7,11
1.72313E+12,-6013,-5986,722,267,295,-267,1,7,11
1.72313E+12,-6008,-5942,704,276,291,-269,1,7,11
1.72313E+12,-6010,-5918,684,-5,296,-272,1,7,11
1.72313E+12,-5762,-5907,671,-54,296,-282,1,7,11
1.72313E+12,-5762,-5937,673,-108,292,-291,1,7,11
1.72313E+12,-5770,-5967,674,100,291,-297,1,7,11
1.72313E+12,-5773,-5978,682,68,278,-298,1,7,11
1.72313E+12,-5766,-6005,699,51,262,-292,1,7,11
1.72313E+12,-6005,-5788,710,58,-5,-277,1,7,11
1.72313E+12,-5991,-5787,720,90,-5,-260,1,7,11
1.72313E+12,-5973,-5765,721,126,257,16,1,7,11
1.72313E+12,-5961,-5993,717,-109,267,31,1,7,11
1.72313E+12,-5979,-5983,714,-125,284,45,1,7,11
1.72313E+12,-6000,-5985,714,96,296,49,1,7,11
1.72313E+12,-5987,-5992,714,62,275,46,1,7,11
1.72313E+12,-5989,-6001,711,29,275,37,1,7,11
1.72313E+12,-5986,-6007,707,-267,278,41,1,7,11
1.72313E+12,-5977,-5776,711,-276,279,47,1,7,11
1.72313E+12,-5967,-5779,708,-275,295,51,1,7,11
1.72313E+12,-5966,-5790,703,-264,310,52,1,7,11
1.72313E+12,-5977,-5792,692,18,323,47,1,7,11
1.72313E+12,-5992,-5784,684,27,335,45,1,7,11
1.72313E+12,-6000,-5785,680,24,329,42,1,7,11
1.72313E+12,-6010,-5792,671,17,315,47,1,7,11
1.72313E+12,-5761,-5786,663,12,294,48,1,7,11
1.72313E+12,-5785,-5782,674,-272,273,49,1,7,11
1.72313E+12,-5788,-5780,680,-300,-23,79,1,7,11
1.72313E+12,-5764,-5779,678,-321,-56,118,1,7,11
1.72313E+12,-6007,-5776,681,-335,-65,-97,1,7,11
1.72313E+12,-5993,-5770,686,-333,-57,-63,1,7,11
1.72313E+12,-5991,-5764,692,-323,-42,-35,1,7,11
1.72313E+12,-5994,-6001,699,-312,-28,-14,1,7,11
1.72313E+12,-5991,-5978,696,-297,-22,264,1,7,11
1.72313E+12,-5991,-5964,682,-290,-11,272,1,7,11
1.72313E+12,-6008,-5954,671,-288,256,276,1,7,11
1.72313E+12,-5770,-5939,655,-288,-2,281,1,7,11
1.72313E+12,-5783,-5921,646,-291,-5,278,1,7,11
1.72313E+12,-5806,-5900,895,-296,-7,278,1,7,11
1.72313E+12,-5808,-5622,886,-312,-24,279,1,7,11
1.72313E+12,-5794,-5611,884,-334,-47,275,1,7,11
1.72313E+12,-5791,-5614,879,-368,-58,266,1,7,11
1.72313E+12,-5810,-5625,882,-140,-64,-12,1,7,11
1.72313E+12,-5824,-5629,881,-152,-73,-22,1,7,11
1.72313E+12,-5835,-5614,865,-142,-80,-29,1,7,11
1.72313E+12,-5854,-5593,852,-130,-70,-17,1,7,11
1.72313E+12,-5884,-5573,841,-141,-64,-8,1,7,11
1.72313E+12,-5881,-5554,827,-152,-78,-7,1,7,11
1.72313E+12,-6145,-5549,821,-172,-87,-28,1,7,11
1.72313E+12,-5868,-5541,819,-185,-106,-65,1,7,11
1.72313E+12,-5851,-5561,827,-204,-113,-109,1,7,11
1.72313E+12,-5840,-5584,838,-203,-109,111,1,7,11
1.72313E+12,-5832,-5610,848,-180,-105,80,1,7,11
1.72313E+12,-5824,-5898,857,-163,-93,66,1,7,11
1.72313E+12,-5818,-5929,864,-130,-80,64,1,7,11
1.72313E+12,-5832,-5944,862,-338,-59,72,1,7,11
1.72313E+12,-5855,-5949,863,-293,-48,93,1,7,11
1.72313E+12,-5858,-5936,851,14,-50,121,1,7,11
1.72313E+12,-5856,-5898,836,55,-43,-108,1,7,11
1.72313E+12,-5860,-5612,832,61,-36,-84,1,7,11
1.72313E+12,-5864,-5593,825,38,-34,-81,1,7,11
1.72313E+12,-5860,-5581,816,10,-43,-85,1,7,11
1.72313E+12,-5860,-5576,813,-275,-47,-102,1,7,11
1.72313E+12,-5868,-5585,816,-304,-54,-118,1,7,11
1.72313E+12,-5867,-5591,827,-308,-61,127,1,7,11
1.72313E+12,-5864,-5605,834,-303,-64,121,1,7,11
1.72313E+12,-5873,-5608,836,-285,-57,112,1,7,11
1.72313E+12,-5877,-5600,829,-263,-57,109,1,7,11
1.72313E+12,-5881,-5584,826,4,-56,109,1,7,11
1.72313E+12,-5883,-5583,817,-257,-56,116,1,7,11
1.72313E+12,-6146,-5579,819,-257,-60,120,1,7,11
1.72313E+12,-6147,-5567,814,-257,-63,121,1,7,11
1.72313E+12,-6155,-5571,817,-265,-63,121,1,7,11
1.72313E+12,-6148,-5578,811,-267,-71,115,1,7,11
1.72313E+12,-5888,-5589,816,-269,-73,103,1,7,11
1.72313E+12,-6151,-5599,816,-257,-72,94,1,7,11
1.72313E+12,-6153,-5602,826,19,-74,87,1,7,11
1.72313E+12,-5887,-5600,836,36,-83,86,1,7,11
1.72313E+12,-5876,-5595,841,48,-82,81,1,7,11
1.72313E+12,-5878,-5593,846,55,-75,83,1,7,11
1.72313E+12,-5879,-5585,849,58,-71,87,1,7,11
1.72313E+12,-5877,-5593,850,57,-68,94,1,7,11
1.72313E+12,-5864,-5588,851,68,-68,91,1,7,11
1.72313E+12,-5883,-5573,853,68,-45,93,1,7,11
1.72313E+12,-6145,-5558,853,57,-47,101,1,7,11
1.72313E+12,-6155,-5568,865,32,-47,104,1,7,11
1.72313E+12,-6145,-5575,861,23,-58,96,1,7,11
1.72313E+12,-6147,-5563,858,11,-63,77,1,7,11
1.72313E+12,-6171,-5556,858,-262,-72,66,1,7,11
1.72313E+12,-6180,-5569,853,-279,-85,79,1,7,11
1.72313E+12,-6167,-5589,850,-283,-95,97,1,7,11
1.72313E+12,-6149,-5605,852,-265,-93,101,1,7,11
1.72313E+12,-5888,-5610,851,21,-82,109,1,7,11
1.72313E+12,-6153,-5602,855,67,-74,107,1,7,11
1.72313E+12,-6162,-5593,857,108,-68,124,1,7,11
1.72313E+12,-6170,-5574,853,-117,-65,-108,1,7,11
1.72313E+12,-6154,-5573,859,-102,-70,-97,1,7,11
1.72313E+12,-6159,-5588,864,-71,-58,-98,1,7,11
1.72313E+12,-6164,-5582,865,-21,-55,-104,1,7,11
1.72313E+12,-6169,-5573,875,279,-41,-112,1,7,11
1.72313E+12,-6187,-5557,881,314,-22,-111,1,7,11
1.72313E+12,-6202,-5539,893,337,-18,-103,1,7,11
1.72313E+12,-6175,-5546,653,346,-23,-93,1,7,11
1.72313E+12,-6162,-5529,668,363,-2,-102,1,7,11
1.72313E+12,-6165,-5513,674,354,279,-105,1,7,11
1.72313E+12,-6166,-5744,683,339,305,-124,1,7,11
1.72313E+12,-6176,-5723,687,315,332,125,1,7,11
1.72313E+12,-6166,-5731,687,273,351,121,1,7,11
1.72313E+12,-6161,-5518,685,-52,378,121,1,7,11
1.72313E+12,-6163,-5570,703,-102,139,-111,1,7,11
1.72313E+12,-6162,-5896,724,-113,159,-68,1,7,11
1.72313E+12,-6181,-5939,745,-74,176,-17,1,7,11
1.72313E+12,-6174,-5977,742,-20,171,315,1,7,11
1.72313E+12,-6180,-5986,732,302,185,143,1,7,11
1.72313E+12,-6202,-5952,728,359,189,252,1,7,11
1.72313E+12,-6202,-5915,731,374,174,634,1,7,11
1.72313E+12,-6198,-5626,734,366,170,493,1,7,11
1.72313E+12,-6218,-5602,729,349,171,851,1,7,11
1.72313E+12,-6225,-5588,730,335,170,672,1,7,11
1.72313E+12,-6226,-5587,750,334,185,731,1,7,11
1.72313E+12,-6244,-5584,765,361,207,1040,1,7,11
1.72313E+12,-6263,-5587,1024,137,218,1110,1,7,11
1.72313E+12,-6020,-5593,1036,179,226,930,1,7,11
1.72313E+12,-6039,-5601,1044,243,248,1023,1,7,11
1.72313E+12,-6080,-5585,1056,592,536,1403,1,7,11
1.72313E+12,-6117,-5534,1064,426,559,1545,1,7,11
1.72313E+12,-6430,-5726,1060,491,578,1453,1,7,11
1.72313E+12,-6451,-5653,1053,797,578,1880,1,7,11
1.72313E+12,-6452,-5322,1045,835,596,1783,1,7,11
1.72313E+12,-6517,-5250,1037,863,411,1942,1,7,11
1.72313E+12,-6327,-5456,1025,648,458,2379,1,7,11
1.72313E+12,-6398,-5409,759,709,771,2290,1,7,11
1.72313E+12,-6738,-5107,758,1067,825,2486,1,7,11
1.72313E+12,-6529,-5046,758,940,849,2701,1,7,11
1.72313E+12,-6582,-5044,1046,1338,877,3183,1,7,11
1.72313E+12,-6627,-5042,1056,1584,647,3432,1,7,11
1.72313E+12,-6929,-5247,1065,1919,708,3683,1,7,11
1.72313E+12,-6997,-5167,1069,2021,1061,3941,1,7,11
1.72313E+12,-6789,-4813,1085,2437,1139,4194,1,7,11
1.72313E+12,-6797,-4930,1080,3178,946,4454,1,7,11
1.72313E+12,-6852,-4678,1082,3659,1311,4592,1,7,11
1.72313E+12,-6908,-4236,1072,4159,1276,4822,1,7,11
1.72313E+12,-7209,-4018,1097,4634,1443,5025,1,7,11
1.72313E+12,-7278,-3785,1125,5035,1862,5433,1,7,11
1.72313E+12,-7050,-3560,904,5648,1706,5318,1,7,11
1.72313E+12,-7110,-3599,936,5952,2083,5657,1,7,11
1.72313E+12,-7492,-3388,966,6240,1957,5713,1,7,11
1.72313E+12,-7386,-3137,986,6485,2017,5753,1,7,11
1.72313E+12,-7769,-2893,981,6389,1988,5520,1,7,11
1.72313E+12,-7614,-2659,981,6731,2171,5522,1,7,11
1.72313E+12,-7959,-2228,987,6720,2058,5744,1,7,11
1.72313E+12,-8020,-2307,998,6731,1690,5682,1,7,11
1.72313E+12,-7823,-2081,1006,6769,1828,5336,1,7,11
1.72313E+12,-7847,-1872,1016,6753,1460,5493,1,7,11
1.72313E+12,-7897,-1420,1283,6704,1626,5390,1,7,11
1.72313E+12,-7873,-1224,1012,6368,1235,5056,1,7,11
1.72313E+12,-7838,-1306,1009,6502,1397,5190,1,7,11
1.72313E+12,-8062,-1137,1005,6111,1339,4818,1,7,11
1.72313E+12,-8046,-696,1013,6246,1346,4950,1,7,11
1.72313E+12,-7831,-491,1002,5881,1379,4582,1,7,11
1.72313E+12,-7853,-529,967,6009,1402,4526,1,7,11
1.72313E+12,-7870,-302,911,5595,1171,4507,1,7,11
1.72313E+12,-7830,-74,1095,5650,1191,4516,1,7,11
1.72313E+12,-8059,382,758,5394,1267,4559,1,7,11
1.72313E+12,-8041,591,662,5158,1625,4917,1,7,11
1.72313E+12,-7978,485,859,4892,1440,4754,1,7,11
1.72313E+12,-7954,841,822,4644,1532,4811,1,7,11
1.72313E+12,-7970,669,780,4445,1857,4818,1,7,11
1.72313E+12,-7982,1048,481,4069,1879,4762,1,7,11
1.72313E+12,-8008,942,411,3984,1889,4914,1,7,11
1.72313E+12,-8001,1360,578,4139,1860,4543,1,7,11
1.72313E+12,-7979,1246,229,3746,1826,4648,1,7,11
1.72313E+12,-7652,1616,130,3843,1521,4470,1,7,11
1.72313E+12,-7607,1545,-33,3693,1522,3994,1,7,11
1.72313E+12,-7614,1871,-83,3285,1529,3782,1,7,11
1.72313E+12,-7601,1743,49,3383,1492,3850,1,7,11
1.72313E+12,-7765,2114,-357,2984,1422,3703,1,7,11
1.72313E+12,-7415,1986,-528,3086,1661,3589,1,7,11
1.72313E+12,-7307,2333,-558,2877,1658,3252,1,7,11
1.72313E+12,-7505,2426,-1032,2435,1449,3419,1,7,11
1.72313E+12,-7483,2333,-1020,2254,1496,3055,1,7,11
1.72313E+12,-7319,2487,-1262,2324,1850,3170,1,7,11
1.72313E+12,-7738,2887,-1512,2163,1794,2741,1,7,11
1.72313E+12,-7377,2723,-1722,1265,1633,2555,1,7,11
1.72313E+12,-7321,2790,-2139,1140,1601,2293,1,7,11
1.72313E+12,-7310,3089,-2005,491,1547,2022,1,7,11
1.72313E+12,-7439,3149,-2385,151,1195,1713,1,7,11
1.72313E+12,-7054,2952,-2231,78,1389,1657,1,7,11
1.72313E+12,-7294,2959,-2286,-241,1159,1342,1,7,11
1.72313E+12,-7129,3196,-2571,-502,1394,1088,1,7,11
1.72313E+12,-7112,3154,-2596,-693,985,884,1,7,11
1.72313E+12,-7246,3118,-2609,-1074,1088,440,1,7,11
1.72313E+12,-7175,2797,-2608,-1150,1056,235,1,7,11
1.72313E+12,-7476,3123,-2606,-1097,1150,323,1,7,11
1.72313E+12,-7300,3107,-2578,-1124,750,-92,1,7,11
1.72313E+12,-7903,3184,-2249,-1048,931,-270,1,7,11
1.72313E+12,-8353,3360,-2178,-1126,845,81,1,7,11
1.72313E+12,-7812,3196,-2000,-1169,28,123,1,7,11
1.72313E+12,-7970,3170,-1674,-1206,-358,-265,1,7,11
1.72313E+12,-7363,3170,-1442,-1576,-476,-263,1,7,11
1.72313E+12,-7285,2787,-1194,-1473,-692,-170,1,7,11
1.72313E+12,-6908,2717,-974,-1829,-725,-538,1,7,11
1.72313E+12,-6802,2838,-760,-1715,-1081,-415,1,7,11
1.72313E+12,-6825,2551,-848,-1739,-1111,-807,1,7,11
1.72313E+12,-6878,2826,-493,-1718,-1093,-641,1,7,11
1.72313E+12,-6895,2830,-422,-1737,-1097,-650,1,7,11
1.72313E+12,-7224,2874,-631,-1733,-695,-886,1,7,11
1.72313E+12,-7280,2930,-605,-1738,-825,-814,1,7,11
1.72313E+12,-7076,2696,-581,-1765,-409,-498,1,7,11
1.72313E+12,-7141,2792,-558,-1732,-213,-406,1,7,11
1.72313E+12,-7469,3144,-543,-1745,-306,-606,1,7,11
1.72313E+12,-7537,2969,-525,-2050,91,-550,1,7,11
1.72313E+12,-7536,2975,-206,-2132,-96,-249,1,7,11
1.72313E+12,-7336,3179,-156,-1964,-66,-575,1,7,11
1.72313E+12,-7319,3104,-316,-2000,-72,-414,1,7,11
1.72313E+12,-7351,2767,3,-1967,-86,-847,1,7,11
1.72313E+12,-7695,2935,82,-1935,-120,-1046,1,7,11
1.72313E+12,-7799,2913,120,-2142,46,-923,1,7,11
1.72313E+12,-7592,2857,127,-2117,-337,-999,1,7,11
1.72313E+12,-7613,2503,-111,-2062,-153,-1284,1,7,11
1.72313E+12,-7645,2632,-70,-1888,-186,-1290,1,7,11
1.72313E+12,-7956,2615,-1,-1608,-212,-1340,1,7,11
1.72313E+12,-7990,2625,312,-1225,-563,-1393,1,7,11
1.72313E+12,-7958,2273,143,-1224,-440,-1172,1,7,11
1.72313E+12,-7651,2194,205,-1153,-786,-1222,1,7,11
1.72313E+12,-7599,2207,244,-1344,-881,-1561,1,7,11
1.72313E+12,-7783,2185,527,-1401,-670,-1577,1,7,11
1.72313E+12,-7690,2230,524,-1202,-654,-1260,1,7,11
1.72313E+12,-7682,2261,563,-1581,-788,-1408,1,7,11
1.72313E+12,-7407,2303,589,-1422,-417,-952,1,7,11
1.72313E+12,-7315,2233,385,-1825,-581,-748,1,7,11
1.72313E+12,-7530,2274,417,-1518,-363,-785,1,7,11
1.72313E+12,-7308,2578,444,-1477,117,-556,1,7,11
1.72313E+12,-7370,2624,482,-1632,275,-361,1,7,11
1.72313E+12,-7696,2495,772,-1196,169,98,1,7,11
1.72313E+12,-7603,2890,823,-1321,540,-37,1,7,11
1.72313E+12,-7821,2776,863,-984,519,351,1,7,11
1.72313E+12,-7904,3175,860,-955,335,245,1,7,11
1.72313E+12,-7907,3332,858,-988,-58,424,1,7,11
1.72313E+12,-7898,3418,882,-1352,-111,869,1,7,11
1.72313E+12,-7896,3227,664,-1220,77,1068,1,7,11
1.72313E+12,-7820,3254,776,-1649,-345,919,1,7,11
1.72313E+12,-7961,3240,1116,-1480,-555,1143,1,7,11
1.72313E+12,-7778,3247,976,-1455,-480,1031,1,7,11
1.72313E+12,-7355,3202,1368,-1432,-826,878,1,7,11
1.72313E+12,-7469,3379,1223,-1608,-680,461,1,7,11
1.72313E+12,-7113,3052,1574,-1182,-1046,442,1,7,11
1.72313E+12,-7108,3041,1628,-925,-1036,327,1,7,11
1.72313E+12,-7099,3050,1425,-792,-1030,267,1,7,11
1.72313E+12,-7101,3366,1459,-544,-733,-22,1,7,11
1.72313E+12,-7129,3364,1493,-320,-682,-37,1,7,11
1.72313E+12,-7146,3396,1522,-27,-888,-43,1,7,11
1.72313E+12,-7440,3236,1507,242,-868,-25,1,7,11
1.72313E+12,-7125,3594,1508,407,-667,-7,1,7,11
1.72313E+12,-7141,3685,1495,787,-856,293,1,7,11
1.72313E+12,-7309,3544,1433,806,-835,343,1,7,11
1.72313E+12,-7403,3522,1409,494,-848,373,1,7,11
1.72313E+12,-7646,3579,1638,501,-499,374,1,7,11
1.72313E+12,-7981,3857,1603,421,-822,157,1,7,11
1.72313E+12,-7740,3525,1571,541,-703,131,1,7,11
1.72313E+12,-7525,3677,1560,236,-843,292,1,7,11
1.72313E+12,-7079,3589,1273,251,-385,-18,1,7,11
1.72313E+12,-7182,3203,1259,254,-384,-87,1,7,11
1.72313E+12,-6907,3065,1239,517,-108,71,1,7,11
1.72313E+12,-7197,2949,1209,516,344,-295,1,7,11
1.72313E+12,-7247,3140,1168,522,230,-148,1,7,11
1.72313E+12,-7115,3111,1375,232,583,-519,1,7,11
1.72313E+12,-7474,3154,1281,205,594,-574,1,7,11
1.72313E+12,-7544,2974,901,372,597,-611,1,7,11
1.72313E+12,-7388,3003,1057,-45,384,-616,1,7,11
1.72313E+12,-7703,3047,721,44,419,-592,1,7,11
1.72313E+12,-7738,3348,647,-132,474,-569,1,7,11
1.72313E+12,-7775,3361,858,-583,795,-559,1,7,11
1.72313E+12,-7555,3053,850,-773,845,-567,1,7,11
1.72313E+12,-7586,2965,857,-645,863,-603,1,7,11
1.72313E+12,-7570,3132,840,-702,840,-412,1,7,11
1.72313E+12,-7803,2771,812,-713,824,-501,1,7,11
1.72313E+12,-7739,2923,780,-682,814,-838,1,7,11
1.72313E+12,-7690,2833,494,-876,833,-648,1,7,11
1.72313E+12,-7408,2518,454,-789,864,-674,1,7,11
1.72313E+12,-7393,2471,415,-439,645,-652,1,7,11
1.72313E+12,-7387,2432,630,-596,690,-845,1,7,11
1.72313E+12,-7391,2665,548,-238,748,-504,1,7,11
1.72313E+12,-7707,2666,236,-135,1107,-627,1,7,11
1.72313E+12,-7765,2664,198,-310,1150,-548,1,7,11
1.72313E+12,-7559,2667,146,41,904,-233,1,7,11
1.72313E+12,-7607,2663,353,94,1150,-191,1,7,11
1.72313E+12,-7618,2641,301,-122,1117,-178,1,7,11
1.72313E+12,-7636,2611,264,-73,1097,-186,1,7,11
1.72313E+12,-7654,2591,-30,-21,1058,-197,1,7,11
1.72313E+12,-7663,2295,-59,264,745,-216,1,7,11
1.72313E+12,-7670,2254,-91,311,678,-241,1,7,11
1.72313E+12,-7677,2225,-110,360,856,-514,1,7,11
1.72313E+12,-7672,2203,-125,153,768,-514,1,7,11
1.72313E+12,-7954,2198,114,188,432,-244,1,7,11
1.72313E+12,-7958,2203,99,196,576,-200,1,7,11
1.72313E+12,-7960,2188,78,180,217,-149,1,7,11
1.72313E+12,-7970,2178,71,148,131,-353,1,7,11
1.72313E+12,-7945,2212,47,144,285,-279,1,7,11
1.72313E+12,-7663,2215,37,359,-34,34,1,7,11
1.72313E+12,-7655,2208,25,329,-55,88,1,7,11
1.72313E+12,-7650,2223,5,314,-74,-121,1,7,11
1.72313E+12,-7631,2224,0,288,-92,-84,1,7,11
1.72313E+12,-7624,2224,18,268,-92,-64,1,7,11
1.72313E+12,-7625,2219,31,260,-93,-50,1,7,11
1.72313E+12,-7648,2225,38,274,-110,-35,1,7,11
1.72313E+12,-7644,2246,37,296,104,-22,1,7,11
1.72313E+12,-7650,2275,33,317,60,-15,1,7,11
1.72313E+12,-7643,2286,32,324,10,-2,1,7,11
1.72313E+12,-7655,2560,48,340,-289,262,1,7,11
1.72313E+12,-7643,2584,54,358,-346,274,1,7,11
1.72313E+12,-7647,2614,61,374,-379,280,1,7,11
1.72313E+12,-7642,2637,82,377,-173,292,1,7,11
1.72313E+12,-7600,2653,84,382,-214,295,1,7,11
1.72313E+12,-7583,2432,91,142,-219,286,1,7,11
1.72313E+12,-7779,2461,109,141,-236,271,1,7,11
1.72313E+12,-7748,2498,108,147,-203,262,1,7,11
1.72313E+12,-7728,2520,105,129,-146,-1,1,7,11
1.72313E+12,-7696,2524,112,370,-337,257,1,7,11
1.72313E+12,-7410,2532,115,369,10,-22,1,7,11
1.72313E+12,-7688,2827,110,371,120,-50,1,7,11
1.72313E+12,-7722,2884,101,333,-84,-54,1,7,11
1.72313E+12,-7729,2903,89,265,-70,-55,1,7,11
1.72313E+12,-7735,2882,86,-55,-62,-67,1,7,11
1.72313E+12,-7704,2860,76,-72,-48,-116,1,7,11
1.72313E+12,-7712,2861,78,-60,261,73,1,7,11
1.72313E+12,-7729,2873,73,-32,282,11,1,7,11
1.72313E+12,-7736,2901,48,-19,275,-285,1,7,11
1.72313E+12,-7700,2895,30,-8,285,-305,1,7,11
1.72313E+12,-7695,2904,4,282,353,-323,1,7,11
1.72313E+12,-7726,2902,-259,284,139,-321,1,7,11
1.72313E+12,-7731,2874,1,283,136,-318,1,7,11
1.72313E+12,-7753,2866,0,305,138,-331,1,7,11
1.72313E+12,-7786,2864,1,311,133,-335,1,7,11
1.72313E+12,-7783,2831,1,311,319,-178,1,7,11
1.72313E+12,-7768,2848,-273,303,287,-231,1,7,11
1.72313E+12,-7768,2867,-279,276,259,-520,1,7,11
1.72313E+12,-7764,2846,-293,-49,-68,-543,1,7,11
1.72313E+12,-7742,2549,-298,-92,-120,-573,1,7,11
1.72313E+12,-7738,2542,-307,-70,106,-611,1,7,11
1.72313E+12,-7755,2520,-293,-66,70,-399,1,7,11
1.72313E+12,-7776,2461,-288,-50,8,-451,1,7,11
1.72313E+12,-7795,2457,-275,264,-306,-782,1,7,11
1.72313E+12,-7805,2448,-274,321,-374,-876,1,7,11
1.72313E+12,-7573,2687,0,356,-131,-652,1,7,11
1.72313E+12,-7579,2659,16,369,-171,-668,1,7,11
1.72313E+12,-7590,2648,18,374,-182,-678,1,7,11
1.72313E+12,-7610,2666,26,338,-205,-666,1,7,11
1.72313E+12,-7622,2664,40,259,-519,-665,1,7,11
1.72313E+12,-7629,2651,54,-66,-576,-670,1,7,11
1.72313E+12,-7634,2612,67,109,-619,-658,1,7,11
1.72313E+12,-7949,2298,89,22,-638,-678,1,7,11
1.72313E+12,-7665,2284,99,-276,-482,-693,1,7,11
1.72313E+12,-7571,2282,122,-367,-816,-729,1,7,11
1.72313E+12,-7629,2278,-106,-376,-424,-687,1,7,11
1.72313E+12,-7644,2584,-121,-134,-627,-859,1,7,11
1.72313E+12,-7611,2564,-108,-213,-230,-474,1,7,11
1.72313E+12,-7954,2227,-100,-627,1,-571,1,7,11
1.72313E+12,-7809,2015,-80,-781,37,-545,1,7,11
1.72313E+12,-7818,1949,-35,-408,-153,-490,1,7,11
1.72313E+12,-7833,1988,-2,-574,-590,-719,1,7,11
1.72313E+12,-8056,1951,342,-632,-785,-1088,1,7,11
1.72313E+12,-8007,1945,150,-423,-718,-1147,1,7,11
1.72313E+12,-7959,1986,215,-489,-1049,-1083,1,7,11
1.72313E+12,-7938,1968,534,-874,-1027,-647,1,7,11
1.72313E+12,-7951,2156,614,-709,-657,-471,1,7,11
1.72313E+12,-7948,2157,411,-1030,-863,-390,1,7,11
1.72313E+12,-7971,1932,422,-1091,-810,-441,1,7,11
1.72313E+12,-7992,2005,422,-907,-827,-780,1,7,11
1.72313E+12,-7970,2041,436,-1298,-880,-675,1,7,11
1.72313E+12,-7986,2308,467,-1213,-892,-1041,1,7,11
1.72313E+12,-7954,2355,494,-1643,-893,-1084,1,7,11
1.72313E+12,-8001,2320,494,-1910,-847,-1073,1,7,11
1.72313E+12,-7656,2169,843,-2172,-789,-1091,1,7,11
1.72313E+12,-7955,2111,875,-2010,-567,-1097,1,7,11
1.72313E+12,-7976,1788,879,-2027,-172,-1104,1,7,11
1.72313E+12,-7959,1708,666,-1960,-315,-919,1,7,11
1.72313E+12,-8017,1859,733,-2133,87,-1024,1,7,11
1.72313E+12,-7860,1654,1043,-2149,-57,-1401,1,7,11
1.72313E+12,-8043,1572,1119,-2157,-66,-1414,1,7,11
1.72313E+12,-8003,1433,1068,-1743,-92,-1531,1,7,11
1.72313E+12,-7813,1505,1039,-1689,259,-1740,1,7,11
1.72313E+12,-8013,1459,1040,-2102,263,-1926,1,7,11
1.72313E+12,-8033,1430,1034,-1985,306,-2340,1,7,11
1.72313E+12,-8055,1449,743,-2373,152,-2181,1,7,11
1.72313E+12,-8026,1494,707,-2563,213,-2246,1,7,11
1.72313E+12,-7817,1465,653,-2777,541,-2294,1,7,11
1.72313E+12,-7939,1593,886,-3359,569,-2608,1,7,11
1.72313E+12,-7652,1537,868,-3304,799,-2487,1,7,11
1.72313E+12,-7637,1248,853,-3567,1034,-2886,1,7,11
1.72313E+12,-7944,1152,859,-4177,1312,-2777,1,7,11
1.72313E+12,-7844,1009,869,-4309,1215,-3098,1,7,11
1.72313E+12,-7891,738,648,-4872,1164,-3120,1,7,11
1.72313E+12,-8238,503,658,-4992,1390,-3135,1,7,11
1.72313E+12,-8303,549,883,-4844,992,-3100,1,7,11
1.72313E+12,-8220,293,839,-5177,1081,-3093,1,7,11
1.72313E+12,-8304,46,835,-5179,1052,-3126,1,7,11
1.72313E+12,-8073,-525,652,-5147,652,-3156,1,7,11
1.72313E+12,-8128,-469,686,-4910,794,-3184,1,7,11
1.72313E+12,-8146,-808,665,-4318,626,-3154,1,7,11
1.72313E+12,-8103,-665,669,-4214,248,-3082,1,7,11
1.72313E+12,-8142,-1067,703,-3519,239,-2734,1,7,11
1.72313E+12,-8152,-942,744,-3055,146,-2702,1,7,11
1.72313E+12,-8080,-1014,765,-2862,-6,-2761,1,7,11
1.72313E+12,-8267,-933,723,-2425,-77,-3159,1,7,11
1.72313E+12,-8308,-931,697,-1950,-117,-3332,1,7,11
1.72313E+12,-8304,-944,684,-1783,50,-3225,1,7,11
1.72313E+12,-8234,-930,660,-1899,-290,-3588,1,7,11
1.72313E+12,-8091,-1008,679,-1852,-307,-3682,1,7,11
1.72313E+12,-8102,-1211,724,-1896,-228,-3675,1,7,11
1.72313E+12,-8312,-1617,737,-1813,-391,-3464,1,7,11
1.72313E+12,-8260,-1436,725,-1659,-497,-3527,1,7,11
1.72313E+12,-8250,-1458,709,-1262,-844,-3596,1,7,11
1.72313E+12,-8251,-1446,691,-1222,-892,-3809,1,7,11
1.72313E+12,-8304,-1800,686,-1265,-689,-3457,1,7,11
1.72313E+12,-8080,-1714,706,-1664,-783,-3310,1,7,11
1.72313E+12,-7933,-2175,704,-1806,-934,-3435,1,7,11
1.72313E+12,-7981,-2320,698,-1820,-962,-3393,1,7,11
1.72313E+12,-7615,-2194,727,-1501,-1086,-3404,1,7,11
1.72313E+12,-7645,-2273,1027,-1654,-686,-3447,1,7,11
1.72313E+12,-7676,-2569,1049,-1583,-670,-3203,1,7,11
1.72313E+12,-7680,-2663,1086,-1585,-685,-3385,1,7,11
1.72313E+12,-7658,-2839,1124,-1582,-716,-3035,1,7,11
1.72313E+12,-7603,-2771,901,-1215,-728,-2979,1,7,11
1.72313E+12,-7561,-3144,916,-1023,-677,-3181,1,7,11
1.72313E+12,-7807,-3028,952,-1122,-866,-3146,1,7,11
1.72313E+12,-7738,-3444,987,-692,-836,-3132,1,7,11
1.72313E+12,-7390,-3277,1000,-459,-777,-3176,1,7,11
1.72313E+12,-7323,-3302,989,-251,-435,-2966,1,7,11
1.72313E+12,-7331,-3616,994,-154,-605,-2986,1,7,11
1.72313E+12,-7322,-3709,998,-362,-590,-2954,1,7,11
1.72313E+12,-7310,-3576,1017,-376,-616,-3192,1,7,11
1.72313E+12,-7535,-3717,1283,-148,-415,-3188,1,7,11
1.72313E+12,-7457,-3835,1021,-139,-471,-2957,1,7,11
1.72313E+12,-7167,-4139,1282,-359,-476,-3001,1,7,11
1.72313E+12,-7162,-4136,1285,-363,-487,-3006,1,7,11
1.72313E+12,-7429,-4162,1297,-193,-792,-2967,1,7,11
1.72313E+12,-7088,-4019,1337,-420,-688,-2787,1,7,11
1.72313E+12,-7276,-4366,1376,-774,-746,-2703,1,7,11
1.72313E+12,-7184,-4438,1389,-826,-1050,-2891,1,7,11
1.72313E+12,-6858,-4470,1400,-850,-1035,-2560,1,7,11
1.72313E+12,-6826,-4289,1158,-665,-754,-2470,1,7,11
1.72313E+12,-7012,-4640,1175,-716,-758,-2646,1,7,11
1.72313E+12,-6939,-4525,1185,-732,-743,-2579,1,7,11
1.72313E+12,-6640,-4570,1189,-710,-692,-2261,1,7,11
1.72313E+12,-6611,-4908,1193,-683,-886,-2412,1,7,11
1.72313E+12,-6584,-4990,1202,-896,-816,-2024,1,7,11
1.72313E+12,-6569,-4829,1213,-852,-496,-2123,1,7,11
1.72313E+12,-6784,-5172,1213,-785,-448,-1708,1,7,11
1.72313E+12,-6747,-5215,1213,-439,-398,-1815,1,7,11
1.72313E+12,-6720,-4999,1223,-621,-605,-1410,1,7,11
1.72313E+12,-6675,-4996,1235,-545,-576,-1258,1,7,11
1.72313E+12,-6385,-5239,1247,-522,-547,-1379,1,7,11
1.72313E+12,-6362,-5042,1261,-559,-525,-996,1,7,11
1.72313E+12,-6318,-5095,1270,-594,-522,-907,1,7,11
1.72313E+12,-6289,-5381,1537,-578,-202,-1074,1,7,11
1.72313E+12,-6518,-5379,1272,-558,-190,-1030,1,7,11
1.72313E+12,-6502,-5394,1274,-560,-175,-698,1,7,11
1.72313E+12,-6464,-5416,1270,-583,-166,-660,1,7,11
1.72313E+12,-6440,-5449,1264,-598,-131,-892,1,7,11
1.72313E+12,-6451,-5501,1271,-599,-352,-880,1,7,11
1.72313E+12,-6468,-5309,1536,-575,-341,-871,1,7,11
1.72313E+12,-6460,-5342,1537,-514,-353,-866,1,7,11
1.72313E+12,-6432,-5358,1278,-195,-360,-856,1,7,11
1.72313E+12,-6411,-5370,1547,-146,-349,-849,1,7,11
1.72313E+12,-6131,-5361,1554,-346,-340,-837,1,7,11
1.72313E+12,-6104,-5357,1560,-313,-319,-819,1,7,11
1.72313E+12,-6094,-5361,1575,-306,-288,-793,1,7,11
1.72313E+12,-6063,-5375,1578,-301,-273,-508,1,7,11
1.72313E+12,-6041,-5648,1579,-295,8,-485,1,7,11
1.72313E+12,-6034,-5655,1565,-276,43,-457,1,7,11
1.72313E+12,-6038,-5661,1566,-262,68,-429,1,7,11
1.72313E+12,-6050,-5687,1573,-258,81,-393,1,7,11
1.72313E+12,-6056,-5688,1566,8,84,-623,1,7,11
1.72313E+12,-6036,-5686,1560,17,65,-591,1,7,11
1.72313E+12,-6043,-5691,1562,32,63,-577,1,7,11
1.72313E+12,-6036,-5686,1560,57,40,-567,1,7,11
1.72313E+12,-6021,-5690,1573,72,23,-560,1,7,11
1.72313E+12,-6265,-5711,1574,69,18,-573,1,7,11
1.72313E+12,-6261,-5732,1587,80,9,-595,1,7,11
1.72313E+12,-6234,-5746,1597,97,0,-618,1,7,11
1.72313E+12,-6217,-5747,1603,123,8,-633,1,7,11
1.72313E+12,-6204,-5741,1608,-107,21,-386,1,7,11
1.72313E+12,-6194,-5736,1618,-101,35,-633,1,7,11
1.72313E+12,-6184,-5722,1618,-107,49,-636,1,7,11
1.72313E+12,-6178,-5719,1625,112,59,-622,1,7,11
1.72313E+12,-6163,-5740,1635,56,51,-617,1,7,11
1.72313E+12,-6175,-5759,1644,12,50,-621,1,7,11
1.72313E+12,-6186,-5513,1649,-292,46,-599,1,7,11
1.72313E+12,-6189,-5525,1656,-347,40,-577,1,7,11
1.72313E+12,-6159,-5532,1661,-380,29,-558,1,7,11
1.72313E+12,-5877,-5551,1423,-162,46,-539,1,7,11
1.72313E+12,-5868,-5575,1434,-171,67,-528,1,7,11
1.72313E+12,-5861,-5575,1445,-161,77,-526,1,7,11
1.72313E+12,-5850,-5596,1445,-170,95,-521,1,7,11
1.72313E+12,-5837,-5610,1441,-157,119,-519,1,7,11
1.72313E+12,-5832,-5602,1437,-140,-110,-525,1,7,11
1.72313E+12,-5823,-5605,1429,-143,-92,-523,1,7,11
1.72313E+12,-5820,-5623,1422,-152,-76,-516,1,7,11
1.72313E+12,-5826,-5895,1415,-139,-62,-253,1,7,11
1.72313E+12,-5804,-5905,1409,-366,-58,-233,1,7,11
1.72313E+12,-5768,-5910,1408,-352,-38,-213,1,7,11
1.72313E+12,-5772,-5924,1656,-345,262,-210,1,7,11
1.72313E+12,-5789,-5939,1648,-344,284,-200,1,7,11
1.72313E+12,-5782,-5959,1647,-344,299,-187,1,7,11
1.72313E+12,-5785,-5970,1644,-336,324,-184,1,7,11
1.72313E+12,-5785,-5973,1637,-321,339,-174,1,7,11
1.72313E+12,-5777,-5979,1626,-307,348,-163,1,7,11
1.72313E+12,-5771,-5979,1626,-307,361,-141,1,7,11
1.72313E+12,-5762,-5995,1624,-321,370,-368,1,7,11
1.72313E+12,-6004,-5984,1621,-311,369,-351,1,7,11
1.72313E+12,-5998,-5993,1611,-317,376,-331,1,7,11
1.72313E+12,-6003,-6011,1621,-328,381,-297,1,7,11
1.72313E+12,-5986,-5785,1620,-328,374,-263,1,7,11
1.72313E+12,-5984,-5801,1619,-313,372,22,1,7,11
1.72313E+12,-5971,-5805,1614,-300,371,61,1,7,11
1.72313E+12,-5977,-5797,1609,-297,382,95,1,7,11
1.72313E+12,-5979,-5799,1604,-311,140,-120,1,7,11
1.72313E+12,-5980,-5808,1596,-333,143,-76,1,7,11
1.72313E+12,-5985,-5825,1587,-357,149,-1,1,7,11
1.72313E+12,-5998,-5832,1583,-375,168,302,1,7,11
1.72313E+12,-6007,-5831,1567,-375,168,352,1,7,11
1.72313E+12,-6006,-5826,1559,-381,166,161,1,7,11
1.72313E+12,-6015,-5797,1551,-379,160,222,1,7,11
1.72313E+12,-5771,-5805,1551,-149,151,551,1,7,11
1.72313E+12,-5823,-5840,1543,-153,145,636,1,7,11
1.72313E+12,-5839,-5824,1536,-365,367,465,1,7,11
1.72313E+12,-5822,-5805,1274,-348,342,798,1,7,11
1.72313E+12,-5805,-5786,1278,-341,343,886,1,7,11
1.72313E+12,-5807,-6012,1269,-339,355,702,1,7,11
1.72313E+12,-5813,-5993,1265,-354,367,1042,1,7,11
1.72313E+12,-5822,-5958,1247,-367,375,1131,1,7,11
1.72313E+12,-5857,-5936,1224,-167,150,985,1,7,11
1.72313E+12,-6167,-5903,1202,-215,175,1374,1,7,11
1.72313E+12,-6230,-5611,1181,-523,192,1275,1,7,11
1.72313E+12,-6022,-5566,1404,-592,195,1477,1,7,11
1.72313E+12,-6052,-5547,1368,-414,197,1687,1,7,11
1.72313E+12,-6084,-5522,1336,-458,215,2148,1,7,11
1.72313E+12,-6124,-5725,1294,-459,249,2346,1,7,11
1.72313E+12,-6448,-5657,987,-445,546,2288,1,7,11
1.72313E+12,-6510,-5341,944,-436,580,2485,1,7,11
1.72313E+12,-6304,-5255,1149,-395,599,2904,1,7,11
1.72313E+12,-6344,-5400,1068,-607,601,2770,1,7,11
1.72313E+12,-6375,-5036,1050,-576,584,3128,1,7,11
1.72313E+12,-6695,-5238,1032,-561,590,3187,1,7,11
1.72313E+12,-6782,-5200,1046,-186,602,2979,1,7,11
1.72313E+12,-6566,-4794,1048,10,602,3010,1,7,11
1.72313E+12,-6931,-4902,1069,302,432,3342,1,7,11
1.72313E+12,-7029,-4732,1075,179,460,3445,1,7,11
1.72313E+12,-6870,-4613,1090,222,475,3594,1,7,11
1.72313E+12,-7204,-4240,1110,523,483,3503,1,7,11
1.72313E+12,-7258,-4361,1139,591,487,3940,1,7,11
1.72313E+12,-7254,-4196,1134,411,489,4152,1,7,11
1.72313E+12,-7288,-3834,900,404,811,4352,1,7,11
1.72313E+12,-7114,-3763,941,444,643,4306,1,7,11
1.72313E+12,-7460,-3923,973,844,735,4507,1,7,11
1.72313E+12,-7502,-3494,947,1048,1081,4990,1,7,11
1.72313E+12,-7516,-3282,919,973,944,5236,1,7,11
1.72313E+12,-7536,-3341,1150,1353,1350,5492,1,7,11
1.72313E+12,-7347,-3194,1149,1203,1545,5742,1,7,11
1.72313E+12,-7704,-2770,1140,1633,1489,5976,1,7,11
1.72313E+12,-7562,-2559,1131,1802,1900,6194,1,7,11
1.72313E+12,-7623,-2588,1095,1681,1732,6418,1,7,11
1.72313E+12,-7674,-2309,748,1776,2084,6371,1,7,11
1.72313E+12,-8006,-1745,655,2071,1947,6591,1,7,11
1.72313E+12,-7854,-1657,834,2076,2341,6821,1,7,11
1.72313E+12,-8224,-1021,774,1762,2178,7090,1,7,11
1.72313E+12,-8290,-665,439,1833,2196,7372,1,7,11
1.72313E+12,-8312,-406,630,1247,2422,7590,1,7,11
1.72313E+12,-8249,-183,537,909,2365,7669,1,7,11
1.72313E+12,-7856,-121,157,679,2342,7565,1,7,11
1.72313E+12,-7980,607,260,774,2409,7318,1,7,11
1.72313E+12,-7937,1016,78,225,2278,7281,1,7,11
1.72313E+12,-7984,1403,42,-262,2602,6995,1,7,11
1.72313E+12,-7993,1260,-257,-819,2296,6693,1,7,11
1.72313E+12,-7644,1237,-270,-1011,2422,6053,1,7,11
1.72313E+12,-7568,1243,-342,-1207,2374,5525,1,7,11
1.72313E+12,-7587,1634,-133,-1202,2398,5212,1,7,11
1.72313E+12,-7615,1669,-184,-1163,2379,4688,1,7,11
1.72313E+12,-7668,2115,-228,-1408,2345,3994,1,7,11
1.72313E+12,-7993,1961,-517,-1201,2005,3926,1,7,11
1.72313E+12,-7940,2001,-543,-1558,2105,3669,1,7,11
1.72313E+12,-7605,2310,-572,-1594,1692,3277,1,7,11
1.72313E+12,-7783,2412,-631,-1552,1842,2736,1,7,11
1.72313E+12,-7735,2292,-437,-1216,1508,2450,1,7,11
1.72313E+12,-7695,2680,-497,-1163,1457,2203,1,7,11
1.72313E+12,-7418,2527,-797,-1160,1431,2242,1,7,11
1.72313E+12,-7390,2871,-842,-1162,1617,1784,1,7,11
1.72313E+12,-7341,2709,-881,-1162,1513,1873,1,7,11
1.72313E+12,-7319,2776,-679,-1172,1223,1457,1,7,11
1.72313E+12,-7307,2808,-722,-1253,1176,1555,1,7,11
1.72313E+12,-7522,3098,-749,-1277,1360,1393,1,7,11
1.72313E+12,-7476,3162,-1051,-1278,1316,981,1,7,11
1.72313E+12,-7447,2997,-1112,-1543,1302,1100,1,7,11
1.72313E+12,-7158,3068,-1150,-1606,1280,713,1,7,11
1.72313E+12,-7113,3377,-924,-1429,1014,839,1,7,11
1.72313E+12,-7097,3426,-969,-1517,1007,451,1,7,11
1.72313E+12,-7061,3207,-996,-1884,986,584,1,7,11
1.72313E+12,-7080,3218,-1016,-1725,979,202,1,7,11
1.72313E+12,-7093,3208,-1017,-2066,927,340,1,7,11
1.72313E+12,-7087,3433,-1014,-2128,1115,-35,1,7,11
1.72313E+12,-7101,3400,-1012,-2171,1047,108,1,7,11
1.72313E+12,-7116,3394,-1017,-1928,711,8,1,7,11
1.72313E+12,-7116,3376,-1012,-1924,868,-339,1,7,11
1.72313E+12,-7080,3363,-999,-2155,789,-168,1,7,11
1.72313E+12,-7079,3351,-982,-2106,506,-256,1,7,11
1.72313E+12,-7088,3331,-946,-1792,486,-581,1,7,11
1.72313E+12,-7106,3050,-914,-1717,480,-634,1,7,11
1.72313E+12,-7113,3018,-1146,-1892,458,-408,1,7,11
1.72313E+12,-7101,3020,-1127,-1526,450,-429,1,7,11
1.72313E+12,-7130,3008,-1121,-1437,463,-436,1,7,11
1.72313E+12,-7112,2988,-1127,-1646,439,-439,1,7,11
1.72313E+12,-7120,2981,-1129,-1608,444,-449,1,7,11
1.72313E+12,-7119,2957,-1128,-1591,450,-465,1,7,11
1.72313E+12,-7139,2962,-1133,-1562,445,-496,1,7,11
1.72313E+12,-7146,3194,-1139,-1279,434,-791,1,7,11
1.72313E+12,-7434,3173,-1132,-1258,432,-844,1,7,11
1.72313E+12,-7469,3154,-1122,-1234,412,-642,1,7,11
1.72313E+12,-7485,3123,-1126,-1224,611,-697,1,7,11
1.72313E+12,-7493,3104,-1118,-1208,564,-750,1,7,11
1.72313E+12,-7523,3079,-1109,-1204,521,-1042,1,7,11
1.72313E+12,-7544,2775,-1102,-1206,202,-1062,1,7,11
1.72313E+12,-7304,2725,-1075,-1178,147,-1071,1,7,11
1.72313E+12,-7324,2936,-1054,-1382,351,-1059,1,7,11
1.72313E+12,-7339,2888,-1028,-1311,278,-1041,1,7,11
1.72313E+12,-7348,2831,-753,-973,-46,-768,1,7,11
1.72313E+12,-7375,2525,-729,-1132,-102,-736,1,7,11
1.72313E+12,-7386,2473,-710,-756,72,-697,1,7,11
1.72313E+12,-7399,2451,-682,-870,20,-662,1,7,11
1.72313E+12,-7420,2681,-671,-496,-298,-867,1,7,11
1.72313E+12,-7402,2640,-657,-390,-357,-815,1,7,11
1.72313E+12,-7412,2615,-893,-543,-379,-502,1,7,11
1.72313E+12,-7421,2610,-885,-200,-154,-438,1,7,11
1.72313E+12,-7401,2597,-877,-347,-199,-628,1,7,11
1.72313E+12,-7388,2583,-876,30,-193,-581,1,7,11
1.72313E+12,-7418,2588,-861,-95,-177,-540,1,7,11
1.72313E+12,-7420,2612,-860,294,-206,-246,1,7,11
1.72313E+12,-7403,2642,-856,156,-217,-211,1,7,11
1.72313E+12,-7399,2659,-843,244,-192,-187,1,7,11
1.72313E+12,-7408,2664,-831,571,-169,-168,1,7,11
1.72313E+12,-7405,2669,-816,638,-149,-169,1,7,11
1.72313E+12,-7421,2682,-799,447,-378,-179,1,7,11
1.72313E+12,-7690,2433,-808,487,-370,-203,1,7,11
1.72313E+12,-7405,2674,-818,502,-371,-244,1,7,11
1.72313E+12,-7393,2657,-822,777,-334,-551,1,7,11
1.72313E+12,-7386,2635,-829,790,-283,-600,1,7,11
1.72313E+12,-7407,2623,-835,805,41,-390,1,7,11
1.72313E+12,-7690,2625,-836,800,88,-414,1,7,11
1.72313E+12,-7684,2612,-840,508,106,-424,1,7,11
1.72313E+12,-7736,2292,-859,566,-61,-426,1,7,11
1.72313E+12,-7738,2275,-879,253,-54,-412,1,7,11
1.72313E+12,-7735,2263,-646,212,-35,-397,1,7,11
1.72313E+12,-7717,2247,-672,162,-15,-388,1,7,11
1.72313E+12,-7722,2236,-685,372,279,-389,1,7,11
1.72313E+12,-7744,2248,-713,329,307,-390,1,7,11
1.72313E+12,-7745,2241,-728,277,304,-392,1,7,11
1.72313E+12,-7743,2263,-748,-34,303,-390,1,7,11
1.72313E+12,-7727,2287,-1030,126,279,-389,1,7,11
1.72313E+12,-7738,2300,-1046,16,274,-635,1,7,11
1.72313E+12,-7758,2575,-1041,-353,258,-610,1,7,11
1.72313E+12,-7776,2575,-763,-210,-46,-584,1,7,11
1.72313E+12,-7747,2576,-752,-553,-116,-562,1,7,11
1.72313E+12,-7735,2580,-756,-635,113,-554,1,7,11
1.72313E+12,-7728,2570,-742,-457,93,-550,1,7,11
1.72313E+12,-7736,2285,-718,-775,74,-556,1,7,11
1.72313E+12,-7747,2265,-701,-802,43,-558,1,7,11
1.72313E+12,-7747,2246,-681,-807,7,-562,1,7,11
1.72313E+12,-7748,2222,-667,-794,-276,-564,1,7,11
1.72313E+12,-7769,2199,-646,-506,-301,-559,1,7,11
1.72313E+12,-7766,2184,-892,-452,-337,-559,1,7,11
1.72313E+12,-7768,2179,-877,-389,-354,-559,1,7,11
1.72313E+12,-7762,2202,-868,-614,-360,-552,1,7,11
1.72313E+12,-7772,2213,-864,-388,-358,-538,1,7,11
1.72313E+12,-7773,2221,-861,-446,-358,-529,1,7,11
1.72313E+12,-7782,2211,-850,-773,-370,-549,1,7,11
1.72313E+12,-7781,2198,-844,-833,-135,-584,1,7,11
1.72313E+12,-7796,2202,-836,-646,-148,-635,1,7,11
1.72313E+12,-7803,2199,-825,-734,-171,-442,1,7,11
1.72313E+12,-7558,2206,-821,-1087,-201,-826,1,7,11
1.72313E+12,-7808,2212,-821,-950,-230,-677,1,7,11
1.72313E+12,-7803,2211,-820,-1345,-516,-1065,1,7,11
1.72313E+12,-7564,2202,-799,-1238,-525,-1134,1,7,11
1.72313E+12,-7581,2415,-770,-1652,-554,-1018,1,7,11
1.72313E+12,-7603,2343,-467,-1812,-577,-1190,1,7,11
1.72313E+12,-7619,2008,-410,-1692,-598,-1538,1,7,11
1.72313E+12,-7637,1930,-618,-1788,-622,-1595,1,7,11
1.72313E+12,-7639,2094,-556,-2112,-618,-1604,1,7,11
1.72313E+12,-7642,1720,-234,-2152,-572,-1574,1,7,11
1.72313E+12,-7660,1865,-180,-2138,-502,-1249,1,7,11
1.72313E+12,-7641,1503,-140,-2071,-166,-1398,1,7,11
1.72313E+12,-7649,1424,-356,-1836,-285,-1290,1,7,11
1.72313E+12,-7661,1611,-331,-1644,114,-928,1,7,11
1.72313E+12,-7674,1582,-324,-1183,-5,-1091,1,7,11
1.72313E+12,-7937,1553,-325,-993,375,-738,1,7,11
1.72313E+12,-7949,1274,-331,-1064,246,-651,1,7,11
1.72313E+12,-7997,1258,-343,-895,605,-833,1,7,11
1.72313E+12,-8059,1223,-349,-792,397,-778,1,7,11
1.72313E+12,-7820,1220,-374,-390,384,-448,1,7,11
1.72313E+12,-7816,1235,-163,-532,621,-390,1,7,11
1.72313E+12,-7825,1243,-189,-187,388,-587,1,7,11
1.72313E+12,-7830,1255,-215,-129,635,-530,1,7,11
1.72313E+12,-7816,1265,-240,-339,622,-232,1,7,11
1.72313E+12,-7815,1278,-513,-311,613,-201,1,7,11
1.72313E+12,-7815,1544,-536,-309,592,-174,1,7,11
1.72313E+12,-8058,1558,-563,-325,567,-140,1,7,11
1.72313E+12,-8061,1560,-575,-358,561,-371,1,7,11
1.72313E+12,-7811,1548,-578,-376,561,-338,1,7,11
1.72313E+12,-7825,1554,-591,-365,561,-303,1,7,11
1.72313E+12,-7827,1564,-597,-363,547,-265,1,7,11
1.72313E+12,-7823,1578,-623,-370,525,39,1,7,11
1.72313E+12,-8060,1593,-640,-132,252,78,1,7,11
1.72313E+12,-8052,1579,-636,-154,237,82,1,7,11
1.72313E+12,-8045,1573,-638,-160,214,80,1,7,11
1.72313E+12,-8046,1579,-391,-135,197,71,1,7,11
1.72313E+12,-8053,1585,-392,-381,174,67,1,7,11
1.72313E+12,-8054,1605,-390,-338,146,70,1,7,11
1.72313E+12,-8032,1622,-393,-309,382,73,1,7,11
1.72313E+12,-8018,1624,-390,-278,378,67,1,7,11
1.72313E+12,-8009,1627,-394,25,129,49,1,7,11
1.72313E+12,-7999,1640,-396,86,144,25,1,7,11
1.72313E+12,-8005,1661,-409,-120,155,-259,1,7,11
1.72313E+12,-8003,1420,-406,-92,161,-282,1,7,11
1.72313E+12,-7993,1425,-409,-77,167,-307,1,7,11
1.72313E+12,-8001,1437,-412,-67,178,-332,1,7,11
1.72313E+12,-8006,1453,-421,-72,167,-352,1,7,11
1.72313E+12,-8000,1473,-436,-93,161,-376,1,7,11
1.72313E+12,-7996,1496,-457,115,151,-149,1,7,11
1.72313E+12,-7990,1509,-471,50,137,-176,1,7,11
1.72313E+12,-7993,1528,-482,-279,130,-200,1,7,11
1.72313E+12,-8006,1533,-484,-372,362,-218,1,7,11
1.72313E+12,-8007,1517,-483,-194,335,-232,1,7,11
1.72313E+12,-8014,1506,-481,-247,316,-248,1,7,11
1.72313E+12,-8018,1498,-492,-542,291,-515,1,7,11
1.72313E+12,-7999,1489,-493,-579,-1,-528,1,7,11
1.72313E+12,-7999,1472,-490,-609,-12,-558,1,7,11
1.72313E+12,-7994,1460,-500,-629,-35,-597,1,7,11
1.72313E+12,-7990,1455,-500,-386,-54,-408,1,7,11
1.72313E+12,-7992,1434,-492,-414,-83,-503,1,7,11
1.72313E+12,-7998,1414,-491,-424,-109,-878,1,7,11
1.72313E+12,-8016,1651,-491,-445,97,-1027,1,7,11
1.72313E+12,-8023,1578,-461,-495,18,-968,1,7,11
1.72313E+12,-8035,1276,-459,-476,-314,-1198,1,7,11
1.72313E+12,-8031,1272,-455,-448,-138,-1463,1,7,11
1.72313E+12,-7809,1264,-451,-433,-203,-1715,1,7,11
1.72313E+12,-7817,1235,-430,-435,-539,-2162,1,7,11
1.72313E+12,-7830,1160,-395,-432,-589,-2048,1,7,11
1.72313E+12,-7855,1312,-613,-414,-626,-2391,1,7,11
1.72313E+12,-7867,935,-570,-630,-414,-2180,1,7,11
1.72313E+12,-7875,1066,-539,-578,-432,-2208,1,7,11
1.72313E+12,-7846,713,-524,-252,-439,-2214,1,7,11
1.72313E+12,-7821,875,-255,-196,-404,-2214,1,7,11
1.72313E+12,-7839,788,-238,-148,-588,-2198,1,7,11
1.72313E+12,-7867,432,-216,-133,-524,-2416,1,7,11
1.72313E+12,-7878,526,-173,-359,-185,-2332,1,7,11
1.72313E+12,-8194,161,-151,-381,-379,-2048,1,7,11
1.72313E+12,-7928,333,-144,-369,-356,-2000,1,7,11
1.72313E+12,-7904,295,-169,-334,-322,-1988,1,7,11
1.72313E+12,-7869,-8,-196,-354,1,-1991,1,7,11
1.72313E+12,-7936,-63,-203,-163,97,-1993,1,7,11
1.72313E+12,-7936,116,-200,-247,103,-1967,1,7,11
1.72313E+12,-8202,44,-197,-557,-128,-1957,1,7,11
1.72313E+12,-8208,-280,-197,-578,-93,-1930,1,7,11
1.72313E+12,-8221,-318,-222,-586,-73,-2155,1,7,11
1.72313E+12,-8225,-360,-240,-626,-78,-2125,1,7,11
1.72313E+12,-8240,-166,-255,-438,-96,-2090,1,7,11
1.72313E+12,-8229,-242,-255,-501,-118,-1789,1,7,11
1.72313E+12,-8232,-595,-235,-803,-123,-1744,1,7,11
1.72313E+12,-8232,-430,-212,-812,-116,-1696,1,7,11
1.72313E+12,-8203,-495,-212,-803,-125,-1893,1,7,11
1.72313E+12,-7932,-826,-203,-781,-93,-1829,1,7,11
1.72313E+12,-8213,-875,-196,-474,-40,-1485,1,7,11
1.72313E+12,-8224,-896,-191,-427,-16,-1634,1,7,11
1.72313E+12,-8254,-688,-177,-414,-19,-1261,1,7,11
1.72313E+12,-8234,-737,-180,-408,-61,-1387,1,7,11
1.72313E+12,-8214,-1032,-181,-401,-85,-1297,1,7,11
1.72313E+12,-8212,-1066,-189,-400,-109,-973,1,7,11
1.72313E+12,-8199,-1087,-208,-386,125,-910,1,7,11
1.72313E+12,-8212,-1103,-211,-630,108,-1120,1,7,11
1.72313E+12,-8201,-918,-189,-622,70,-1094,1,7,11
1.72313E+12,-7921,-933,-187,-567,61,-1077,1,7,11
1.72313E+12,-7927,-944,-182,-236,77,-1076,1,7,11
1.72313E+12,-7902,-902,-189,-175,63,-1071,1,7,11
1.72313E+12,-7893,-1150,-190,-213,63,-1072,1,7,11
1.72313E+12,-7896,-945,-178,-529,76,-1077,1,7,11
1.72313E+12,-7874,-997,-166,-530,85,-1101,1,7,11
1.72313E+12,-7891,-1005,-159,-220,123,-1138,1,7,11
1.72313E+12,-7905,-1010,-156,-203,-102,-1149,1,7,11
1.72313E+12,-7902,-1314,-142,-206,-99,-912,1,7,11
1.72313E+12,-7869,-1370,-146,-158,-97,-936,1,7,11
1.72313E+12,-7857,-1361,-147,-309,-32,-977,1,7,11
1.72313E+12,-7879,-1360,-153,-236,260,-969,1,7,11
1.72313E+12,-7903,-1384,-159,43,278,-951,1,7,11
1.72313E+12,-7865,-1155,-170,96,291,-909,1,7,11
1.72313E+12,-7862,-1174,-189,116,370,-1138,1,7,11
1.72313E+12,-7903,-1210,-195,78,176,-1086,1,7,11
1.72313E+12,-7906,-1241,-204,31,178,-1036,1,7,11
1.72313E+12,-7899,-1544,-218,-287,169,-750,1,7,11
1.72313E+12,-7879,-1559,-233,-316,169,-709,1,7,11
1.72313E+12,-7866,-1544,-256,-374,186,-666,1,7,11
1.72313E+12,-7865,-1559,-530,-237,197,-855,1,7,11
1.72313E+12,-7871,-1624,-515,-629,184,-785,1,7,11
1.72313E+12,-7879,-1653,-514,-450,174,-474,1,7,11
1.72313E+12,-7886,-1433,-545,-797,376,-408,1,7,11
1.72313E+12,-7867,-1467,-578,-816,319,-630,1,7,11
1.72313E+12,-7880,-1484,-597,-783,292,-611,1,7,11
1.72313E+12,-7880,-1485,-604,-466,262,-583,1,7,11
1.72313E+12,-7906,-1486,-606,-427,-27,-542,1,7,11
1.72313E+12,-7923,-1499,-603,-640,-74,-216,1,7,11
1.72313E+12,-7895,-1482,-608,-583,124,-149,1,7,11
1.72313E+12,-7846,-1484,-618,-545,93,-337,1,7,11
1.72313E+12,-7810,-1492,-622,-245,99,-286,1,7,11
1.72313E+12,-8057,-1476,-625,-194,-122,2,1,7,11
1.72313E+12,-8057,-1450,-629,-167,-91,35,1,7,11
1.72313E+12,-8045,-1458,-630,-191,-74,64,1,7,11
1.72313E+12,-8043,-1509,-613,-201,-36,80,1,7,11
1.72313E+12,-8062,-1526,-612,-170,-13,84,1,7,11
1.72313E+12,-8046,-1534,-613,-152,-23,81,1,7,11
1.72313E+12,-7999,-1526,-618,-153,-26,74,1,7,11
1.72313E+12,-7990,-1514,-629,-160,266,68,1,7,11
1.72313E+12,-7989,-1529,-634,-212,311,64,1,7,11
1.72313E+12,-7983,-1810,-396,-519,336,60,1,7,11
1.72313E+12,-8020,-1815,-415,-535,374,32,1,7,11
1.72313E+12,-8060,-1824,-433,-556,145,21,1,7,11
1.72313E+12,-7821,-1842,-437,-599,372,21,1,7,11
1.72313E+12,-7820,-1860,-452,-601,338,31,1,7,11
1.72313E+12,-7835,-1882,-457,-581,316,56,1,7,11
1.72313E+12,-7847,-1698,-445,-553,278,93,1,7,11
1.72313E+12,-7850,-2073,-407,-211,-18,-124,1,7,11
1.72313E+12,-7866,-1950,-614,0,-44,-73,1,7,11
1.72313E+12,-7864,-2310,-577,347,-73,291,1,7,11
1.72313E+12,-7842,-2383,-559,786,-81,188,1,7,11
1.72313E+12,-8058,-2194,-552,1287,-66,627,1,7,11
1.72313E+12,-8026,-2237,-572,1853,-11,804,1,7,11
1.72313E+12,-8004,-2228,-590,2177,306,689,1,7,11
1.72313E+12,-7972,-2414,-620,2739,354,1049,1,7,11
1.72313E+12,-7991,-2031,-385,3243,162,1106,1,7,11
1.72313E+12,-8037,-2145,-398,3896,207,918,1,7,11
1.72313E+12,-7839,-1766,-409,4175,220,987,1,7,11
1.72313E+12,-7888,-1688,-410,4356,185,1284,1,7,11
1.72313E+12,-7883,-1802,-434,4248,364,1282,1,7,11
1.72313E+12,-7865,-1651,-451,4286,282,994,1,7,11
1.72313E+12,-7889,-1243,-450,4225,-38,972,1,7,11
1.72313E+12,-7912,-1391,-419,4054,-128,976,1,7,11
1.72313E+12,-7923,-1323,-596,3833,34,1007,1,7,11
1.72313E+12,-7914,-1306,-553,3860,-312,1297,1,7,11
1.72313E+12,-7902,-1020,-244,3638,-384,1303,1,7,11
1.72313E+12,-7904,-987,-194,3432,-191,1297,1,7,11
1.72313E+12,-7902,-962,-140,2987,-210,1310,1,7,11
1.72313E+12,-7915,-935,-342,3011,-209,1340,1,7,11
1.72313E+12,-7915,-921,-285,2873,-201,1376,1,7,11
1.72313E+12,-7911,-930,17,2486,-190,1392,1,7,11
1.72313E+12,-7891,-950,50,2625,-177,1363,1,7,11
1.72313E+12,-7865,-947,87,2290,-155,1023,1,7,11
1.72313E+12,-7861,-919,114,2232,-368,905,1,7,11
1.72313E+12,-7878,-1136,-124,2426,-323,1039,1,7,11
1.72313E+12,-7882,-1076,-120,2356,-297,674,1,7,11
1.72313E+12,-7900,-755,-106,2012,2,838,1,7,11
1.72313E+12,-7936,-698,-84,2157,45,772,1,7,11
1.72313E+12,-8222,-681,-43,1777,63,472,1,7,11
1.72313E+12,-8226,-685,-33,1906,58,433,1,7,11
1.72313E+12,-8232,-712,-27,1514,55,629,1,7,11
1.72313E+12,-8199,-744,-34,1649,37,547,1,7,11
1.72313E+12,-7912,-746,-61,1543,50,167,1,7,11
1.72313E+12,-7914,-743,-65,1178,99,308,1,7,11
1.72313E+12,-7920,-735,-61,1319,126,-46,1,7,11
1.72313E+12,-7915,-743,-56,953,-99,-128,1,7,11
1.72313E+12,-7927,-738,-49,1108,-64,78,1,7,11
1.72313E+12,-8194,-733,-52,753,-43,64,1,7,11
1.72313E+12,-8219,-742,-44,641,-22,69,1,7,11
1.72313E+12,-8247,-766,-32,786,-23,82,1,7,11
1.72313E+12,-8255,-1053,-25,440,-33,93,1,7,11
1.72313E+12,-8259,-1064,-35,631,-42,100,1,7,11
1.72313E+12,-8271,-1064,-31,570,-48,113,1,7,11
1.72313E+12,-8271,-1058,-37,247,-63,-118,1,7,11
1.72313E+12,-8263,-1052,-38,179,-70,-87,1,7,11
1.72313E+12,-8265,-1041,-36,367,-62,-56,1,7,11
1.72313E+12,-8263,-1041,-23,292,-69,-13,1,7,11
1.72313E+12,-8249,-1066,-12,-29,-81,272,1,7,11
1.72313E+12,-8228,-1083,-2,-76,-89,291,1,7,11
1.72313E+12,-8243,-1090,264,-105,-75,294,1,7,11
1.72313E+12,-8249,-1095,270,123,-82,295,1,7,11
1.72313E+12,-8252,-1097,266,101,-93,290,1,7,11
1.72313E+12,-8226,-1085,275,103,-111,288,1,7,11
1.72313E+12,-8232,-1072,273,89,-105,272,1,7,11
1.72313E+12,-8228,-1075,286,66,-103,269,1,7,11
1.72313E+12,-8230,-1081,303,65,-98,263,1,7,11
1.72313E+12,-8228,-1084,303,77,-91,-4,1,7,11
1.72313E+12,-8223,-1073,305,87,-95,-27,1,7,11
1.72313E+12,-8208,-1079,307,97,-89,-55,1,7,11
1.72313E+12,-8214,-1078,310,125,-64,-81,1,7,11
1.72313E+12,-8217,-1077,311,-110,-45,-106,1,7,11
1.72313E+12,-8222,-1075,305,-92,-28,126,1,7,11
1.72313E+12,-8225,-1078,298,-77,-17,110,1,7,11
1.72313E+12,-8227,-1085,282,-54,-6,98,1,7,11
1.72313E+12,-8222,-1090,276,-38,260,91,1,7,11
1.72313E+12,-8236,-1106,274,-15,277,92,1,7,11
1.72313E+12,-8250,-1106,264,271,285,110,1,7,11
1.72313E+12,-8258,-1108,260,297,286,-118,1,7,11
1.72313E+12,-8277,-1111,256,327,287,-80,1,7,11
1.72313E+12,-8291,-1118,258,363,273,-26,1,7,11
1.72313E+12,-8300,-1131,262,143,262,279,1,7,11
1.72313E+12,-8299,-1141,276,196,-16,330,1,7,11
1.72313E+12,-8301,-906,289,249,-50,368,1,7,11
1.72313E+12,-8294,-926,302,581,-82,145,1,7,11
1.72313E+12,-8295,-938,313,422,-117,173,1,7,11
1.72313E+12,-8297,-940,319,787,103,204,1,7,11
1.72313E+12,-8311,-929,323,647,66,233,1,7,11
1.72313E+12,-8307,-898,313,762,19,533,1,7,11
1.72313E+12,-8298,-1121,327,1124,-270,577,1,7,11
1.72313E+12,-8297,-1086,336,960,-279,628,1,7,11
1.72313E+12,-8298,-1039,339,1302,-286,435,1,7,11
1.72313E+12,-8292,-740,344,1364,-285,490,1,7,11
1.72313E+12,-8303,-714,350,1156,-273,803,1,7,11
1.72313E+12,-8296,-694,361,1198,-265,862,1,7,11
1.72313E+12,-8299,-688,129,1241,-262,649,1,7,11
1.72313E+12,-8312,-700,152,1549,-264,682,1,7,11
1.72313E+12,-8081,-730,166,1643,-272,708,1,7,11
1.72313E+12,-8082,-740,165,1525,-313,725,1,7,11
1.72313E+12,-8084,-710,155,1702,-337,721,1,7,11
1.72313E+12,-8090,-891,355,2146,-345,713,1,7,11
1.72313E+12,-8096,-777,343,2031,-365,708,1,7,11
1.72313E+12,-8083,-476,357,2385,-149,700,1,7,11
1.72313E+12,-8089,-436,383,2221,-227,675,1,7,11
1.72313E+12,-8104,-408,162,2566,-561,645,1,7,11
1.72313E+12,-8099,-639,192,2440,-416,861,1,7,11
1.72313E+12,-8073,-623,219,2528,-784,814,1,7,11
1.72313E+12,-8299,-587,245,2879,-866,776,1,7,11
1.72313E+12,-8320,-565,538,2704,-700,488,1,7,11
1.72313E+12,-8314,-566,581,2738,-1032,478,1,7,11
1.72313E+12,-8252,-549,623,3078,-1077,452,1,7,11
1.72313E+12,-8251,-248,398,3187,-757,418,1,7,11
1.72313E+12,-8270,-220,434,2976,-711,406,1,7,11
1.72313E+12,-8222,-188,462,3023,-673,637,1,7,11
1.72313E+12,-8232,-156,484,3070,-826,598,1,7,11
1.72313E+12,-8218,-365,495,3382,-469,590,1,7,11
1.72313E+12,-8204,-322,769,3409,-606,564,1,7,11
1.72313E+12,-8202,-287,799,3416,-211,539,1,7,11
1.72313E+12,-8258,-267,831,3377,-330,229,1,7,11
1.72313E+12,-8279,-281,859,3035,-278,163,1,7,11
1.72313E+12,-8291,-299,849,3197,-263,327,1,7,11
1.72313E+12,-8258,-138,810,3004,-282,-17,1,7,11
1.72313E+12,-8239,13,815,3323,56,30,1,7,11
1.72313E+12,-8304,-105,822,3311,-119,-162,1,7,11
1.72313E+12,-8120,101,860,2991,-123,-212,1,7,11
1.72313E+12,-8086,95,867,2893,34,-191,1,7,11
1.72313E+12,-8299,94,879,2223,6,-132,1,7,11
1.72313E+12,-8287,82,895,2086,70,-277,1,7,11
1.72313E+12,-8068,67,884,1659,-58,-108,1,7,11
1.72313E+12,-8102,107,840,1299,259,307,1,7,11
1.72313E+12,-8094,119,797,713,-32,366,1,7,11
1.72313E+12,-8070,74,798,777,-51,358,1,7,11
1.72313E+12,-8087,15,818,457,-50,330,1,7,11
1.72313E+12,-8108,-290,878,459,-95,284,1,7,11
1.72313E+12,-8124,-309,683,500,85,-21,1,7,11
1.72313E+12,-8106,-271,703,815,-261,-43,1,7,11
1.72313E+12,-8087,39,687,845,-332,-64,1,7,11
1.72313E+12,-8279,80,679,842,-373,-61,1,7,11
1.72313E+12,-8240,-111,688,810,-338,-62,1,7,11
1.72313E+12,-8219,-35,693,451,-271,-54,1,7,11
1.72313E+12,-8208,283,707,545,65,-52,1,7,11
1.72313E+12,-7911,154,705,346,-121,-52,1,7,11
1.72313E+12,-7899,235,698,63,35,-81,1,7,11
1.72313E+12,-7927,540,691,-569,142,-98,1,7,11
1.72313E+12,-8206,554,664,-653,177,-121,1,7,11
1.72313E+12,-8213,242,889,-1248,175,98,1,7,11
1.72313E+12,-8199,156,886,-1473,199,64,1,7,11
1.72313E+12,-8268,346,883,-1876,535,25,1,7,11
1.72313E+12,-8319,302,848,-1683,527,-278,1,7,11
1.72313E+12,-8076,271,846,-1922,193,-332,1,7,11
1.72313E+12,-8310,263,852,-2320,383,-129,1,7,11
1.72313E+12,-8104,-8,846,-2202,324,-155,1,7,11
1.72313E+12,-8278,-24,835,-2282,-13,-162,1,7,11
1.72313E+12,-8261,-65,835,-2297,301,-177,1,7,11
1.72313E+12,-8208,-70,816,-2230,149,-170,1,7,11
1.72313E+12,-8217,-81,812,-2421,586,-185,1,7,11
1.72313E+12,-8258,-79,816,-2389,476,-192,1,7,11
1.72313E+12,-8273,-93,785,-2195,807,-189,1,7,11
1.72313E+12,-8265,99,774,-2285,876,-177,1,7,11
1.72313E+12,-8264,53,502,-2296,688,-177,1,7,11
1.72313E+12,-8296,39,494,-2274,737,-200,1,7,11
1.72313E+12,-8291,26,456,-2278,749,-196,1,7,11
1.72313E+12,-8293,14,419,-2299,1029,-213,1,7,11
1.72313E+12,-8276,0,633,-2592,1047,-235,1,7,11
1.72313E+12,-8263,-294,577,-2681,1072,-541,1,7,11
1.72313E+12,-8241,-321,533,-2530,1113,-616,1,7,11
1.72313E+12,-8269,-330,218,-2910,935,-448,1,7,11
1.72313E+12,-8305,-379,144,-3090,993,-774,1,7,11
1.72313E+12,-8310,-222,339,-3025,980,-857,1,7,11
1.72313E+12,-8287,-589,282,-3397,935,-717,1,7,11
1.72313E+12,-8283,-432,-20,-3439,1147,-1115,1,7,11
1.72313E+12,-8292,-772,-57,-3423,1092,-992,1,7,11
1.72313E+12,-8304,-820,-91,-3345,756,-1333,1,7,11
1.72313E+12,-8247,-878,125,-2997,657,-1382,1,7,11
1.72313E+12,-8231,-666,127,-2803,655,-1175,1,7,11
1.72313E+12,-8291,-722,-120,-2847,677,-1201,1,7,11
1.72313E+12,-8104,-1050,-111,-2658,651,-1204,1,7,11
1.72313E+12,-8130,-1107,-101,-2234,775,-1197,1,7,11
1.72313E+12,-8072,-922,-99,-2311,621,-1203,1,7,11
1.72313E+12,-8300,-982,-107,-2090,533,-1231,1,7,11
1.72313E+12,-8304,-988,-112,-1835,206,-1267,1,7,11
1.72313E+12,-8319,-973,-128,-1601,371,-1547,1,7,11
1.72313E+12,-8293,-984,113,-1158,-6,-1570,1,7,11
1.72313E+12,-8246,-1009,87,-960,-98,-1597,1,7,11
1.72313E+12,-8249,-991,75,-742,96,-1644,1,7,11
1.72313E+12,-8249,-1002,70,-830,20,-1658,1,7,11
1.72313E+12,-8257,-1291,73,-607,-305,-1411,1,7,11
1.72313E+12,-8253,-1330,76,-175,-367,-1642,1,7,11
1.72313E+12,-8256,-1343,81,-271,-136,-1593,1,7,11
1.72313E+12,-8263,-1367,95,80,-170,-1268,1,7,11
1.72313E+12,-8263,-1153,111,-113,-213,-1202,1,7,11
1.72313E+12,-8263,-1195,-118,-60,-518,-1391,1,7,11
1.72313E+12,-8286,-1216,-99,-10,-568,-1334,1,7,11
1.72313E+12,-8316,-1241,-86,289,-391,-1303,1,7,11
1.72313E+12,-8283,-1229,-82,350,-769,-1001,1,7,11
1.72313E+12,-8243,-1204,-76,142,-832,-947,1,7,11
1.72313E+12,-8276,-1210,-32,183,-834,-1092,1,7,11
1.72313E+12,-8319,-1229,263,241,-856,-890,1,7,11
1.72313E+12,-8120,-1564,324,556,-655,-611,1,7,11
1.72313E+12,-8122,-1423,132,417,-735,-263,1,7,11
1.72313E+12,-8096,-1526,194,860,-1059,338,1,7,11
1.72313E+12,-8297,-1845,245,1095,-1085,398,1,7,11
1.72313E+12,-8272,-1844,542,1351,-1062,667,1,7,11
1.72313E+12,-8255,-1803,572,1575,-1040,909,1,7,11
1.72313E+12,-8243,-1496,602,1498,-753,1355,1,7,11
1.72313E+12,-8220,-1413,624,1904,-721,1253,1,7,11
1.72313E+12,-8216,-1566,385,1730,-675,1613,1,7,11
1.72313E+12,-8218,-1212,407,1749,-874,1419,1,7,11
1.72313E+12,-8251,-1363,425,1733,-812,1437,1,7,11
1.72313E+12,-8276,-1001,453,1679,-771,1436,1,7,11
1.72313E+12,-8267,-1148,492,1846,-500,1414,1,7,11
1.72313E+12,-8256,-1043,779,1461,-488,1643,1,7,11
1.72313E+12,-8241,-705,821,1564,-469,1609,1,7,11
1.72313E+12,-8246,-890,871,1154,-436,1562,1,7,11
1.72313E+12,-8246,-825,655,1007,-410,1259,1,7,11
1.72313E+12,-8234,-498,697,1127,-638,1208,1,7,11
1.72313E+12,-8227,-426,724,739,-596,1405,1,7,11
1.72313E+12,-8227,-634,759,853,-548,1346,1,7,11
1.72313E+12,-8248,-589,1033,463,-243,1288,1,7,11
1.72313E+12,-8259,-555,1061,595,-203,968,1,7,11
1.72313E+12,-8291,-534,1071,234,-164,904,1,7,11
1.72313E+12,-8301,-518,1085,143,-144,1106,1,7,11
1.72313E+12,-8301,-517,1108,338,-380,1054,1,7,11
1.72313E+12,-8304,-240,1124,329,-339,743,1,7,11
1.72313E+12,-8067,-231,905,309,-322,700,1,7,11
1.72313E+12,-8084,-234,918,300,-322,652,1,7,11
1.72313E+12,-8103,-237,949,320,-334,865,1,7,11
1.72313E+12,-8122,-247,971,353,-357,816,1,7,11
1.72313E+12,-8109,-251,995,161,-132,780,1,7,11
1.72313E+12,-8110,-243,1013,238,-137,477,1,7,11
1.72313E+12,-8094,-239,1014,582,-167,445,1,7,11
1.72313E+12,-8282,-130,979,473,-178,425,1,7,11
1.72313E+12,-8272,-269,925,679,-373,483,1,7,11
1.72313E+12,-8290,22,1146,676,-340,823,1,7,11
1.72313E+12,-8319,-267,1151,643,-318,895,1,7,11
1.72313E+12,-8243,-288,910,649,-363,661,1,7,11
1.72313E+12,-8259,-289,902,703,-331,856,1,7,11
1.72313E+12,-8084,14,1134,1025,-336,785,1,7,11
1.72313E+12,-8121,95,1119,1044,-166,443,1,7,11
1.72313E+12,-8097,-88,1129,745,-234,633,1,7,11
1.72313E+12,-8116,-30,1141,694,-514,594,1,7,11
1.72313E+12,-8071,-1,931,894,-560,586,1,7,11
1.72313E+12,-8065,287,978,864,-562,604,1,7,11
1.72313E+12,-8307,308,1018,840,-576,386,1,7,11
1.72313E+12,-8275,312,1312,832,-585,444,1,7,11
1.72313E+12,-8273,293,1368,851,-561,494,1,7,11
1.72313E+12,-8273,274,1173,653,-541,785,1,7,11
1.72313E+12,-8253,287,1203,764,-517,797,1,7,11
1.72313E+12,-8220,355,1193,1140,-227,794,1,7,11
1.72313E+12,-8207,159,1191,942,-162,779,1,7,11
1.72313E+12,-8245,227,1193,977,-340,771,1,7,11
1.72313E+12,-8283,543,1199,970,-314,779,1,7,11
1.72313E+12,-8087,576,1216,939,-322,784,1,7,11
1.72313E+12,-8097,613,1226,912,-383,803,1,7,11
1.72313E+12,-8319,389,1228,1128,-196,811,1,7,11
1.72313E+12,-8285,399,1240,1079,-226,800,1,7,11
1.72313E+12,-8270,393,1269,1042,-227,768,1,7,11
1.72313E+12,-8285,386,1569,764,-225,466,1,7,11
1.72313E+12,-8308,392,1643,758,-234,419,1,7,11
1.72313E+12,-8297,401,1661,762,-256,385,1,7,11
1.72313E+12,-8292,433,1426,1039,-247,618,1,7,11
1.72313E+12,-8251,477,1432,1046,-230,614,1,7,11
1.72313E+12,-8244,772,1432,1035,-168,610,1,7,11
1.72313E+12,-8226,824,1429,766,-364,626,1,7,11
1.72313E+12,-7932,858,1424,760,-299,399,1,7,11
1.72313E+12,-7918,888,1419,749,47,427,1,7,11
1.72313E+12,-7922,658,1413,727,126,470,1,7,11
1.72313E+12,-7936,695,1660,721,-54,791,1,7,11
1.72313E+12,-8194,741,1641,712,257,834,1,7,11
1.72313E+12,-8195,1041,1604,684,325,876,1,7,11
1.72313E+12,-8194,1074,1575,854,365,641,1,7,11
1.72313E+12,-8242,1082,1564,787,146,643,1,7,11
1.72313E+12,-8273,1087,1557,484,148,895,1,7,11
1.72313E+12,-8258,1095,1544,455,376,871,1,7,11
1.72313E+12,-8238,1106,1271,443,374,825,1,7,11
1.72313E+12,-8237,1129,1271,437,376,774,1,7,11
1.72313E+12,-8244,1140,1264,427,357,473,1,7,11
1.72313E+12,-8241,1149,1274,429,342,433,1,7,11
1.72313E+12,-8246,917,1275,449,323,411,1,7,11
1.72313E+12,-8240,949,1262,475,300,399,1,7,11
1.72313E+12,-8217,992,1235,499,289,402,1,7,11
1.72313E+12,-7934,1292,1203,507,299,407,1,7,11
1.72313E+12,-7927,1336,1168,496,341,409,1,7,11
1.72313E+12,-7935,1363,1404,457,377,413,1,7,11
1.72313E+12,-7933,1374,1392,409,146,415,1,7,11
1.72313E+12,-8228,1390,1371,622,174,406,1,7,11
1.72313E+12,-8283,1155,1353,574,175,404,1,7,11
1.72313E+12,-8279,1161,1338,523,135,407,1,7,11
1.72313E+12,-8248,1162,1313,222,367,394,1,7,11
1.72313E+12,-7927,1398,986,344,353,574,1,7,11
1.72313E+12,-7933,1379,987,325,370,514,1,7,11
1.72313E+12,-8193,1371,1010,343,374,206,1,7,11
1.72313E+12,-8223,1389,1293,382,370,158,1,7,11
1.72313E+12,-8235,1172,1312,169,330,148,1,7,11
1.72313E+12,-8215,1216,1324,211,285,163,1,7,11
1.72313E+12,-7915,1542,1314,245,-1,208,1,7,11
1.72313E+12,-7887,1545,1295,239,-18,539,1,7,11
1.72313E+12,-7881,1266,1301,206,-3,551,1,7,11
1.72313E+12,-7902,1231,1319,187,262,530,1,7,11
1.72313E+12,-7920,1216,1344,221,-6,231,1,7,11
1.72313E+12,-8194,1245,1362,529,-17,173,1,7,11
1.72313E+12,-8212,1550,1376,554,-39,135,1,7,11
1.72313E+12,-8197,1596,1375,558,-72,374,1,7,11
1.72313E+12,-7914,1632,1361,543,-85,365,1,7,11
1.72313E+12,-7888,1644,1348,244,-79,362,1,7,11
1.72313E+12,-7876,1627,1351,189,-60,344,1,7,11
1.72313E+12,-7878,1596,1353,142,-38,308,1,7,11
1.72313E+12,-7888,1558,1354,358,-23,-9,1,7,11
1.72313E+12,-7895,1270,1360,339,-12,-88,1,7,11
1.72313E+12,-7936,1271,1375,341,-5,88,1,7,11
1.72313E+12,-8229,1547,1395,351,-18,39,1,7,11
1.72313E+12,-8248,1587,1407,357,-55,38,1,7,11
1.72313E+12,-8224,1620,1157,341,-90,80,1,7,11
1.72313E+12,-7922,1626,1400,305,-94,-115,1,7,11
1.72313E+12,-7889,1616,1381,268,-58,-55,1,7,11
1.72313E+12,-7867,1607,1364,-9,259,-5,1,7,11
1.72313E+12,-7847,1609,1323,-14,333,296,1,7,11
1.72313E+12,-7843,1617,1288,-13,163,334,1,7,11
1.72313E+12,-7867,1644,1003,257,254,134,1,7,11
1.72313E+12,-7880,1423,978,282,577,227,1,7,11
1.72313E+12,-7888,1456,960,312,626,604,1,7,11
1.72313E+12,-7917,1486,948,357,399,490,1,7,11
1.72313E+12,-8193,1496,935,152,391,894,1,7,11
1.72313E+12,-8200,1497,936,222,607,762,1,7,11
1.72313E+12,-8212,1487,933,564,549,1104,1,7,11
1.72313E+12,-8222,1475,922,414,227,899,1,7,11
1.72313E+12,-8208,1471,932,787,134,908,1,7,11
1.72313E+12,-8205,1467,954,644,300,1135,1,7,11
1.72313E+12,-8199,1469,956,763,-47,1073,1,7,11
1.72313E+12,-7867,1450,945,1126,59,751,1,7,11
1.72313E+12,-8038,1409,898,976,-343,666,1,7,11
1.72313E+12,-7976,1610,1095,1325,-359,868,1,7,11
1.72313E+12,-7969,1566,757,1175,-325,487,1,7,11
1.72313E+12,-7638,1262,675,1543,-282,575,1,7,11
1.72313E+12,-7554,1215,857,1408,107,192,1,7,11
1.72313E+12,-7639,1231,493,1887,318,353,1,7,11
1.72313E+12,-7983,1273,612,1726,209,314,1,7,11
1.72313E+12,-7848,1586,190,1783,627,299,1,7,11
1.72313E+12,-8199,1646,265,1782,511,347,1,7,11
1.72313E+12,-8296,1449,100,1731,661,157,1,7,11
1.72313E+12,-8117,1483,-280,1871,764,512,1,7,11
1.72313E+12,-8158,1479,-350,1452,1047,610,1,7,11
1.72313E+12,-8154,1446,-153,1279,742,441,1,7,11
1.72313E+12,-8108,1648,-205,1360,887,476,1,7,11
1.72313E+12,-8259,1588,-236,937,467,461,1,7,11
1.72313E+12,-7885,1275,-252,1056,584,386,1,7,11
1.72313E+12,-7816,1273,-249,711,215,557,1,7,11
1.72313E+12,-8002,1561,-519,643,348,512,1,7,11
1.72313E+12,-7954,1613,-525,831,-18,250,1,7,11
1.72313E+12,-7981,1420,-545,495,-116,554,1,7,11
1.72313E+12,-7965,1453,-544,396,0,639,1,7,11
1.72313E+12,-7617,1450,-541,556,-142,459,1,7,11
1.72313E+12,-7771,1442,-540,247,-206,490,1,7,11
1.72313E+12,-7760,1461,-548,227,-174,471,1,7,11
1.72313E+12,-7744,1498,-564,207,-381,430,1,7,11
1.72313E+12,-7794,1838,-582,190,-263,622,1,7,11
1.72313E+12,-7612,1679,-604,152,118,576,1,7,11
1.72313E+12,-8025,1763,-624,310,266,527,1,7,11
1.72313E+12,-8175,2100,-627,-68,232,208,1,7,11
1.72313E+12,-8741,2135,-615,-297,383,248,1,7,11
1.72313E+12,-8466,1664,-236,-531,71,201,1,7,11
1.72313E+12,-8347,1907,-170,-581,-74,274,1,7,11
1.72313E+12,-8663,1853,-378,-413,-101,-68,1,7,11
1.72313E+12,-8408,1530,-322,-797,-216,62,1,7,11
1.72313E+12,-8139,1815,29,-798,-430,-263,1,7,11
1.72313E+12,-7824,1870,-120,-775,-850,43,1,7,11
1.72313E+12,-7584,1727,-19,-486,-870,-64,1,7,11
1.72313E+12,-7373,2122,319,-491,-883,181,1,7,11
1.72313E+12,-7523,2005,137,-793,-833,446,1,7,11
1.72313E+12,-7504,2342,223,-882,-781,718,1,7,11
1.72313E+12,-7451,2376,574,-672,-508,952,1,7,11
1.72313E+12,-7155,2186,639,-883,-455,1365,1,7,11
1.72313E+12,-7457,2576,461,-776,-586,1209,1,7,11
1.72313E+12,-7363,2530,770,-637,-177,1542,1,7,11
1.72313E+12,-7611,2756,837,-559,-336,1596,1,7,11
1.72313E+12,-7832,3199,651,-565,-346,1653,1,7,11
1.72313E+12,-7872,3332,728,-614,-168,1459,1,7,11
1.72313E+12,-7842,3446,1069,-403,-205,1487,1,7,11
1.72313E+12,-7943,3292,1142,-441,-256,1506,1,7,11
1.72313E+12,-7444,3668,1290,-502,-170,1642,1,7,11
1.72313E+12,-7295,3682,1346,-792,-279,1538,1,7,11
1.72313E+12,-7223,3457,1399,-785,-120,1191,1,7,11
1.72313E+12,-6893,3515,1162,-512,-7,1400,1,7,11
1.72313E+12,-6848,3572,1173,-508,131,1355,1,7,11
1.72313E+12,-7194,3856,1152,-784,514,1321,1,7,11
1.72313E+12,-7274,3885,1153,-777,575,1305,1,7,11
1.72313E+12,-7078,3731,1377,-487,612,1310,1,7,11
1.72313E+12,-7076,4130,1351,-506,385,1338,1,7,11
1.72313E+12,-7056,4222,1369,-847,455,1376,1,7,11
1.72313E+12,-7046,4013,1397,-695,783,1176,1,7,11
1.72313E+12,-7259,3995,1192,-1056,826,1185,1,7,11
1.72313E+12,-7253,4164,1233,-1094,858,1365,1,7,11
1.72313E+12,-7221,3807,1259,-744,807,920,1,7,11
1.72313E+12,-6888,3759,1235,-770,477,659,1,7,11
1.72313E+12,-6857,3820,1173,-217,436,396,1,7,11
1.72313E+12,-6819,4164,1366,-258,626,204,1,7,11
1.72313E+12,-6872,4193,1290,-104,624,347,1,7,11
1.72313E+12,-7204,4122,1285,-41,552,310,1,7,11
1.72313E+12,-7175,3801,1309,281,378,-19,1,7,11
1.72313E+12,-7182,3805,1315,219,295,-62,1,7,11
1.72313E+12,-7170,3772,1341,548,-29,-95,1,7,11
1.72313E+12,-7218,3798,1356,388,-42,-70,1,7,11
1.72313E+12,-7277,4102,1359,422,-67,293,1,7,11
1.72313E+12,-7279,3804,1356,622,51,168,1,7,11
1.72313E+12,-7180,3715,1390,620,-329,242,1,7,11
1.72313E+12,-7229,3763,1377,461,-297,533,1,7,11
1.72313E+12,-7285,3838,1378,469,-318,612,1,7,11
1.72313E+12,-7261,4126,1384,493,-332,415,1,7,11
1.72313E+12,-7196,4200,1366,848,-349,469,1,7,11
1.72313E+12,-6990,4001,1348,733,-324,469,1,7,11
1.72313E+12,-6963,4407,1310,920,-100,437,1,7,11
1.72313E+12,-6935,4233,986,968,298,443,1,7,11
1.72313E+12,-6610,4477,959,949,184,638,1,7,11
1.72313E+12,-6791,4263,908,973,428,536,1,7,11
1.72313E+12,-7271,4240,1131,934,459,230,1,7,11
1.72313E+12,-7088,4457,1084,942,386,199,1,7,11
1.72313E+12,-7138,4468,725,954,555,143,1,7,11
1.72313E+12,-7113,4229,640,924,212,349,1,7,11
1.72313E+12,-7080,4447,805,1073,147,341,1,7,11
1.72313E+12,-7231,4043,771,711,363,323,1,7,11
1.72313E+12,-6894,4152,468,726,159,280,1,7,11
1.72313E+12,-6835,3741,411,1048,236,-46,1,7,11
1.72313E+12,-6800,3582,603,907,592,107,1,7,11
1.72313E+12,-6802,3481,253,1323,453,-267,1,7,11
1.72313E+12,-6861,3699,375,1226,835,-363,1,7,11
1.72313E+12,-6892,3462,-35,1603,662,-152,1,7,11
1.72313E+12,-7180,3532,75,1411,744,-159,1,7,11
1.72313E+12,-7215,3873,-313,1640,1056,-375,1,7,11
1.72313E+12,-7219,3920,-163,1537,1061,-318,1,7,11
1.72313E+12,-7195,3958,-256,1175,1038,-279,1,7,11
1.72313E+12,-7174,3783,-606,1335,760,-287,1,7,11
1.72313E+12,-6897,3829,-431,926,718,-341,1,7,11
1.72313E+12,-6885,3839,-490,764,667,-193,1,7,11
1.72313E+12,-6895,3808,-789,873,853,-597,1,7,11
1.72313E+12,-7179,3967,-802,768,781,-825,1,7,11
1.72313E+12,-7181,3893,-822,450,396,-698,1,7,11
1.72313E+12,-7181,3550,-828,427,590,-1061,1,7,11
1.72313E+12,-7200,3482,-837,466,556,-1136,1,7,11
1.72313E+12,-7213,3682,-850,784,534,-915,1,7,11
1.72313E+12,-7223,3637,-871,853,529,-903,1,7,11
1.72313E+12,-7205,3586,-876,657,533,-1113,1,7,11
1.72313E+12,-7194,3295,-643,732,563,-1050,1,7,11
1.72313E+12,-7192,3251,-679,1037,604,-736,1,7,11
1.72313E+12,-7175,3441,-729,1052,387,-707,1,7,11
1.72313E+12,-7171,3390,-1040,1078,458,-714,1,7,11
1.72313E+12,-7200,3343,-1086,1088,797,-738,1,7,11
1.72313E+12,-7264,3334,-1127,1108,872,-752,1,7,11
1.72313E+12,-7064,3338,-921,1103,645,-731,1,7,11
1.72313E+12,-7059,3053,-974,1064,892,-684,1,7,11
1.72313E+12,-7051,3031,-1297,767,654,-644,1,7,11
1.72313E+12,-7288,3024,-1372,715,682,-861,1,7,11
1.72313E+12,-7285,3030,-1161,652,729,-837,1,7,11
1.72313E+12,-7068,3031,-1167,827,767,-800,1,7,11
1.72313E+12,-7130,3007,-1177,486,755,-483,1,7,11
1.72313E+12,-7438,2986,-1189,421,685,-404,1,7,11
1.72313E+12,-7430,2955,-1215,621,817,-584,1,7,11
1.72313E+12,-7151,3192,-1234,590,457,-530,1,7,11
1.72313E+12,-7118,3176,-1267,564,627,-233,1,7,11
1.72313E+12,-7102,3165,-1544,537,560,-198,1,7,11
1.72313E+12,-7080,3162,-1572,254,249,-166,1,7,11
1.72313E+12,-7069,3162,-1600,229,201,-143,1,7,11
1.72313E+12,-7073,3155,-1609,205,166,-379,1,7,11
1.72313E+12,-7097,3136,-1599,189,131,-354,1,7,11
1.72313E+12,-7111,3109,-1584,197,341,-314,1,7,11
1.72313E+12,-7117,3084,-1578,229,297,-301,1,7,11
1.72313E+12,-7100,2799,-1570,536,-9,-264,1,7,11
1.72313E+12,-7079,2748,-1567,629,-77,-257,1,7,11
1.72313E+12,-7083,2712,-1569,450,-88,-276,1,7,11
1.72313E+12,-7082,2701,-1594,799,-101,-297,1,7,11
1.72313E+12,-7050,2734,-1647,882,-91,-334,1,7,11
1.72313E+12,-7044,2792,-1450,673,-29,-359,1,7,11
1.72313E+12,-7044,3118,-1508,656,305,-362,1,7,11
1.72313E+12,-7043,3169,-1809,846,382,-349,1,7,11
1.72313E+12,-7284,3196,-1840,499,189,-319,1,7,11
1.72313E+12,-7286,2958,-1864,399,246,-291,1,7,11
1.72313E+12,-7263,2962,-1892,547,517,-264,1,7,11
1.72313E+12,-7250,2949,-1908,187,529,-260,1,7,11
1.72313E+12,-7258,3180,-1908,348,535,-269,1,7,11
1.72313E+12,-7264,3139,-1909,268,251,-293,1,7,11
1.72313E+12,-7293,3095,-1887,-43,222,-339,1,7,11
1.72313E+12,-7079,2798,-1882,-67,168,-129,1,7,11
1.72313E+12,-7134,2907,-1825,-40,-62,-227,1,7,11
1.72313E+12,-7140,2861,-1807,259,-118,-240,1,7,11
1.72313E+12,-7137,2825,-1531,310,96,-237,1,7,11
1.72313E+12,-7125,2527,-1505,350,69,-232,1,7,11
1.72313E+12,-7110,2468,-1477,133,57,-231,1,7,11
1.72313E+12,-7102,2667,-1460,183,67,-249,1,7,11
1.72313E+12,-7122,2617,-1452,243,98,-554,1,7,11
1.72313E+12,-7137,2618,-1457,558,-121,-569,1,7,11
1.72313E+12,-7152,2631,-1473,606,-87,-583,1,7,11
1.72313E+12,-7150,2636,-1482,627,-32,-569,1,7,11
1.72313E+12,-7160,2632,-1493,618,264,-542,1,7,11
1.72313E+12,-7151,2633,-1510,607,296,-515,1,7,11
1.72313E+12,-7133,2635,-1795,599,333,-237,1,7,11
1.72313E+12,-7125,2645,-1822,579,379,-212,1,7,11
1.72313E+12,-7128,2656,-1853,544,166,-188,1,7,11
1.72313E+12,-7135,2665,-1884,244,194,-159,1,7,11
1.72313E+12,-7122,2657,-1911,188,206,-140,1,7,11
1.72313E+12,-7135,2641,-1681,137,225,-138,1,7,11
1.72313E+12,-7144,2646,-1717,354,219,-136,1,7,11
1.72313E+12,-7167,2665,-1737,307,202,-145,1,7,11
1.72313E+12,-7441,2677,-1756,-5,167,-135,1,7,11
1.72313E+12,-7442,2437,-1778,-52,373,-365,1,7,11
1.72313E+12,-7431,2460,-1783,-90,324,-325,1,7,11
1.72313E+12,-7156,2479,-2052,127,278,-276,1,7,11
1.72313E+12,-7153,2493,-1792,84,-16,21,1,7,11
1.72313E+12,-7157,2491,-1770,43,-62,55,1,7,11
1.72313E+12,-7149,2487,-1749,24,-111,81,1,7,11
1.72313E+12,-7144,2485,-1713,23,103,87,1,7,11
1.72313E+12,-7138,2486,-1693,26,67,85,1,7,11
1.72313E+12,-7136,2496,-1680,35,44,77,1,7,11
1.72313E+12,-7137,2495,-1910,40,32,67,1,7,11
1.72313E+12,-7154,2496,-1882,47,25,52,1,7,11
1.72313E+12,-7162,2485,-1862,63,18,39,1,7,11
1.72313E+12,-7165,2481,-1846,86,13,21,1,7,11
1.72313E+12,-7154,2473,-1828,100,0,-258,1,7,11
1.72313E+12,-7154,2462,-1825,111,12,-291,1,7,11
1.72313E+12,-7163,2453,-1821,119,26,-318,1,7,11
1.72313E+12,-7164,2452,-1826,-125,41,-338,1,7,11
1.72313E+12,-7148,2459,-1832,-125,59,-352,1,7,11
1.72313E+12,-7129,2466,-1840,113,87,-358,1,7,11
1.72313E+12,-7115,2477,-1856,86,114,-363,1,7,11
1.72313E+12,-7111,2479,-1858,45,-99,-364,1,7,11
1.72313E+12,-7115,2475,-1870,-266,-79,-369,1,7,11
1.72313E+12,-7128,2462,-1875,-351,-73,-375,1,7,11
1.72313E+12,-7135,2439,-1880,-157,-79,-133,1,7,11
1.72313E+12,-7162,2674,-1869,-216,-82,-152,1,7,11
1.72313E+12,-7454,2648,-1854,-520,-97,-167,1,7,11
1.72313E+12,-7482,2628,-1838,-560,125,-170,1,7,11
1.72313E+12,-7494,2606,-1823,-592,83,-160,1,7,11
1.72313E+12,-7499,2579,-1798,-621,37,-149,1,7,11
1.72313E+12,-7505,2298,-1535,-634,-258,-137,1,7,11
1.72313E+12,-7504,2283,-1525,-631,-288,-377,1,7,11
1.72313E+12,-7496,2273,-1521,-634,-306,-361,1,7,11
1.72313E+12,-7489,2259,-1507,-392,-304,-351,1,7,11
1.72313E+12,-7488,2235,-1490,-411,-291,-349,1,7,11
1.72313E+12,-7487,2207,-1477,-414,-274,-358,1,7,11
1.72313E+12,-7498,2189,-1466,-407,16,-376,1,7,11
1.72313E+12,-7520,2189,-1461,-405,45,-131,1,7,11
1.72313E+12,-7528,2191,-1473,-407,59,-136,1,7,11
1.72313E+12,-7528,2194,-1476,-428,77,-138,1,7,11
1.72313E+12,-7510,2191,-1478,-461,88,-136,1,7,11
1.72313E+12,-7508,2195,-1472,-491,108,-136,1,7,11
1.72313E+12,-7535,2203,-1447,-797,119,-135,1,7,11
1.72313E+12,-7333,2195,-1414,-851,114,-376,1,7,11
1.72313E+12,-7401,2409,-1622,-891,78,-330,1,7,11
1.72313E+12,-7698,2321,-1276,-858,19,26,1,7,11
1.72313E+12,-7749,1984,-1195,-420,-301,-30,1,7,11
1.72313E+12,-7711,1932,-1171,-361,-146,540,1,7,11
1.72313E+12,-7394,1942,-1184,280,-202,889,1,7,11
1.72313E+12,-7361,1996,-1208,407,-215,1008,1,7,11
1.72313E+12,-7330,2328,-1244,751,-225,1650,1,7,11
1.72313E+12,-7302,2400,-1245,1019,-249,1760,1,7,11
1.72313E+12,-7544,2179,-1227,1210,-525,2341,1,7,11
1.72313E+12,-7323,2409,-1200,1622,-572,2631,1,7,11
1.72313E+12,-7528,2378,-1202,1893,-804,2751,1,7,11
1.72313E+12,-7435,2366,-1227,2098,-730,3172,1,7,11
1.72313E+12,-7043,2379,-1275,2041,-1144,3007,1,7,11
1.72313E+12,-6910,2414,-1604,2214,-995,3022,1,7,11
1.72313E+12,-6819,2252,-1437,2646,-1012,2968,1,7,11
1.72313E+12,-7037,2659,-1816,2507,-994,3143,1,7,11
1.72313E+12,-7008,2828,-1681,2555,-942,2788,1,7,11
1.72313E+12,-7001,2725,-1778,2510,-1116,2699,1,7,11
1.72313E+12,-6955,3118,-2130,2433,-762,2880,1,7,11
1.72313E+12,-6945,3048,-2001,2599,-846,2817,1,7,11
1.72313E+12,-6951,3242,-2395,2413,-628,2518,1,7,11
1.72313E+12,-6913,3640,-2239,2106,-141,2476,1,7,11
1.72313E+12,-6596,3466,-2567,1483,-118,2671,1,7,11
1.72313E+12,-6759,3549,-2641,1361,204,2588,1,7,11
1.72313E+12,-5966,4016,-2806,-1082,2087,1456,1,7,11
1.72313E+12,-5562,4266,-3160,-1740,2438,1021,1,7,11
1.72313E+12,-5526,4718,-3198,-3137,3062,794,1,7,11
1.72313E+12,-5570,4567,-2955,-4414,3881,289,1,7,11
1.72313E+12,-5968,4574,-2976,-5697,4369,-210,1,7,11
1.72313E+12,-6179,4530,-3006,-6640,4535,-669,1,7,11
1.72313E+12,-6133,4697,-3020,-7982,4848,-1311,1,7,11
1.72313E+12,-6449,4249,-2990,-8653,5076,-1619,1,7,11
1.72313E+12,-6340,4091,-2949,-9551,5699,-1896,1,7,11
1.72313E+12,-6567,4022,-3177,-9728,5808,-1783,1,7,11
1.72313E+12,-6925,3968,-3105,-10300,6048,-2069,1,7,11
1.72313E+12,-6715,4132,-2751,-10538,6433,-1785,1,7,11
1.72313E+12,-6140,3831,-2860,-10430,6662,-2077,1,7,11
1.72313E+12,-5942,4100,-2682,-10835,6650,-2132,1,7,11
1.72313E+12,-5323,4214,-2226,-10724,7042,-2025,1,7,11
1.72313E+12,-5052,4466,-2044,-10954,7686,-2177,1,7,11
1.72313E+12,-5205,4552,-2082,-11557,7869,-2619,1,7,11
1.72313E+12,-5096,5231,-1743,-12066,8342,-2528,1,7,11
1.72313E+12,-5651,5431,-1680,-12839,8989,-2929,1,7,11
1.72313E+12,-5579,5573,-1860,-13500,8922,-2691,1,7,11
1.72313E+12,-5923,5921,-1479,-14695,9157,-3300,1,7,11
1.72313E+12,-5807,5945,-1557,-15653,9597,-3945,1,7,11
1.72313E+12,-6208,5953,-1354,-16299,10102,-4000,1,7,11
1.72313E+12,-6048,5954,-906,-17258,10284,-4458,1,7,11
1.72313E+12,-6443,5622,-724,-18497,10176,-4336,1,7,11
1.72313E+12,-6325,5662,-508,-18826,10236,-4652,1,7,11
1.72313E+12,-6384,5080,-531,-19176,10219,-4671,1,7,11
1.72313E+12,-6659,4975,-320,-19475,10157,-4651,1,7,11
1.72313E+12,-6277,4312,-121,-19214,10310,-4619,1,7,11
1.72313E+12,-6442,4214,264,-18332,10322,-4327,1,7,11
1.72313E+12,-6428,3937,306,-17698,10359,-4251,1,7,11
1.72313E+12,-6283,3468,288,-16377,10131,-4441,1,7,11
1.72313E+12,-6579,3300,277,-15462,10357,-4093,1,7,11
1.72313E+12,-7245,3435,283,-14208,9887,-4172,1,7,11
1.72313E+12,-7384,3362,322,-12900,9433,-3893,1,7,11
1.72313E+12,-7617,2996,377,-11586,9005,-3272,1,7,11
1.72313E+12,-7979,3166,189,-9969,8257,-3175,1,7,11
1.72313E+12,-7998,3092,255,-8608,7503,-2830,1,7,11
1.72313E+12,-7992,3096,537,-7520,6542,-2273,1,7,11
1.72313E+12,-7953,3136,583,-6084,5842,-1998,1,7,11
1.72313E+12,-7658,3162,384,-5062,5438,-1744,1,7,11
1.72313E+12,-7605,2975,418,-4392,4574,-1464,1,7,11
1.72313E+12,-7788,3000,447,-3673,4203,-1196,1,7,11
1.72313E+12,-7355,2965,470,-2757,3651,-962,1,7,11
1.72313E+12,-7537,3026,452,-2369,2991,-1057,1,7,11
1.72313E+12,-7142,3366,436,-1854,2884,-655,1,7,11
1.72313E+12,-7048,3221,407,-1168,2679,-817,1,7,11
1.72313E+12,-7272,3312,639,-913,2295,-507,1,7,11
1.72313E+12,-7055,3628,597,-700,2264,-463,1,7,11
1.72313E+12,-7129,3481,578,-852,2183,-625,1,7,11
1.72313E+12,-7062,3487,528,-819,2347,-532,1,7,11
1.72313E+12,-7084,3569,155,-770,2374,-187,1,7,11
1.72313E+12,-7119,3869,375,-840,2388,-362,1,7,11
1.72313E+12,-7471,3565,135,-695,2336,29,1,7,11
1.72313E+12,-7455,3459,181,-1074,1954,88,1,7,11
1.72313E+12,-7159,3592,231,-1067,2107,91,1,7,11
1.72313E+12,-7158,3265,249,-723,1784,61,1,7,11
1.72313E+12,-7129,3213,528,-641,1683,10,1,7,11
1.72313E+12,-7085,3441,552,-776,1872,-300,1,7,11
1.72313E+12,-7055,3451,576,-404,1831,-328,1,7,11
1.72313E+12,-7266,3443,593,-573,1795,-336,1,7,11
1.72313E+12,-7251,3431,592,-225,1796,-342,1,7,11
1.72313E+12,-7270,3410,594,-380,1794,-351,1,7,11
1.72313E+12,-7295,3399,575,-283,1497,-357,1,7,11
1.72313E+12,-7079,3397,534,73,1446,-353,1,7,11
1.72313E+12,-7102,3395,241,-97,1587,-328,1,7,11
1.72313E+12,-7117,3357,188,-3,1214,-304,1,7,11
1.72313E+12,-7313,3351,313,171,1195,1,1,7,11
1.72313E+12,-7825,3221,13,421,1551,106,1,7,11
1.72313E+12,-8748,3515,-605,849,1545,372,1,7,11
1.72313E+12,-8630,3863,-783,432,1089,485,1,7,11
1.72313E+12,-8332,3511,-890,596,434,1059,1,7,11
1.72313E+12,-7638,3634,-641,238,-54,1366,1,7,11
1.72313E+12,-6392,3368,-666,566,-239,1263,1,7,11
1.72313E+12,-5917,3627,-942,917,104,1252,1,7,11
1.72313E+12,-5713,4042,-1621,1600,603,1633,1,7,11
1.72313E+12,-5690,4921,-2053,1633,710,1908,1,7,11
1.72313E+12,-5758,5389,-2420,1190,949,1962,1,7,11
1.72313E+12,-5911,5655,-2538,905,1327,2203,1,7,11
1.72313E+12,-6005,5742,-2700,648,1016,2582,1,7,11
1.72313E+12,-6008,5522,-3099,511,1105,2286,1,7,11
1.72313E+12,-5896,5591,-2999,474,881,2383,1,7,11
1.72313E+12,-5746,5952,-3387,490,480,1922,1,7,11
1.72313E+12,-5642,5966,-3421,406,588,1748,1,7,11
1.72313E+12,-5645,5919,-3363,534,244,1805,1,7,11
1.72313E+12,-5353,5504,-2959,134,-6,1485,1,7,11
1.72313E+12,-5292,5300,-2788,267,15,1410,1,7,11
1.72313E+12,-5443,5112,-2899,274,-522,1627,1,7,11
1.72313E+12,-5053,5183,-2541,309,-774,1580,1,7,11
1.72313E+12,-5229,4784,-2496,379,-658,1545,1,7,11
1.72313E+12,-5155,4941,-2480,167,-719,1261,1,7,11
1.72313E+12,-4851,4588,-2451,181,-669,1201,1,7,11
1.72313E+12,-5126,4536,-2663,205,-511,1386,1,7,11
1.72313E+12,-5202,4501,-2606,199,-592,1315,1,7,11
1.72313E+12,-5003,4734,-2294,198,-200,1010,1,7,11
1.72313E+12,-5074,4490,-2272,218,-328,984,1,7,11
1.72313E+12,-5405,4542,-2288,226,43,988,1,7,11
1.72313E+12,-5490,4594,-2581,195,123,1017,1,7,11
1.72313E+12,-5257,4890,-2617,137,-115,1322,1,7,11
1.72313E+12,-5483,4925,-2657,317,-112,1345,1,7,11
1.72313E+12,-5450,4976,-2443,-16,-90,1348,1,7,11
1.72313E+12,-5435,4810,-2491,-127,-86,1340,1,7,11
1.72313E+12,-5415,4861,-2529,-283,-125,1320,1,7,11
1.72313E+12,-5384,5181,-2823,-153,69,1315,1,7,11
1.72313E+12,-5102,4995,-2859,-528,-265,1308,1,7,11
1.72313E+12,-5088,5086,-2882,-633,-338,1311,1,7,11
1.72313E+12,-5111,5456,-2894,-474,-148,1326,1,7,11
1.72313E+12,-5120,5311,-2887,-837,-255,1359,1,7,11
1.72313E+12,-5388,5654,-2869,-694,-631,1362,1,7,11
1.72313E+12,-5109,5689,-2557,-1078,-786,1323,1,7,11
1.72313E+12,-5069,5695,-2479,-916,-686,956,1,7,11
1.72313E+12,-5018,5715,-2628,-972,-1100,1049,1,7,11
1.72313E+12,-5205,5745,-2269,-1009,-1000,869,1,7,11
1.72313E+12,-4849,5522,-2426,-1303,-1372,431,1,7,11
1.72313E+12,-4771,5542,-2327,-1374,-1398,243,1,7,11
1.72313E+12,-5093,5622,-2132,-1173,-965,195,1,7,11
1.72313E+12,-5705,5966,-1693,-1232,-708,112,1,7,11
1.72313E+12,-5669,5893,-1433,-1496,-1095,44,1,7,11
1.72313E+12,-5707,5582,-1376,-1533,-1064,-352,1,7,11
1.72313E+12,-5584,5607,-1093,-1484,-1079,-374,1,7,11
1.72313E+12,-5948,5942,-819,-1618,-951,-277,1,7,11
1.72313E+12,-5770,5818,-572,-1205,-1153,-39,1,7,11
1.72313E+12,-5587,5874,-325,-1366,-1795,549,1,7,11
1.72313E+12,-5432,5831,-58,-1008,-2157,778,1,7,11
1.72313E+12,-4746,5761,193,-1110,-2333,880,1,7,11
1.72313E+12,-4715,6005,407,-877,-2037,881,1,7,11
1.72313E+12,-4346,5862,815,-626,-2144,854,1,7,11
1.72313E+12,-4635,6061,648,-149,-1915,843,1,7,11
1.72313E+12,-4521,6308,698,-273,-1624,884,1,7,11
1.72313E+12,-4936,6775,737,4,-1343,704,1,7,11
1.72313E+12,-4833,6932,759,-281,-1038,758,1,7,11
1.72313E+12,-5133,6793,728,-349,-776,1055,1,7,11
1.72313E+12,-4776,6856,649,-174,-239,1030,1,7,11
1.72313E+12,-4594,6908,501,-236,112,713,1,7,11
1.72313E+12,-4680,7175,562,-572,513,893,1,7,11
1.72313E+12,-4320,6868,347,-410,646,825,1,7,11
1.72313E+12,-4283,6987,-78,-499,933,501,1,7,11
1.72313E+12,-4315,6545,66,-510,1345,404,1,7,11
1.72313E+12,-4659,6394,-269,-427,1324,559,1,7,11
1.72313E+12,-4685,6522,-314,-549,1091,214,1,7,11
1.72313E+12,-4656,6459,-341,-378,494,131,1,7,11
1.72313E+12,-4330,6448,-367,54,128,327,1,7,11
1.72313E+12,-4255,6498,-366,-34,68,285,1,7,11
1.72313E+12,-4388,6343,-364,377,-215,276,1,7,11
1.72313E+12,-4388,6765,-372,543,-576,-10,1,7,11
1.72313E+12,-4963,6837,-162,783,-319,-24,1,7,11
1.72313E+12,-5276,7507,-215,828,-528,538,1,7,11
1.72313E+12,-4955,7439,-378,610,-919,602,1,7,11
1.72313E+12,-4779,7551,-331,455,-1058,331,1,7,11
1.72313E+12,-4082,7058,-288,242,-1401,-365,1,7,11
1.72313E+12,-4110,7264,-350,582,-914,-848,1,7,11
1.72313E+12,-3804,7224,-188,242,-890,-970,1,7,11
1.72313E+12,-3837,6874,-247,368,-404,-1554,1,7,11
1.72313E+12,-4196,6831,-573,-41,-202,-1850,1,7,11
1.72313E+12,-4373,7023,-610,0,-323,-2131,1,7,11
1.72313E+12,-4327,6987,-640,-207,2,-2400,1,7,11
1.72313E+12,-4565,6990,-405,-430,33,-2680,1,7,11
1.72313E+12,-4817,6998,-394,-711,13,-2689,1,7,11
1.72313E+12,-5015,6953,-600,-1313,-342,-2950,1,7,11
1.72313E+12,-5402,6560,-514,-1423,-231,-3205,1,7,11
1.72313E+12,-5257,6379,-171,-1748,-587,-3702,1,7,11
1.72313E+12,-5333,6402,-345,-2036,-417,-3912,1,7,11
1.72313E+12,-5369,5881,10,-2253,-463,-3832,1,7,11
1.72313E+12,-5692,5625,109,-2647,-450,-3980,1,7,11
1.72313E+12,-5506,5638,-56,-2472,-424,-4358,1,7,11
1.72313E+12,-5913,5459,302,-2493,-629,-4226,1,7,11
1.72313E+12,-5847,5003,157,-2526,-404,-4340,1,7,11
1.72313E+12,-6293,4327,480,-2258,-702,-4613,1,7,11
1.72313E+12,-6357,4422,815,-2045,-748,-4257,1,7,11
1.72313E+12,-6721,4022,891,-2103,-727,-4372,1,7,11
1.72313E+12,-6581,4127,711,-1680,-710,-4189,1,7,11
1.72313E+12,-6650,3723,1073,-1516,-714,-3734,1,7,11
1.72313E+12,-7027,3881,1118,-1596,-696,-3539,1,7,11
1.72313E+12,-6891,3480,912,-1195,-721,-3587,1,7,11
1.72313E+12,-7238,3667,947,-1301,-1026,-3377,1,7,11
1.72313E+12,-7294,3602,990,-900,-1086,-3179,1,7,11
1.72313E+12,-7293,3305,1285,-1027,-1142,-2749,1,7,11
1.72313E+12,-7068,3296,1345,-648,-905,-2821,1,7,11
1.72313E+12,-7084,3264,1400,-824,-920,-2472,1,7,11
1.72313E+12,-7128,3229,1199,-769,-904,-2662,1,7,11
1.72313E+12,-7425,3447,1257,-444,-1145,-2587,1,7,11
1.72313E+12,-7455,3375,1566,-421,-1115,-2271,1,7,11
1.72313E+12,-7473,3041,1608,-391,-1053,-2226,1,7,11
1.72313E+12,-7517,2980,1634,-607,-694,-2199,1,7,11
1.72313E+12,-7547,3170,1409,-582,-851,-2178,1,7,11
1.72313E+12,-7324,3104,1428,-562,-468,-2185,1,7,11
1.72313E+12,-7386,2776,1440,-559,-591,-2198,1,7,11
1.72313E+12,-7421,2692,1441,-558,-237,-2195,1,7,11
1.72313E+12,-7704,2873,1417,-558,-136,-2197,1,7,11
1.72313E+12,-7734,2541,1641,-572,-288,-2193,1,7,11
1.72313E+12,-7765,2454,1608,-588,52,-2427,1,7,11
1.72313E+12,-7782,2628,1594,-609,123,-2403,1,7,11
1.72313E+12,-7570,2280,1586,-620,-72,-2361,1,7,11
1.72313E+12,-7600,2202,1575,-605,-44,-2034,1,7,11
1.72313E+12,-7644,2400,1559,-577,-23,-1947,1,7,11
1.72313E+12,-7662,2348,1542,-546,-24,-2084,1,7,11
1.72313E+12,-7938,2044,1266,-515,-25,-1693,1,7,11
1.72313E+12,-7940,1989,1258,-238,-21,-1808,1,7,11
1.72313E+12,-7977,1927,1273,-218,259,-1664,1,7,11
1.72313E+12,-8016,2117,1542,-186,269,-1253,1,7,11
1.72313E+12,-8048,1788,1551,-142,269,-1346,1,7,11
1.72313E+12,-7821,1726,1553,-340,261,-901,1,7,11
1.72313E+12,-7847,1917,1564,-279,-5,-677,1,7,11
1.72313E+12,-7892,1862,1576,38,-35,-418,1,7,11
1.72313E+12,-7905,1798,1590,86,-96,-149,1,7,11
1.72313E+12,-7907,1477,1602,-106,115,104,1,7,11
1.72313E+12,-7888,1432,1591,-21,78,315,1,7,11
1.72313E+12,-7833,1495,1553,346,70,220,1,7,11
1.72313E+12,-8027,1838,1256,167,106,595,1,7,11
1.72313E+12,-8002,1695,1231,169,-70,587,1,7,11
1.72313E+12,-7996,2087,1199,145,-10,535,1,7,11
1.72313E+12,-7969,1945,1163,337,264,192,1,7,11
1.72313E+12,-7949,2038,1371,259,271,339,1,7,11
1.72313E+12,-7671,2369,1335,-83,279,-35,1,7,11
1.72313E+12,-7948,2176,1301,91,293,116,1,7,11
1.72313E+12,-7979,2222,1299,-259,273,37,1,7,11
1.72313E+12,-8007,2230,1301,-351,-42,-272,1,7,11
1.72313E+12,-8007,2200,1338,-175,-125,-297,1,7,11
1.72313E+12,-7989,2403,1389,-216,57,-318,1,7,11
1.72313E+12,-7970,2364,1188,-203,-263,-333,1,7,11
1.72313E+12,-7944,2361,1226,-148,-312,-343,1,7,11
1.72313E+12,-7660,2362,1266,-356,-343,-339,1,7,11
1.72313E+12,-7937,2385,1545,-303,-332,-335,1,7,11
1.72313E+12,-7947,2417,1543,-261,-334,-321,1,7,11
1.72313E+12,-7679,2181,1540,16,-303,-319,1,7,11
1.72313E+12,-7945,2184,1542,15,-247,-336,1,7,11
1.72313E+12,-7949,2200,1278,5,58,-353,1,7,11
1.72313E+12,-7955,2211,1269,-285,100,-372,1,7,11
1.72313E+12,-7943,2216,1269,-328,-128,-384,1,7,11
1.72313E+12,-7659,2204,1264,-383,-108,-129,1,7,11
1.72313E+12,-7646,2185,1257,-173,-83,-381,1,7,11
1.72313E+12,-7633,2411,1246,-227,-65,-379,1,7,11
1.72313E+12,-7657,2371,1239,-528,-42,-381,1,7,11
1.72313E+12,-7645,2314,1219,-576,-62,-373,1,7,11
1.72313E+12,-7938,1984,1226,-609,-49,-136,1,7,11
1.72313E+12,-8026,1920,1241,-614,-71,-368,1,7,11
1.72313E+12,-7814,2097,1260,-607,103,-315,1,7,11
1.72313E+12,-7839,1767,1545,-564,-257,35,1,7,11
1.72313E+12,-7908,1727,1588,-224,-332,-90,1,7,11
1.72313E+12,-7918,1714,1602,-382,-197,345,1,7,11
1.72313E+12,-7886,1734,1616,-268,-541,250,1,7,11
1.72313E+12,-8056,2058,1625,103,-575,632,1,7,11
1.72313E+12,-8008,1933,1626,-51,-537,444,1,7,11
1.72313E+12,-7961,2333,1627,-12,-236,473,1,7,11
1.72313E+12,-7678,2181,1635,-40,-190,451,1,7,11
1.72313E+12,-7666,2254,1647,-96,-150,392,1,7,11
1.72313E+12,-7659,2275,1412,96,-134,553,1,7,11
1.72313E+12,-7673,2278,1441,60,-384,181,1,7,11
1.72313E+12,-7941,2276,1463,52,-150,328,1,7,11
1.72313E+12,-7948,2268,1492,54,-192,-19,1,7,11
1.72313E+12,-7950,2246,1522,72,-237,-83,1,7,11
1.72313E+12,-7975,2244,1844,107,-540,-108,1,7,11
1.72313E+12,-7981,2252,1889,-119,-617,-94,1,7,11
1.72313E+12,-7963,2266,1673,-87,-433,-46,1,7,11
1.72313E+12,-7954,2271,1699,-59,-479,276,1,7,11
1.72313E+12,-7658,2276,1722,-43,-510,147,1,7,11
1.72313E+12,-7632,2279,1763,-14,-510,228,1,7,11
1.72313E+12,-7611,2289,2048,282,-450,572,1,7,11
1.72313E+12,-7594,2301,2085,296,-404,400,1,7,11
1.72313E+12,-7560,2572,2103,347,-619,490,1,7,11
1.72313E+12,-7772,2599,2128,141,-559,850,1,7,11
1.72313E+12,-7749,2637,2135,194,-217,721,1,7,11
1.72313E+12,-7738,2671,2136,229,-379,1131,1,7,11
1.72313E+12,-7726,2451,2134,254,-290,1301,1,7,11
1.72313E+12,-7695,2467,2131,525,54,1202,1,7,11
1.72313E+12,-7417,2525,2122,564,-90,1581,1,7,11
1.72313E+12,-7393,2866,2098,595,258,1661,1,7,11
1.72313E+12,-7388,2720,2077,615,338,1430,1,7,11
1.72313E+12,-7372,3077,1788,595,382,1408,1,7,11
1.72313E+12,-7376,3174,1749,563,171,1600,1,7,11
1.72313E+12,-7355,2983,1704,245,175,1264,1,7,11
1.72313E+12,-7331,3020,1911,172,187,1153,1,7,11
1.72313E+12,-7333,3049,1865,364,212,1296,1,7,11
1.72313E+12,-7314,3328,1822,300,229,930,1,7,11
1.72313E+12,-7302,3370,1517,260,517,1088,1,7,11
1.72313E+12,-7311,3425,1465,-42,548,759,1,7,11
1.72313E+12,-7306,3451,1423,-110,537,713,1,7,11
1.72313E+12,-7545,3455,1644,103,514,689,1,7,11
1.72313E+12,-7509,3450,1620,84,229,663,1,7,11
1.72313E+12,-7509,3218,1597,111,216,642,1,7,11
1.72313E+12,-7485,3249,1563,-104,179,887,1,7,11
1.72313E+12,-7463,3297,1544,-53,157,857,1,7,11
1.72313E+12,-7493,3634,1271,-4,154,815,1,7,11
1.72313E+12,-7504,3704,1262,-1,352,503,1,7,11
1.72313E+12,-7479,3485,1279,-11,288,415,1,7,11
1.72313E+12,-7474,3536,1547,-24,-27,563,1,7,11
1.72313E+12,-7444,3546,1562,-63,-108,158,1,7,11
1.72313E+12,-7443,3565,1570,-84,88,-28,1,7,11
1.72313E+12,-7444,3571,1586,-118,20,21,1,7,11
1.72313E+12,-7436,3549,1601,91,-311,-199,1,7,11
1.72313E+12,-7446,3516,1611,47,-356,-414,1,7,11
1.72313E+12,-7474,3469,1627,-266,-149,-857,1,7,11
1.72313E+12,-7479,3639,1634,-329,-205,-767,1,7,11
1.72313E+12,-7502,3294,1658,-368,-246,-906,1,7,11
1.72313E+12,-7297,3216,1445,-374,-544,-1011,1,7,11
1.72313E+12,-7338,3440,1489,-342,-612,-1317,1,7,11
1.72313E+12,-7375,3433,1807,-321,-447,-1315,1,7,11
1.72313E+12,-7404,3419,1870,-335,-813,-1018,1,7,11
1.72313E+12,-7390,3371,1691,-359,-726,-933,1,7,11
1.72313E+12,-7392,3347,1778,-154,-1066,-897,1,7,11
1.72313E+12,-7366,3056,2113,-208,-1147,-1130,1,7,11
1.72313E+12,-7335,3022,1928,-242,-917,-1124,1,7,11
1.72313E+12,-7297,2996,1992,-539,-1150,-1132,1,7,11
1.72313E+12,-7527,2958,2312,-577,-1077,-1151,1,7,11
1.72313E+12,-7508,3181,2375,-610,-708,-916,1,7,11
1.72313E+12,-7504,3131,2423,-401,-834,-940,1,7,11
1.72313E+12,-7514,3076,2200,-447,-439,-971,1,7,11
1.72313E+12,-7534,2774,2224,-496,-564,-994,1,7,11
1.72313E+12,-7550,2724,2230,-809,-179,-1022,1,7,11
1.72313E+12,-7339,2927,2234,-873,-304,-1292,1,7,11
1.72313E+12,-7383,2863,2235,-689,61,-1292,1,7,11
1.72313E+12,-7687,2545,2232,-745,-96,-1020,1,7,11
1.72313E+12,-7741,2501,2245,-1042,-8,-990,1,7,11
1.72313E+12,-7782,2485,2265,-1064,305,-930,1,7,11
1.72313E+12,-7762,2470,2281,-1083,331,-1096,1,7,11
1.72313E+12,-7738,2447,2289,-1111,374,-756,1,7,11
1.72313E+12,-7688,2650,2286,-901,162,-704,1,7,11
1.72313E+12,-7422,2582,2267,-919,248,-706,1,7,11
1.72313E+12,-7696,2248,2232,-942,586,-763,1,7,11
1.72313E+12,-7740,2418,2185,-944,412,-1111,1,7,11
1.72313E+12,-7785,2327,2387,-912,478,-955,1,7,11
1.72313E+12,-7573,1965,2315,-1106,772,-1288,1,7,11
1.72313E+12,-7675,2128,1973,-742,817,-1340,1,7,11
1.72313E+12,-8022,1791,2126,-875,783,-1335,1,7,11
1.72313E+12,-7815,1713,1754,-483,455,-1311,1,7,11
1.72313E+12,-7884,1898,1860,-598,384,-1004,1,7,11
1.72313E+12,-7926,1889,1795,-190,579,-918,1,7,11
1.72313E+12,-8217,1916,1523,-307,252,-1047,1,7,11
1.72313E+12,-8217,1722,1793,68,159,-780,1,7,11
1.72313E+12,-8196,1785,1833,-100,293,-584,1,7,11
1.72313E+12,-7905,2097,1892,-50,95,-144,1,7,11
1.72313E+12,-7839,2141,1704,-37,-287,6,1,7,11
1.72313E+12,-8027,1934,1785,-23,-376,109,1,7,11
1.72313E+12,-7954,1990,2124,-28,-185,-76,1,7,11
1.72313E+12,-7652,2310,1936,-42,-207,-44,1,7,11
1.72313E+12,-7600,2380,2005,-66,-203,-45,1,7,11
1.72313E+12,-7562,2192,2326,-97,-163,-78,1,7,11
1.72313E+12,-7787,2243,2383,105,-364,126,1,7,11
1.72313E+12,-7757,2261,2420,34,-291,52,1,7,11
1.72313E+12,-7795,2241,2251,-274,-10,-210,1,7,11
1.72313E+12,-7796,2257,2244,-279,287,-225,1,7,11
1.72313E+12,-7563,2240,2233,-333,305,-230,1,7,11
1.72313E+12,-7583,2190,2198,-136,298,-242,1,7,11
1.72313E+12,-7607,2421,2395,-179,277,-525,1,7,11
1.72313E+12,-7637,2399,2312,-253,-14,-553,1,7,11
1.72313E+12,-7634,2355,1948,-617,-48,-576,1,7,11
1.72313E+12,-7940,2010,2114,-485,-30,-629,1,7,11
1.72313E+12,-7956,2137,1779,-832,-32,-406,1,7,11
1.72313E+12,-7965,1786,1725,-836,264,-450,1,7,11
1.72313E+12,-7970,1728,1670,-800,319,-470,1,7,11
1.72313E+12,-8017,1669,1916,-497,133,-476,1,7,11
1.72313E+12,-7843,1881,1917,-422,164,-431,1,7,11
1.72313E+12,-7866,1826,1691,-596,371,-619,1,7,11
1.72313E+12,-7879,1526,1721,-227,302,-561,1,7,11
1.72313E+12,-7882,1501,1766,-355,-40,-520,1,7,11
1.72313E+12,-7865,1518,2062,45,116,-238,1,7,11
1.72313E+12,-7833,1823,2093,-86,20,-219,1,7,11
1.72313E+12,-7810,1891,2140,-4,-308,-213,1,7,11
1.72313E+12,-8034,1715,1929,290,-366,-200,1,7,11
1.72313E+12,-7990,1777,1988,282,-145,-217,1,7,11
1.72313E+12,-7977,2087,2319,-18,-159,-248,1,7,11
1.72313E+12,-7962,2098,2398,-78,-176,-549,1,7,11
1.72313E+12,-7947,2107,2206,122,-179,-611,1,7,11
1.72313E+12,-7950,2065,2312,64,-196,-423,1,7,11
1.72313E+12,-7680,1756,2617,-257,-542,-806,1,7,11
1.72313E+12,-7599,1932,2599,24,-567,-843,1,7,11
1.72313E+12,-7571,2160,2620,-303,-213,-822,1,7,11
1.72313E+12,-7645,2129,2604,-298,-260,-483,1,7,11
1.72313E+12,-7633,1789,2587,-323,98,-423,1,7,11
1.72313E+12,-7638,1713,2286,-368,-100,-405,1,7,11
1.72313E+12,-7672,1899,2185,-134,-10,-441,1,7,11
1.72313E+12,-7953,1521,2338,-203,326,-510,1,7,11
