timestamp,ax,ay,az,gx,gy,gz,Label1,Label2,Label3
1.72313E+12,-4673,6485,-1000,24,-16,-279,1,7,11
1.72313E+12,-4690,6475,-1007,1,271,-292,1,7,11
1.72313E+12,-4701,6452,-1012,-282,309,-293,1,7,11
1.72313E+12,-4484,6443,-1011,-302,329,-294,1,7,11
1.72313E+12,-4504,6421,-1004,-333,326,-278,1,7,11
1.72313E+12,-4522,6412,-1001,-327,321,-258,1,7,11
1.72313E+12,-4534,6404,-1005,-314,302,32,1,7,11
1.72313E+12,-4525,6141,-1010,-293,274,66,1,7,11
1.72313E+12,-4511,6403,-1019,-265,-3,96,1,7,11
1.72313E+12,-4499,6418,-1021,15,-15,121,1,7,11
1.72313E+12,-4496,6442,-1022,28,-30,-118,1,7,11
1.72313E+12,-4482,6461,-1283,33,-49,-115,1,7,11
1.72313E+12,-4723,6472,-1291,29,-60,-120,1,7,11
1.72313E+12,-4718,6474,-1300,17,-61,120,1,7,11
1.72313E+12,-4715,6471,-1301,9,-62,96,1,7,11
1.72313E+12,-4716,6467,-1297,6,-66,68,1,7,11
1.72313E+12,-4719,6465,-1291,3,-70,46,1,7,11
1.72313E+12,-4714,6459,-1294,5,-71,34,1,7,11
1.72313E+12,-4717,6448,-1302,-257,-67,33,1,7,11
1.72313E+12,-4720,6435,-1302,-260,-61,37,1,7,11
1.72313E+12,-4720,6426,-1296,-264,-57,46,1,7,11
1.72313E+12,-4718,6421,-1303,-272,-49,60,1,7,11
1.72313E+12,-4715,6425,-1304,-275,-45,79,1,7,11
1.72313E+12,-4715,6420,-1303,-285,-41,105,1,7,11
1.72313E+12,-4707,6420,-1295,-294,-41,-125,1,7,11
1.72313E+12,-4705,6428,-1293,-296,-47,-105,1,7,11
1.72313E+12,-4701,6436,-1295,-300,-52,-86,1,7,11
1.72313E+12,-4696,6445,-1292,-301,-62,-75,1,7,11
1.72313E+12,-4690,6453,-1286,-302,-76,-70,1,7,11
1.72313E+12,-4685,6458,-1291,-292,-89,-68,1,7,11
1.72313E+12,-4666,6475,-1287,-282,-104,-72,1,7,11
1.72313E+12,-4656,6491,-1286,-279,-100,-77,1,7,11
1.72313E+12,-4645,6506,-1291,-280,-98,-75,1,7,11
1.72313E+12,-4642,6513,-1284,-295,-94,-77,1,7,11
1.72313E+12,-4641,6511,-1287,-301,-97,-77,1,7,11
1.72313E+12,-4632,6512,-1281,-305,-100,-83,1,7,11
1.72313E+12,-4628,6507,-1024,-302,-100,-95,1,7,11
1.72313E+12,-4624,6516,-1282,-287,-100,-112,1,7,11
1.72313E+12,-4621,6527,-1284,-278,-104,-126,1,7,11
1.72313E+12,-4615,6527,-1288,-274,-104,113,1,7,11
1.72313E+12,-4615,6522,-1286,-272,-100,95,1,7,11
1.72313E+12,-4629,6275,-1289,-279,-98,66,1,7,11
1.72313E+12,-4646,6527,-1285,-310,-113,34,1,7,11
1.72313E+12,-4663,6511,-1016,-344,125,2,1,7,11
1.72313E+12,-4681,6492,-1005,-365,114,-271,1,7,11
1.72313E+12,-4676,6467,-988,-371,102,-272,1,7,11
1.72313E+12,-4670,6451,-970,-352,102,-254,1,7,11
1.72313E+12,-4666,6444,-968,-308,-126,28,1,7,11
1.72313E+12,-4655,6447,-962,-277,-113,55,1,7,11
1.72313E+12,-4627,6468,-972,1,-101,75,1,7,11
1.72313E+12,-4609,6498,-983,4,-71,92,1,7,11
1.72313E+12,-4352,6516,-999,-271,-31,110,1,7,11
1.72313E+12,-4617,6275,-1003,-296,-1,122,1,7,11
1.72313E+12,-4633,6277,-999,-319,262,-128,1,7,11
1.72313E+12,-4641,6524,-992,-326,-1,121,1,7,11
1.72313E+12,-4647,6509,-994,-315,-17,104,1,7,11
1.72313E+12,-4649,6499,-993,-290,-37,81,1,7,11
1.72313E+12,-4653,6494,-990,-260,-46,54,1,7,11
1.72313E+12,-4664,6497,-1007,13,-58,33,1,7,11
1.72313E+12,-4679,6487,-1009,15,-67,16,1,7,11
1.72313E+12,-4690,6490,-1012,11,-67,11,1,7,11
1.72313E+12,-4686,6478,-1018,-264,-74,17,1,7,11
1.72313E+12,-4677,6470,-1016,-279,-74,31,1,7,11
1.72313E+12,-4667,6462,-1018,-298,-59,58,1,7,11
1.72313E+12,-4669,6461,-1017,-307,-37,91,1,7,11
1.72313E+12,-4668,6468,-1009,-312,-31,-112,1,7,11
1.72313E+12,-4661,6473,-1017,-309,-33,-84,1,7,11
1.72313E+12,-4656,6475,-1024,-303,-32,-65,1,7,11
1.72313E+12,-4654,6478,-1285,-296,-36,-57,1,7,11
1.72313E+12,-4653,6486,-1288,-288,-43,-63,1,7,11
1.72313E+12,-4654,6498,-1303,-287,-49,-70,1,7,11
1.72313E+12,-4648,6507,-1307,-289,-59,-76,1,7,11
1.72313E+12,-4641,6511,-1308,-296,-66,-81,1,7,11
1.72313E+12,-4637,6502,-1307,-298,-67,-84,1,7,11
1.72313E+12,-4636,6494,-1298,-298,-67,-89,1,7,11
1.72313E+12,-4634,6495,-1291,-298,-75,-89,1,7,11
1.72313E+12,-4634,6490,-1289,-298,-84,-86,1,7,11
1.72313E+12,-4633,6494,-1024,-298,-95,-72,1,7,11
1.72313E+12,-4616,6494,-1020,-298,-104,-56,1,7,11
1.72313E+12,-4343,6501,-1015,-301,-107,-33,1,7,11
1.72313E+12,-4330,6515,-1018,-307,-106,-9,1,7,11
1.72313E+12,-4320,6272,-1017,-318,-101,273,1,7,11
1.72313E+12,-4314,6283,-1016,-332,-90,293,1,7,11
1.72313E+12,-4309,6283,-1010,-346,-83,307,1,7,11
1.72313E+12,-4306,6287,-1006,-354,-84,315,1,7,11
1.72313E+12,-4298,6290,-1007,-350,-84,322,1,7,11
1.72313E+12,-4296,6299,-1001,-347,-81,328,1,7,11
1.72313E+12,-4297,6309,-991,-346,-83,342,1,7,11
1.72313E+12,-4285,6320,-992,-343,-89,357,1,7,11
1.72313E+12,-4270,6326,-986,-339,-88,371,1,7,11
1.72313E+12,-4264,6337,-981,-333,-88,128,1,7,11
1.72313E+12,-4254,6347,-989,-332,-91,135,1,7,11
1.72313E+12,-4245,6357,-991,-337,-93,134,1,7,11
1.72313E+12,-4242,6362,-986,-340,-94,128,1,7,11
1.72313E+12,-4233,6357,-987,-349,-102,375,1,7,11
1.72313E+12,-4476,6356,-980,-350,-114,357,1,7,11
1.72313E+12,-4463,6368,-972,-341,-126,332,1,7,11
1.72313E+12,-4458,6395,-967,-334,119,306,1,7,11
1.72313E+12,-4465,6683,-958,-343,98,286,1,7,11
1.72313E+12,-4451,6686,-949,-355,64,270,1,7,11
1.72313E+12,-4422,6687,-939,-354,40,-6,1,7,11
1.72313E+12,-4401,6690,-938,-346,34,-32,1,7,11
1.72313E+12,-4385,6689,-937,-325,51,-56,1,7,11
1.72313E+12,-4382,6695,-927,-309,82,-75,1,7,11
1.72313E+12,-4387,6701,-916,-303,105,-91,1,7,11
1.72313E+12,-4387,6697,-916,-309,109,-104,1,7,11
1.72313E+12,-4372,6693,-908,-318,115,-114,1,7,11
1.72313E+12,-4372,6676,-909,-331,-116,-124,1,7,11
1.72313E+12,-4383,6666,-908,-338,-86,126,1,7,11
1.72313E+12,-4401,6661,-902,-335,-62,118,1,7,11
1.72313E+12,-4410,6399,-901,-322,-50,111,1,7,11
1.72313E+12,-4411,6398,-908,-301,-41,107,1,7,11
1.72313E+12,-4398,6390,-919,-278,-32,108,1,7,11
1.72313E+12,-4401,6397,-939,8,-8,105,1,7,11
1.72313E+12,-4421,6670,-936,19,-3,99,1,7,11
1.72313E+12,-4434,6670,-933,19,-18,90,1,7,11
1.72313E+12,-4434,6671,-942,18,-48,87,1,7,11
1.72313E+12,-4422,6667,-955,22,-81,84,1,7,11
1.72313E+12,-4387,6680,-966,25,-95,78,1,7,11
1.72313E+12,-4385,6689,-973,21,-83,83,1,7,11
1.72313E+12,-4385,6693,-970,12,-65,92,1,7,11
1.72313E+12,-4394,6692,-967,-257,-54,96,1,7,11
1.72313E+12,-4396,6684,-964,-266,-55,89,1,7,11
1.72313E+12,-4399,6674,-976,-273,-52,75,1,7,11
1.72313E+12,-4404,6671,-977,-278,-48,61,1,7,11
1.72313E+12,-4416,6670,-980,-285,-52,53,1,7,11
1.72313E+12,-4420,6671,-974,-291,-59,54,1,7,11
1.72313E+12,-4417,6670,-981,-296,-67,60,1,7,11
1.72313E+12,-4421,6664,-971,-298,-76,69,1,7,11
1.72313E+12,-4415,6659,-963,-295,-86,80,1,7,11
1.72313E+12,-4414,6657,-962,-288,-95,86,1,7,11
1.72313E+12,-4409,6664,-958,-279,-103,93,1,7,11
1.72313E+12,-4407,6662,-966,-280,-110,98,1,7,11
1.72313E+12,-4395,6664,-962,-280,-116,98,1,7,11
1.72313E+12,-4388,6671,-959,-276,-113,94,1,7,11
1.72313E+12,-4386,6675,-961,-275,-108,96,1,7,11
1.72313E+12,-4384,6678,-959,-280,-99,104,1,7,11
1.72313E+12,-4383,6681,-962,-284,-84,120,1,7,11
1.72313E+12,-4380,6686,-959,-289,-79,124,1,7,11
1.72313E+12,-4372,6685,-957,-290,-67,-125,1,7,11
1.72313E+12,-4364,6690,-957,-291,-53,-122,1,7,11
1.72313E+12,-4358,6696,-961,-288,-38,-120,1,7,11
1.72313E+12,-4360,6705,-965,-280,-31,-120,1,7,11
1.72313E+12,-4356,6712,-964,-277,-32,-114,1,7,11
1.72313E+12,-4359,6717,-968,-275,-29,-116,1,7,11
1.72313E+12,-4358,6712,-969,-275,-35,-120,1,7,11
1.72313E+12,-4368,6720,-974,-279,-44,119,1,7,11
1.72313E+12,-4387,6725,-970,-298,-71,100,1,7,11
1.72313E+12,-4391,6716,-962,-321,-105,86,1,7,11
1.72313E+12,-4382,6708,-962,-331,120,77,1,7,11
1.72313E+12,-4363,6697,-961,-331,102,77,1,7,11
1.72313E+12,-4090,6692,-949,-318,106,84,1,7,11
1.72313E+12,-4087,6701,-940,-304,-128,101,1,7,11
1.72313E+12,-4095,6711,-935,-292,-113,119,1,7,11
1.72313E+12,-4095,6716,-931,-284,-115,127,1,7,11
1.72313E+12,-4088,6714,-930,-280,-117,123,1,7,11
1.72313E+12,-4084,6712,-940,-282,-105,110,1,7,11
1.72313E+12,-4087,6719,-942,-281,-90,89,1,7,11
1.72313E+12,-4096,6724,-936,-281,-78,71,1,7,11
1.72313E+12,-4095,6720,-935,-279,-76,62,1,7,11
1.72313E+12,-4086,6722,-938,-270,-74,59,1,7,11
1.72313E+12,-4074,6715,-942,-262,-66,64,1,7,11
1.72313E+12,-4068,6709,-940,8,-43,70,1,7,11
1.72313E+12,-4082,6720,-941,11,-26,72,1,7,11
1.72313E+12,-4088,6717,-948,0,-20,72,1,7,11
1.72313E+12,-4358,6716,-952,-267,-22,68,1,7,11
1.72313E+12,-4368,6704,-948,-281,-34,67,1,7,11
1.72313E+12,-4363,6692,-949,-281,-50,64,1,7,11
1.72313E+12,-4359,6682,-950,-276,-54,63,1,7,11
1.72313E+12,-4356,6683,-952,-264,-47,78,1,7,11
1.72313E+12,-4095,6692,-950,2,-41,98,1,7,11
1.72313E+12,-4086,6704,-948,11,-38,118,1,7,11
1.72313E+12,-4076,6719,-962,18,-31,-116,1,7,11
1.72313E+12,-4069,6728,-964,14,-21,-102,1,7,11
1.72313E+12,-4069,6733,-968,7,-14,-97,1,7,11
1.72313E+12,-4069,6738,-969,-260,-12,-106,1,7,11
1.72313E+12,-4070,6734,-976,-270,-14,-123,1,7,11
1.72313E+12,-4070,6732,-975,-279,-15,109,1,7,11
1.72313E+12,-4068,6730,-979,-282,-17,101,1,7,11
1.72313E+12,-4064,6720,-981,-280,-21,101,1,7,11
1.72313E+12,-4064,6713,-979,-272,-25,107,1,7,11
1.72313E+12,-4061,6713,-985,-264,-25,115,1,7,11
1.72313E+12,-4063,6719,-983,-259,-27,123,1,7,11
1.72313E+12,-4059,6718,-986,-259,-30,127,1,7,11
1.72313E+12,-4050,6719,-995,-263,-31,-126,1,7,11
1.72313E+12,-4047,6721,-996,-269,-24,-123,1,7,11
1.72313E+12,-4046,6724,-995,-277,-19,-115,1,7,11
1.72313E+12,-4046,6728,-991,-288,-19,-109,1,7,11
1.72313E+12,-4038,6735,-989,-292,-22,-102,1,7,11
1.72313E+12,-4026,6735,-997,-290,-18,-100,1,7,11
1.72313E+12,-4017,6737,-1002,-286,-10,-99,1,7,11
1.72313E+12,-4007,6743,-1009,-279,-8,-100,1,7,11
1.72313E+12,-4011,6762,-1002,-266,-11,-100,1,7,11
1.72313E+12,-4001,6772,-1013,-265,-21,-99,1,7,11
1.72313E+12,-3988,6766,-1013,-267,-26,-102,1,7,11
1.72313E+12,-3986,6769,-1014,-267,-34,-111,1,7,11
1.72313E+12,-4000,6780,-1018,-273,-50,-125,1,7,11
1.72313E+12,-4010,6780,-1021,-300,-83,111,1,7,11
1.72313E+12,-4011,6771,-1018,-328,-115,93,1,7,11
1.72313E+12,-4007,6762,-1014,-344,118,83,1,7,11
1.72313E+12,-3994,6749,-1006,-348,107,82,1,7,11
1.72313E+12,-3981,6741,-993,-335,109,87,1,7,11
1.72313E+12,-3973,6748,-994,-316,-127,95,1,7,11
1.72313E+12,-3985,6752,-971,-305,-110,104,1,7,11
1.72313E+12,-3986,6755,-971,-298,-106,108,1,7,11
1.72313E+12,-3987,6761,-973,-297,-109,101,1,7,11
1.72313E+12,-3977,6762,-972,-300,-108,86,1,7,11
1.72313E+12,-4221,6763,-980,-303,-90,74,1,7,11
1.72313E+12,-4219,6767,-981,-307,-67,64,1,7,11
1.72313E+12,-3971,6764,-980,-312,-45,52,1,7,11
1.72313E+12,-3988,6769,-975,-314,-37,45,1,7,11
1.72313E+12,-3992,6766,-975,-309,-48,46,1,7,11
1.72313E+12,-3986,6764,-979,-291,-55,48,1,7,11
1.72313E+12,-3988,6773,-983,-280,-62,46,1,7,11
1.72313E+12,-3986,6768,-983,-274,-65,41,1,7,11
1.72313E+12,-4005,6773,-985,-276,-74,32,1,7,11
1.72313E+12,-4014,6764,-989,-282,-102,19,1,7,11
1.72313E+12,-4008,6757,-990,-278,127,2,1,7,11
1.72313E+12,-4007,6752,-982,-271,116,-266,1,7,11
1.72313E+12,-4013,6748,-974,-266,116,-264,1,7,11
1.72313E+12,-4015,6743,-975,-261,112,4,1,7,11
1.72313E+12,-4011,6747,-987,-258,113,20,1,7,11
1.72313E+12,-4009,6752,-990,-258,126,38,1,7,11
1.72313E+12,-4011,6756,-985,-263,-113,49,1,7,11
1.72313E+12,-4010,6759,-972,-270,-102,54,1,7,11
1.72313E+12,-4013,6761,-976,-280,-91,51,1,7,11
1.72313E+12,-4011,6759,-980,-289,-86,45,1,7,11
1.72313E+12,-4016,6753,-986,-297,-78,36,1,7,11
1.72313E+12,-4018,6744,-978,-302,-73,28,1,7,11
1.72313E+12,-4025,6742,-972,-300,-76,22,1,7,11
1.72313E+12,-4029,6737,-961,-293,-82,22,1,7,11
1.72313E+12,-4032,6731,-957,-285,-86,26,1,7,11
1.72313E+12,-4041,6718,-959,-283,-89,39,1,7,11
1.72313E+12,-4034,6718,-958,-274,-95,50,1,7,11
1.72313E+12,-4025,6726,-956,-262,-94,60,1,7,11
1.72313E+12,-4031,6735,-957,-260,-89,73,1,7,11
1.72313E+12,-4024,6747,-964,-259,-86,96,1,7,11
1.72313E+12,-4014,6748,-971,-261,-85,101,1,7,11
1.72313E+12,-4009,6751,-974,-262,-80,101,1,7,11
1.72313E+12,-4007,6761,-980,-263,-73,99,1,7,11
1.72313E+12,-4009,6758,-972,-263,-66,93,1,7,11
1.72313E+12,-4009,6762,-981,-259,-63,79,1,7,11
1.72313E+12,-4015,6774,-989,2,-65,68,1,7,11
1.72313E+12,-4010,6771,-994,-259,-72,61,1,7,11
1.72313E+12,-4007,6763,-1000,-263,-73,53,1,7,11
1.72313E+12,-4007,6758,-1001,-268,-75,45,1,7,11
1.72313E+12,-4020,6773,-1000,-281,-80,37,1,7,11
1.72313E+12,-4029,6777,-990,-313,-101,35,1,7,11
1.72313E+12,-4028,6764,-990,-336,-127,39,1,7,11
1.72313E+12,-4016,6750,-991,-345,118,45,1,7,11
1.72313E+12,-4003,6735,-984,-335,117,52,1,7,11
1.72313E+12,-3990,6734,-979,-311,-124,62,1,7,11
1.72313E+12,-3995,6740,-963,-291,-106,73,1,7,11
1.72313E+12,-3991,6748,-965,-275,-104,80,1,7,11
1.72313E+12,-3984,6762,-964,-267,-111,79,1,7,11
1.72313E+12,-3971,6765,-968,-270,-108,81,1,7,11
1.72313E+12,-4223,6768,-965,-278,-91,76,1,7,11
1.72313E+12,-3975,6766,-963,-288,-77,71,1,7,11
1.72313E+12,-3991,6765,-958,-287,-76,64,1,7,11
1.72313E+12,-3991,6759,-961,-283,-83,61,1,7,11
1.72313E+12,-3996,6759,-959,-270,-86,53,1,7,11
1.72313E+12,-3988,6753,-964,3,-93,49,1,7,11
1.72313E+12,-4006,6762,-962,21,-84,37,1,7,11
1.72313E+12,-4015,6764,-957,14,-92,32,1,7,11
1.72313E+12,-4026,6765,-960,11,-99,24,1,7,11
1.72313E+12,-4028,6757,-971,2,-111,20,1,7,11
1.72313E+12,-4021,6750,-981,-259,-115,20,1,7,11
1.72313E+12,-4017,6744,-982,-262,-101,23,1,7,11
1.72313E+12,-4030,6746,-979,-268,-79,35,1,7,11
1.72313E+12,-4042,6739,-975,-271,-72,47,1,7,11
1.72313E+12,-4050,6730,-982,-268,-76,50,1,7,11
1.72313E+12,-4044,6724,-987,-263,-78,44,1,7,11
1.72313E+12,-4051,6720,-993,-259,-65,31,1,7,11
1.72313E+12,-4058,6725,-987,-265,-57,29,1,7,11
1.72313E+12,-4064,6728,-985,-273,-61,38,1,7,11
1.72313E+12,-4060,6717,-991,-285,-70,65,1,7,11
1.72313E+12,-4048,6704,-987,-290,-79,97,1,7,11
1.72313E+12,-4044,6709,-978,-287,-86,125,1,7,11
1.72313E+12,-4045,6722,-977,-277,-91,-113,1,7,11
1.72313E+12,-4040,6729,-974,-277,-97,-106,1,7,11
1.72313E+12,-4027,6731,-975,-278,-114,-103,1,7,11
1.72313E+12,-4008,6743,-987,-279,-114,-103,1,7,11
1.72313E+12,-3991,6748,-980,-283,-108,-96,1,7,11
1.72313E+12,-3982,6758,-976,-291,-92,-78,1,7,11
1.72313E+12,-3986,6765,-977,-297,-74,-60,1,7,11
1.72313E+12,-3983,6768,-982,-301,-67,-45,1,7,11
1.72313E+12,-3980,6778,-985,-295,-76,-35,1,7,11
1.72313E+12,-3978,6780,-979,-278,-89,-35,1,7,11
1.72313E+12,-4224,6778,-978,-262,-104,-44,1,7,11
1.72313E+12,-4216,6530,-978,12,-114,-67,1,7,11
1.72313E+12,-4210,6545,-982,20,-127,-90,1,7,11
1.72313E+12,-4203,6547,-980,17,125,-115,1,7,11
1.72313E+12,-4196,6547,-988,11,-128,122,1,7,11
1.72313E+12,-4200,6545,-986,-258,-125,106,1,7,11
1.72313E+12,-4219,6551,-980,-282,-126,96,1,7,11
1.72313E+12,-4221,6548,-968,-320,117,101,1,7,11
1.72313E+12,-4214,6536,-973,-343,107,112,1,7,11
1.72313E+12,-4210,6779,-972,-346,100,126,1,7,11
1.72313E+12,-4198,6776,-968,-336,101,-119,1,7,11
1.72313E+12,-4190,6776,-959,-314,113,-111,1,7,11
1.72313E+12,-4196,6532,-952,-298,124,-104,1,7,11
1.72313E+12,-4197,6542,-951,-290,120,-106,1,7,11
1.72313E+12,-4189,6552,-956,-291,114,-115,1,7,11
1.72313E+12,-4178,6556,-956,-298,117,-126,1,7,11
1.72313E+12,-4172,6551,-950,-305,-128,120,1,7,11
1.72313E+12,-4175,6550,-953,-305,-118,113,1,7,11
1.72313E+12,-4172,6554,-949,-297,-109,118,1,7,11
1.72313E+12,-4172,6557,-947,-287,-102,-122,1,7,11
1.72313E+12,-4164,6555,-956,-281,-98,-114,1,7,11
1.72313E+12,-4168,6571,-956,-272,-90,-118,1,7,11
1.72313E+12,-4170,6578,-951,-272,-96,-124,1,7,11
1.72313E+12,-4176,6580,-947,-281,-103,125,1,7,11
1.72313E+12,-4192,6586,-942,-294,-111,118,1,7,11
1.72313E+12,-4184,6576,-939,-305,-127,106,1,7,11
1.72313E+12,-4174,6568,-934,-303,124,88,1,7,11
1.72313E+12,-4174,6562,-929,-295,-124,76,1,7,11
1.72313E+12,-4178,6559,-923,-285,-110,72,1,7,11
1.72313E+12,-4185,6563,-925,-277,-102,72,1,7,11
1.72313E+12,-4179,6565,-925,-269,-97,76,1,7,11
1.72313E+12,-4176,6562,-935,-265,-82,79,1,7,11
1.72313E+12,-4177,6566,-942,-268,-69,79,1,7,11
1.72313E+12,-4186,6562,-940,-279,-60,75,1,7,11
1.72313E+12,-4189,6560,-948,-285,-56,65,1,7,11
1.72313E+12,-4192,6554,-933,-295,-59,54,1,7,11
1.72313E+12,-4193,6547,-930,-299,-62,50,1,7,11
1.72313E+12,-4194,6540,-932,-293,-67,52,1,7,11
1.72313E+12,-4188,6537,-934,-283,-72,53,1,7,11
1.72313E+12,-4182,6536,-936,-271,-72,61,1,7,11
1.72313E+12,-4183,6540,-936,-261,-70,73,1,7,11
1.72313E+12,-4182,6543,-941,-261,-68,91,1,7,11
1.72313E+12,-4182,6546,-949,-258,-69,105,1,7,11
1.72313E+12,-4175,6552,-959,-257,-65,113,1,7,11
1.72313E+12,-4169,6557,-964,-260,-56,118,1,7,11
1.72313E+12,-4163,6566,-961,-266,-49,123,1,7,11
1.72313E+12,-4158,6570,-956,-274,-44,-128,1,7,11
1.72313E+12,-4148,6571,-959,-280,-37,-127,1,7,11
1.72313E+12,-4137,6574,-956,-278,-27,121,1,7,11
1.72313E+12,-4134,6575,-964,-280,-17,116,1,7,11
1.72313E+12,-4135,6569,-961,-276,-8,111,1,7,11
1.72313E+12,-4143,6579,-969,-267,-4,102,1,7,11
1.72313E+12,-4137,6579,-977,-265,-11,99,1,7,11
1.72313E+12,-4129,6580,-983,-267,-15,91,1,7,11
1.72313E+12,-4136,6585,-993,-275,-21,88,1,7,11
1.72313E+12,-4153,6601,-994,-292,-35,84,1,7,11
1.72313E+12,-4152,6585,-981,-360,-94,82,1,7,11
1.72313E+12,-4147,6576,-981,-369,-117,85,1,7,11
1.72313E+12,-4130,6565,-958,-346,116,95,1,7,11
1.72313E+12,-4127,6563,-956,-311,119,102,1,7,11
1.72313E+12,-4120,6575,-947,-278,122,110,1,7,11
1.72313E+12,-4122,6591,-948,-259,114,111,1,7,11
1.72313E+12,-4107,6597,-951,3,107,104,1,7,11
1.72313E+12,-4098,6608,-957,-263,114,92,1,7,11
1.72313E+12,-4100,6605,-949,-279,-123,77,1,7,11
1.72313E+12,-4111,6600,-942,-292,-106,61,1,7,11
1.72313E+12,-4117,6589,-944,-303,-92,46,1,7,11
1.72313E+12,-4128,6580,-938,-308,-79,39,1,7,11
1.72313E+12,-4131,6574,-942,-302,-67,39,1,7,11
1.72313E+12,-4128,6566,-944,-293,-59,47,1,7,11
1.72313E+12,-4134,6573,-950,-278,-47,51,1,7,11
1.72313E+12,-4145,6581,-953,-281,-53,62,1,7,11
1.72313E+12,-4155,6581,-948,-285,-63,68,1,7,11
1.72313E+12,-4167,6586,-950,-290,-78,71,1,7,11
1.72313E+12,-4161,6586,-952,-294,-104,68,1,7,11
1.72313E+12,-4151,6581,-956,-296,-121,64,1,7,11
1.72313E+12,-4144,6576,-954,-295,-121,63,1,7,11
1.72313E+12,-4150,6580,-947,-288,-118,64,1,7,11
1.72313E+12,-4150,6585,-946,-281,-126,66,1,7,11
1.72313E+12,-4145,6589,-948,-278,126,68,1,7,11
1.72313E+12,-4149,6593,-946,-278,-124,68,1,7,11
1.72313E+12,-4149,6589,-943,-282,-119,58,1,7,11
1.72313E+12,-4159,6573,-932,-287,-118,45,1,7,11
1.72313E+12,-4162,6564,-930,-287,-121,18,1,7,11
1.72313E+12,-4180,6542,-929,-281,-124,-275,1,7,11
1.72313E+12,-4186,6535,-939,-275,-124,-315,1,7,11
1.72313E+12,-4194,6545,-946,-270,-113,-350,1,7,11
1.72313E+12,-4196,6560,-945,-266,-99,-366,1,7,11
1.72313E+12,-4189,6582,-944,-269,-89,-357,1,7,11
1.72313E+12,-4159,6603,-945,-276,-106,-314,1,7,11
1.72313E+12,-4131,6612,-943,-283,-121,-287,1,7,11
1.72313E+12,-4105,6611,-947,-283,117,-270,1,7,11
1.72313E+12,-4100,6607,-949,-275,115,-269,1,7,11
1.72313E+12,-4109,6607,-942,-269,112,-284,1,7,11
1.72313E+12,-4127,6603,-947,-257,101,-311,1,7,11
1.72313E+12,-4142,6594,-946,14,87,-348,1,7,11
1.72313E+12,-4150,6586,-951,21,73,-378,1,7,11
1.72313E+12,-4154,6579,-947,19,68,-140,1,7,11
1.72313E+12,-4156,6573,-947,15,69,-145,1,7,11
1.72313E+12,-4158,6572,-947,6,77,-145,1,7,11
1.72313E+12,-4167,6561,-945,-262,85,-136,1,7,11
1.72313E+12,-4174,6553,-935,-279,89,-379,1,7,11
1.72313E+12,-4178,6561,-934,-296,88,-374,1,7,11
1.72313E+12,-4191,6559,-937,-315,83,-368,1,7,11
1.72313E+12,-4217,6577,-936,-338,66,-372,1,7,11
1.72313E+12,-3982,6590,-928,-367,23,-381,1,7,11
1.72313E+12,-3983,6603,-923,-371,-285,-145,1,7,11
1.72313E+12,-3984,6616,-915,-354,-337,-175,1,7,11
1.72313E+12,-3974,6610,-1146,-318,-145,-231,1,7,11
1.72313E+12,-4221,6614,-1129,11,-211,-572,1,7,11
1.72313E+12,-4193,6650,-1142,98,-533,-428,1,7,11
1.72313E+12,-4175,6932,-910,-104,-565,-808,1,7,11
1.72313E+12,-4182,6933,-933,-75,-564,-678,1,7,11
1.72313E+12,-4203,6914,-947,-69,-543,-1055,1,7,11
1.72313E+12,-3993,6628,-949,-85,-252,-917,1,7,11
1.72313E+12,-4054,6578,-941,-116,-226,-1015,1,7,11
1.72313E+12,-4379,6780,-921,119,-213,-1343,1,7,11
1.72313E+12,-4439,6720,-912,105,-212,-1388,1,7,11
1.72313E+12,-4245,6656,-903,104,-213,-1402,1,7,11
1.72313E+12,-4305,6329,-1152,119,-208,-1406,1,7,11
1.72313E+12,-4651,6521,-1137,-115,-202,-1169,1,7,11
1.72313E+12,-4730,6402,-1120,-91,-213,-1195,1,7,11
1.72313E+12,-4555,6109,-1114,-51,-237,-1227,1,7,11
1.72313E+12,-4873,6040,-1109,-11,-526,-1247,1,7,11
1.72313E+12,-4916,6240,-1108,286,-543,-1249,1,7,11
1.72313E+12,-4943,6191,-1113,319,-551,-1218,1,7,11
1.72313E+12,-4958,6156,-1118,347,-539,-1158,1,7,11
1.72313E+12,-4967,5882,-1128,358,-249,-1321,1,7,11
1.72313E+12,-4981,5873,-1123,355,-203,-936,1,7,11
1.72313E+12,-4737,5880,-1126,333,-151,-1038,1,7,11
1.72313E+12,-4748,6165,-1130,289,-354,-868,1,7,11
1.72313E+12,-4748,6194,-1140,-29,-305,-435,1,7,11
1.72313E+12,-4992,6215,-1137,-110,7,-524,1,7,11
1.72313E+12,-4989,6239,-1132,50,72,-376,1,7,11
1.72313E+12,-4988,6257,-1128,-361,-89,67,1,7,11
1.72313E+12,-4981,6019,-1131,-205,-32,-87,1,7,11
1.72313E+12,-4986,6037,-1116,-553,281,-3,1,7,11
1.72313E+12,-4985,6049,-1098,-634,319,325,1,7,11
1.72313E+12,-4984,6054,-1087,-422,337,378,1,7,11
1.72313E+12,-4982,6076,-1064,-440,343,156,1,7,11
1.72313E+12,-4984,6091,-1047,-439,337,174,1,7,11
1.72313E+12,-4989,6105,-1037,-416,314,172,1,7,11
1.72313E+12,-4738,6112,-762,-638,280,151,1,7,11
1.72313E+12,-4746,6116,-756,-594,-20,377,1,7,11
1.72313E+12,-4746,6116,-756,-550,-69,338,1,7,11
1.72313E+12,-4746,6109,-752,-253,-110,302,1,7,11
1.72313E+12,-4741,6114,-740,-213,105,266,1,7,11
1.72313E+12,-4745,6120,-737,-180,75,-17,1,7,11
1.72313E+12,-4744,6114,-722,-162,46,-31,1,7,11
1.72313E+12,-4990,6085,-721,-145,26,-35,1,7,11
1.72313E+12,-4980,6083,-722,-384,12,-27,1,7,11
1.72313E+12,-4971,6091,-719,-374,6,-14,1,7,11
1.72313E+12,-4960,6091,-711,-129,-257,262,1,7,11
1.72313E+12,-4929,6084,-711,-154,-262,298,1,7,11
1.72313E+12,-4907,6077,-706,-171,13,328,1,7,11
1.72313E+12,-4896,6086,-707,-183,46,365,1,7,11
1.72313E+12,-4881,6104,-701,-184,94,154,1,7,11
1.72313E+12,-4867,6122,-693,-185,117,212,1,7,11
1.72313E+12,-4585,6400,-689,-185,-128,530,1,7,11
1.72313E+12,-4554,6423,-683,-184,-125,582,1,7,11
1.72313E+12,-4516,6452,-681,-183,-117,625,1,7,11
1.72313E+12,-4482,6488,-675,-183,-98,398,1,7,11
1.72313E+12,-4706,6522,-675,-185,-74,412,1,7,11
1.72313E+12,-4669,6300,-674,-187,-52,415,1,7,11
1.72313E+12,-4638,6337,-681,-198,-24,407,1,7,11
1.72313E+12,-4620,6363,-684,-212,262,392,1,7,11
1.72313E+12,-4331,6378,-686,-227,290,626,1,7,11
1.72313E+12,-4322,6658,-680,-241,324,578,1,7,11
1.72313E+12,-4323,6680,-676,-521,338,527,1,7,11
1.72313E+12,-4336,6697,-671,-541,338,211,1,7,11
1.72313E+12,-4343,6698,-660,-558,321,153,1,7,11
1.72313E+12,-4334,6692,-654,-556,290,356,1,7,11
1.72313E+12,-4319,6665,-889,-545,262,298,1,7,11
1.72313E+12,-4308,6397,-879,-256,-11,-5,1,7,11
1.72313E+12,-4299,6398,-875,-217,-24,-31,1,7,11
1.72313E+12,-4274,6657,-869,-175,-34,-47,1,7,11
1.72313E+12,-4244,6665,-872,-139,-36,-58,1,7,11
1.72313E+12,-4230,6673,-874,-369,-22,-68,1,7,11
1.72313E+12,-4470,6675,-888,-359,-5,-83,1,7,11
1.72313E+12,-4458,6675,-644,-360,264,-105,1,7,11
1.72313E+12,-4450,6673,-645,-373,277,126,1,7,11
1.72313E+12,-4434,6398,-649,-140,284,96,1,7,11
1.72313E+12,-4421,6369,-650,-157,291,62,1,7,11
1.72313E+12,-4439,6357,-657,-163,293,33,1,7,11
1.72313E+12,-4455,6342,-654,-157,273,21,1,7,11
1.72313E+12,-4460,6339,-648,-144,-14,25,1,7,11
1.72313E+12,-4468,6334,-647,-377,-41,42,1,7,11
1.72313E+12,-4464,6338,-643,-344,-76,50,1,7,11
1.72313E+12,-4455,6348,-650,-311,121,60,1,7,11
1.72313E+12,-4428,6353,-648,-282,81,53,1,7,11
1.72313E+12,-4413,6374,-652,-268,50,32,1,7,11
1.72313E+12,-4415,6657,-652,-271,34,0,1,7,11
1.72313E+12,-4422,6673,-652,-289,26,-296,1,7,11
1.72313E+12,-4445,6701,-646,-304,32,-343,1,7,11
1.72313E+12,-4473,6731,-893,-325,35,-133,1,7,11
1.72313E+12,-4247,6729,-879,-358,41,-184,1,7,11
1.72313E+12,-4285,6724,-870,-380,52,-247,1,7,11
1.72313E+12,-4335,6725,-844,-145,55,-567,1,7,11
1.72313E+12,-4645,6710,-825,-177,37,-623,1,7,11
1.72313E+12,-4686,6685,-805,-205,10,-417,1,7,11
1.72313E+12,-4724,6394,-784,-214,-271,-443,1,7,11
1.72313E+12,-4732,6365,-772,-209,-298,-447,1,7,11
1.72313E+12,-4497,6326,-497,-188,-292,-447,1,7,11
1.72313E+12,-4500,6298,-472,-151,-292,-435,1,7,11
1.72313E+12,-4524,6278,-460,-369,-283,-426,1,7,11
1.72313E+12,-4541,6515,-439,-340,-280,-404,1,7,11
1.72313E+12,-4550,6485,-419,-310,-284,-390,1,7,11
1.72313E+12,-4567,6491,-408,-266,-288,-388,1,7,11
1.72313E+12,-4579,6493,-415,13,-280,-638,1,7,11
1.72313E+12,-4607,6492,-416,32,1,-638,1,7,11
1.72313E+12,-4896,6505,-422,50,25,-634,1,7,11
1.72313E+12,-4934,6525,-430,59,59,-638,1,7,11
1.72313E+12,-4988,6291,-450,60,101,-634,1,7,11
1.72313E+12,-4795,6298,-462,51,-109,-625,1,7,11
1.72313E+12,-4850,6312,-471,35,-68,-610,1,7,11
1.72313E+12,-5168,6310,-477,-262,-34,-594,1,7,11
1.72313E+12,-5218,6285,-483,-305,-2,-572,1,7,11
1.72313E+12,-5223,6500,-481,-350,263,-537,1,7,11
1.72313E+12,-5202,6462,-473,-133,275,-248,1,7,11
1.72313E+12,-5177,6416,-453,-190,277,-186,1,7,11
1.72313E+12,-5145,6117,-423,-219,262,-140,1,7,11
1.72313E+12,-4858,6095,-390,-236,-21,-343,1,7,11
1.72313E+12,-4839,6083,-619,-234,-65,-282,1,7,11
1.72313E+12,-4814,6084,-604,-217,-112,36,1,7,11
1.72313E+12,-4797,6080,-586,-187,110,98,1,7,11
1.72313E+12,-4785,6101,-575,-140,83,-98,1,7,11
1.72313E+12,-4789,6135,-569,-344,71,-46,1,7,11
1.72313E+12,-4805,6439,-565,-296,59,264,1,7,11
1.72313E+12,-4803,6486,-566,5,43,318,1,7,11
1.72313E+12,-4767,6511,-574,28,22,373,1,7,11
1.72313E+12,-4964,6508,-569,53,20,159,1,7,11
1.72313E+12,-4882,6495,-568,79,42,177,1,7,11
1.72313E+12,-4515,6468,-579,105,94,166,1,7,11
1.72313E+12,-4641,6438,-596,117,-79,148,1,7,11
1.72313E+12,-4245,6424,-621,-128,299,135,1,7,11
1.72313E+12,-4091,6402,-392,109,185,140,1,7,11
1.72313E+12,-4006,6447,-465,112,392,143,1,7,11
1.72313E+12,-3981,6340,-808,88,842,205,1,7,11
1.72313E+12,-4193,6706,-647,5,1037,539,1,7,11
1.72313E+12,-4375,6611,-719,-361,1298,590,1,7,11
1.72313E+12,-4253,6916,-748,-526,1388,410,1,7,11
1.72313E+12,-4348,6928,-759,-628,1373,386,1,7,11
1.72313E+12,-4621,6635,-746,-460,995,565,1,7,11
1.72313E+12,-4328,6782,-715,-489,1127,128,1,7,11
1.72313E+12,-4682,6744,-683,-444,735,-88,1,7,11
1.72313E+12,-4585,6727,-679,-614,819,-292,1,7,11
1.72313E+12,-4878,6697,-693,-255,543,-164,1,7,11
1.72313E+12,-4568,6341,-699,-136,342,-538,1,7,11
1.72313E+12,-4563,6500,-675,5,-8,-608,1,7,11
1.72313E+12,-4553,6131,-895,-106,-102,-626,1,7,11
1.72313E+12,-4733,6035,-886,316,31,-619,1,7,11
1.72313E+12,-4704,6042,-673,223,-290,-598,1,7,11
1.72313E+12,-4689,6055,-713,560,-323,-520,1,7,11
1.72313E+12,-4698,6095,-755,586,-318,-161,1,7,11
1.72313E+12,-4504,6484,-1057,570,-293,-301,1,7,11
1.72313E+12,-4599,6301,-1076,235,-279,71,1,7,11
1.72313E+12,-4984,6321,-1067,365,-296,-95,1,7,11
1.72313E+12,-4808,6316,-1035,-20,-329,-46,1,7,11
1.72313E+12,-4822,6284,-738,85,-196,-28,1,7,11
1.72313E+12,-4785,6511,-697,21,-533,-24,1,7,11
1.72313E+12,-4951,6448,-644,-280,-588,267,1,7,11
1.72313E+12,-4575,6115,-833,-293,-607,319,1,7,11
1.72313E+12,-4650,6028,-511,-293,-625,130,1,7,11
1.72313E+12,-4382,6158,-446,-276,-634,184,1,7,11
1.72313E+12,-4002,6183,-462,95,-247,193,1,7,11
1.72313E+12,-4407,6527,-810,-19,-311,535,1,7,11
1.72313E+12,-4449,6781,-871,-85,27,492,1,7,11
1.72313E+12,-4413,6541,-866,30,111,654,1,7,11
1.72313E+12,-4476,6538,-849,-278,-49,696,1,7,11
1.72313E+12,-4298,6606,-867,-269,-30,860,1,7,11
1.72313E+12,-4654,6967,-883,-267,-50,397,1,7,11
1.72313E+12,-4709,6968,-878,-302,-95,139,1,7,11
1.72313E+12,-4492,6915,-851,-318,-124,103,1,7,11
1.72313E+12,-4503,6573,-815,-333,117,-175,1,7,11
1.72313E+12,-4523,6716,-769,-345,110,-423,1,7,11
1.72313E+12,-4507,6338,-484,-342,104,-855,1,7,11
1.72313E+12,-4722,6472,-464,-334,-125,-683,1,7,11
1.72313E+12,-4706,6400,-463,-303,-51,-656,1,7,11
1.72313E+12,-4688,6114,-469,-284,297,-788,1,7,11
1.72313E+12,-4694,6130,-469,-270,148,-597,1,7,11
1.72313E+12,-4705,6445,-477,-267,226,-349,1,7,11
1.72313E+12,-4674,6501,-490,-278,528,-90,1,7,11
1.72313E+12,-4623,6287,-507,-291,577,146,1,7,11
1.72313E+12,-4308,6319,-792,-303,629,584,1,7,11
1.72313E+12,-4242,6358,-818,-297,422,426,1,7,11
1.72313E+12,-4455,6662,-853,-282,467,443,1,7,11
1.72313E+12,-4426,6714,-650,-264,499,388,1,7,11
1.72313E+12,-4418,6770,-693,9,506,544,1,7,11
1.72313E+12,-4430,6565,-736,19,494,166,1,7,11
1.72313E+12,-4444,6553,-768,27,456,301,1,7,11
1.72313E+12,-4478,6534,-1050,44,405,-118,1,7,11
1.72313E+12,-4233,6775,-1065,76,592,94,1,7,11
1.72313E+12,-4271,6756,-1082,112,255,22,1,7,11
1.72313E+12,-4304,6734,-1090,-110,151,-279,1,7,11
1.72313E+12,-4304,6692,-1105,-71,300,-297,1,7,11
1.72313E+12,-4288,6678,-1111,-22,-43,-301,1,7,11
1.72313E+12,-4263,6672,-1126,279,-102,-292,1,7,11
1.72313E+12,-4253,6682,-1142,315,119,-284,1,7,11
1.72313E+12,-4245,6700,-1146,328,102,-278,1,7,11
1.72313E+12,-4242,6712,-1152,314,94,-283,1,7,11
1.72313E+12,-4234,6716,-905,273,92,-300,1,7,11
1.72313E+12,-4479,6708,-905,-45,111,-324,1,7,11
1.72313E+12,-4227,6686,-900,99,-107,-357,1,7,11
1.72313E+12,-4242,6665,-1148,26,-61,-133,1,7,11
1.72313E+12,-4263,6378,-1134,-292,-17,-163,1,7,11
1.72313E+12,-4289,6349,-1129,-339,281,-180,1,7,11
1.72313E+12,-4295,6301,-1118,-365,307,-178,1,7,11
1.72313E+12,-4323,6289,-1106,-370,345,-173,1,7,11
1.72313E+12,-4609,6523,-1098,-380,356,-145,1,7,11
1.72313E+12,-4640,6511,-1083,-372,351,-364,1,7,11
1.72313E+12,-4669,6505,-1076,-355,329,-315,1,7,11
1.72313E+12,-4682,6497,-1070,-332,288,-261,1,7,11
1.72313E+12,-4677,6499,-1063,-295,-10,46,1,7,11
1.72313E+12,-4665,6503,-1059,1,-39,95,1,7,11
1.72313E+12,-4653,6522,-1060,42,-55,-115,1,7,11
1.72313E+12,-4635,6317,-1071,90,-64,-53,1,7,11
1.72313E+12,-4625,6331,-1075,96,-61,-33,1,7,11
1.72313E+12,-4611,6341,-1087,89,-57,-25,1,7,11
1.72313E+12,-4343,6341,-1091,74,-45,-25,1,7,11
1.72313E+12,-4330,6342,-1105,63,-23,-34,1,7,11
1.72313E+12,-4323,6344,-1112,47,258,-48,1,7,11
1.72313E+12,-4325,6346,-1122,31,282,-65,1,7,11
1.72313E+12,-4327,6344,-1136,15,301,-84,1,7,11
1.72313E+12,-4322,6344,-1133,3,309,-103,1,7,11
1.72313E+12,-4314,6340,-1137,-264,317,-122,1,7,11
1.72313E+12,-4312,6332,-1150,-274,329,124,1,7,11
1.72313E+12,-4310,6331,-898,-275,336,116,1,7,11
1.72313E+12,-4309,6333,-897,-279,339,122,1,7,11
1.72313E+12,-4302,6337,-897,-283,338,-123,1,7,11
1.72313E+12,-4293,6340,-899,-287,336,-114,1,7,11
1.72313E+12,-4280,6342,-1152,-288,333,-105,1,7,11
1.72313E+12,-4265,6348,-903,-290,337,-102,1,7,11
1.72313E+12,-4256,6364,-914,-294,344,-96,1,7,11
1.72313E+12,-4234,6363,-920,-311,354,-89,1,7,11
1.72313E+12,-4480,6359,-926,-328,369,-85,1,7,11
1.72313E+12,-4478,6373,-928,-348,380,-81,1,7,11
1.72313E+12,-4227,6390,-928,-382,377,-76,1,7,11
1.72313E+12,-4225,6394,-922,-164,362,-67,1,7,11
1.72313E+12,-4478,6392,-923,-184,345,-56,1,7,11
1.72313E+12,-4461,6387,-915,-190,324,-47,1,7,11
1.72313E+12,-4441,6384,-910,-171,313,-45,1,7,11
1.72313E+12,-4422,6391,-910,-144,310,-40,1,7,11
1.72313E+12,-4418,6656,-912,-376,311,-40,1,7,11
1.72313E+12,-4422,6669,-906,-353,301,-43,1,7,11
1.72313E+12,-4418,6682,-904,-334,275,-46,1,7,11
1.72313E+12,-4409,6684,-910,-321,-8,-52,1,7,11
1.72313E+12,-4392,6695,-909,-309,-23,-64,1,7,11
1.72313E+12,-4391,6704,-913,-296,-30,-82,1,7,11
1.72313E+12,-4386,6709,-911,-287,-34,-102,1,7,11
1.72313E+12,-4387,6718,-920,-285,-35,-116,1,7,11
1.72313E+12,-4394,6722,-923,-282,-31,127,1,7,11
1.72313E+12,-4379,6711,-932,-283,-27,119,1,7,11
1.72313E+12,-4388,6715,-926,-275,-16,103,1,7,11
1.72313E+12,-4396,6704,-922,-287,-14,86,1,7,11
1.72313E+12,-4417,6703,-916,-296,-13,70,1,7,11
1.72313E+12,-4422,6698,-920,-306,-20,59,1,7,11
1.72313E+12,-4422,6686,-920,-310,-34,48,1,7,11
1.72313E+12,-4427,6674,-926,-309,-42,39,1,7,11
1.72313E+12,-4431,6671,-921,-304,-41,41,1,7,11
1.72313E+12,-4439,6666,-920,-304,-41,52,1,7,11
1.72313E+12,-4440,6663,-917,-303,-47,67,1,7,11
1.72313E+12,-4440,6668,-910,-298,-56,78,1,7,11
1.72313E+12,-4442,6675,-909,-299,-62,90,1,7,11
1.72313E+12,-4439,6677,-910,-303,-69,96,1,7,11
1.72313E+12,-4433,6679,-915,-309,-76,99,1,7,11
1.72313E+12,-4433,6679,-920,-314,-80,97,1,7,11
1.72313E+12,-4440,6684,-919,-319,-77,95,1,7,11
1.72313E+12,-4439,6673,-916,-327,-77,97,1,7,11
1.72313E+12,-4431,6666,-904,-329,-89,96,1,7,11
1.72313E+12,-4427,6659,-899,-316,-93,99,1,7,11
1.72313E+12,-4420,6662,-901,-303,-93,105,1,7,11
1.72313E+12,-4417,6676,-898,-292,-94,119,1,7,11
1.72313E+12,-4409,6681,-1145,-284,-89,-121,1,7,11
1.72313E+12,-4398,6682,-1148,-281,-79,-108,1,7,11
1.72313E+12,-4388,6690,-1145,-278,-69,-102,1,7,11
1.72313E+12,-4379,6692,-1148,-281,-56,-103,1,7,11
1.72313E+12,-4375,6699,-898,-285,-39,-107,1,7,11
1.72313E+12,-4377,6710,-904,-289,-28,-111,1,7,11
1.72313E+12,-4371,6703,-909,-306,-15,-115,1,7,11
1.72313E+12,-4374,6705,-909,-313,-4,-120,1,7,11
1.72313E+12,-4379,6717,-910,-324,258,-123,1,7,11
1.72313E+12,-4385,6729,-915,-351,-9,-125,1,7,11
1.72313E+12,-4380,6721,-913,-379,-28,-127,1,7,11
1.72313E+12,-4376,6714,-917,-140,-43,-126,1,7,11
1.72313E+12,-4357,6702,-909,-140,-52,-122,1,7,11
1.72313E+12,-4086,6705,-900,-371,-57,-110,1,7,11
1.72313E+12,-4081,6714,-898,-342,-56,-97,1,7,11
1.72313E+12,-4080,6730,-1148,-314,-55,-87,1,7,11
1.72313E+12,-4077,6748,-1144,-295,-77,-79,1,7,11
1.72313E+12,-4066,6756,-1145,-287,-97,-84,1,7,11
1.72313E+12,-4053,6764,-1151,-290,-104,-95,1,7,11
1.72313E+12,-4047,6770,-1151,-299,-97,-114,1,7,11
1.72313E+12,-4048,6773,-1149,-310,-90,122,1,7,11
1.72313E+12,-4044,6766,-1147,-314,-84,102,1,7,11
1.72313E+12,-4047,6761,-1145,-318,-75,87,1,7,11
1.72313E+12,-4045,6752,-1138,-318,-66,77,1,7,11
1.72313E+12,-4051,6745,-1132,-304,-52,69,1,7,11
1.72313E+12,-4069,6748,-1132,-297,-50,65,1,7,11
1.72313E+12,-4079,6742,-1126,-296,-56,62,1,7,11
1.72313E+12,-4084,6738,-1127,-293,-66,61,1,7,11
1.72313E+12,-4088,6732,-1140,-293,-79,61,1,7,11
1.72313E+12,-4083,6728,-1135,-291,-92,60,1,7,11
1.72313E+12,-4079,6732,-1132,-290,-93,63,1,7,11
1.72313E+12,-4082,6740,-1127,-284,-88,75,1,7,11
1.72313E+12,-4083,6742,-1122,-280,-88,87,1,7,11
1.72313E+12,-4078,6747,-1123,-273,-94,98,1,7,11
1.72313E+12,-4074,6751,-1122,-266,-98,104,1,7,11
1.72313E+12,-4075,6748,-1128,-263,-94,103,1,7,11
1.72313E+12,-4071,6752,-1132,-257,-92,93,1,7,11
1.72313E+12,-4071,6756,-1136,0,-87,76,1,7,11
1.72313E+12,-4072,6757,-1131,-257,-78,65,1,7,11
1.72313E+12,-4075,6755,-1124,-260,-69,57,1,7,11
1.72313E+12,-4076,6745,-1127,-259,-64,54,1,7,11
1.72313E+12,-4078,6739,-1126,0,-57,54,1,7,11
1.72313E+12,-4075,6729,-1126,0,-52,55,1,7,11
1.72313E+12,-4068,6729,-1130,10,-50,56,1,7,11
1.72313E+12,-4067,6737,-1139,20,-45,59,1,7,11
1.72313E+12,-4070,6742,-1142,22,-39,66,1,7,11
1.72313E+12,-4073,6753,-1147,24,-36,77,1,7,11
1.72313E+12,-4066,6756,-1145,22,-31,83,1,7,11
1.72313E+12,-4057,6749,-1151,22,-24,82,1,7,11
1.72313E+12,-4057,6751,-1152,20,-21,75,1,7,11
1.72313E+12,-4056,6751,-905,16,-20,68,1,7,11
1.72313E+12,-4051,6742,-912,17,-19,55,1,7,11
1.72313E+12,-4055,6745,-927,25,-20,45,1,7,11
1.72313E+12,-4052,6748,-927,23,-23,38,1,7,11
1.72313E+12,-4054,6752,-937,18,-27,37,1,7,11
1.72313E+12,-4064,6768,-944,9,-34,32,1,7,11
1.72313E+12,-4070,6771,-942,-271,-50,26,1,7,11
1.72313E+12,-4071,6766,-935,-305,-74,30,1,7,11
1.72313E+12,-4061,6748,-936,-332,-97,38,1,7,11
1.72313E+12,-4045,6730,-933,-334,-112,45,1,7,11
1.72313E+12,-4032,6724,-932,-297,-104,50,1,7,11
1.72313E+12,-4031,6730,-924,-270,-89,59,1,7,11
1.72313E+12,-4038,6744,-917,5,-84,67,1,7,11
1.72313E+12,-4037,6758,-915,15,-91,66,1,7,11
1.72313E+12,-4029,6765,-915,16,-97,52,1,7,11
1.72313E+12,-4021,6764,-923,8,-92,33,1,7,11
1.72313E+12,-4029,6769,-927,-259,-77,13,1,7,11
1.72313E+12,-4038,6764,-926,-268,-64,-257,1,7,11
1.72313E+12,-4046,6753,-923,-280,-56,-262,1,7,11
1.72313E+12,-4056,6742,-922,-285,-50,-262,1,7,11
1.72313E+12,-4053,6728,-918,-286,-50,2,1,7,11
1.72313E+12,-4064,6723,-927,-270,-40,4,1,7,11
1.72313E+12,-4082,6720,-938,-265,-43,5,1,7,11
1.72313E+12,-4092,6719,-926,-260,-54,3,1,7,11
1.72313E+12,-4094,6722,-925,-259,-75,3,1,7,11
1.72313E+12,-4093,6718,-924,-257,-97,0,1,7,11
1.72313E+12,-4085,6716,-928,1,-106,0,1,7,11
1.72313E+12,-4086,6716,-923,1,-101,5,1,7,11
1.72313E+12,-4091,6717,-919,2,-96,15,1,7,11
1.72313E+12,-4356,6721,-914,0,-93,28,1,7,11
1.72313E+12,-4357,6720,-917,-259,-94,35,1,7,11
1.72313E+12,-4355,6722,-925,-263,-94,43,1,7,11
1.72313E+12,-4356,6722,-928,-270,-90,46,1,7,11
1.72313E+12,-4092,6718,-930,-273,-84,47,1,7,11
1.72313E+12,-4354,6718,-929,-278,-77,47,1,7,11
1.72313E+12,-4354,6718,-931,-280,-72,51,1,7,11
1.72313E+12,-4357,6713,-922,-284,-71,57,1,7,11
1.72313E+12,-4367,6714,-921,-282,-70,57,1,7,11
1.72313E+12,-4373,6709,-920,-279,-79,55,1,7,11
1.72313E+12,-4367,6703,-914,-273,-89,50,1,7,11
1.72313E+12,-4360,6704,-919,-262,-94,49,1,7,11
1.72313E+12,-4096,6708,-927,-258,-93,54,1,7,11
1.72313E+12,-4356,6717,-925,2,-85,64,1,7,11
1.72313E+12,-4091,6715,-927,1,-77,75,1,7,11
1.72313E+12,-4080,6717,-937,1,-70,81,1,7,11
1.72313E+12,-4077,6724,-933,-262,-62,86,1,7,11
1.72313E+12,-4076,6723,-941,-268,-53,89,1,7,11
1.72313E+12,-4071,6718,-946,-272,-46,88,1,7,11
1.72313E+12,-4080,6721,-954,-273,-39,84,1,7,11
1.72313E+12,-4081,6726,-951,-275,-43,83,1,7,11
1.72313E+12,-4080,6716,-944,-280,-47,80,1,7,11
1.72313E+12,-4077,6712,-947,-278,-54,78,1,7,11
1.72313E+12,-4087,6727,-948,-282,-62,71,1,7,11
1.72313E+12,-4357,6743,-949,-304,-87,71,1,7,11
1.72313E+12,-4088,6729,-945,-327,-118,78,1,7,11
1.72313E+12,-4070,6724,-941,-335,-128,83,1,7,11
1.72313E+12,-4059,6721,-941,-327,-126,91,1,7,11
1.72313E+12,-4053,6717,-931,-305,-115,99,1,7,11
1.72313E+12,-4052,6718,-931,-283,-98,108,1,7,11
1.72313E+12,-4055,6725,-929,-268,-93,113,1,7,11
1.72313E+12,-4057,6733,-929,-263,-99,110,1,7,11
1.72313E+12,-4044,6738,-924,-268,-103,102,1,7,11
1.72313E+12,-4038,6741,-924,-279,-96,94,1,7,11
1.72313E+12,-4046,6746,-920,-293,-77,86,1,7,11
1.72313E+12,-4050,6744,-915,-306,-63,85,1,7,11
1.72313E+12,-4056,6743,-905,-313,-47,88,1,7,11
1.72313E+12,-4054,6732,-913,-311,-43,98,1,7,11
1.72313E+12,-4053,6725,-911,-286,-32,102,1,7,11
1.72313E+12,-4063,6734,-917,-275,-31,105,1,7,11
1.72313E+12,-4075,6736,-919,-269,-38,104,1,7,11
1.72313E+12,-4077,6742,-919,-265,-53,105,1,7,11
1.72313E+12,-4066,6741,-918,-264,-73,100,1,7,11
1.72313E+12,-4057,6742,-918,-258,-89,89,1,7,11
1.72313E+12,-4051,6736,-919,5,-88,85,1,7,11
1.72313E+12,-4046,6743,-920,11,-79,85,1,7,11
1.72313E+12,-4043,6746,-922,15,-67,90,1,7,11
1.72313E+12,-4047,6749,-922,15,-62,96,1,7,11
1.72313E+12,-4043,6751,-934,13,-57,97,1,7,11
1.72313E+12,-4045,6747,-938,9,-50,94,1,7,11
1.72313E+12,-4046,6747,-942,2,-45,85,1,7,11
1.72313E+12,-4048,6750,-942,-262,-39,82,1,7,11
1.72313E+12,-4049,6745,-947,-272,-33,84,1,7,11
1.72313E+12,-4047,6747,-943,-279,-28,87,1,7,11
1.72313E+12,-4050,6742,-944,-284,-25,92,1,7,11
1.72313E+12,-4058,6742,-945,-286,-24,97,1,7,11
1.72313E+12,-4051,6735,-950,-285,-27,103,1,7,11
1.72313E+12,-4037,6730,-951,-284,-29,108,1,7,11
1.72313E+12,-4028,6734,-954,-281,-29,111,1,7,11
1.72313E+12,-4022,6741,-950,-280,-23,126,1,7,11
1.72313E+12,-4022,6746,-946,-284,-20,-113,1,7,11
1.72313E+12,-4021,6750,-952,-289,-23,-96,1,7,11
1.72313E+12,-4012,6754,-947,-286,-28,-87,1,7,11
1.72313E+12,-4003,6758,-955,-280,-32,-82,1,7,11
1.72313E+12,-3992,6767,-953,-277,-31,-82,1,7,11
1.72313E+12,-3981,6769,-966,-276,-26,-84,1,7,11
1.72313E+12,-3983,6781,-973,-271,-18,-92,1,7,11
1.72313E+12,-3971,6783,-978,-272,-15,-107,1,7,11
1.72313E+12,-4219,6529,-976,-278,-9,-121,1,7,11
1.72313E+12,-3971,6548,-974,-284,-1,120,1,7,11
1.72313E+12,-3981,6558,-972,-302,-11,100,1,7,11
1.72313E+12,-3982,6554,-967,-356,-32,78,1,7,11
1.72313E+12,-3981,6544,-968,-377,-50,64,1,7,11
1.72313E+12,-3974,6780,-967,-380,-59,55,1,7,11
1.72313E+12,-4219,6772,-969,-368,-60,53,1,7,11
1.72313E+12,-4216,6775,-958,-327,-51,60,1,7,11
1.72313E+12,-4221,6777,-962,-299,-44,70,1,7,11
1.72313E+12,-3973,6783,-951,-284,-50,82,1,7,11
1.72313E+12,-3972,6531,-952,-279,-68,85,1,7,11
1.72313E+12,-4221,6535,-962,-280,-83,81,1,7,11
1.72313E+12,-4215,6535,-966,-291,-83,73,1,7,11
1.72313E+12,-4218,6535,-960,-301,-79,65,1,7,11
1.72313E+12,-4222,6529,-961,-309,-74,58,1,7,11
1.72313E+12,-4224,6783,-960,-314,-67,59,1,7,11
1.72313E+12,-3975,6783,-953,-314,-61,68,1,7,11
1.72313E+12,-4221,6773,-951,-307,-54,82,1,7,11
1.72313E+12,-3977,6781,-952,-296,-45,87,1,7,11
1.72313E+12,-3984,6776,-951,-299,-49,89,1,7,11
1.72313E+12,-3995,6774,-959,-300,-56,86,1,7,11
1.72313E+12,-4006,6772,-952,-304,-71,79,1,7,11
1.72313E+12,-3996,6767,-949,-306,-90,71,1,7,11
1.72313E+12,-3986,6765,-954,-304,-99,66,1,7,11
1.72313E+12,-3989,6769,-942,-297,-97,70,1,7,11
1.72313E+12,-3988,6770,-941,-295,-94,85,1,7,11
1.72313E+12,-3989,6772,-949,-287,-94,100,1,7,11
1.72313E+12,-3982,6780,-951,-280,-93,118,1,7,11
1.72313E+12,-3980,6528,-949,-279,-87,126,1,7,11
1.72313E+12,-3979,6534,-948,-278,-80,126,1,7,11
1.72313E+12,-3973,6542,-944,-282,-82,123,1,7,11
1.72313E+12,-4223,6545,-941,-289,-78,115,1,7,11
1.72313E+12,-4221,6547,-939,-293,-69,106,1,7,11
1.72313E+12,-4223,6540,-941,-298,-67,98,1,7,11
1.72313E+12,-4222,6531,-939,-294,-62,90,1,7,11
1.72313E+12,-4219,6531,-939,-289,-60,87,1,7,11
1.72313E+12,-4212,6783,-938,-283,-62,88,1,7,11
1.72313E+12,-4209,6783,-940,-277,-61,90,1,7,11
1.72313E+12,-4212,6528,-942,-274,-59,96,1,7,11
1.72313E+12,-4213,6535,-948,-273,-54,105,1,7,11
1.72313E+12,-4208,6546,-948,-278,-53,120,1,7,11
1.72313E+12,-4185,6540,-954,-283,-47,-111,1,7,11
1.72313E+12,-4181,6538,-959,-285,-45,-114,1,7,11
1.72313E+12,-4178,6542,-960,-284,-44,-115,1,7,11
1.72313E+12,-4179,6591,-961,-318,-56,-127,1,7,11
1.72313E+12,-4187,6595,-957,-355,-86,120,1,7,11
1.72313E+12,-4185,6589,-956,-378,-113,111,1,7,11
1.72313E+12,-4167,6572,-950,-378,-125,102,1,7,11
1.72313E+12,-4154,6567,-941,-354,127,95,1,7,11
1.72313E+12,-4135,6571,-931,-321,-119,92,1,7,11
1.72313E+12,-4136,6577,-927,-292,-101,94,1,7,11
1.72313E+12,-4143,6580,-923,-275,-96,95,1,7,11
1.72313E+12,-4145,6587,-923,-267,-105,90,1,7,11
1.72313E+12,-4134,6597,-922,-269,-108,77,1,7,11
1.72313E+12,-4136,6599,-912,-274,-98,57,1,7,11
1.72313E+12,-4146,6594,-913,-276,-87,38,1,7,11
1.72313E+12,-4159,6582,-908,-279,-79,14,1,7,11
1.72313E+12,-4167,6576,-912,-276,-67,6,1,7,11
1.72313E+12,-4163,6561,-919,-270,-62,9,1,7,11
1.72313E+12,-4159,6559,-918,-252,-46,11,1,7,11
1.72313E+12,-4170,6565,-929,5,-37,17,1,7,11
1.72313E+12,-4184,6553,-925,-257,-41,22,1,7,11
1.72313E+12,-4195,6552,-929,-260,-48,29,1,7,11
1.72313E+12,-4190,6544,-931,-264,-60,33,1,7,11
1.72313E+12,-4186,6540,-939,-261,-68,39,1,7,11
1.72313E+12,-4181,6544,-942,3,-66,51,1,7,11
1.72313E+12,-4185,6559,-946,10,-61,68,1,7,11
1.72313E+12,-4185,6561,-954,18,-62,81,1,7,11
1.72313E+12,-4172,6574,-954,24,-66,86,1,7,11
1.72313E+12,-4165,6584,-955,25,-62,83,1,7,11
1.72313E+12,-4165,6585,-955,21,-51,71,1,7,11
1.72313E+12,-4169,6583,-958,12,-47,58,1,7,11
1.72313E+12,-4167,6579,-959,2,-46,45,1,7,11
1.72313E+12,-4167,6573,-967,-261,-42,33,1,7,11
1.72313E+12,-4170,6566,-971,-267,-39,28,1,7,11
1.72313E+12,-4177,6561,-966,-270,-40,28,1,7,11
1.72313E+12,-4177,6554,-972,-269,-39,27,1,7,11
1.72313E+12,-4177,6551,-970,-264,-38,30,1,7,11
1.72313E+12,-4176,6544,-965,-261,-42,35,1,7,11
1.72313E+12,-4173,6541,-967,0,-48,40,1,7,11
1.72313E+12,-4166,6548,-973,5,-52,44,1,7,11
1.72313E+12,-4169,6549,-972,6,-53,51,1,7,11
1.72313E+12,-4170,6550,-984,5,-52,62,1,7,11
1.72313E+12,-4168,6549,-981,2,-59,76,1,7,11
1.72313E+12,-4165,6556,-979,-257,-62,89,1,7,11
1.72313E+12,-4161,6553,-985,-258,-62,96,1,7,11
1.72313E+12,-4161,6552,-995,-261,-60,99,1,7,11
1.72313E+12,-4162,6552,-992,-263,-60,95,1,7,11
1.72313E+12,-4170,6568,-996,-262,-63,90,1,7,11
1.72313E+12,-4164,6564,-995,-271,-74,89,1,7,11
1.72313E+12,-4158,6566,-996,-275,-81,82,1,7,11
1.72313E+12,-4162,6566,-1000,-280,-88,71,1,7,11
1.72313E+12,-4181,6585,-992,-298,-101,57,1,7,11
1.72313E+12,-4189,6591,-981,-327,-126,53,1,7,11
1.72313E+12,-4174,6586,-976,-350,106,53,1,7,11
1.72313E+12,-4155,6569,-980,-355,101,51,1,7,11
1.72313E+12,-4140,6563,-974,-340,110,51,1,7,11
1.72313E+12,-4134,6563,-967,-319,-124,53,1,7,11
1.72313E+12,-4139,6570,-956,-303,-103,54,1,7,11
1.72313E+12,-4148,6572,-951,-295,-96,55,1,7,11
1.72313E+12,-4143,6571,-951,-294,-101,48,1,7,11
1.72313E+12,-4140,6577,-947,-302,-103,39,1,7,11
1.72313E+12,-4133,6565,-945,-311,-96,31,1,7,11
1.72313E+12,-4144,6560,-949,-311,-83,23,1,7,11
1.72313E+12,-4153,6558,-950,-309,-76,27,1,7,11
1.72313E+12,-4167,6556,-943,-301,-72,35,1,7,11
1.72313E+12,-4161,6547,-941,-293,-73,49,1,7,11
1.72313E+12,-4158,6546,-945,-276,-62,55,1,7,11
1.72313E+12,-4171,6560,-940,-271,-57,56,1,7,11
1.72313E+12,-4178,6556,-943,-274,-65,54,1,7,11
1.72313E+12,-4184,6556,-951,-276,-75,47,1,7,11
1.72313E+12,-4182,6537,-957,-283,-88,38,1,7,11
1.72313E+12,-4174,6545,-957,-282,-94,29,1,7,11
1.72313E+12,-4171,6549,-955,-281,-88,30,1,7,11
1.72313E+12,-4170,6553,-958,-275,-83,39,1,7,11
1.72313E+12,-4170,6560,-959,-269,-79,55,1,7,11
1.72313E+12,-4179,6564,-961,-270,-73,65,1,7,11
1.72313E+12,-4187,6563,-962,-277,-69,73,1,7,11
1.72313E+12,-4189,6556,-956,-278,-73,71,1,7,11
1.72313E+12,-4190,6551,-957,-275,-82,62,1,7,11
1.72313E+12,-4186,6549,-968,-275,-84,54,1,7,11
1.72313E+12,-4181,6553,-967,-278,-74,53,1,7,11
1.72313E+12,-4180,6547,-959,-281,-61,56,1,7,11
1.72313E+12,-4184,6546,-954,-289,-54,62,1,7,11
1.72313E+12,-4183,6537,-954,-292,-52,70,1,7,11
1.72313E+12,-4181,6531,-956,-290,-54,80,1,7,11
1.72313E+12,-4166,6782,-961,-282,-55,89,1,7,11
1.72313E+12,-4160,6534,-955,-272,-48,101,1,7,11
1.72313E+12,-4158,6548,-964,-267,-44,116,1,7,11
1.72313E+12,-4154,6552,-968,-260,-42,-126,1,7,11
1.72313E+12,-4149,6558,-971,0,-43,-119,1,7,11
1.72313E+12,-4150,6564,-967,3,-49,-120,1,7,11
1.72313E+12,-4150,6566,-980,5,-55,-128,1,7,11
1.72313E+12,-4147,6570,-972,7,-53,116,1,7,11
1.72313E+12,-4148,6584,-985,-258,-54,94,1,7,11
1.72313E+12,-4139,6578,-978,-269,-59,90,1,7,11
1.72313E+12,-4138,6574,-985,-276,-58,88,1,7,11
1.72313E+12,-4148,6587,-987,-287,-60,91,1,7,11
1.72313E+12,-4163,6598,-998,-310,-71,97,1,7,11
1.72313E+12,-4157,6588,-996,-340,-95,104,1,7,11
1.72313E+12,-4154,6578,-984,-357,-113,113,1,7,11
1.72313E+12,-4131,6563,-982,-355,-128,111,1,7,11
1.72313E+12,-4125,6558,-972,-340,-127,110,1,7,11
1.72313E+12,-4106,6556,-968,-318,-119,123,1,7,11
1.72313E+12,-4110,6572,-969,-299,-104,-126,1,7,11
1.72313E+12,-4108,6589,-956,-293,-98,-114,1,7,11
1.72313E+12,-4100,6596,-955,-296,-103,-109,1,7,11
1.72313E+12,-4099,6600,-961,-293,-110,-108,1,7,11
1.72313E+12,-3821,6604,-955,-298,-109,-116,1,7,11
1.72313E+12,-3835,6603,-957,-303,-96,-127,1,7,11
1.72313E+12,-3833,6609,-952,-303,-91,117,1,7,11
1.72313E+12,-4100,6606,-950,-304,-82,107,1,7,11
1.72313E+12,-3831,6599,-952,-299,-82,112,1,7,11
1.72313E+12,-3835,6603,-953,-283,-69,103,1,7,11
1.72313E+12,-3840,6612,-959,-288,-65,100,1,7,11
1.72313E+12,-4101,6612,-954,-294,-59,93,1,7,11
1.72313E+12,-4114,6617,-954,-303,-61,88,1,7,11
1.72313E+12,-4110,6602,-953,-311,-70,80,1,7,11
1.72313E+12,-4109,6598,-951,-285,-73,72,1,7,11
1.72313E+12,-4114,6600,-956,-267,-82,80,1,7,11
1.72313E+12,-4109,6607,-960,6,-89,86,1,7,11
1.72313E+12,-4108,6616,-965,5,-92,84,1,7,11
1.72313E+12,-4104,6623,-965,1,-93,75,1,7,11
1.72313E+12,-4108,6618,-965,-266,-90,62,1,7,11
1.72313E+12,-4108,6620,-963,-280,-88,48,1,7,11
1.72313E+12,-4114,6615,-954,-290,-85,40,1,7,11
1.72313E+12,-4112,6596,-944,-298,-81,39,1,7,11
1.72313E+12,-4114,6584,-948,-300,-74,44,1,7,11
1.72313E+12,-4124,6579,-951,-296,-69,56,1,7,11
1.72313E+12,-4126,6563,-947,-290,-69,65,1,7,11
1.72313E+12,-4123,6565,-952,-280,-70,68,1,7,11
1.72313E+12,-4119,6570,-947,-274,-69,76,1,7,11
1.72313E+12,-4117,6582,-949,-274,-70,93,1,7,11
1.72313E+12,-4110,6590,-953,-279,-72,116,1,7,11
1.72313E+12,-4098,6589,-958,-284,-75,-117,1,7,11
1.72313E+12,-3837,6589,-959,-284,-75,-104,1,7,11
1.72313E+12,-3830,6594,-966,-280,-71,-97,1,7,11
1.72313E+12,-3821,6595,-956,-279,-69,-93,1,7,11
1.72313E+12,-3809,6597,-949,-274,-69,-96,1,7,11
1.72313E+12,-3817,6613,-962,-265,-67,-98,1,7,11
1.72313E+12,-3802,6622,-964,-269,-66,-95,1,7,11
1.72313E+12,-3801,6630,-971,-276,-54,-98,1,7,11
1.72313E+12,-3808,6642,-971,-290,-43,-106,1,7,11
1.72313E+12,-3822,6913,-973,-320,-54,-121,1,7,11
1.72313E+12,-3826,6915,-970,-362,-80,122,1,7,11
1.72313E+12,-3824,6651,-968,-133,-104,114,1,7,11
1.72313E+12,-3811,6638,-964,-140,-119,110,1,7,11
1.72313E+12,-3800,6627,-953,-371,-125,107,1,7,11
1.72313E+12,-3792,6623,-945,-331,-121,104,1,7,11
1.72313E+12,-3797,6625,-936,-296,-115,100,1,7,11
1.72313E+12,-3801,6637,-921,-275,-123,94,1,7,11
1.72313E+12,-3800,6642,-914,-263,116,80,1,7,11
1.72313E+12,-3783,6646,-918,-268,105,67,1,7,11
1.72313E+12,-3773,6638,-920,-284,113,57,1,7,11
1.72313E+12,-3773,6636,-914,-297,-126,51,1,7,11
1.72313E+12,-3781,6629,-919,-307,-110,50,1,7,11
1.72313E+12,-3795,6628,-918,-312,-98,54,1,7,11
1.72313E+12,-3806,6629,-912,-308,-87,67,1,7,11
1.72313E+12,-3804,6622,-907,-300,-80,80,1,7,11
1.72313E+12,-3820,6628,-911,-285,-69,80,1,7,11
1.72313E+12,-3829,6622,-914,-282,-74,73,1,7,11
1.72313E+12,-3829,6622,-924,-274,-79,58,1,7,11
1.72313E+12,-3828,6615,-928,-279,-89,41,1,7,11
1.72313E+12,-3809,6611,-926,-284,-104,47,1,7,11
1.72313E+12,-3800,6611,-921,-289,-96,67,1,7,11
1.72313E+12,-3802,6610,-922,-284,-87,96,1,7,11
1.72313E+12,-3807,6620,-918,-273,-86,123,1,7,11
1.72313E+12,-3802,6630,-919,-259,-91,-119,1,7,11
1.72313E+12,-3794,6651,-927,10,-90,-114,1,7,11
1.72313E+12,-3788,6922,-937,14,-85,-121,1,7,11
1.72313E+12,-3782,6927,-929,9,-82,117,1,7,11
1.72313E+12,-3776,6927,-932,1,-78,90,1,7,11
1.72313E+12,-3775,6927,-939,-265,-73,62,1,7,11
1.72313E+12,-3780,6923,-936,-275,-66,39,1,7,11
1.72313E+12,-3784,6649,-937,-279,-58,22,1,7,11
1.72313E+12,-3788,6638,-940,-276,-56,19,1,7,11
1.72313E+12,-3793,6627,-930,-268,-56,24,1,7,11
1.72313E+12,-3799,6625,-925,5,-60,32,1,7,11
1.72313E+12,-3801,6620,-923,16,-71,36,1,7,11
1.72313E+12,-3798,6623,-933,29,-82,39,1,7,11
1.72313E+12,-3788,6631,-933,39,-87,39,1,7,11
1.72313E+12,-3788,6644,-929,37,-86,39,1,7,11
1.72313E+12,-3788,6647,-932,25,-85,43,1,7,11
1.72313E+12,-3769,6643,-945,15,-77,46,1,7,11
1.72313E+12,-3773,6638,-950,5,-62,45,1,7,11
1.72313E+12,-3771,6636,-950,0,-51,46,1,7,11
1.72313E+12,-3777,6630,-955,0,-40,48,1,7,11
1.72313E+12,-3792,6640,-982,20,-38,48,1,7,11
1.72313E+12,-3791,6638,-982,14,-49,41,1,7,11
1.72313E+12,-3802,6651,-996,2,-62,26,1,7,11
1.72313E+12,-3816,6913,-993,-301,-89,12,1,7,11
1.72313E+12,-3825,6646,-981,-335,-119,6,1,7,11
1.72313E+12,-3811,6626,-969,-349,112,10,1,7,11
1.72313E+12,-3797,6609,-961,-335,104,13,1,7,11
1.72313E+12,-3790,6609,-950,-297,111,23,1,7,11
1.72313E+12,-3795,6606,-941,-263,125,39,1,7,11
1.72313E+12,-3798,6620,-930,17,-128,53,1,7,11
1.72313E+12,-3786,6635,-938,25,119,56,1,7,11
1.72313E+12,-3765,6649,-960,22,118,48,1,7,11
1.72313E+12,-3748,6918,-963,3,-117,36,1,7,11
1.72313E+12,-3758,6922,-961,-278,-87,24,1,7,11
1.72313E+12,-3769,6918,-957,-303,-65,10,1,7,11
1.72313E+12,-3788,6639,-950,-313,-55,-258,1,7,11
1.72313E+12,-3812,6628,-948,-305,-59,-273,1,7,11
1.72313E+12,-3809,6600,-949,-285,-73,-282,1,7,11
1.72313E+12,-3828,6602,-951,4,-75,-297,1,7,11
1.72313E+12,-3838,6600,-948,20,-94,-304,1,7,11
1.72313E+12,-4109,6604,-954,29,-109,-306,1,7,11
1.72313E+12,-4112,6605,-965,24,-126,-302,1,7,11
1.72313E+12,-4100,6600,-969,18,110,-300,1,7,11
1.72313E+12,-3833,6602,-963,10,110,-292,1,7,11
1.72313E+12,-3834,6603,-949,-257,120,-279,1,7,11
1.72313E+12,-4097,6607,-954,-262,-122,-261,1,7,11
1.72313E+12,-4099,6612,-954,-266,-116,13,1,7,11
1.72313E+12,-4100,6608,-951,-267,-116,29,1,7,11
1.72313E+12,-4103,6609,-950,-265,-113,31,1,7,11
1.72313E+12,-4105,6607,-957,-262,-114,21,1,7,11
1.72313E+12,-4106,6611,-960,1,-122,-258,1,7,11
1.72313E+12,-4108,6617,-962,7,127,-286,1,7,11
1.72313E+12,-4111,6621,-963,5,122,-306,1,7,11
1.72313E+12,-4110,6608,-968,2,122,-323,1,7,11
1.72313E+12,-4110,6604,-967,5,124,-334,1,7,11
1.72313E+12,-4117,6596,-966,7,127,-344,1,7,11
1.72313E+12,-4129,6589,-961,9,127,-352,1,7,11
1.72313E+12,-4131,6584,-958,10,119,-361,1,7,11
1.72313E+12,-4118,6578,-956,13,113,-373,1,7,11
1.72313E+12,-4121,6581,-952,24,116,-382,1,7,11
1.72313E+12,-4125,6583,-962,27,116,-135,1,7,11
1.72313E+12,-4128,6584,-960,32,115,-150,1,7,11
1.72313E+12,-4131,6593,-967,38,113,-182,1,7,11
1.72313E+12,-4138,6603,-972,42,107,-229,1,7,11
1.72313E+12,-4145,6611,-974,41,102,-534,1,7,11
1.72313E+12,-4151,6616,-978,36,92,-592,1,7,11
1.72313E+12,-4162,6616,-987,32,77,-402,1,7,11
1.72313E+12,-4180,6619,-987,35,52,-484,1,7,11
1.72313E+12,-4194,6618,-987,37,19,-835,1,7,11
1.72313E+12,-4219,6609,-982,41,-266,-690,1,7,11
1.72313E+12,-3998,6620,-991,46,-302,-1073,1,7,11
1.72313E+12,-3995,6632,-1000,38,-149,-1297,1,7,11
1.72313E+12,-4017,6632,-1000,-26,-180,-1231,1,7,11
1.72313E+12,-4032,6620,-1005,-338,-200,-1456,1,7,11
1.72313E+12,-4073,6612,-1012,-142,-206,-1766,1,7,11
1.72313E+12,-4375,6607,-1010,-212,-218,-2188,1,7,11
1.72313E+12,-4420,6647,-1008,-557,-249,-2726,1,7,11
1.72313E+12,-4469,6943,-988,-447,-546,-3295,1,7,11
1.72313E+12,-4277,6650,-948,-662,-564,-3794,1,7,11
1.72313E+12,-4624,6779,-1150,-900,-558,-4464,1,7,11
1.72313E+12,-4489,6367,-1092,-1355,-530,-4558,1,7,11
1.72313E+12,-4602,6482,-1041,-1233,-247,-4848,1,7,11
1.72313E+12,-4969,6091,-738,-1568,-212,-5060,1,7,11
1.72313E+12,-4852,6214,-684,-1613,-145,-5429,1,7,11
1.72313E+12,-5008,5799,-886,-1655,-318,-5413,1,7,11
1.72313E+12,-5428,5592,-830,-1418,30,-5057,1,7,11
1.72313E+12,-5352,5667,-775,-1634,109,-5164,1,7,11
1.72313E+12,-5521,5467,-462,-1569,-99,-4954,1,7,11
1.72313E+12,-5941,5007,-407,-1223,-63,-4702,1,7,11
1.72313E+12,-5840,4825,-619,-1354,-56,-4422,1,7,11
1.72313E+12,-6210,4946,-589,-925,-78,-4144,1,7,11
1.72313E+12,-6049,4593,-580,-745,-99,-3885,1,7,11
1.72313E+12,-6128,4486,-574,-840,-123,-3637,1,7,11
1.72313E+12,-6453,4689,-568,-434,121,-3406,1,7,11
1.72313E+12,-6304,4636,-547,-568,119,-3183,1,7,11
1.72313E+12,-6361,4316,-538,-227,120,-2712,1,7,11
1.72313E+12,-6663,4273,-543,-156,124,-2434,1,7,11
1.72313E+12,-6711,4263,-552,-345,-116,-2276,1,7,11
1.72313E+12,-6749,4238,-556,-322,-64,-2374,1,7,11
1.72313E+12,-6532,4468,-561,-345,-4,-1957,1,7,11
1.72313E+12,-6580,4436,-563,-135,327,-1790,1,7,11
1.72313E+12,-6625,4386,-559,-200,150,-1882,1,7,11
1.72313E+12,-6932,4076,-554,-520,227,-1487,1,7,11
1.72313E+12,-6971,4020,-565,-578,547,-1633,1,7,11
1.72313E+12,-7009,4219,-574,-635,603,-1549,1,7,11
1.72313E+12,-7032,4152,-583,-432,393,-1230,1,7,11
1.72313E+12,-6802,4096,-595,-472,435,-1198,1,7,11
1.72313E+12,-6839,3790,-607,-501,470,-1189,1,7,11
1.72313E+12,-6867,3741,-629,-773,488,-1193,1,7,11
1.72313E+12,-6893,3957,-640,-783,499,-1200,1,7,11
1.72313E+12,-7174,3911,-400,-788,508,-1197,1,7,11
1.72313E+12,-7210,3871,-410,-782,504,-1185,1,7,11
1.72313E+12,-7229,3571,-418,-510,481,-1164,1,7,11
1.72313E+12,-7246,3534,-434,-475,451,-1401,1,7,11
1.72313E+12,-7262,3510,-449,-428,416,-1376,1,7,11
1.72313E+12,-7269,3471,-466,-640,628,-1339,1,7,11
1.72313E+12,-7273,3696,-475,-586,581,-1296,1,7,11
1.72313E+12,-7272,3681,-496,-518,538,-998,1,7,11
1.72313E+12,-7278,3672,-511,-203,241,-964,1,7,11
1.72313E+12,-7281,3649,-775,-152,196,-931,1,7,11
1.72313E+12,-7281,3631,-786,-343,159,-907,1,7,11
1.72313E+12,-7280,3622,-797,-283,381,-1129,1,7,11
1.72313E+12,-7282,3605,-807,29,353,-1092,1,7,11
1.72313E+12,-7281,3604,-826,91,329,-1044,1,7,11
1.72313E+12,-7281,3611,-852,-122,305,-731,1,7,11
1.72313E+12,-7276,3610,-857,-97,283,-670,1,7,11
1.72313E+12,-7274,3603,-866,-84,263,-862,1,7,11
1.72313E+12,-7276,3592,-864,-75,-12,-805,1,7,11
1.72313E+12,-7278,3594,-878,-70,-31,-501,1,7,11
1.72313E+12,-7280,3594,-888,-70,-49,-451,1,7,11
1.72313E+12,-7278,3598,-885,-79,-65,-392,1,7,11
1.72313E+12,-7280,3595,-882,-91,-71,-575,1,7,11
1.72313E+12,-7281,3326,-876,-109,-70,-236,1,7,11
1.72313E+12,-7266,3300,-855,-127,-73,-152,1,7,11
1.72313E+12,-7278,3293,-859,126,-68,-303,1,7,11
1.72313E+12,-7260,3297,-853,122,-64,23,1,7,11
1.72313E+12,-7259,3305,-852,111,-34,95,1,7,11
1.72313E+12,-7266,3300,-839,89,267,-79,1,7,11
1.72313E+12,-7280,3286,-826,69,310,266,1,7,11
1.72313E+12,-7264,3247,-815,58,340,356,1,7,11
1.72313E+12,-7294,3225,-796,70,134,171,1,7,11
1.72313E+12,-7066,3451,-782,87,160,249,1,7,11
1.72313E+12,-7085,3434,-500,114,187,570,1,7,11
1.72313E+12,-7093,3414,-459,-126,210,636,1,7,11
1.72313E+12,-7117,3390,-409,-114,237,444,1,7,11
1.72313E+12,-7110,3371,-615,-103,517,775,1,7,11
1.72313E+12,-7111,3365,-564,-110,577,840,1,7,11
1.72313E+12,-7121,3330,-235,114,393,647,1,7,11
1.72313E+12,-7145,3027,-167,78,476,704,1,7,11
1.72313E+12,-7151,2984,-371,58,815,1025,1,7,11
1.72313E+12,-7151,3176,-362,38,669,1077,1,7,11
1.72313E+12,-7129,3119,-356,15,1073,1114,1,7,11
1.72313E+12,-7123,3085,-344,21,997,1127,1,7,11
1.72313E+12,-7128,3075,-362,68,1174,1141,1,7,11
1.72313E+12,-7164,2800,-149,-108,1602,903,1,7,11
1.72313E+12,-7450,2796,-223,263,1473,935,1,7,11
1.72313E+12,-7528,3087,-559,178,1843,951,1,7,11
1.72313E+12,-7300,3135,-402,632,1903,983,1,7,11
1.72313E+12,-7335,2956,-480,837,1691,1046,1,7,11
1.72313E+12,-7332,3334,-839,1034,1672,1368,1,7,11
1.72313E+12,-7304,3222,-691,998,1868,1159,1,7,11
1.72313E+12,-7493,3612,-1041,1316,1532,1191,1,7,11
1.72313E+12,-7431,3484,-1122,1324,1465,1190,1,7,11
1.72313E+12,-7144,3562,-909,1006,1654,1166,1,7,11
1.72313E+12,-7274,3582,-974,930,1274,1393,1,7,11
1.72313E+12,-6833,3583,-1310,1138,1173,1310,1,7,11
1.72313E+12,-6806,3581,-1375,1068,1181,897,1,7,11
1.72313E+12,-6870,3546,-1165,742,1376,765,1,7,11
1.72313E+12,-7171,3516,-1197,736,948,640,1,7,11
1.72313E+12,-7242,3503,-1200,754,731,808,1,7,11
1.72313E+12,-7247,3477,-1211,1052,438,778,1,7,11
1.72313E+12,-6896,3476,-1231,1135,130,493,1,7,11
1.72313E+12,-7008,3519,-1542,970,-111,455,1,7,11
1.72313E+12,-6585,3580,-1630,1296,-257,413,1,7,11
1.72313E+12,-6665,3930,-1526,1362,-301,627,1,7,11
1.72313E+12,-6520,3792,-1725,1162,19,583,1,7,11
1.72313E+12,-6405,4199,-1956,1205,-92,547,1,7,11
1.72313E+12,-6111,4373,-2199,1208,138,242,1,7,11
1.72313E+12,-6456,4296,-2662,1159,390,211,1,7,11
1.72313E+12,-6475,4637,-2544,1304,500,225,1,7,11
1.72313E+12,-6487,4696,-2873,964,791,214,1,7,11
1.72313E+12,-6501,4729,-2942,899,466,233,1,7,11
1.72313E+12,-6465,4494,-2747,1111,551,531,1,7,11
1.72313E+12,-6405,4497,-2800,1083,355,568,1,7,11
1.72313E+12,-6074,4510,-3099,1076,-93,600,1,7,11
1.72313E+12,-6248,4525,-3125,1079,-272,610,1,7,11
1.72313E+12,-6160,4515,-3149,1072,-186,603,1,7,11
1.72313E+12,-5783,4722,-3171,1065,-595,560,1,7,11
1.72313E+12,-5630,4660,-2950,1079,-453,214,1,7,11
1.72313E+12,-5532,4652,-2979,1093,-476,335,1,7,11
1.72313E+12,-5745,4610,-2962,1052,-472,-53,1,7,11
1.72313E+12,-5748,4322,-3178,726,-490,26,1,7,11
1.72313E+12,-5754,4263,-3143,879,-778,-317,1,7,11
1.72313E+12,-5754,4442,-3108,503,-842,-132,1,7,11
1.72313E+12,-5534,4368,-2776,384,-841,-190,1,7,11
1.72313E+12,-5541,4025,-2941,192,-854,-227,1,7,11
1.72313E+12,-5518,4179,-2863,339,-853,-517,1,7,11
1.72313E+12,-5745,3813,-2830,262,-797,-548,1,7,11
1.72313E+12,-5686,3966,-2860,-34,-433,-554,1,7,11
1.72313E+12,-5375,3881,-2911,-27,-516,-550,1,7,11
1.72313E+12,-5364,3878,-2710,293,-306,-514,1,7,11
1.72313E+12,-5646,3910,-2754,354,-118,-168,1,7,11
1.72313E+12,-5533,3714,-2772,134,294,-305,1,7,11
1.72313E+12,-5930,3764,-2772,146,310,125,1,7,11
1.72313E+12,-5764,3817,-2752,168,-41,283,1,7,11
1.72313E+12,-6005,4139,-2763,201,28,184,1,7,11
1.72313E+12,-5910,4213,-3077,229,-132,562,1,7,11
1.72313E+12,-5587,4062,-3121,515,-194,402,1,7,11
1.72313E+12,-5604,4409,-3112,254,-206,503,1,7,11
1.72313E+12,-5921,4474,-2811,247,-228,857,1,7,11
1.72313E+12,-5947,4249,-2758,243,-552,677,1,7,11
1.72313E+12,-5976,4268,-2702,249,-587,671,1,7,11
1.72313E+12,-5842,4264,-2873,220,-564,845,1,7,11
1.72313E+12,-6180,4451,-2544,159,-576,471,1,7,11
1.72313E+12,-6180,4090,-2502,359,-587,544,1,7,11
1.72313E+12,-5828,4218,-2865,333,-532,323,1,7,11
1.72313E+12,-5598,4172,-2737,266,79,-321,1,7,11
1.72313E+12,-5955,4155,-3076,-102,538,-605,1,7,11
1.72313E+12,-6152,4109,-3100,8,895,-802,1,7,11
1.72313E+12,-6061,3831,-3120,-343,1076,-682,1,7,11
1.72313E+12,-6426,3810,-3170,-175,1120,-742,1,7,11
1.72313E+12,-6416,3757,-2966,-255,1058,-734,1,7,11
1.72313E+12,-6119,3959,-2986,-564,747,-723,1,7,11
1.72313E+12,-6121,3927,-3002,-604,706,-707,1,7,11
1.72313E+12,-6448,3910,-3000,-622,892,-677,1,7,11
1.72313E+12,-6422,3907,-3035,-579,460,-842,1,7,11
1.72313E+12,-6023,3930,-3421,-245,248,-464,1,7,11
1.72313E+12,-5836,3920,-3324,-216,381,-638,1,7,11
1.72313E+12,-5839,3865,-3623,-234,329,-621,1,7,11
1.72313E+12,-6161,3578,-3648,-536,-95,-629,1,7,11
1.72313E+12,-6021,3568,-3663,-538,-359,-426,1,7,11
1.72313E+12,-6508,3956,-3279,-544,-639,-468,1,7,11
1.72313E+12,-6542,3797,-3379,-581,-766,-631,1,7,11
1.72313E+12,-6620,4178,-2940,-479,-1885,22,1,7,11
1.72313E+12,-6578,4209,-2454,-832,-1967,-48,1,7,11
1.72313E+12,-5874,4017,-2060,-1155,-1513,-137,1,7,11
1.72313E+12,-6176,3986,-1758,-1264,-1297,-414,1,7,11
1.72313E+12,-6387,3794,-2093,-1222,-84,-1329,1,7,11
1.72313E+12,-6694,3714,-2058,-1256,-108,-1169,1,7,11
1.72313E+12,-6557,3706,-1493,-1629,-338,-1738,1,7,11
1.72313E+12,-6584,3644,-1430,-1491,-327,-1739,1,7,11
1.72313E+12,-6868,3130,-1398,-1800,118,-1731,1,7,11
1.72313E+12,-7205,3118,-1364,-1605,-123,-1719,1,7,11
1.72313E+12,-6906,3190,-1287,-1557,378,-1213,1,7,11
1.72313E+12,-6835,3161,-1010,-1251,265,-1253,1,7,11
1.72313E+12,-6843,2901,-736,-1462,-22,-1235,1,7,11
1.72313E+12,-6833,2540,-718,-1582,-66,-1209,1,7,11
1.72313E+12,-7816,2721,-622,-381,-412,-69,1,7,11
1.72313E+12,-7839,2717,-586,-340,-475,256,1,7,11
1.72313E+12,-7614,2727,-319,309,-989,327,1,7,11
1.72313E+12,-7762,2694,-266,363,-1325,303,1,7,11
1.72313E+12,-7551,2848,-75,637,-1296,-196,1,7,11
1.72313E+12,-7551,2838,-63,415,-1008,-515,1,7,11
1.72313E+12,-7732,2817,-8,459,-1097,-408,1,7,11
1.72313E+12,-7735,2556,-4,446,-1027,-398,1,7,11
1.72313E+12,-7753,2684,142,601,-593,5,1,7,11
1.72313E+12,-7370,2623,-69,398,207,601,1,7,11
1.72313E+12,-7705,2587,-110,411,407,614,1,7,11
1.72313E+12,-8006,2229,-299,843,132,311,1,7,11
1.72313E+12,-7961,2233,-331,649,302,-27,1,7,11
1.72313E+12,-7606,2216,-347,388,-6,20,1,7,11
1.72313E+12,-7635,2193,-344,555,-19,7,1,7,11
1.72313E+12,-7608,2008,-131,307,-20,-372,1,7,11
1.72313E+12,-7620,2002,-151,334,306,-134,1,7,11
1.72313E+12,-7656,2005,-601,378,550,-306,1,7,11
1.72313E+12,-7637,2007,-396,361,596,-261,1,7,11
1.72313E+12,-7794,2333,-731,-62,485,194,1,7,11
1.72313E+12,-7793,2343,-762,127,482,520,1,7,11
1.72313E+12,-7405,2220,-1128,71,450,844,1,7,11
1.72313E+12,-7388,2272,-899,68,458,891,1,7,11
1.72313E+12,-7542,2555,-957,79,417,660,1,7,11
1.72313E+12,-7546,2856,-958,103,392,859,1,7,11
1.72313E+12,-7513,3074,-987,-121,182,237,1,7,11
1.72313E+12,-7507,3103,-1011,117,129,169,1,7,11
1.72313E+12,-7471,3195,-966,-311,-262,-99,1,7,11
1.72313E+12,-7450,2958,-943,-348,-337,124,1,7,11
1.72313E+12,-7141,2972,-1029,-620,-160,-318,1,7,11
1.72313E+12,-7142,2954,-727,-414,-135,-355,1,7,11
1.72313E+12,-7486,3095,-808,-423,20,-342,1,7,11
1.72313E+12,-7504,3084,-792,-393,67,-312,1,7,11
1.72313E+12,-7540,2787,-505,-167,-83,46,1,7,11
1.72313E+12,-7544,2801,-504,-380,-61,47,1,7,11
1.72313E+12,-7549,3077,-789,-313,-13,-270,1,7,11
1.72313E+12,-7536,3081,-792,-300,267,-280,1,7,11
1.72313E+12,-7522,2794,-836,-314,323,-378,1,7,11
1.72313E+12,-7546,2736,-668,-265,285,-330,1,7,11
1.72313E+12,-7533,2728,-679,-277,273,-298,1,7,11
1.72313E+12,-7533,2719,-713,-350,369,64,1,7,11
1.72313E+12,-7538,2722,-727,-343,378,74,1,7,11
1.72313E+12,-7542,2739,-1065,-326,141,90,1,7,11
1.72313E+12,-7546,2741,-1071,-336,135,78,1,7,11
1.72313E+12,-7534,2718,-1097,-324,262,45,1,7,11
1.72313E+12,-7533,2733,-1094,-317,258,45,1,7,11
1.72313E+12,-7528,2738,-1094,-318,-2,51,1,7,11
1.72313E+12,-7517,2732,-1086,-320,-5,52,1,7,11
1.72313E+12,-7512,2729,-1085,-319,-9,49,1,7,11
1.72313E+12,-7512,2720,-1085,-320,-16,46,1,7,11
1.72313E+12,-7514,2727,-1083,-321,-23,40,1,7,11
1.72313E+12,-7515,2719,-1077,-327,-30,39,1,7,11
1.72313E+12,-7512,2706,-1080,-334,-43,41,1,7,11
1.72313E+12,-7507,2717,-1074,-331,-54,41,1,7,11
1.72313E+12,-7522,2726,-1074,-342,-59,35,1,7,11
1.72313E+12,-7539,2730,-1068,-358,-69,38,1,7,11
1.72313E+12,-7524,2727,-1068,-360,-84,52,1,7,11
1.72313E+12,-7492,2730,-1065,-353,-77,69,1,7,11
1.72313E+12,-7483,2748,-1067,-337,-50,91,1,7,11
1.72313E+12,-7486,2758,-1061,-334,-17,113,1,7,11
1.72313E+12,-7488,2762,-1058,-333,262,-119,1,7,11
1.72313E+12,-7485,2765,-1058,-330,279,-99,1,7,11
1.72313E+12,-7477,2776,-1055,-331,290,-83,1,7,11
1.72313E+12,-7477,2781,-1067,-347,309,-78,1,7,11
1.72313E+12,-7476,2789,-1073,-367,334,-83,1,7,11
1.72313E+12,-7487,2797,-1076,-381,353,-90,1,7,11
1.72313E+12,-7484,2806,-1088,-136,358,-96,1,7,11
1.72313E+12,-7487,2811,-1089,-146,368,-106,1,7,11
1.72313E+12,-7493,3073,-1092,-150,377,-108,1,7,11
1.72313E+12,-7470,2808,-1100,-156,374,-106,1,7,11
1.72313E+12,-7478,2802,-1101,-152,130,-111,1,7,11
1.72313E+12,-7485,2796,-1104,-152,129,-116,1,7,11
1.72313E+12,-7497,2796,-1110,-143,371,-124,1,7,11
1.72313E+12,-7493,2797,-1118,-131,341,-125,1,7,11
1.72313E+12,-7484,2807,-1135,-373,323,-121,1,7,11
1.72313E+12,-7479,2808,-1137,-365,316,-105,1,7,11
1.72313E+12,-7479,2803,-1146,-358,313,-89,1,7,11
1.72313E+12,-7481,2808,-1144,-348,303,-71,1,7,11
1.72313E+12,-7481,2813,-1140,-345,291,-58,1,7,11
1.72313E+12,-7473,2814,-1135,-339,271,-46,1,7,11
1.72313E+12,-7466,3072,-1139,-333,261,-49,1,7,11
1.72313E+12,-7454,3077,-1143,-327,-3,-59,1,7,11
1.72313E+12,-7453,3084,-1151,-331,-9,-78,1,7,11
1.72313E+12,-7448,3087,-898,-333,-17,-98,1,7,11
1.72313E+12,-7447,3106,-908,-334,-21,-115,1,7,11
1.72313E+12,-7435,3115,-914,-342,-25,-124,1,7,11
1.72313E+12,-7431,3126,-918,-348,-24,-125,1,7,11
1.72313E+12,-7431,3121,-918,-354,-20,-126,1,7,11
1.72313E+12,-7435,3127,-916,-356,-18,-124,1,7,11
1.72313E+12,-7440,3121,-918,-362,-19,-119,1,7,11
1.72313E+12,-7446,3114,-923,-353,-28,-116,1,7,11
1.72313E+12,-7445,3122,-921,-338,-40,-112,1,7,11
1.72313E+12,-7449,3135,-916,-331,-51,-108,1,7,11
1.72313E+12,-7435,3147,-918,-318,-59,-100,1,7,11
1.72313E+12,-7165,3149,-926,-318,-57,-98,1,7,11
1.72313E+12,-7156,3146,-923,-310,-54,-118,1,7,11
1.72313E+12,-7149,3152,-925,-303,-59,119,1,7,11
1.72313E+12,-7146,3164,-924,-296,-62,101,1,7,11
1.72313E+12,-7150,3176,-927,-302,-62,88,1,7,11
1.72313E+12,-7150,3173,-920,-312,-65,78,1,7,11
1.72313E+12,-7155,3166,-909,-323,-72,60,1,7,11
1.72313E+12,-7163,3160,-904,-329,-83,41,1,7,11
1.72313E+12,-7433,3166,-1152,-336,-97,17,1,7,11
1.72313E+12,-7439,3170,-1140,-344,-115,4,1,7,11
1.72313E+12,-7430,3165,-1146,-348,-124,4,1,7,11
1.72313E+12,-7427,3154,-1138,-347,-116,14,1,7,11
1.72313E+12,-7166,3148,-1143,-333,-104,31,1,7,11
1.72313E+12,-7156,3145,-1133,-314,-90,45,1,7,11
1.72313E+12,-7156,3156,-1134,-293,-76,59,1,7,11
1.72313E+12,-7153,3169,-1133,-288,-68,71,1,7,11
1.72313E+12,-7148,3174,-1135,-293,-68,78,1,7,11
1.72313E+12,-7143,3173,-1138,-301,-64,73,1,7,11
1.72313E+12,-7144,3176,-1138,-306,-53,61,1,7,11
1.72313E+12,-7155,3182,-1149,-314,-42,49,1,7,11
1.72313E+12,-7425,3177,-898,-322,-37,38,1,7,11
1.72313E+12,-7430,3168,-901,-325,-40,32,1,7,11
1.72313E+12,-7434,3160,-900,-315,-44,28,1,7,11
1.72313E+12,-7167,3149,-899,-305,-56,33,1,7,11
1.72313E+12,-7149,3144,-900,-287,-54,34,1,7,11
1.72313E+12,-7152,3142,-901,-277,-49,31,1,7,11
1.72313E+12,-7161,3142,-1152,-273,-51,28,1,7,11
1.72313E+12,-7427,3137,-902,-279,-62,26,1,7,11
1.72313E+12,-7163,3136,-910,-280,-62,25,1,7,11
1.72313E+12,-7168,3135,-914,-286,-56,23,1,7,11
1.72313E+12,-7430,3132,-912,-288,-55,29,1,7,11
1.72313E+12,-7436,3131,-912,-291,-47,32,1,7,11
1.72313E+12,-7161,3132,-921,-288,-29,59,1,7,11
1.72313E+12,-7154,3134,-925,-288,-18,54,1,7,11
1.72313E+12,-7157,3135,-924,-285,-7,42,1,7,11
1.72313E+12,-7150,3140,-931,-278,258,29,1,7,11
1.72313E+12,-7148,3146,-932,-280,272,15,1,7,11
1.72313E+12,-7160,3138,-932,-271,283,-264,1,7,11
1.72313E+12,-7164,3141,-934,-264,280,-271,1,7,11
1.72313E+12,-7168,3143,-936,-260,277,-271,1,7,11
1.72313E+12,-7428,3129,-946,-258,274,-264,1,7,11
1.72313E+12,-7436,3118,-956,-260,270,2,1,7,11
1.72313E+12,-7439,3107,-967,-259,261,14,1,7,11
1.72313E+12,-7427,3115,-963,-258,-7,27,1,7,11
1.72313E+12,-7165,3109,-966,-266,-4,36,1,7,11
1.72313E+12,-7162,3101,-972,-276,-5,49,1,7,11
1.72313E+12,-7162,3103,-976,-278,-13,55,1,7,11
1.72313E+12,-7165,3112,-977,-277,-20,62,1,7,11
1.72313E+12,-7165,3118,-974,-279,-32,77,1,7,11
1.72313E+12,-7429,3119,-978,-276,-39,90,1,7,11
1.72313E+12,-7427,3122,-985,-274,-50,110,1,7,11
1.72313E+12,-7163,3121,-976,-271,-62,116,1,7,11
1.72313E+12,-7152,3137,-971,-268,-68,120,1,7,11
1.72313E+12,-7146,3151,-976,-275,-68,122,1,7,11
1.72313E+12,-7154,3156,-967,-286,-61,118,1,7,11
1.72313E+12,-7155,3157,-960,-301,-56,116,1,7,11
1.72313E+12,-7148,3146,-957,-316,-57,112,1,7,11
1.72313E+12,-7149,3143,-963,-321,-61,105,1,7,11
1.72313E+12,-7173,3162,-965,-324,-64,89,1,7,11
1.72313E+12,-7436,3165,-965,-339,-77,74,1,7,11
1.72313E+12,-7437,3166,-963,-347,-96,69,1,7,11
1.72313E+12,-7143,3156,-967,-348,-108,68,1,7,11
1.72313E+12,-7130,3152,-956,-321,-71,75,1,7,11
1.72313E+12,-7137,3151,-954,-317,-46,79,1,7,11
1.72313E+12,-7137,3151,-960,-310,-44,80,1,7,11
1.72313E+12,-7136,3157,-963,-300,-56,75,1,7,11
1.72313E+12,-7127,3166,-971,-309,-58,73,1,7,11
1.72313E+12,-7138,3169,-975,-325,-50,69,1,7,11
1.72313E+12,-7145,3164,-978,-331,-52,65,1,7,11
1.72313E+12,-7151,3175,-987,-333,-64,68,1,7,11
1.72313E+12,-7161,3174,-997,-333,-67,75,1,7,11
1.72313E+12,-7160,3166,-997,-332,-76,95,1,7,11
1.72313E+12,-7138,3170,-1001,-319,-87,105,1,7,11
1.72313E+12,-7119,3175,-989,-311,-85,108,1,7,11
1.72313E+12,-7133,3181,-981,-318,-73,106,1,7,11
1.72313E+12,-7139,3170,-972,-320,-80,101,1,7,11
1.72313E+12,-7141,3180,-981,-322,-98,94,1,7,11
1.72313E+12,-7129,3177,-978,-324,-114,87,1,7,11
1.72313E+12,-7130,3188,-974,-324,-107,74,1,7,11
1.72313E+12,-7135,3179,-967,-329,-95,70,1,7,11
1.72313E+12,-7142,3177,-965,-331,-84,68,1,7,11
1.72313E+12,-7147,3176,-967,-331,-82,74,1,7,11
1.72313E+12,-7143,3176,-969,-326,-80,73,1,7,11
1.72313E+12,-7140,3167,-968,-322,-79,67,1,7,11
1.72313E+12,-7140,3165,-964,-310,-77,56,1,7,11
1.72313E+12,-7145,3166,-962,-299,-80,44,1,7,11
1.72313E+12,-7145,3167,-965,-290,-82,35,1,7,11
1.72313E+12,-7150,3167,-969,-282,-89,27,1,7,11
1.72313E+12,-7151,3167,-971,-282,-98,24,1,7,11
1.72313E+12,-7143,3165,-961,-281,-108,25,1,7,11
1.72313E+12,-7143,3153,-953,-275,-113,24,1,7,11
1.72313E+12,-7146,3153,-951,-269,-116,23,1,7,11
1.72313E+12,-7146,3158,-952,-267,-119,20,1,7,11
1.72313E+12,-7147,3164,-956,-265,-117,23,1,7,11
1.72313E+12,-7148,3159,-954,-275,-118,33,1,7,11
1.72313E+12,-7153,3157,-948,-284,-115,42,1,7,11
1.72313E+12,-7153,3156,-955,-290,-112,52,1,7,11
1.72313E+12,-7151,3158,-948,-295,-110,65,1,7,11
1.72313E+12,-7158,3161,-940,-301,-107,81,1,7,11
1.72313E+12,-7154,3153,-930,-305,-107,95,1,7,11
1.72313E+12,-7150,3150,-928,-302,-108,103,1,7,11
1.72313E+12,-7144,3156,-926,-295,-104,105,1,7,11
1.72313E+12,-7139,3171,-923,-285,-96,108,1,7,11
1.72313E+12,-7143,3184,-924,-286,-85,111,1,7,11
1.72313E+12,-7137,3189,-924,-286,-76,115,1,7,11
1.72313E+12,-7135,3185,-928,-290,-67,114,1,7,11
1.72313E+12,-7129,3184,-927,-287,-59,112,1,7,11
1.72313E+12,-7133,3184,-929,-280,-53,105,1,7,11
1.72313E+12,-7140,3191,-941,-275,-55,100,1,7,11
1.72313E+12,-7150,3195,-945,-274,-60,93,1,7,11
1.72313E+12,-7146,3190,-940,-276,-67,85,1,7,11
1.72313E+12,-7137,3187,-946,-278,-80,72,1,7,11
1.72313E+12,-7141,3192,-955,-270,-84,52,1,7,11
1.72313E+12,-7163,2950,-953,-284,-92,29,1,7,11
1.72313E+12,-7428,2947,-951,-307,-114,21,1,7,11
1.72313E+12,-7158,3195,-955,-316,119,23,1,7,11
1.72313E+12,-7144,3185,-958,-318,116,30,1,7,11
1.72313E+12,-7134,3177,-952,-316,-126,42,1,7,11
1.72313E+12,-7128,3175,-950,-313,-107,64,1,7,11
1.72313E+12,-7131,3175,-944,-304,-94,77,1,7,11
1.72313E+12,-7126,3172,-936,-301,-101,87,1,7,11
1.72313E+12,-7116,3169,-940,-294,-107,90,1,7,11
1.72313E+12,-7112,3175,-938,-287,-99,87,1,7,11
1.72313E+12,-7127,3184,-939,-285,-84,84,1,7,11
1.72313E+12,-7146,3194,-941,-286,-78,86,1,7,11
1.72313E+12,-7155,3197,-948,-289,-88,91,1,7,11
1.72313E+12,-7153,2944,-949,-289,-101,101,1,7,11
1.72313E+12,-7149,3199,-941,-284,-107,108,1,7,11
1.72313E+12,-7135,3192,-940,-280,-120,122,1,7,11
1.72313E+12,-7121,3189,-934,-266,-116,118,1,7,11
1.72313E+12,-7127,3188,-935,0,-116,106,1,7,11
1.72313E+12,-7147,3197,-936,13,-122,93,1,7,11
1.72313E+12,-7144,2948,-943,17,115,86,1,7,11
1.72313E+12,-7138,2960,-946,19,105,79,1,7,11
1.72313E+12,-7142,2976,-944,11,104,71,1,7,11
1.72313E+12,-7142,2979,-948,-258,105,64,1,7,11
1.72313E+12,-7146,2979,-941,-268,104,57,1,7,11
1.72313E+12,-7154,2971,-934,-279,94,55,1,7,11
1.72313E+12,-7147,2962,-930,-284,81,49,1,7,11
1.72313E+12,-7137,2952,-926,-285,77,43,1,7,11
1.72313E+12,-7135,2949,-919,-281,82,33,1,7,11
1.72313E+12,-7141,2945,-900,-279,87,27,1,7,11
1.72313E+12,-7147,3199,-1148,-279,89,19,1,7,11
1.72313E+12,-7151,3187,-1145,-283,97,19,1,7,11
1.72313E+12,-7154,3171,-1145,-277,98,20,1,7,11
1.72313E+12,-7147,3162,-1139,-265,98,24,1,7,11
1.72313E+12,-7136,3169,-1136,8,110,28,1,7,11
1.72313E+12,-7136,3172,-1135,9,-122,47,1,7,11
1.72313E+12,-7136,3169,-1141,10,-94,71,1,7,11
1.72313E+12,-7138,3161,-1142,10,-74,89,1,7,11
1.72313E+12,-7145,3160,-1141,16,-56,106,1,7,11
1.72313E+12,-7153,3169,-1151,19,-51,122,1,7,11
1.72313E+12,-7147,3184,-910,20,-52,-128,1,7,11
1.72313E+12,-7146,3199,-914,15,-51,-120,1,7,11
1.72313E+12,-7150,2945,-924,6,-52,-115,1,7,11
1.72313E+12,-7146,2948,-927,1,-61,-112,1,7,11
1.72313E+12,-7134,2952,-920,-262,-70,-114,1,7,11
1.72313E+12,-7141,2956,-920,-262,-75,-119,1,7,11
1.72313E+12,-7142,2964,-925,-257,-86,-127,1,7,11
1.72313E+12,-7140,2968,-924,-258,-97,117,1,7,11
1.72313E+12,-7135,2967,-926,-258,-106,102,1,7,11
1.72313E+12,-7133,2964,-929,-257,-114,85,1,7,11
1.72313E+12,-7128,2962,-919,5,-119,69,1,7,11
1.72313E+12,-7129,2961,-917,9,-118,53,1,7,11
1.72313E+12,-7138,2962,-911,13,-116,37,1,7,11
1.72313E+12,-7140,2959,-909,18,-119,23,1,7,11
1.72313E+12,-7133,2950,-909,31,-123,4,1,7,11
1.72313E+12,-7133,2954,-909,46,-121,-279,1,7,11
1.72313E+12,-7140,2948,-911,56,-125,-307,1,7,11
1.72313E+12,-7144,2964,-916,64,-127,-336,1,7,11
1.72313E+12,-7148,2958,-914,54,-128,-335,1,7,11
1.72313E+12,-7147,2944,-911,41,119,-330,1,7,11
1.72313E+12,-7155,3196,-904,28,115,-325,1,7,11
1.72313E+12,-7445,3185,-1148,7,96,-314,1,7,11
1.72313E+12,-7450,3181,-1147,-282,62,-293,1,7,11
1.72313E+12,-7431,3173,-1151,-294,34,45,1,7,11
1.72313E+12,-7163,3166,-897,-300,24,78,1,7,11
1.72313E+12,-7140,3150,-1148,-292,46,-89,1,7,11
1.72313E+12,-7140,3142,-1145,-272,83,-62,1,7,11
1.72313E+12,-7141,3147,-1138,12,117,259,1,7,11
1.72313E+12,-7140,3153,-1144,56,124,289,1,7,11
1.72313E+12,-7138,3169,-1137,78,121,304,1,7,11
1.72313E+12,-7134,3190,-1141,91,115,307,1,7,11
1.72313E+12,-7138,2958,-897,103,103,311,1,7,11
1.72313E+12,-7139,2969,-911,105,92,305,1,7,11
1.72313E+12,-7134,2982,-920,111,86,286,1,7,11
1.72313E+12,-7136,2999,-924,119,85,-5,1,7,11
1.72313E+12,-7150,3012,-922,127,82,-35,1,7,11
1.72313E+12,-7152,3019,-929,-126,60,-64,1,7,11
1.72313E+12,-7134,3016,-923,-123,33,-90,1,7,11
1.72313E+12,-7148,3019,-917,-127,16,-125,1,7,11
1.72313E+12,-7160,3015,-909,125,-269,103,1,7,11
1.72313E+12,-7428,3008,-1151,126,-304,69,1,7,11
1.72313E+12,-7167,3000,-1129,-124,-339,41,1,7,11
1.72313E+12,-7427,2994,-1120,-106,-369,13,1,7,11
1.72313E+12,-7429,2980,-1089,-94,-136,-263,1,7,11
1.72313E+12,-7428,2983,-1067,-76,-154,-274,1,7,11
1.72313E+12,-7435,2982,-1045,-71,-169,-278,1,7,11
1.72313E+12,-7431,2973,-1034,-69,-178,-280,1,7,11
1.72313E+12,-7168,2983,-758,-71,-179,-275,1,7,11
1.72313E+12,-7167,2985,-736,-82,-173,-264,1,7,11
1.72313E+12,-7148,2980,-731,-98,-160,2,1,7,11
1.72313E+12,-7137,2985,-728,-106,-134,0,1,7,11
1.72313E+12,-7123,2989,-728,-125,-355,1,1,7,11
1.72313E+12,-7130,2988,-719,96,-299,0,1,7,11
1.72313E+12,-7142,2965,-717,60,8,-258,1,7,11
1.72313E+12,-7141,2950,-722,38,43,-263,1,7,11
1.72313E+12,-7152,2951,-719,22,91,-265,1,7,11
1.72313E+12,-7154,3186,-715,-263,117,-262,1,7,11
1.72313E+12,-7167,3174,-708,-259,-116,-262,1,7,11
1.72313E+12,-7446,3179,-710,-257,-92,-262,1,7,11
1.72313E+12,-7429,3186,-712,13,-110,18,1,7,11
1.72313E+12,-7166,3191,-731,31,-103,31,1,7,11
1.72313E+12,-7451,3173,-733,46,-74,53,1,7,11
1.72313E+12,-7477,3170,-734,78,-81,72,1,7,11
1.72313E+12,-7474,3175,-747,118,-120,84,1,7,11
1.72313E+12,-7476,3186,-767,-111,114,92,1,7,11
1.72313E+12,-7510,3179,-1037,-125,85,106,1,7,11
1.72313E+12,-7321,3182,-1038,87,23,-125,1,7,11
1.72313E+12,-7365,3173,-764,23,-341,-78,1,7,11
1.72313E+12,-7358,3182,-756,-272,-230,-38,1,7,11
1.72313E+12,-7313,2978,-761,-291,-633,-16,1,7,11
1.72313E+12,-7509,3014,-752,-338,-470,-7,1,7,11
1.72313E+12,-7476,3020,-738,-381,-504,-15,1,7,11
1.72313E+12,-7474,3011,-700,-149,-773,-21,1,7,11
1.72313E+12,-7452,2998,-661,-145,-801,-29,1,7,11
1.72313E+12,-7124,2991,-888,-362,-806,-59,1,7,11
1.72313E+12,-7092,2986,-871,-316,-483,115,1,7,11
1.72313E+12,-7100,2987,-835,-283,-443,44,1,7,11
1.72313E+12,-7119,2991,-811,38,-595,-274,1,7,11
1.72313E+12,-7130,3001,-783,75,-550,-333,1,7,11
1.72313E+12,-7148,3007,-507,105,-235,-141,1,7,11
1.72313E+12,-7161,3000,-496,127,-170,-201,1,7,11
1.72313E+12,-7447,2986,-485,-113,-367,-247,1,7,11
1.72313E+12,-7468,2990,-486,-82,-323,-532,1,7,11
1.72313E+12,-7471,2982,-500,-63,-269,-544,1,7,11
1.72313E+12,-7473,2965,-508,-59,58,-557,1,7,11
1.72313E+12,-7475,3198,-772,-61,-127,-574,1,7,11
1.72313E+12,-7493,3197,-772,-75,-61,-598,1,7,11
1.72313E+12,-7500,3196,-774,-105,-32,-613,1,7,11
1.72313E+12,-7496,2948,-790,104,-25,-604,1,7,11
1.72313E+12,-7484,3199,-798,20,-20,-570,1,7,11
1.72313E+12,-7494,3184,-804,-316,-9,-534,1,7,11
1.72313E+12,-7535,3160,-804,-136,-15,-242,1,7,11
1.72313E+12,-7304,3086,-803,-212,-57,-202,1,7,11
1.72313E+12,-7360,2792,-813,-204,-80,-223,1,7,11
1.72313E+12,-7334,2793,-827,-166,119,-237,1,7,11
1.72313E+12,-7541,2793,-856,-375,81,-535,1,7,11
1.72313E+12,-7516,3082,-868,-327,69,-570,1,7,11
1.72313E+12,-7467,3098,-876,-315,72,-577,1,7,11
1.72313E+12,-7481,3095,-885,-307,104,-596,1,7,11
1.72313E+12,-7506,3097,-889,-306,106,-600,1,7,11
1.72313E+12,-7545,3078,-887,-317,96,-640,1,7,11
1.72313E+12,-7346,2799,-891,-340,87,-447,1,7,11
1.72313E+12,-7391,2784,-896,-364,63,-781,1,7,11
1.72313E+12,-7422,2785,-643,-137,33,-870,1,7,11
1.72313E+12,-7704,2778,-665,-177,12,-698,1,7,11
1.72313E+12,-7777,2782,-693,-231,30,-1035,1,7,11
1.72313E+12,-7630,2796,-710,-572,36,-1087,1,7,11
1.72313E+12,-7942,2714,-682,-440,-271,-1114,1,7,11
1.72313E+12,-7677,2911,-650,-803,-343,-1145,1,7,11
1.72313E+12,-7639,2850,-858,-889,-229,-968,1,7,11
1.72313E+12,-7573,2513,-806,-1033,-582,-1019,1,7,11
1.72313E+12,-7755,2672,-479,-1124,-425,-1345,1,7,11
1.72313E+12,-7687,2301,-404,-928,-782,-1192,1,7,11
1.72313E+12,-7344,2191,-581,-940,-645,-1560,1,7,11
1.72313E+12,-7547,2384,-238,-1151,-726,-1653,1,7,11
1.72313E+12,-7551,2361,-170,-1100,-1035,-1434,1,7,11
1.72313E+12,-7305,2331,-350,-1057,-1096,-1642,1,7,11
1.72313E+12,-7317,2327,-278,-730,-905,-1539,1,7,11
1.72313E+12,-7331,2339,39,-644,-949,-1387,1,7,11
1.72313E+12,-7726,2403,71,-794,-921,-958,1,7,11
1.72313E+12,-7619,2192,104,-467,-909,-727,1,7,11
1.72313E+12,-7810,2204,-120,-417,-1122,-795,1,7,11
1.72313E+12,-8196,2202,-91,-631,-1133,-386,1,7,11
1.72313E+12,-8194,2255,-91,-579,-916,-555,1,7,11
1.72313E+12,-8215,2286,-83,-574,-898,-521,1,7,11
1.72313E+12,-7859,2188,-44,-593,-909,-250,1,7,11
1.72313E+12,-8059,2284,-20,-249,-1105,-525,1,7,11
1.72313E+12,-7955,2199,281,-581,-1063,-246,1,7,11
1.72313E+12,-7606,2423,310,-606,-688,-216,1,7,11
1.72313E+12,-7785,2368,382,-574,-864,-200,1,7,11
1.72313E+12,-7374,2332,168,-524,-795,-162,1,7,11
1.72313E+12,-7310,1995,212,-247,-415,-379,1,7,11
1.72313E+12,-7495,2172,250,-209,-236,-372,1,7,11
1.72313E+12,-7478,2130,537,-268,-383,-164,1,7,11
1.72313E+12,-7525,1941,529,-60,-295,-229,1,7,11
1.72313E+12,-7421,2355,225,330,29,-237,1,7,11
1.72313E+12,-7797,2386,166,348,38,-195,1,7,11
1.72313E+12,-7659,2394,358,145,75,-168,1,7,11
1.72313E+12,-7817,2213,301,188,-116,-170,1,7,11
1.72313E+12,-7886,2256,266,148,-91,-163,1,7,11
1.72313E+12,-7842,2263,-17,318,-51,-192,1,7,11
1.72313E+12,-8043,2231,-28,-42,312,-253,1,7,11
1.72313E+12,-8025,2421,-32,111,189,-609,1,7,11
1.72313E+12,-8041,2343,-16,29,537,-446,1,7,11
1.72313E+12,-8044,1977,262,-285,534,-800,1,7,11
1.72313E+12,-7698,1698,-19,-219,275,-666,1,7,11
1.72313E+12,-7704,1501,285,-225,323,-690,1,7,11
1.72313E+12,-7788,1578,291,-152,-7,-1056,1,7,11
1.72313E+12,-7748,1180,307,-136,75,-980,1,7,11
1.72313E+12,-7768,1179,324,-342,-317,-1304,1,7,11
1.72313E+12,-7659,1224,318,-274,-351,-1378,1,7,11
1.72313E+12,-8057,1213,333,-285,-374,-1351,1,7,11
1.72313E+12,-8261,1225,360,-288,-377,-981,1,7,11
1.72313E+12,-8145,1237,161,-276,-163,-912,1,7,11
1.72313E+12,-8487,1226,219,-264,-545,-654,1,7,11
1.72313E+12,-8562,1194,533,2,-615,-475,1,7,11
1.72313E+12,-8338,1220,578,13,-441,-549,1,7,11
1.72313E+12,-8566,1241,614,18,-789,-376,1,7,11
1.72313E+12,-8483,1272,402,-262,-815,3,1,7,11
1.72313E+12,-8169,1547,485,-333,-497,93,1,7,11
1.72313E+12,-8113,1279,828,-162,-418,127,1,7,11
1.72313E+12,-8287,1566,664,-215,-602,108,1,7,11
1.72313E+12,-8223,1597,718,-234,-536,79,1,7,11
1.72313E+12,-7880,1607,750,-199,-188,72,1,7,11
1.72313E+12,-7839,1595,1025,-383,-310,64,1,7,11
1.72313E+12,-7850,1548,1057,-301,79,55,1,7,11
1.72313E+12,-7868,1234,1067,74,-98,-263,1,7,11
1.72313E+12,-7858,1229,1071,-17,-95,-378,1,7,11
1.72313E+12,-7819,1567,1027,135,-81,-254,1,7,11
1.72313E+12,-7851,1655,714,181,-9,-582,1,7,11
1.72313E+12,-7870,1453,838,133,137,-600,1,7,11
1.72313E+12,-7846,1481,775,375,213,-561,1,7,11
1.72313E+12,-7969,1527,162,58,884,-85,1,7,11
1.72313E+12,-7668,1515,365,-265,746,-12,1,7,11
1.72313E+12,-7943,1508,284,-326,1129,293,1,7,11
1.72313E+12,-7967,1507,-23,-383,959,317,1,7,11
1.72313E+12,-8005,1512,-76,-162,1006,316,1,7,11
1.72313E+12,-8033,1519,123,-198,1018,293,1,7,11
1.72313E+12,-8057,1517,81,-256,978,267,1,7,11
1.72313E+12,-7825,1509,41,-542,928,-8,1,7,11
1.72313E+12,-7855,1505,11,-561,1119,-28,1,7,11
1.72313E+12,-7885,1494,-271,-571,1040,-38,1,7,11
1.72313E+12,-7917,1476,-283,-568,689,-40,1,7,11
1.72313E+12,-7921,1456,-309,-542,815,-37,1,7,11
1.72313E+12,-7925,1457,-327,-253,439,-36,1,7,11
1.72313E+12,-7925,1451,-323,-228,585,-28,1,7,11
1.72313E+12,-7936,1451,-309,-200,217,-20,1,7,11
1.72313E+12,-7930,1450,-298,-164,358,-3,1,7,11
1.72313E+12,-7917,1452,-288,-380,-4,279,1,7,11
1.72313E+12,-7899,1450,-273,-333,-91,301,1,7,11
1.72313E+12,-7872,1446,-268,-285,100,316,1,7,11
1.72313E+12,-7844,1451,-262,20,63,325,1,7,11
1.72313E+12,-7832,1455,0,63,53,324,1,7,11
1.72313E+12,-7831,1466,14,98,53,316,1,7,11
1.72313E+12,-7816,1480,11,127,56,303,1,7,11
1.72313E+12,-8057,1491,15,-115,73,281,1,7,11
1.72313E+12,-8062,1501,18,-109,98,-1,1,7,11
1.72313E+12,-8059,1509,14,-111,120,-30,1,7,11
1.72313E+12,-7811,1514,24,-120,-115,-60,1,7,11
1.72313E+12,-7818,1517,29,123,-108,-85,1,7,11
1.72313E+12,-7821,1518,38,112,-109,-105,1,7,11
1.72313E+12,-7822,1527,43,103,-117,-115,1,7,11
1.72313E+12,-7824,1804,57,93,-122,-112,1,7,11
1.72313E+12,-7832,1828,79,82,119,-94,1,7,11
1.72313E+12,-7835,1842,91,66,104,-61,1,7,11
1.72313E+12,-7836,1855,111,45,87,-17,1,7,11
1.72313E+12,-7827,1870,115,23,68,284,1,7,11
1.72313E+12,-7819,1881,127,5,54,324,1,7,11
1.72313E+12,-7818,1891,-115,-267,52,357,1,7,11
1.72313E+12,-7824,1905,-109,-270,47,130,1,7,11
1.72313E+12,-7819,1665,-94,-275,34,151,1,7,11
1.72313E+12,-8059,1681,-85,-279,28,166,1,7,11
1.72313E+12,-8046,1690,-67,-281,19,176,1,7,11
1.72313E+12,-8046,1711,-51,-278,13,169,1,7,11
1.72313E+12,-8048,1731,-36,-283,-258,166,1,7,11
1.72313E+12,-8044,1758,-24,-285,-276,165,1,7,11
1.72313E+12,-8010,1778,-32,-289,-292,174,1,7,11
1.72313E+12,-7976,1786,-23,-289,-292,181,1,7,11
1.72313E+12,-7676,1789,-25,-285,-282,187,1,7,11
1.72313E+12,-7631,2051,-37,-280,0,184,1,7,11
1.72313E+12,-7583,2065,-63,-277,31,174,1,7,11
1.72313E+12,-7586,2077,-90,-290,84,143,1,7,11
1.72313E+12,-7623,2072,-120,-317,116,369,1,7,11
1.72313E+12,-7665,2053,104,-342,109,337,1,7,11
1.72313E+12,-7676,1752,30,-363,47,314,1,7,11
1.72313E+12,-7941,1670,-344,-374,-283,293,1,7,11
1.72313E+12,-8052,1866,-214,-356,-374,286,1,7,11
1.72313E+12,-8307,1854,-575,-328,-569,341,1,7,11
1.72313E+12,-8333,1879,-639,-324,-735,242,1,7,11
1.72313E+12,-8780,1912,-410,-366,-1630,473,1,7,11
1.72313E+12,-8807,1916,-622,-198,-2382,734,1,7,11
1.72313E+12,-8363,1854,-254,-549,-3129,986,1,7,11
1.72313E+12,-8272,1535,-328,-575,-3693,1156,1,7,11
1.72313E+12,-7947,1520,-78,-251,-3906,1197,1,7,11
1.72313E+12,-7777,1839,208,-344,-3565,1186,1,7,11
1.72313E+12,-7399,1718,476,-111,-3606,1182,1,7,11
1.72313E+12,-7509,1935,697,155,-3043,1192,1,7,11
1.72313E+12,-7443,2212,1151,607,-2838,1156,1,7,11
1.72313E+12,-7482,2449,1328,408,-2335,1363,1,7,11
1.72313E+12,-7302,2868,1223,626,-1891,1283,1,7,11
1.72313E+12,-7396,2717,1586,541,-1279,906,1,7,11
1.72313E+12,-7706,2771,1651,185,-1009,748,1,7,11
1.72313E+12,-7724,2800,1438,331,-1065,820,1,7,11
1.72313E+12,-7727,2794,1469,-33,-882,619,1,7,11
1.72313E+12,-7738,2795,1498,119,-479,165,1,7,11
1.72313E+12,-7730,2764,1512,20,-631,-8,1,7,11
1.72313E+12,-7713,2727,1529,-322,-531,95,1,7,11
1.72313E+12,-7703,2937,1811,-136,-175,-276,1,7,11
1.72313E+12,-7687,2883,1837,-172,-335,-353,1,7,11
1.72313E+12,-7413,2829,1858,-173,17,-145,1,7,11
1.72313E+12,-7403,2522,1861,-149,126,-173,1,7,11
1.72313E+12,-7408,2497,1863,-358,-19,-190,1,7,11
1.72313E+12,-7405,2481,1855,-314,340,-198,1,7,11
1.72313E+12,-7397,2480,1839,-274,187,-201,1,7,11
1.72313E+12,-7395,2485,1815,2,555,-207,1,7,11
1.72313E+12,-7399,2494,1798,-264,413,-213,1,7,11
1.72313E+12,-7403,2518,1517,-294,778,-221,1,7,11
1.72313E+12,-7410,2530,1482,-349,883,-233,1,7,11
1.72313E+12,-7706,2537,1451,-175,734,-254,1,7,11
1.72313E+12,-7756,2540,1424,-529,1083,-530,1,7,11
1.72313E+12,-7779,2542,1639,-624,1148,-537,1,7,11
1.72313E+12,-7789,2548,1593,-459,967,-541,1,7,11
1.72313E+12,-7807,2549,1559,-810,1331,-547,1,7,11
1.72313E+12,-7579,2530,1265,-646,1194,-545,1,7,11
1.72313E+12,-7591,2500,1220,-733,1555,-546,1,7,11
1.72313E+12,-7595,2461,1177,-1060,1409,-562,1,7,11
1.72313E+12,-7603,2670,1376,-1127,1513,-587,1,7,11
1.72313E+12,-7611,2614,1311,-927,1862,-624,1,7,11
1.72313E+12,-7629,2288,975,-969,1685,-423,1,7,11
1.72313E+12,-7652,2219,1149,-988,1739,-472,1,7,11
1.72313E+12,-7943,2390,760,-988,1769,-775,1,7,11
1.72313E+12,-7987,2360,715,-967,1774,-811,1,7,11
1.72313E+12,-8047,2034,642,-926,1754,-836,1,7,11
1.72313E+12,-7818,1971,766,-1110,1684,-836,1,7,11
1.72313E+12,-7836,1920,427,-1030,1865,-839,1,7,11
1.72313E+12,-7857,2099,608,-684,1480,-832,1,7,11
1.72313E+12,-7868,2062,527,-772,1637,-811,1,7,11
1.72313E+12,-7874,1779,199,-402,1538,-781,1,7,11
1.72313E+12,-7878,1759,138,-548,1194,-495,1,7,11
1.72313E+12,-7888,1754,331,-185,1360,-458,1,7,11
1.72313E+12,-7902,1763,272,-344,1011,-410,1,7,11
1.72313E+12,-7904,1772,-44,-264,914,-601,1,7,11
1.72313E+12,-7876,1777,-107,55,1073,-519,1,7,11
1.72313E+12,-7851,1787,99,110,746,-184,1,7,11
1.72313E+12,-7817,2062,64,-95,686,-351,1,7,11
1.72313E+12,-8025,2093,37,-54,645,-263,1,7,11
1.72313E+12,-7982,2145,12,-32,884,74,1,7,11
1.72313E+12,-7665,1955,-260,-33,871,-106,1,7,11
1.72313E+12,-7588,2045,-260,-58,890,-45,1,7,11
1.72313E+12,-7753,2422,17,0,1055,-39,1,7,11
1.72313E+12,-7756,2404,10,-132,1151,-92,1,7,11
1.72313E+12,-8062,1977,-158,-559,855,-155,1,7,11
1.72313E+12,-7812,1970,-185,-255,405,-138,1,7,11
1.72313E+12,-7811,1971,-209,-190,220,-348,1,7,11
1.72313E+12,-8050,1972,-225,-136,309,-276,1,7,11
1.72313E+12,-8059,1962,-240,-338,-87,62,1,7,11
1.72313E+12,-8025,1960,-238,4,-306,-65,1,7,11
1.72313E+12,-7989,1998,-245,79,-149,262,1,7,11
1.72313E+12,-8022,2312,-214,-122,-199,331,1,7,11
1.72313E+12,-8031,2339,-158,-89,-556,168,1,7,11
1.72313E+12,-7982,2027,-371,-65,-450,518,1,7,11
1.72313E+12,-7657,1947,-341,-1,-812,573,1,7,11
1.72313E+12,-7656,2172,-308,346,-854,558,1,7,11
1.72313E+12,-7657,2173,-278,167,-652,248,1,7,11
1.72313E+12,-7652,1937,10,227,-710,163,1,7,11
1.72313E+12,-7647,1996,51,528,-759,326,1,7,11
1.72313E+12,-7646,2329,84,523,-1065,262,1,7,11
1.72313E+12,-7636,2357,-125,219,-1106,-46,1,7,11
1.72313E+12,-7649,2395,-67,166,-1148,-84,1,7,11
1.72313E+12,-7624,2410,-26,349,-950,-85,1,7,11
1.72313E+12,-7612,2350,277,300,-942,-89,1,7,11
1.72313E+12,-7941,2036,346,312,-1145,-118,1,7,11
1.72313E+12,-7968,1995,163,348,-933,86,1,7,11
1.72313E+12,-7664,1998,205,130,-980,-274,1,7,11
1.72313E+12,-7967,2034,234,353,-957,-358,1,7,11
1.72313E+12,-7965,2022,545,295,-984,-159,1,7,11
1.72313E+12,-7966,2016,590,266,-981,-209,1,7,11
1.72313E+12,-7953,2005,623,-24,-958,-220,1,7,11
1.72313E+12,-7953,1974,394,-43,-916,-227,1,7,11
1.72313E+12,-7939,1967,418,-20,-1118,-217,1,7,11
1.72313E+12,-7944,1948,442,260,-1039,-198,1,7,11
1.72313E+12,-7988,1930,449,293,-696,-175,1,7,11
1.72313E+12,-8006,1925,462,316,-645,-138,1,7,11
1.72313E+12,-7991,1923,480,340,-877,-362,1,7,11
1.72313E+12,-7947,1923,481,356,-848,-343,1,7,11
1.72313E+12,-7954,1946,490,352,-785,-315,1,7,11
1.72313E+12,-7999,1948,511,318,-491,-279,1,7,11
1.72313E+12,-8039,1927,803,289,-488,11,1,7,11
1.72313E+12,-8060,2161,850,291,-511,36,1,7,11
1.72313E+12,-8022,2120,890,309,-810,53,1,7,11
1.72313E+12,-8011,2098,667,352,-797,53,1,7,11
1.72313E+12,-8035,2058,720,382,-482,56,1,7,11
1.72313E+12,-7855,1775,744,154,-436,51,1,7,11
1.72313E+12,-7842,1779,748,198,-436,11,1,7,11
1.72313E+12,-7829,2113,732,235,-458,-334,1,7,11
1.72313E+12,-7860,1958,715,241,-443,-347,1,7,11
1.72313E+12,-7853,2030,685,163,-480,-312,1,7,11
1.72313E+12,-7831,2335,667,292,-509,25,1,7,11
1.72313E+12,-7813,2352,680,68,-785,-118,1,7,11
1.72313E+12,-8047,2327,727,-332,-814,267,1,7,11
1.72313E+12,-8000,2310,1039,-157,-838,378,1,7,11
1.72313E+12,-7969,2306,1103,-201,-814,204,1,7,11
1.72313E+12,-7670,2039,907,-219,-772,528,1,7,11
1.72313E+12,-7621,2032,968,-209,-431,563,1,7,11
1.72313E+12,-7600,2047,1001,-175,-575,573,1,7,11
1.72313E+12,-7592,2320,1014,-143,-196,556,1,7,11
1.72313E+12,-7599,2343,1012,-374,-332,520,1,7,11
1.72313E+12,-7612,2372,1018,-348,44,223,1,7,11
1.72313E+12,-7632,2403,1023,-330,-102,186,1,7,11
1.72313E+12,-7633,2428,998,-312,-10,175,1,7,11
1.72313E+12,-7614,2205,957,-294,328,169,1,7,11
1.72313E+12,-7601,2241,912,-292,162,178,1,7,11
1.72313E+12,-7598,2258,1125,-315,251,200,1,7,11
1.72313E+12,-7601,2254,1094,-334,583,225,1,7,11
1.72313E+12,-7625,2244,1058,-341,637,244,1,7,11
1.72313E+12,-7661,2241,1040,-337,408,252,1,7,11
1.72313E+12,-7946,2240,758,-325,399,512,1,7,11
1.72313E+12,-7957,2240,745,-313,617,253,1,7,11
1.72313E+12,-7972,2240,734,-300,568,243,1,7,11
1.72313E+12,-7979,2246,732,-284,253,228,1,7,11
1.72313E+12,-7979,2260,737,-269,193,210,1,7,11
1.72313E+12,-7946,2263,746,-263,136,190,1,7,11
1.72313E+12,-7947,2272,767,-257,365,151,1,7,11
1.72313E+12,-7955,2269,1042,-258,338,369,1,7,11
1.72313E+12,-7951,2267,1070,7,314,327,1,7,11
1.72313E+12,-7947,2268,1072,18,302,286,1,7,11
1.72313E+12,-7938,2267,1080,32,301,258,1,7,11
1.72313E+12,-7661,2273,1080,52,316,-15,1,7,11
1.72313E+12,-7650,2279,1074,71,352,-25,1,7,11
1.72313E+12,-7647,2273,1061,79,138,-20,1,7,11
1.72313E+12,-7660,2267,1053,97,176,-6,1,7,11
1.72313E+12,-7668,2262,1031,117,199,270,1,7,11
1.72313E+12,-7937,2259,741,-109,213,296,1,7,11
1.72313E+12,-7940,2270,707,-68,216,326,1,7,11
1.72313E+12,-7934,2277,675,-34,213,360,1,7,11
1.72313E+12,-7947,2284,652,-6,199,139,1,7,11
1.72313E+12,-7951,2293,878,276,164,196,1,7,11
1.72313E+12,-7943,2566,845,308,368,234,1,7,11
1.72313E+12,-7658,2593,818,337,268,531,1,7,11
1.72313E+12,-7621,2646,793,369,-38,577,1,7,11
1.72313E+12,-7587,2451,780,129,-62,614,1,7,11
1.72313E+12,-7563,2499,786,364,-63,394,1,7,11
1.72313E+12,-7802,2544,790,321,-52,429,1,7,11
1.72313E+12,-7787,2841,789,275,-38,469,1,7,11
1.72313E+12,-7750,2882,789,-17,-3,494,1,7,11
1.72313E+12,-7731,2915,791,-61,318,494,1,7,11
1.72313E+12,-7710,2933,800,-99,136,482,1,7,11
1.72313E+12,-7692,2703,805,-125,219,455,1,7,11
1.72313E+12,-7693,2719,808,102,563,412,1,7,11
1.72313E+12,-7704,2723,802,81,638,615,1,7,11
1.72313E+12,-7705,2725,790,78,434,560,1,7,11
1.72313E+12,-7706,2738,779,77,477,242,1,7,11
1.72313E+12,-7712,2739,504,69,510,186,1,7,11
1.72313E+12,-7698,2744,469,75,785,136,1,7,11
1.72313E+12,-7703,2750,433,85,811,334,1,7,11
1.72313E+12,-7716,2755,397,90,831,255,1,7,11
1.72313E+12,-7733,2744,635,91,847,-41,1,7,11
1.72313E+12,-7744,2737,598,94,832,-69,1,7,11
1.72313E+12,-7766,2734,570,109,806,-94,1,7,11
1.72313E+12,-7776,2730,543,-120,769,-103,1,7,11
1.72313E+12,-7768,2742,254,-94,463,-100,1,7,11
1.72313E+12,-7756,2750,214,-78,421,-84,1,7,11
1.72313E+12,-7741,2758,187,-74,400,-59,1,7,11
1.72313E+12,-7737,2747,168,-70,632,-28,1,7,11
1.72313E+12,-7732,2750,142,-51,595,261,1,7,11
1.72313E+12,-7720,2769,380,-26,552,293,1,7,11
1.72313E+12,-7715,2791,359,-21,516,324,1,7,11
1.72313E+12,-7715,2808,344,-33,221,351,1,7,11
1.72313E+12,-7716,3074,344,-48,176,369,1,7,11
1.72313E+12,-7712,3084,336,-65,380,383,1,7,11
1.72313E+12,-7699,3096,330,-82,337,134,1,7,11
1.72313E+12,-7694,3118,330,-104,308,135,1,7,11
1.72313E+12,-7692,3130,326,117,280,142,1,7,11
1.72313E+12,-7419,3146,321,77,257,148,1,7,11
1.72313E+12,-7417,3158,320,23,-14,148,1,7,11
1.72313E+12,-7418,3156,331,-286,-24,141,1,7,11
1.72313E+12,-7682,3152,344,-329,-39,129,1,7,11
1.72313E+12,-7681,3148,352,-357,-63,373,1,7,11
1.72313E+12,-7412,3156,353,-372,-85,356,1,7,11
1.72313E+12,-7403,3160,365,-130,-88,341,1,7,11
1.72313E+12,-7407,3160,375,-141,-82,329,1,7,11
1.72313E+12,-7398,3168,381,-142,-78,323,1,7,11
1.72313E+12,-7387,3173,383,-379,-72,320,1,7,11
1.72313E+12,-7381,3192,134,-362,-58,317,1,7,11
1.72313E+12,-7384,3199,131,-353,-45,320,1,7,11
1.72313E+12,-7387,2953,140,-344,-32,317,1,7,11
1.72313E+12,-7380,2964,129,-334,-28,312,1,7,11
1.72313E+12,-7367,2983,376,-328,-18,299,1,7,11
1.72313E+12,-7358,3001,379,-335,261,289,1,7,11
1.72313E+12,-7365,3010,140,-363,276,281,1,7,11
1.72313E+12,-7377,2998,155,-382,276,278,1,7,11
1.72313E+12,-7381,2979,163,-382,260,269,1,7,11
1.72313E+12,-7371,2976,164,-363,-15,258,1,7,11
1.72313E+12,-7359,2984,166,-334,-26,-8,1,7,11
1.72313E+12,-7347,2996,167,-307,-25,-9,1,7,11
1.72313E+12,-7330,3022,151,-275,-9,257,1,7,11
1.72313E+12,-7312,3046,139,4,261,272,1,7,11
1.72313E+12,-7298,3068,135,19,289,282,1,7,11
1.72313E+12,-7540,3337,378,20,324,293,1,7,11
1.72313E+12,-7532,3337,364,21,359,297,1,7,11
1.72313E+12,-7529,3346,346,38,136,299,1,7,11
1.72313E+12,-7528,3365,329,51,168,294,1,7,11
1.72313E+12,-7526,3374,313,57,190,288,1,7,11
1.72313E+12,-7528,3394,293,53,206,285,1,7,11
1.72313E+12,-7542,3396,278,37,214,287,1,7,11
1.72313E+12,-7542,3399,265,25,210,288,1,7,11
1.72313E+12,-7541,3408,-7,15,201,284,1,7,11
1.72313E+12,-7537,3415,-26,6,189,272,1,7,11
1.72313E+12,-7535,3422,-30,-266,183,-3,1,7,11
1.72313E+12,-7530,3426,-32,-280,179,-18,1,7,11
1.72313E+12,-7525,3435,-31,-290,173,-40,1,7,11
1.72313E+12,-7531,3430,-31,-303,165,-60,1,7,11
1.72313E+12,-7524,3416,-36,-307,149,-74,1,7,11
1.72313E+12,-7512,3422,-50,-295,136,-92,1,7,11
1.72313E+12,-7509,3434,-44,-289,138,-112,1,7,11
1.72313E+12,-7539,3437,-42,-302,139,127,1,7,11
1.72313E+12,-7305,3430,-46,-314,373,123,1,7,11
1.72313E+12,-7303,3423,-47,-309,339,-127,1,7,11
1.72313E+12,-7539,3406,-48,-288,309,-120,1,7,11
1.72313E+12,-7517,3402,-59,11,299,-111,1,7,11
1.72313E+12,-7506,3413,-64,56,302,-105,1,7,11
1.72313E+12,-7501,3421,-77,99,305,-99,1,7,11
1.72313E+12,-7488,3439,-91,-117,305,-96,1,7,11
1.72313E+12,-7488,3200,-107,-96,312,-102,1,7,11
1.72313E+12,-7491,3214,-122,-95,327,-115,1,7,11
1.72313E+12,-7503,3220,115,-104,339,104,1,7,11
1.72313E+12,-7505,3226,90,-124,338,89,1,7,11
1.72313E+12,-7505,3234,77,106,329,62,1,7,11
1.72313E+12,-7514,3233,72,71,323,24,1,7,11
1.72313E+12,-7513,3225,68,32,316,20,1,7,11
1.72313E+12,-7505,3202,67,-263,289,11,1,7,11
1.72313E+12,-7509,3436,74,-292,270,9,1,7,11
1.72313E+12,-7514,3411,82,-321,-11,14,1,7,11
1.72313E+12,-7511,3396,76,-316,-45,20,1,7,11
1.72313E+12,-7492,3387,86,-299,-64,29,1,7,11
1.72313E+12,-7489,3391,100,-279,-68,35,1,7,11
1.72313E+12,-7479,3389,114,-258,-67,52,1,7,11
1.72313E+12,-7477,3380,126,30,-55,67,1,7,11
1.72313E+12,-7474,3403,114,-124,269,94,1,7,11
1.72313E+12,-7479,3407,108,-117,294,100,1,7,11
1.72313E+12,-7479,3410,93,-116,313,107,1,7,11
1.72313E+12,-7482,3414,81,-119,328,118,1,7,11
1.72313E+12,-7477,3431,62,-123,344,-126,1,7,11
1.72313E+12,-7475,3418,48,111,369,-106,1,7,11
1.72313E+12,-7507,3388,48,107,149,-84,1,7,11
1.72313E+12,-7517,3367,54,-120,156,-52,1,7,11
1.72313E+12,-7500,3366,45,-65,147,-22,1,7,11
1.72313E+12,-7486,3385,42,-4,157,259,1,7,11
1.72313E+12,-7484,3410,29,296,176,286,1,7,11
1.72313E+12,-7471,3440,11,327,191,311,1,7,11
1.72313E+12,-7463,3220,-269,330,209,326,1,7,11
1.72313E+12,-7458,3249,-290,311,227,334,1,7,11
1.72313E+12,-7453,3256,-320,272,245,333,1,7,11
1.72313E+12,-7444,3269,-343,-31,517,320,1,7,11
1.72313E+12,-7431,3272,-368,-90,539,302,1,7,11
1.72313E+12,-7433,3265,-372,105,560,286,1,7,11
1.72313E+12,-7439,3259,-382,57,568,275,1,7,11
1.72313E+12,-7432,3260,-138,18,569,265,1,7,11
1.72313E+12,-7428,3267,-156,-280,569,258,1,7,11
1.72313E+12,-7166,3263,-166,-315,570,-2,1,7,11
1.72313E+12,-7162,3257,-166,-333,564,-1,1,7,11
1.72313E+12,-7158,3256,-182,-337,550,261,1,7,11
1.72313E+12,-7147,3257,-191,-325,530,269,1,7,11
1.72313E+12,-7139,3263,-203,-303,515,275,1,7,11
1.72313E+12,-7128,3272,-213,-279,244,272,1,7,11
1.72313E+12,-7120,3291,-219,5,234,275,1,7,11
1.72313E+12,-7127,3317,-229,22,223,266,1,7,11
1.72313E+12,-7137,3590,-241,24,195,-1,1,7,11
1.72313E+12,-7119,3599,-520,29,159,-19,1,7,11
1.72313E+12,-7106,3628,-549,35,136,-31,1,7,11
1.72313E+12,-7087,3630,-570,30,130,-38,1,7,11
1.72313E+12,-7066,3627,-575,21,141,-52,1,7,11
1.72313E+12,-7053,3634,-582,28,157,-75,1,7,11
1.72313E+12,-7049,3652,-595,28,171,-106,1,7,11
1.72313E+12,-7056,3662,-599,2,175,124,1,7,11
1.72313E+12,-7055,3655,-600,-288,173,99,1,7,11
1.72313E+12,-7060,3645,-607,-318,174,73,1,7,11
1.72313E+12,-7070,3645,-623,-336,171,53,1,7,11
1.72313E+12,-7074,3636,-628,-344,164,42,1,7,11
1.72313E+12,-7090,3631,-626,-342,163,39,1,7,11
1.72313E+12,-7086,3634,-633,-341,151,51,1,7,11
1.72313E+12,-7063,3624,-388,-342,149,65,1,7,11
1.72313E+12,-7089,3634,-638,-364,153,61,1,7,11
1.72313E+12,-7091,3631,-386,-135,145,60,1,7,11
1.72313E+12,-7081,3618,-391,-158,143,63,1,7,11
1.72313E+12,-7065,3637,-387,-155,147,52,1,7,11
1.72313E+12,-7057,3638,-639,-165,167,43,1,7,11
1.72313E+12,-7049,3631,-390,-176,195,35,1,7,11
1.72313E+12,-7054,3628,-392,-192,226,26,1,7,11
1.72313E+12,-7058,3625,-400,-201,252,23,1,7,11
1.72313E+12,-7051,3613,-403,-196,525,23,1,7,11
1.72313E+12,-7056,3603,-410,-186,550,19,1,7,11
1.72313E+12,-7055,3597,-414,-174,578,18,1,7,11
1.72313E+12,-7062,3599,-416,-162,599,4,1,7,11
1.72313E+12,-7087,3316,-419,-186,622,-265,1,7,11
1.72313E+12,-7117,3286,-434,-208,631,-300,1,7,11
1.72313E+12,-7118,3277,-435,-211,586,-339,1,7,11
1.72313E+12,-7107,3273,-460,-206,538,-369,1,7,11
1.72313E+12,-7093,3282,-481,-186,248,-356,1,7,11
1.72313E+12,-7074,3307,-488,-155,233,-314,1,7,11
1.72313E+12,-7075,3321,-489,-135,239,5,1,7,11
1.72313E+12,-7069,3310,-498,-369,239,72,1,7,11
1.72313E+12,-7054,3309,-512,-328,238,107,1,7,11
1.72313E+12,-7049,3326,-784,-285,244,108,1,7,11
1.72313E+12,-7295,3605,-809,2,245,97,1,7,11
1.72313E+12,-7291,3629,-832,20,245,75,1,7,11
1.72313E+12,-7282,3639,-851,27,249,52,1,7,11
1.72313E+12,-7271,3637,-868,26,250,20,1,7,11
1.72313E+12,-7254,3637,-880,23,512,-275,1,7,11
1.72313E+12,-7249,3633,-885,15,521,-316,1,7,11
1.72313E+12,-7250,3626,-650,9,523,-353,1,7,11
1.72313E+12,-7276,3614,-665,-261,527,-377,1,7,11
1.72313E+12,-7058,3316,-716,-326,203,-360,1,7,11
1.72313E+12,-7078,3323,-721,-359,166,-340,1,7,11
1.72313E+12,-7259,3666,-1081,-587,351,30,1,7,11
1.72313E+12,-7244,3476,-1121,-623,297,62,1,7,11
1.72313E+12,-7227,3539,-903,-471,265,65,1,7,11
1.72313E+12,-7205,3842,-909,-858,-24,56,1,7,11
1.72313E+12,-7200,3840,-915,-1045,-46,14,1,7,11
1.72313E+12,-7235,3559,-899,-996,-73,-311,1,7,11
1.72313E+12,-7285,3494,-1136,-1194,122,-146,1,7,11
1.72313E+12,-7046,3673,-1112,-1582,27,-530,1,7,11
1.72313E+12,-7085,3625,-1052,-1657,-320,-450,1,7,11
1.72313E+12,-7128,3324,-729,-1442,-184,-873,1,7,11
1.72313E+12,-7158,3295,-661,-1438,-588,-1026,1,7,11
1.72313E+12,-7160,3271,-854,-1641,-494,-897,1,7,11
1.72313E+12,-7453,3233,-769,-1584,-888,-982,1,7,11
1.72313E+12,-7464,3452,-425,-1251,-1038,-1282,1,7,11
1.72313E+12,-7464,3444,-613,-1162,-916,-1286,1,7,11
1.72313E+12,-7440,3435,-551,-1326,-1016,-1003,1,7,11
1.72313E+12,-7425,3406,-219,-952,-1316,-959,1,7,11
1.72313E+12,-7436,3386,-149,-1073,-1320,-899,1,7,11
1.72313E+12,-7456,3359,-319,-685,-1315,-1081,1,7,11
1.72313E+12,-7486,3057,19,-813,-1311,-744,1,7,11
1.72313E+12,-7511,3004,89,-423,-1299,-660,1,7,11
1.72313E+12,-7314,2950,-82,-558,-1284,-848,1,7,11
1.72313E+12,-7331,3157,-1,-169,-1309,-797,1,7,11
1.72313E+12,-7349,3127,331,-277,-1336,-774,1,7,11
1.72313E+12,-7368,3098,147,-119,-1355,-509,1,7,11
1.72313E+12,-7383,3088,217,293,-1377,-504,1,7,11
1.72313E+12,-7371,3104,250,192,-1402,-498,1,7,11
1.72313E+12,-7348,3142,528,577,-1398,-493,1,7,11
1.72313E+12,-7326,3169,543,404,-1362,-477,1,7,11
1.72313E+12,-7319,3187,558,456,-1293,-454,1,7,11
1.72313E+12,-7326,3193,595,486,-954,-424,1,7,11
1.72313E+12,-7327,3185,607,502,-1125,-638,1,7,11
1.72313E+12,-7335,3165,609,770,-1030,-622,1,7,11
1.72313E+12,-7349,3138,608,776,-886,-607,1,7,11
1.72313E+12,-7373,3112,598,778,-807,-593,1,7,11
1.72313E+12,-7392,3080,590,791,-483,-577,1,7,11
1.72313E+12,-7397,2795,573,791,-419,-560,1,7,11
1.72313E+12,-7402,2783,550,785,-596,-548,1,7,11
1.72313E+12,-7394,2755,543,503,-524,-543,1,7,11
1.72313E+12,-7413,2705,537,460,-178,-556,1,7,11
1.72313E+12,-7689,2923,537,441,-366,-583,1,7,11
1.72313E+12,-7710,2895,515,432,-308,-628,1,7,11
1.72313E+12,-7715,2870,237,423,-258,-407,1,7,11
1.72313E+12,-7734,2847,201,395,63,-435,1,7,11
1.72313E+12,-7748,2824,169,621,123,-460,1,7,11
1.72313E+12,-7749,2553,376,582,-75,-487,1,7,11
1.72313E+12,-7776,2546,336,514,-12,-773,1,7,11
1.72313E+12,-7567,2526,304,145,284,-797,1,7,11
1.72313E+12,-7613,2503,293,283,292,-800,1,7,11
1.72313E+12,-7628,2472,270,-93,277,-776,1,7,11
1.72313E+12,-7649,2441,266,48,276,-473,1,7,11
1.72313E+12,-7640,2662,-7,-312,262,-389,1,7,11
1.72313E+12,-7619,2628,-17,-137,276,-564,1,7,11
1.72313E+12,-7620,2597,-16,-198,308,-221,1,7,11
1.72313E+12,-7620,2566,-7,-234,342,-135,1,7,11
1.72313E+12,-7618,2289,-1,-244,360,-305,1,7,11
1.72313E+12,-7617,2290,269,-232,369,31,1,7,11
1.72313E+12,-7611,2301,260,-204,372,105,1,7,11
1.72313E+12,-7597,2579,257,-163,130,-86,1,7,11
1.72313E+12,-7587,2593,-3,-382,149,-31,1,7,11
1.72313E+12,-7578,2593,-8,-343,160,273,1,7,11
1.72313E+12,-7589,2588,-6,-286,172,302,1,7,11
1.72313E+12,-7587,2607,-17,44,162,326,1,7,11
1.72313E+12,-7567,2644,-12,117,142,328,1,7,11
1.72313E+12,-7559,2474,-13,-80,380,320,1,7,11
1.72313E+12,-7803,2515,-18,-58,354,335,1,7,11
1.72313E+12,-7788,2559,-25,-38,310,349,1,7,11
1.72313E+12,-7760,2864,-47,-28,290,369,1,7,11
1.72313E+12,-7732,2690,-96,-16,302,136,1,7,11
1.72313E+12,-7424,2800,91,-41,348,182,1,7,11
1.72313E+12,-7358,3148,30,-124,186,235,1,7,11
1.72313E+12,-7316,2960,0,10,569,540,1,7,11
1.72313E+12,-7302,2999,-271,-132,435,578,1,7,11
1.72313E+12,-7297,3010,-279,-545,785,600,1,7,11
1.72313E+12,-7298,2999,-267,-433,844,582,1,7,11
1.72313E+12,-7300,2974,-277,-810,869,521,1,7,11
1.72313E+12,-7542,2954,-282,-650,869,171,1,7,11
1.72313E+12,-7515,3196,-298,-734,865,304,1,7,11
1.72313E+12,-7497,3198,-308,-1074,881,-100,1,7,11
1.72313E+12,-7513,2948,-304,-917,663,-263,1,7,11
1.72313E+12,-7299,3199,-288,-1287,691,-165,1,7,11
1.72313E+12,-7344,3179,-269,-1404,682,-560,1,7,11
1.72313E+12,-7385,3152,-268,-1270,648,-422,1,7,11
1.72313E+12,-7414,3108,-260,-1632,855,-510,1,7,11
1.72313E+12,-7703,2795,12,-1460,797,-820,1,7,11
1.72313E+12,-7745,2723,24,-1512,468,-834,1,7,11
1.72313E+12,-7789,2902,46,-1517,630,-810,1,7,11
1.72313E+12,-7563,2827,71,-1475,516,-507,1,7,11
1.72313E+12,-7586,2517,88,-1641,138,-433,1,7,11
1.72313E+12,-7590,2474,108,-1266,271,-605,1,7,11
1.72313E+12,-7602,2673,-123,-1367,-100,-516,1,7,11
1.72313E+12,-7603,2636,-94,-913,37,-186,1,7,11
1.72313E+12,-7598,2628,-85,-687,-332,-381,1,7,11
1.72313E+12,-7607,2613,-63,-464,-171,-324,1,7,11
1.72313E+12,-7641,2602,-44,-251,-251,-274,1,7,11
1.72313E+12,-7666,2601,-26,-307,-602,-257,1,7,11
1.72313E+12,-7668,2643,-17,-119,-460,0,1,7,11
1.72313E+12,-7649,2435,-16,280,-817,-268,1,7,11
1.72313E+12,-7628,2459,-3,364,-884,-266,1,7,11
1.72313E+12,-7642,2460,278,148,-674,-270,1,7,11
1.72313E+12,-7655,2445,303,160,-737,-273,1,7,11
1.72313E+12,-7615,2441,320,167,-1071,-285,1,7,11
1.72313E+12,-7576,2448,354,165,-1116,-328,1,7,11
1.72313E+12,-7805,2454,135,152,-1112,-159,1,7,11
1.72313E+12,-7800,2470,180,138,-1075,-222,1,7,11
1.72313E+12,-7565,2482,230,358,-1039,-536,1,7,11
1.72313E+12,-7572,2476,534,324,-757,-571,1,7,11
1.72313E+12,-7559,2480,559,303,-728,-587,1,7,11
1.72313E+12,-7792,2496,579,283,-676,-574,1,7,11
1.72313E+12,-7772,2522,597,262,-853,-533,1,7,11
1.72313E+12,-7769,2536,616,-33,-493,-206,1,7,11
1.72313E+12,-7777,2535,384,-67,-393,-371,1,7,11
1.72313E+12,-7782,2519,410,-102,-571,-263,1,7,11
1.72313E+12,-7776,2510,426,-124,-248,99,1,7,11
1.72313E+12,-7766,2517,441,117,-187,-67,1,7,11
1.72313E+12,-7749,2527,455,107,-382,264,1,7,11
1.72313E+12,-7734,2553,454,98,-323,320,1,7,11
1.72313E+12,-7721,2846,457,86,-262,367,1,7,11
1.72313E+12,-7712,2883,461,58,62,141,1,7,11
1.72313E+12,-7717,2904,465,17,-128,152,1,7,11
1.72313E+12,-7712,2909,468,-284,-82,153,1,7,11
1.72313E+12,-7717,2922,465,-327,-42,132,1,7,11
1.72313E+12,-7724,2926,462,-366,-10,357,1,7,11
1.72313E+12,-7754,2925,474,-136,270,319,1,7,11
1.72313E+12,-7771,2931,461,-145,265,285,1,7,11
1.72313E+12,-7765,2933,458,-142,-8,262,1,7,11
1.72313E+12,-7753,2936,451,-130,-11,-15,1,7,11
1.72313E+12,-7755,2689,446,-369,-2,-33,1,7,11
1.72313E+12,-7757,2693,432,-351,263,-49,1,7,11
1.72313E+12,-7761,2701,421,-328,271,-63,1,7,11
1.72313E+12,-7774,2711,409,-309,269,-87,1,7,11
1.72313E+12,-7769,2706,398,-300,260,-94,1,7,11
1.72313E+12,-7767,2943,390,-292,-3,-124,1,7,11
1.72313E+12,-7777,2928,636,-281,-7,95,1,7,11
1.72313E+12,-7785,2916,631,-264,-28,48,1,7,11
1.72313E+12,-7788,2901,619,12,-46,-264,1,7,11
1.72313E+12,-7785,2886,611,44,-61,-318,1,7,11
1.72313E+12,-7786,2882,605,62,-69,-367,1,7,11
1.72313E+12,-7772,2888,605,77,-63,-152,1,7,11
1.72313E+12,-7757,2886,606,72,-38,-195,1,7,11
1.72313E+12,-7751,2871,600,60,260,-231,1,7,11
1.72313E+12,-7752,2850,591,47,307,-519,1,7,11
1.72313E+12,-7758,2834,570,34,351,-551,1,7,11
1.72313E+12,-7766,2817,559,20,138,-578,1,7,11
1.72313E+12,-7775,2539,542,10,178,-597,1,7,11
1.72313E+12,-7796,2524,526,-259,206,-611,1,7,11
1.72313E+12,-7559,2511,248,-270,220,-620,1,7,11
1.72313E+12,-7569,2502,233,-283,225,-625,1,7,11
1.72313E+12,-7571,2500,215,-295,222,-618,1,7,11
1.72313E+12,-7572,2498,208,-306,217,-592,1,7,11
1.72313E+12,-7574,2499,195,-312,214,-550,1,7,11
1.72313E+12,-7594,2481,196,-311,213,-239,1,7,11
1.72313E+12,-7630,2432,197,-307,206,-199,1,7,11
1.72313E+12,-7937,2633,208,-282,171,-200,1,7,11
1.72313E+12,-7619,2627,153,-121,256,-409,1,7,11
1.72313E+12,-7673,2639,133,90,-62,-420,1,7,11
1.72313E+12,-7947,2654,374,13,80,-409,1,7,11
1.72313E+12,-7955,2645,360,-341,-289,-629,1,7,11
1.72313E+12,-7992,2596,371,-169,-157,-582,1,7,11
1.72313E+12,-8001,2566,137,-210,-568,-549,1,7,11
1.72313E+12,-7964,2274,159,-238,-458,-250,1,7,11
1.72313E+12,-7664,2267,208,-251,-805,-216,1,7,11
1.72313E+12,-7639,2257,515,-531,-838,-166,1,7,11
1.72313E+12,-7623,2237,575,-543,-841,-363,1,7,11
1.72313E+12,-7612,2227,635,-525,-813,-288,1,7,11
1.72313E+12,-7602,2244,442,-221,-508,4,1,7,11
1.72313E+12,-7571,2259,484,-163,-420,28,1,7,11
1.72313E+12,-7563,2268,772,-330,-571,30,1,7,11
1.72313E+12,-7586,2286,815,-297,-215,24,1,7,11
1.72313E+12,-7605,2299,844,53,-144,3,1,7,11
1.72313E+12,-7628,2301,861,102,-350,-285,1,7,11
1.72313E+12,-7630,2561,866,-108,-317,-327,1,7,11
1.72313E+12,-7628,2570,863,-67,-286,-382,1,7,11
1.72313E+12,-7624,2569,856,-43,10,-181,1,7,11
1.72313E+12,-7636,2302,845,-32,46,-233,1,7,11
1.72313E+12,-7667,2287,828,-34,77,-530,1,7,11
1.72313E+12,-7957,2251,825,-40,94,-561,1,7,11
1.72313E+12,-7982,2424,769,-26,33,-631,1,7,11
1.72313E+12,-7989,2198,509,-43,27,-627,1,7,11
1.72313E+12,-8004,2245,504,-63,29,-614,1,7,11
1.72313E+12,-8035,2277,497,-96,25,-614,1,7,11
1.72313E+12,-8014,2297,488,118,-258,-622,1,7,11
1.72313E+12,-7983,2288,485,40,-261,-389,1,7,11
1.72313E+12,-7937,2239,504,-286,11,-396,1,7,11
1.72313E+12,-7646,2184,780,-323,37,-404,1,7,11
1.72313E+12,-7623,2381,793,-322,65,-405,1,7,11
1.72313E+12,-7620,2322,813,-304,99,-409,1,7,11
1.72313E+12,-7614,2008,825,-269,118,-417,1,7,11
1.72313E+12,-7641,1962,850,44,-123,-439,1,7,11
1.72313E+12,-7940,1924,852,104,-125,-464,1,7,11
1.72313E+12,-7973,2119,855,-92,105,-485,1,7,11
1.72313E+12,-8015,2087,847,-25,82,-777,1,7,11
1.72313E+12,-8058,2067,841,294,43,-803,1,7,11
1.72313E+12,-7824,2053,842,344,6,-829,1,7,11
1.72313E+12,-7819,1778,832,372,-274,-851,1,7,11
1.72313E+12,-7827,1761,828,131,-288,-880,1,7,11
1.72313E+12,-7819,1770,829,130,-301,-886,1,7,11
1.72313E+12,-8062,2059,789,128,-306,-660,1,7,11
1.72313E+12,-8028,2101,855,250,-296,-666,1,7,11
1.72313E+12,-7949,2056,837,-118,-279,-701,1,7,11
1.72313E+12,-7945,1778,841,64,99,-1028,1,7,11
1.72313E+12,-7984,1784,832,28,-69,-1034,1,7,11
1.72313E+12,-8035,1740,827,5,-10,-1063,1,7,11
1.72313E+12,-8061,1701,854,-276,-3,-1060,1,7,11
1.72313E+12,-8016,1886,842,-280,-42,-1069,1,7,11
1.72313E+12,-7992,1820,797,5,-41,-1087,1,7,11
1.72313E+12,-8001,1793,505,42,-27,-1086,1,7,11
1.72313E+12,-8021,1513,481,69,-40,-1042,1,7,11
1.72313E+12,-8050,1486,452,73,-56,-725,1,7,11
1.72313E+12,-7832,1466,449,59,-99,-892,1,7,11
1.72313E+12,-7819,1442,464,35,94,-779,1,7,11
1.72313E+12,-7832,1457,488,33,64,-397,1,7,11
1.72313E+12,-7868,1485,476,23,53,-247,1,7,11
1.72313E+12,-8207,1468,456,-270,73,-379,1,7,11
1.72313E+12,-8228,1433,442,-313,72,15,1,7,11
1.72313E+12,-8221,1647,442,-330,79,95,1,7,11
1.72313E+12,-8215,1625,451,-317,101,127,1,7,11
1.72313E+12,-8215,1640,464,-309,111,122,1,7,11
1.72313E+12,-8222,1424,484,-308,102,115,1,7,11
1.72313E+12,-8223,1484,476,-322,73,-126,1,7,11
1.72313E+12,-8193,1824,495,-361,22,-73,1,7,11
1.72313E+12,-7897,1849,509,-159,-258,-2,1,7,11
1.72313E+12,-7869,1853,810,-231,-258,321,1,7,11
1.72313E+12,-7856,1837,858,-562,-257,369,1,7,11
1.72313E+12,-7856,1787,648,-599,-262,133,1,7,11
1.72313E+12,-7879,1510,684,-589,-265,383,1,7,11
1.72313E+12,-7888,1490,705,-544,-282,354,1,7,11
1.72313E+12,-7893,1475,731,-227,-296,304,1,7,11
1.72313E+12,-7905,1476,753,-150,-303,-51,1,7,11
1.72313E+12,-7924,1477,761,-343,-331,-112,1,7,11
1.72313E+12,-7936,1478,1030,-290,-357,97,1,7,11
1.72313E+12,-7934,1480,1041,39,-384,61,1,7,11
1.72313E+12,-7917,1497,1060,63,-140,53,1,7,11
1.72313E+12,-7910,1511,1069,104,-156,51,1,7,11
1.72313E+12,-7914,1506,1083,119,-153,73,1,7,11
1.72313E+12,-7930,1475,1098,114,-162,83,1,7,11
1.72313E+12,-8196,1468,1103,-119,-181,97,1,7,11
1.72313E+12,-8194,1457,1127,-107,-209,105,1,7,11
1.72313E+12,-7925,1458,1136,-101,-226,110,1,7,11
1.72313E+12,-7909,1476,907,-80,-226,115,1,7,11
1.72313E+12,-7893,1504,919,-84,-204,-128,1,7,11
1.72313E+12,-7874,1792,923,-97,-169,-106,1,7,11
1.72313E+12,-7849,1812,924,-128,-379,-78,1,7,11
1.72313E+12,-7828,1829,919,89,-321,-44,1,7,11
1.72313E+12,-7812,1842,917,46,1,-10,1,7,11
1.72313E+12,-8055,1851,910,6,63,276,1,7,11
1.72313E+12,-8051,1864,900,-285,122,305,1,7,11
1.72313E+12,-8038,1873,896,-318,-86,338,1,7,11
1.72313E+12,-8038,1891,1142,-350,-31,375,1,7,11
1.72313E+12,-8057,1903,1132,-130,278,157,1,7,11
1.72313E+12,-7819,1915,1112,-161,305,205,1,7,11
1.72313E+12,-7825,1664,1088,-193,324,248,1,7,11
1.72313E+12,-7823,1664,1060,-222,338,545,1,7,11
1.72313E+12,-7813,1911,1041,-231,346,583,1,7,11
1.72313E+12,-8047,1918,1027,-205,353,615,1,7,11
1.72313E+12,-8043,1685,757,-163,364,636,1,7,11
1.72313E+12,-8057,1718,745,-384,366,406,1,7,11
1.72313E+12,-7811,1756,734,-359,346,436,1,7,11
1.72313E+12,-7814,1770,726,-336,318,458,1,7,11
1.72313E+12,-7814,2052,729,-312,276,465,1,7,11
1.72313E+12,-8062,2075,730,-291,-26,442,1,7,11
1.72313E+12,-8039,2100,741,-272,-72,400,1,7,11
1.72313E+12,-8031,2118,747,1,-99,599,1,7,11
1.72313E+12,-8031,2143,753,22,-116,566,1,7,11
1.72313E+12,-8039,2166,748,40,113,234,1,7,11
1.72313E+12,-8053,1934,742,46,89,131,1,7,11
1.72313E+12,-7816,1953,750,46,63,344,1,7,11
1.72313E+12,-7844,1974,743,51,21,324,1,7,11
1.72313E+12,-7863,1981,743,67,-267,338,1,7,11
1.72313E+12,-7869,2012,728,98,-309,383,1,7,11
1.72313E+12,-7874,2010,710,119,-336,195,1,7,11
1.72313E+12,-7899,1985,697,-125,-369,514,1,7,11
1.72313E+12,-7912,2173,676,-126,-209,533,1,7,11
1.72313E+12,-8016,2150,653,-72,-633,251,1,7,11
1.72313E+12,-8015,2172,674,-69,-472,170,1,7,11
1.72313E+12,-8063,2069,753,119,-649,383,1,7,11
1.72313E+12,-8064,1737,1057,-97,-918,310,1,7,11
1.72313E+12,-7842,1759,1082,267,-1395,-38,1,7,11
1.72313E+12,-7828,1752,1121,347,-1581,-96,1,7,11
1.72313E+12,-8058,1744,906,191,-1438,66,1,7,11
1.72313E+12,-8064,1728,1329,561,-1451,-355,1,7,11
1.72313E+12,-7835,1722,1160,608,-1425,-172,1,7,11
1.72313E+12,-7833,1780,1227,409,-1414,-211,1,7,11
1.72313E+12,-8040,2138,1554,430,-1650,-206,1,7,11
1.72313E+12,-7679,1994,1590,438,-1567,-160,1,7,11
1.72313E+12,-7626,2373,1602,405,-1379,-315,1,7,11
1.72313E+12,-7570,2178,1621,581,-1145,86,1,7,11
1.72313E+12,-7553,2231,1658,522,-871,-30,1,7,11
1.72313E+12,-7796,2251,1468,217,-624,340,1,7,11
1.72313E+12,-7802,2262,1498,179,-143,156,1,7,11
1.72313E+12,-7602,2255,1520,367,22,221,1,7,11
1.72313E+12,-7601,2215,1523,285,113,250,1,7,11
1.72313E+12,-7566,2190,1502,-1,-61,217,1,7,11
1.72313E+12,-7792,2411,1463,-32,272,368,1,7,11
1.72313E+12,-7597,2200,1660,-27,148,322,1,7,11
1.72313E+12,-7643,2239,1627,-58,244,227,1,7,11
1.72313E+12,-7673,2238,1622,122,527,-114,1,7,11
1.72313E+12,-7648,2576,1609,24,232,106,1,7,11
1.72313E+12,-7633,2619,1556,-134,240,-89,1,7,11
1.72313E+12,-7626,2235,1589,-597,596,-13,1,7,11
1.72313E+12,-7654,2333,1598,-521,436,-50,1,7,11
1.72313E+12,-7620,2017,1630,-373,442,34,1,7,11
1.72313E+12,-7583,2319,1640,40,481,-171,1,7,11
1.72313E+12,-7601,2415,1605,78,835,-574,1,7,11
1.72313E+12,-7578,2215,1586,-271,678,-387,1,7,11
1.72313E+12,-7641,2621,1575,-538,1131,-408,1,7,11
1.72313E+12,-7618,2620,1562,-411,911,-639,1,7,11
1.72313E+12,-7623,2589,1560,-792,1010,-601,1,7,11
1.72313E+12,-7594,2259,1265,-868,1351,-575,1,7,11
1.72313E+12,-7780,2273,1247,-879,1216,-600,1,7,11
1.72313E+12,-7781,2248,1191,-685,1652,-387,1,7,11
1.72313E+12,-7593,2194,1169,-745,1825,-434,1,7,11
1.72313E+12,-7976,2389,1392,-1039,1672,-466,1,7,11
1.72313E+12,-8036,2024,1344,-1041,1909,-448,1,7,11
1.72313E+12,-8064,1950,1284,-718,1864,-443,1,7,11
1.72313E+12,-7913,2152,961,-644,1823,-436,1,7,11
1.72313E+12,-7834,2077,920,-799,1419,-419,1,7,11
1.72313E+12,-7854,2080,1097,-465,1644,-450,1,7,11
1.72313E+12,-7891,1786,1059,-448,1571,-399,1,7,11
1.72313E+12,-7818,1733,742,-394,1205,-428,1,7,11
1.72313E+12,-7869,1753,673,-614,1198,-454,1,7,11
1.72313E+12,-7882,1710,883,-631,1379,-435,1,7,11
1.72313E+12,-7878,1699,829,-587,1022,-404,1,7,11
1.72313E+12,-7873,1736,787,-532,927,-591,1,7,11
1.72313E+12,-7853,1741,477,-240,1089,-233,1,7,11
1.72313E+12,-7833,1745,448,-217,1033,-376,1,7,11
1.72313E+12,-7828,1757,440,-206,740,-288,1,7,11
1.72313E+12,-7812,2048,421,-201,705,29,1,7,11
1.72313E+12,-8056,2091,404,-241,679,74,1,7,11
1.72313E+12,-8027,2117,388,-541,660,116,1,7,11
1.72313E+12,-8001,2142,622,-566,677,-96,1,7,11
1.72313E+12,-8001,2155,602,-609,698,-62,1,7,11
1.72313E+12,-7985,2171,576,-611,714,-23,1,7,11
1.72313E+12,-7967,1941,544,-618,749,262,1,7,11
1.72313E+12,-7971,1944,255,-631,1063,289,1,7,11
1.72313E+12,-7958,1923,234,-633,1112,315,1,7,11
1.72313E+12,-7956,2151,198,-616,913,325,1,7,11
1.72313E+12,-7963,2103,155,-573,974,329,1,7,11
1.72313E+12,-7965,2069,352,-241,1019,323,1,7,11
1.72313E+12,-7975,2069,289,-159,1314,315,1,7,11
1.72313E+12,-8009,2074,-36,-352,1332,324,1,7,11
1.72313E+12,-8028,2062,-103,-302,1304,362,1,7,11
1.72313E+12,-8021,2070,80,-257,1007,133,1,7,11
1.72313E+12,-8014,2102,15,44,949,143,1,7,11
1.72313E+12,-8001,2136,-302,57,898,157,1,7,11
1.72313E+12,-7986,2155,-345,43,1120,184,1,7,11
1.72313E+12,-7974,2159,-382,25,1085,215,1,7,11
1.72313E+12,-7950,2172,-159,18,1050,245,1,7,11
1.72313E+12,-7679,1929,-203,8,766,520,1,7,11
1.72313E+12,-7675,1939,-238,-264,730,534,1,7,11
1.72313E+12,-7663,1951,-529,-277,698,555,1,7,11
1.72313E+12,-7664,1966,-553,-291,673,573,1,7,11
1.72313E+12,-7679,1986,-575,-305,892,600,1,7,11
1.72313E+12,-7955,1994,-589,-324,838,639,1,7,11
1.72313E+12,-7972,1995,-594,-339,506,444,1,7,11
1.72313E+12,-7982,1989,-592,-323,417,787,1,7,11
1.72313E+12,-7976,1991,-592,0,567,743,1,7,11
1.72313E+12,-7679,2019,-601,111,198,936,1,7,11
1.72313E+12,-7611,2312,-625,-7,325,1162,1,7,11
1.72313E+12,-7570,2342,-633,179,323,1618,1,7,11
1.72313E+12,-7781,2371,-626,546,345,1531,1,7,11
1.72313E+12,-7745,2426,-616,385,137,1863,1,7,11
1.72313E+12,-7721,2241,-612,460,181,1853,1,7,11
1.72313E+12,-7712,2578,-624,506,218,1516,1,7,11
1.72313E+12,-7418,2669,-399,779,223,1642,1,7,11
1.72313E+12,-7391,2526,-428,480,514,1210,1,7,11
1.72313E+12,-7374,2779,-775,-288,251,796,1,7,11
1.72313E+12,-7551,2703,-872,-208,126,637,1,7,11
1.72313E+12,-7321,2725,-880,-179,53,421,1,7,11
1.72313E+12,-7359,2758,-880,-153,-317,486,1,7,11
1.72313E+12,-7355,2806,-889,-132,-221,817,1,7,11
1.72313E+12,-7321,3103,-645,-138,-628,868,1,7,11
1.72313E+12,-7313,3151,-642,-181,-494,875,1,7,11
1.72313E+12,-7321,2950,-641,-254,-876,867,1,7,11
1.72313E+12,-7339,3012,-882,-606,-764,866,1,7,11
1.72313E+12,-7346,3041,-845,-478,-922,642,1,7,11
1.72313E+12,-7327,3044,-804,-853,-1343,722,1,7,11
1.72313E+12,-7506,3055,-497,-678,-1236,1093,1,7,11
1.72313E+12,-7120,3362,-427,-701,-1569,949,1,7,11
1.72313E+12,-7288,3445,-579,-727,-1265,995,1,7,11
1.72313E+12,-7267,3265,-197,-1033,-1391,981,1,7,11
1.72313E+12,-7046,3306,-313,-1076,-999,924,1,7,11
1.72313E+12,-7070,3322,53,-1083,-911,1105,1,7,11
1.72313E+12,-7290,3616,-107,-1033,-1097,739,1,7,11
1.72313E+12,-7282,3460,-29,-703,-720,829,1,7,11
1.72313E+12,-7054,3536,310,-673,-841,398,1,7,11
1.72313E+12,-7094,3570,371,-648,-462,233,1,7,11
1.72313E+12,-7123,3575,160,-862,-626,350,1,7,11
1.72313E+12,-7123,3581,192,-790,-560,-19,1,7,11
1.72313E+12,-7089,3869,239,-454,-225,-121,1,7,11
1.72313E+12,-7066,3851,525,-389,-363,21,1,7,11
1.72313E+12,-7095,3540,550,-600,33,-366,1,7,11
1.72313E+12,-7107,3510,553,-515,-121,-300,1,7,11
1.72313E+12,-7115,3494,527,-148,-48,-416,1,7,11
1.72313E+12,-7123,3476,244,-303,298,-499,1,7,11
1.72313E+12,-7141,3460,223,43,342,-812,1,7,11
1.72313E+12,-7154,3687,210,-126,360,-835,1,7,11
1.72313E+12,-7425,3633,188,-96,361,-843,1,7,11
1.72313E+12,-7443,3586,175,-43,345,-837,1,7,11
1.72313E+12,-7448,3303,164,286,313,-827,1,7,11
1.72313E+12,-7454,3282,147,350,287,-816,1,7,11
1.72313E+12,-7465,3273,130,153,262,-792,1,7,11
1.72313E+12,-7468,3275,367,189,-26,-494,1,7,11
1.72313E+12,-7467,3272,354,210,-57,-437,1,7,11
1.72313E+12,-7469,3263,345,212,-82,-635,1,7,11
1.72313E+12,-7479,3243,339,200,-107,-571,1,7,11
1.72313E+12,-7471,3236,321,186,110,-248,1,7,11
1.72313E+12,-7469,3232,307,164,88,-200,1,7,11
1.72313E+12,-7493,3238,299,128,78,-166,1,7,11
1.72313E+12,-7513,3248,293,339,55,-384,1,7,11
1.72313E+12,-7506,3245,275,289,12,-338,1,7,11
1.72313E+12,-7491,3253,261,-20,-278,-304,1,7,11
1.72313E+12,-7485,3260,256,-88,-292,-282,1,7,11
1.72313E+12,-7512,3253,265,91,-294,-266,1,7,11
1.72313E+12,-7535,3234,279,26,-323,12,1,7,11
1.72313E+12,-7547,3205,287,-276,-365,26,1,7,11
1.72313E+12,-7305,3426,289,-304,-147,32,1,7,11
1.72313E+12,-7341,3404,295,-313,-182,40,1,7,11
1.72313E+12,-7359,3370,287,-305,-242,49,1,7,11
1.72313E+12,-7406,3351,285,-284,-559,51,1,7,11
1.72313E+12,-7706,3333,291,-260,-395,73,1,7,11
1.72313E+12,-7685,3348,292,44,-500,106,1,7,11
1.72313E+12,-7380,3376,300,100,-839,-125,1,7,11
1.72313E+12,-7334,3400,317,-128,-889,-114,1,7,11
1.72313E+12,-7303,3414,342,-119,-649,-119,1,7,11
1.72313E+12,-7544,3419,372,-124,-648,125,1,7,11
1.72313E+12,-7541,3417,142,108,-654,108,1,7,11
1.72313E+12,-7534,3397,169,80,-659,80,1,7,11
1.72313E+12,-7541,3377,191,52,-653,35,1,7,11
1.72313E+12,-7535,3392,201,44,-663,-267,1,7,11
1.72313E+12,-7549,3402,208,9,-653,-301,1,7,11
1.72313E+12,-7322,3430,208,-291,-896,-318,1,7,11
1.72313E+12,-7333,3453,203,-379,-895,-339,1,7,11
1.72313E+12,-7363,3206,224,-237,-885,-365,1,7,11
1.72313E+12,-7373,3201,236,-631,-648,-379,1,7,11
1.72313E+12,-7396,3435,529,-786,-681,-146,1,7,11
1.72313E+12,-7417,3017,460,-1119,-1097,-189,1,7,11
1.72313E+12,-7685,2952,491,-902,-900,-195,1,7,11
1.72313E+12,-7710,3155,805,-901,-983,-204,1,7,11
1.72313E+12,-7723,3105,842,-1122,-1352,-217,1,7,11
1.72313E+12,-7711,3095,867,-1054,-1215,-247,1,7,11
1.72313E+12,-7687,3128,668,-711,-1581,-547,1,7,11
1.72313E+12,-7407,3179,689,-649,-1657,-579,1,7,11
1.72313E+12,-7398,2987,719,-644,-1450,-553,1,7,11
1.72313E+12,-7696,2944,1038,-876,-1501,-230,1,7,11
1.72313E+12,-7724,3141,1146,-506,-1812,-218,1,7,11
1.72313E+12,-7596,2791,992,-418,-1859,-571,1,7,11
1.72313E+12,-8056,2880,1363,-452,-1737,-480,1,7,11
1.72313E+12,-7645,2542,1169,-583,-1998,-879,1,7,11
1.72313E+12,-7615,2818,1228,-206,-1984,-1107,1,7,11
1.72313E+12,-7798,2468,1561,-178,-2059,-952,1,7,11
1.72313E+12,-7718,2446,1409,-269,-1883,-1013,1,7,11
