timestamp,ax,ay,az,gx,gy,gz,Label1,Label2,Label3
1.72313E+12,-6488,-2738,4780,-3686,341,-777,1,7,11
1.72313E+12,-6319,-2806,4987,-3679,191,-640,1,7,11
1.72313E+12,-6378,-3169,4965,-3681,252,-205,1,7,11
1.72313E+12,-6396,-3025,4932,-3649,531,-273,1,7,11
1.72313E+12,-6683,-3354,4896,-3310,562,-115,1,7,11
1.72313E+12,-6745,-3398,4591,-3438,598,289,1,7,11
1.72313E+12,-6543,-3395,4530,-3029,622,192,1,7,11
1.72313E+12,-6589,-3373,4727,-3146,390,597,1,7,11
1.72313E+12,-6636,-3352,4672,-2763,416,473,1,7,11
1.72313E+12,-6951,-3337,4628,-2920,433,846,1,7,11
1.72313E+12,-6993,-3060,4610,-2838,429,693,1,7,11
1.72313E+12,-7013,-3045,4340,-2505,414,1034,1,7,11
1.72313E+12,-7020,-3064,4613,-2685,403,1092,1,7,11
1.72313E+12,-7005,-3337,4325,-2291,384,1125,1,7,11
1.72313E+12,-6785,-3063,4377,-2083,433,1066,1,7,11
1.72313E+12,-6811,-3031,4058,-1714,473,1039,1,7,11
1.72313E+12,-6833,-3008,4009,-1884,496,766,1,7,11
1.72313E+12,-6864,-2979,3980,-1816,497,762,1,7,11
1.72313E+12,-6910,-3190,4220,-1504,473,1045,1,7,11
1.72313E+12,-7213,-3127,4193,-1458,426,1119,1,7,11
1.72313E+12,-7247,-2806,4180,-1447,621,981,1,7,11
1.72313E+12,-7254,-2747,4177,-1459,545,1392,1,7,11
1.72313E+12,-7235,-2709,4169,-1481,210,1561,1,7,11
1.72313E+12,-7205,-2914,4136,-1490,129,1466,1,7,11
1.72313E+12,-7175,-2863,4110,-1514,322,1869,1,7,11
1.72313E+12,-6905,-2524,3822,-1801,275,1750,1,7,11
1.72313E+12,-7186,-2478,4100,-1839,265,2140,1,7,11
1.72313E+12,-7250,-2470,4144,-1876,276,2346,1,7,11
1.72313E+12,-7252,-2688,4152,-1834,268,2199,1,7,11
1.72313E+12,-7246,-2641,4134,-1795,265,2245,1,7,11
1.72313E+12,-7251,-2573,4099,-1499,276,2223,1,7,11
1.72313E+12,-7063,-2218,3835,-1489,328,2406,1,7,11
1.72313E+12,-7148,-2410,4141,-1484,364,2353,1,7,11
1.72313E+12,-7429,-2362,4165,-1439,363,2305,1,7,11
1.72313E+12,-7168,-2314,4169,-1627,346,1960,1,7,11
1.72313E+12,-7135,-2009,4150,-1556,324,2094,1,7,11
1.72313E+12,-7068,-1952,4099,-1228,304,1691,1,7,11
1.72313E+12,-7065,-2143,3794,-1174,342,1528,1,7,11
1.72313E+12,-7145,-1792,3795,-1348,179,1414,1,7,11
1.72313E+12,-7163,-1715,3772,-1290,214,1426,1,7,11
1.72313E+12,-7162,-1896,3725,-1011,237,1456,1,7,11
1.72313E+12,-7160,-1844,3946,-1287,249,1489,1,7,11
1.72313E+12,-7426,-1796,3915,-1325,519,1507,1,7,11
1.72313E+12,-7531,-1502,3948,-1372,571,1508,1,7,11
1.72313E+12,-7408,-1494,3757,-1378,612,1814,1,7,11
1.72313E+12,-7704,-1472,3767,-1316,611,1893,1,7,11
1.72313E+12,-7681,-1434,3716,-986,615,1664,1,7,11
1.72313E+12,-7402,-1645,3912,-930,388,1864,1,7,11
1.72313E+12,-7372,-1605,3858,-1150,421,1481,1,7,11
1.72313E+12,-7395,-1273,3544,-1102,502,1550,1,7,11
1.72313E+12,-7749,-1192,3507,-1028,871,1369,1,7,11
1.72313E+12,-7795,-1380,3707,-674,720,981,1,7,11
1.72313E+12,-7795,-1339,3643,-836,1086,1076,1,7,11
1.72313E+12,-7789,-1307,3314,-496,930,851,1,7,11
1.72313E+12,-7799,-1306,3255,-430,1280,585,1,7,11
1.72313E+12,-7564,-1306,3438,-606,1344,312,1,7,11
1.72313E+12,-7607,-1012,3355,-256,1165,41,1,7,11
1.72313E+12,-7643,-1287,3029,-209,1225,-198,1,7,11
1.72313E+12,-7672,-1297,2954,-161,1241,-409,1,7,11
1.72313E+12,-7676,-1314,3134,-376,1211,-859,1,7,11
1.72313E+12,-7939,-1377,3110,-344,1164,-1031,1,7,11
1.72313E+12,-7953,-1400,2787,-260,1355,-910,1,7,11
1.72313E+12,-8047,-1385,2702,68,1336,-1005,1,7,11
1.72313E+12,-7869,-1375,2861,102,1314,-1004,1,7,11
1.72313E+12,-7905,-1396,2518,76,1302,-988,1,7,11
1.72313E+12,-8199,-1159,2455,24,1283,-1008,1,7,11
1.72313E+12,-8251,-1201,2669,-309,998,-1303,1,7,11
1.72313E+12,-8319,-1262,2654,-131,952,-1350,1,7,11
1.72313E+12,-8115,-1586,2636,-201,1110,-1402,1,7,11
1.72313E+12,-8132,-1658,2609,-523,717,-1212,1,7,11
1.72313E+12,-8160,-1496,2609,-583,834,-1548,1,7,11
1.72313E+12,-8484,-1866,2614,-607,454,-1613,1,7,11
1.72313E+12,-8340,-1758,2634,-623,604,-1643,1,7,11
1.72313E+12,-8419,-2173,2671,-627,233,-1629,1,7,11
1.72313E+12,-8430,-2324,2443,-636,371,-1622,1,7,11
1.72313E+12,-8420,-2223,2454,-394,263,-1645,1,7,11
1.72313E+12,-8391,-2618,2437,-416,-83,-1432,1,7,11
1.72313E+12,-8342,-2462,2680,-456,98,-1467,1,7,11
1.72313E+12,-8511,-2836,2673,-777,45,-1478,1,7,11
1.72313E+12,-8148,-2718,2432,-843,1,-1491,1,7,11
1.72313E+12,-8260,-3126,2441,-644,-316,-1532,1,7,11
1.72313E+12,-7853,-3012,2443,-686,-135,-1887,1,7,11
1.72313E+12,-7966,-3404,2468,-729,-217,-1783,1,7,11
1.72313E+12,-7577,-3296,2515,-760,-557,-1956,1,7,11
1.72313E+12,-7713,-3708,2853,-1025,-394,-2386,1,7,11
1.72313E+12,-7332,-3842,2926,-739,-774,-2279,1,7,11
1.72313E+12,-7164,-3951,2726,-700,-668,-2648,1,7,11
1.72313E+12,-7249,-3810,2786,-683,-1069,-2471,1,7,11
1.72313E+12,-6819,-4173,3099,-681,-954,-2496,1,7,11
1.72313E+12,-6925,-4033,3183,-696,-1316,-2452,1,7,11
1.72313E+12,-6539,-4470,3436,-728,-1395,-2589,1,7,11
1.72313E+12,-6397,-4518,3320,-717,-1238,-2413,1,7,11
1.72313E+12,-6503,-4600,3636,-858,-1602,-1965,1,7,11
1.72313E+12,-6059,-4581,3654,-466,-1658,-1891,1,7,11
1.72313E+12,-6271,-4490,3644,-584,-1639,-1590,1,7,11
1.72313E+12,-6260,-4620,3625,-221,-1562,-940,1,7,11
1.72313E+12,-6031,-4238,3599,-132,-1166,-467,1,7,11
1.72313E+12,-6086,-4387,3591,-277,-1054,52,1,7,11
1.72313E+12,-6420,-4015,3614,58,-503,560,1,7,11
1.72313E+12,-6303,-4138,3658,-106,-187,757,1,7,11
1.72313E+12,-6730,-3736,3704,256,85,1156,1,7,11
1.72313E+12,-6584,-3876,3462,343,285,1445,1,7,11
1.72313E+12,-6942,-3498,3707,149,199,1532,1,7,11
1.72313E+12,-6802,-3646,3468,165,602,1410,1,7,11
1.72313E+12,-7192,-3267,3464,187,452,1381,1,7,11
1.72313E+12,-7074,-3400,3711,178,773,1040,1,7,11
1.72313E+12,-7440,-3029,3673,157,810,471,1,7,11
1.72313E+12,-7507,-2945,3618,357,825,199,1,7,11
1.72313E+12,-7298,-3108,3271,296,840,-37,1,7,11
1.72313E+12,-7347,-2706,3357,-42,855,46,1,7,11
1.72313E+12,-7681,-2534,3185,13,873,-276,1,7,11
1.72313E+12,-7745,-2443,3105,-524,854,57,1,7,11
1.72313E+12,-7396,-2493,2813,-822,488,-73,1,7,11
1.72313E+12,-7510,-2844,2803,-1057,615,-32,1,7,11
1.72313E+12,-7441,-2739,3102,-969,235,-74,1,7,11
1.72313E+12,-7108,-3086,3109,-996,360,126,1,7,11
1.72313E+12,-7293,-3118,3112,-990,279,60,1,7,11
1.72313E+12,-7080,-3130,3148,-998,-9,42,1,7,11
1.72313E+12,-7130,-3097,3148,-969,-90,105,1,7,11
1.72313E+12,-7133,-2782,3091,-977,84,-46,1,7,11
1.72313E+12,-7143,-2694,2736,-1021,49,355,1,7,11
1.72313E+12,-7081,-2894,2860,-1379,37,563,1,7,11
1.72313E+12,-7286,-2934,2491,-1264,-106,484,1,7,11
1.72313E+12,-7093,-2790,2494,-1630,352,870,1,7,11
1.72313E+12,-7137,-2959,2512,-1614,523,705,1,7,11
1.72313E+12,-7439,-3063,2503,-1216,421,689,1,7,11
1.72313E+12,-7508,-3384,2469,-1024,827,864,1,7,11
1.72313E+12,-7331,-3431,2685,-1070,710,771,1,7,11
1.72313E+12,-7397,-3422,2627,-865,1085,434,1,7,11
1.72313E+12,-7720,-3455,2567,-449,934,607,1,7,11
1.72313E+12,-7770,-3206,2295,-585,994,526,1,7,11
1.72313E+12,-7595,-3290,2281,-183,994,347,1,7,11
1.72313E+12,-7645,-3302,2296,-332,922,-50,1,7,11
1.72313E+12,-7679,-3617,2282,23,1048,67,1,7,11
1.72313E+12,-7944,-3617,2266,121,868,-320,1,7,11
1.72313E+12,-7656,-3644,2227,-55,414,-193,1,7,11
1.72313E+12,-7602,-3671,2215,269,225,-604,1,7,11
1.72313E+12,-7786,-3671,2218,324,316,-408,1,7,11
1.72313E+12,-7694,-3678,2248,376,-81,-418,1,7,11
1.72313E+12,-7338,-3685,2267,174,13,-390,1,7,11
1.72313E+12,-7541,-3704,2293,291,-303,-588,1,7,11
1.72313E+12,-7451,-3682,2295,396,-353,-517,1,7,11
1.72313E+12,-7149,-3649,2289,438,-344,-208,1,7,11
1.72313E+12,-7134,-3631,2300,798,-329,-131,1,7,11
1.72313E+12,-7119,-3604,2616,852,-324,-285,1,7,11
1.72313E+12,-7111,-3616,2436,664,-340,81,1,7,11
1.72313E+12,-7100,-3623,2529,1031,-384,-80,1,7,11
1.72313E+12,-7120,-3586,2833,923,-181,256,1,7,11
1.72313E+12,-7150,-3254,2859,1346,-225,367,1,7,11
1.72313E+12,-7434,-3432,2893,1228,-231,513,1,7,11
1.72313E+12,-7517,-3070,2927,1629,-189,423,1,7,11
1.72313E+12,-7352,-3197,2942,1493,-143,863,1,7,11
1.72313E+12,-7406,-2782,2941,1819,-356,1032,1,7,11
1.72313E+12,-7698,-2901,2938,1805,-312,1137,1,7,11
1.72313E+12,-7711,-2537,2689,1462,-289,907,1,7,11
1.72313E+12,-7763,-2443,2943,1588,-282,1092,1,7,11
1.72313E+12,-7566,-2594,2713,1158,-303,718,1,7,11
1.72313E+12,-7614,-2279,2728,960,-334,848,1,7,11
1.72313E+12,-7668,-2232,2762,1026,-382,490,1,7,11
1.72313E+12,-7949,-2217,2767,855,-184,419,1,7,11
1.72313E+12,-7949,-2185,2768,420,-252,630,1,7,11
1.72313E+12,-7940,-2187,2786,224,-574,607,1,7,11
1.72313E+12,-7679,-2202,3075,303,-401,601,1,7,11
1.72313E+12,-7661,-2211,3126,-98,-504,626,1,7,11
1.72313E+12,-7615,-2223,3158,52,-874,420,1,7,11
1.72313E+12,-7762,-2246,3170,-307,-731,468,1,7,11
1.72313E+12,-7393,-2279,3190,-164,-1056,457,1,7,11
1.72313E+12,-7324,-2287,2968,-531,-1054,385,1,7,11
1.72313E+12,-7542,-2299,3022,-632,-749,547,1,7,11
1.72313E+12,-7544,-2284,3067,-446,-654,184,1,7,11
1.72313E+12,-7324,-2235,3332,-495,-803,332,1,7,11
1.72313E+12,-7398,-2183,3353,-854,-426,-34,1,7,11
1.72313E+12,-7709,-2197,3392,-749,-636,108,1,7,11
1.72313E+12,-7731,-2240,3430,-900,-405,-302,1,7,11
1.72313E+12,-7783,-2303,3227,-1295,-448,-524,1,7,11
1.72313E+12,-7560,-2633,3273,-1391,-781,-478,1,7,11
1.72313E+12,-7802,-2464,3302,-1180,-878,-664,1,7,11
1.72313E+12,-7757,-2553,3311,-1184,-700,-1095,1,7,11
1.72313E+12,-7699,-2889,3323,-1166,-742,-996,1,7,11
1.72313E+12,-7386,-2930,3305,-1376,-757,-1375,1,7,11
1.72313E+12,-7312,-2930,3252,-1335,-759,-1196,1,7,11
1.72313E+12,-7483,-2702,3221,-1349,-735,-1230,1,7,11
1.72313E+12,-7138,-2799,3263,-1403,-687,-1237,1,7,11
1.72313E+12,-7066,-3171,3590,-1393,-642,-1243,1,7,11
1.72313E+12,-7276,-3016,3657,-1330,-854,-1261,1,7,11
1.72313E+12,-7258,-3331,3671,-972,-801,-1270,1,7,11
1.72313E+12,-7237,-3373,3678,-1130,-482,-1253,1,7,11
1.72313E+12,-7200,-3396,3659,-1033,-414,-1206,1,7,11
1.72313E+12,-6898,-3415,3620,-725,-590,-1394,1,7,11
1.72313E+12,-6807,-3267,3630,-856,43,-706,1,7,11
1.72313E+12,-7031,-3314,3664,-497,127,-810,1,7,11
1.72313E+12,-6985,-3605,3680,-612,-58,-400,1,7,11
1.72313E+12,-6928,-3630,3671,-198,257,-522,1,7,11
1.72313E+12,-6613,-3616,3633,-310,332,-171,1,7,11
1.72313E+12,-6613,-3578,3598,53,190,-368,1,7,11
1.72313E+12,-6931,-3242,3300,-93,590,-301,1,7,11
1.72313E+12,-6849,-3399,3249,-3,503,60,1,7,11
1.72313E+12,-7235,-3060,3214,292,662,296,1,7,11
1.72313E+12,-7043,-3026,3449,285,1076,197,1,7,11
1.72313E+12,-7290,-3038,3432,-30,1119,519,1,7,11
1.72313E+12,-7063,-3064,3440,-72,910,188,1,7,11
1.72313E+12,-7119,-3344,3455,-81,924,289,1,7,11
1.72313E+12,-7164,-3365,3451,-56,923,112,1,7,11
1.72313E+12,-7445,-3397,3439,-5,938,-315,1,7,11
1.72313E+12,-7473,-3421,3417,336,972,-200,1,7,11
1.72313E+12,-7480,-3416,3360,175,1005,-552,1,7,11
1.72313E+12,-7449,-3415,3027,218,1285,-610,1,7,11
1.72313E+12,-7427,-3415,2958,212,1320,-386,1,7,11
1.72313E+12,-7450,-3440,2964,161,1346,-638,1,7,11
1.72313E+12,-7483,-3218,2969,150,1332,-561,1,7,11
1.72313E+12,-7517,-3234,2957,163,1287,-178,1,7,11
1.72313E+12,-7501,-3250,3171,170,960,-259,1,7,11
1.72313E+12,-7461,-3285,3126,134,1125,-117,1,7,11
1.72313E+12,-7427,-3298,3077,328,754,-63,1,7,11
1.72313E+12,-7160,-3300,2770,-30,893,-93,1,7,11
1.72313E+12,-7460,-3297,2764,105,782,106,1,7,11
1.72313E+12,-7484,-3328,2781,-266,391,90,1,7,11
1.72313E+12,-7491,-3598,2786,-337,514,93,1,7,11
1.72313E+12,-7475,-3612,2792,-134,134,107,1,7,11
1.72313E+12,-7442,-3625,2775,-169,287,119,1,7,11
1.72313E+12,-7425,-3623,2760,-193,-39,110,1,7,11
1.72313E+12,-7159,-3611,2735,-219,-83,115,1,7,11
1.72313E+12,-7153,-3611,2731,-249,-98,-125,1,7,11
1.72313E+12,-7433,-3628,2745,-521,-104,-105,1,7,11
1.72313E+12,-7450,-3633,2760,-252,-121,-83,1,7,11
1.72313E+12,-7453,-3633,2756,-222,121,-65,1,7,11
1.72313E+12,-7447,-3623,2747,-180,109,-55,1,7,11
1.72313E+12,-7429,-3599,2734,-143,103,-57,1,7,11
1.72313E+12,-7164,-3328,2731,-376,95,-74,1,7,11
1.72313E+12,-7164,-3305,2723,-358,74,-109,1,7,11
1.72313E+12,-7429,-3283,2731,-349,52,112,1,7,11
1.72313E+12,-7163,-3270,2741,-338,29,97,1,7,11
1.72313E+12,-7160,-3257,2746,-321,18,83,1,7,11
1.72313E+12,-7426,-3244,2761,-304,14,77,1,7,11
1.72313E+12,-7140,-3239,2751,-274,5,72,1,7,11
1.72313E+12,-7119,-3212,2755,16,6,43,1,7,11
1.72313E+12,-7131,-3427,2740,43,14,18,1,7,11
1.72313E+12,-7147,-3422,2733,59,17,18,1,7,11
1.72313E+12,-7168,-3427,2747,56,35,18,1,7,11
1.72313E+12,-7473,-3416,2771,59,61,18,1,7,11
1.72313E+12,-7479,-3410,2771,88,55,32,1,7,11
1.72313E+12,-7483,-3393,2760,106,46,35,1,7,11
1.72313E+12,-7495,-3383,2765,116,36,34,1,7,11
1.72313E+12,-7510,-3384,2779,-118,25,35,1,7,11
1.72313E+12,-7475,-3417,2781,-108,10,23,1,7,11
1.72313E+12,-7491,-3427,2801,-89,11,-312,1,7,11
1.72313E+12,-7515,-3422,2804,-76,-261,-140,1,7,11
1.72313E+12,-7508,-3430,2813,-78,-270,-223,1,7,11
1.72313E+12,-7508,-3435,3099,-83,-274,-571,1,7,11
1.72313E+12,-7493,-3449,3117,-94,-283,-387,1,7,11
1.72313E+12,-7471,-3220,3128,-103,-301,-435,1,7,11
1.72313E+12,-7451,-3248,3142,-121,-326,-487,1,7,11
1.72313E+12,-7427,-3272,3173,121,-357,-792,1,7,11
1.72313E+12,-7129,-3308,2955,108,-141,-832,1,7,11
1.72313E+12,-7088,-3322,2964,111,-184,-871,1,7,11
1.72313E+12,-7056,-3325,2969,107,-207,-647,1,7,11
1.72313E+12,-7253,-3617,2957,80,-230,-644,1,7,11
1.72313E+12,-7197,-3666,2958,53,-228,-677,1,7,11
1.72313E+12,-7185,-3705,3022,10,-212,-688,1,7,11
1.72313E+12,-6908,-3551,3387,-261,-210,-683,1,7,11
1.72313E+12,-6907,-3938,3241,77,-239,-701,1,7,11
1.72313E+12,-7194,-3795,3324,-5,-568,-732,1,7,11
1.72313E+12,-7254,-4116,3602,515,-426,-754,1,7,11
1.72313E+12,-7272,-3828,3244,820,-831,-722,1,7,11
1.72313E+12,-7241,-3755,3369,1027,-678,-652,1,7,11
1.72313E+12,-7176,-3960,3047,1123,-724,-800,1,7,11
1.72313E+12,-6837,-3919,3010,1136,-739,-465,1,7,11
1.72313E+12,-6812,-3844,3026,1087,-701,-450,1,7,11
1.72313E+12,-7033,-3543,3329,709,-641,-429,1,7,11
1.72313E+12,-7012,-3513,3405,823,-812,-421,1,7,11
1.72313E+12,-7010,-3503,3226,432,-471,-398,1,7,11
1.72313E+12,-6989,-3523,3279,555,-404,-620,1,7,11
1.72313E+12,-6982,-3559,3598,172,-609,-614,1,7,11
1.72313E+12,-7005,-3841,3655,325,-580,-386,1,7,11
1.72313E+12,-7025,-3846,3698,-13,-567,-412,1,7,11
1.72313E+12,-6996,-3895,3477,-97,-588,-414,1,7,11
1.72313E+12,-6946,-3920,3468,114,-628,-438,1,7,11
1.72313E+12,-6647,-3940,3459,37,-407,-504,1,7,11
1.72313E+12,-6637,-3964,3465,-327,-442,-865,1,7,11
1.72313E+12,-6942,-3714,3477,-166,-493,-737,1,7,11
1.72313E+12,-6958,-3713,3473,-519,-838,-1110,1,7,11
1.72313E+12,-6921,-3745,3468,-401,-689,-1012,1,7,11
1.72313E+12,-6636,-3763,3519,-794,-1036,-1256,1,7,11
1.72313E+12,-6650,-3823,3565,-644,-1118,-1804,1,7,11
1.72313E+12,-6599,-4146,3848,-684,-1009,-1938,1,7,11
1.72313E+12,-6682,-4066,3851,-725,-1382,-2186,1,7,11
1.72313E+12,-6721,-4006,3872,-712,-1408,-2478,1,7,11
1.72313E+12,-6384,-4063,3873,-667,-1202,-2537,1,7,11
1.72313E+12,-6281,-4379,3923,-839,-1350,-2852,1,7,11
1.72313E+12,-6693,-4362,3776,-647,-1001,-2821,1,7,11
1.72313E+12,-6360,-4235,3823,-798,-975,-2235,1,7,11
1.72313E+12,-6085,-4319,3729,-467,-908,-2346,1,7,11
1.72313E+12,-6026,-4707,3769,-476,-737,-2399,1,7,11
1.72313E+12,-6040,-4491,3826,-437,-859,-2223,1,7,11
1.72313E+12,-6048,-4880,4127,-636,-494,-2220,1,7,11
1.72313E+12,-6240,-4947,4155,-240,-421,-2377,1,7,11
1.72313E+12,-5867,-4928,4118,-374,-615,-2002,1,7,11
1.72313E+12,-5842,-4977,4123,-321,-245,-2091,1,7,11
1.72313E+12,-5784,-4753,4113,-268,-149,-1887,1,7,11
1.72313E+12,-5794,-4811,4162,-257,-279,-1441,1,7,11
1.72313E+12,-5771,-4825,4196,51,43,-1214,1,7,11
1.72313E+12,-6014,-4842,4211,74,112,-1015,1,7,11
1.72313E+12,-5771,-5163,3973,84,-85,-1047,1,7,11
1.72313E+12,-5778,-5180,3968,-122,-49,-837,1,7,11
1.72313E+12,-5819,-5153,3988,-104,-34,-618,1,7,11
1.72313E+12,-5829,-5169,4015,-116,-76,-346,1,7,11
1.72313E+12,-5813,-5218,4014,-122,108,-82,1,7,11
1.72313E+12,-5786,-5217,4024,-127,22,138,1,7,11
1.72313E+12,-5998,-5243,4004,110,-346,535,1,7,11
1.72313E+12,-6009,-5176,3986,67,-189,591,1,7,11
1.72313E+12,-5872,-4854,3998,-289,-548,637,1,7,11
1.72313E+12,-6231,-4787,4018,-194,-502,509,1,7,11
1.72313E+12,-6041,-4966,4032,-409,-1051,676,1,7,11
1.72313E+12,-6074,-4954,4084,-699,-1623,967,1,7,11
1.72313E+12,-6053,-4951,4081,-929,-1817,1309,1,7,11
1.72313E+12,-5866,-4969,4021,-1389,-2152,1185,1,7,11
1.72313E+12,-5922,-4791,4042,-1586,-2310,1188,1,7,11
1.72313E+12,-5505,-4818,4049,-1438,-2366,1334,1,7,11
1.72313E+12,-5315,-5162,4026,-1489,-2026,910,1,7,11
1.72313E+12,-5418,-5230,3992,-1487,-1753,704,1,7,11
1.72313E+12,-5053,-5240,4037,-1422,-1589,447,1,7,11
1.72313E+12,-5008,-5118,4084,-1586,-1133,166,1,7,11
1.72313E+12,-5071,-5401,4393,-1381,-413,80,1,7,11
1.72313E+12,-5449,-5378,4435,-900,-260,-193,1,7,11
1.72313E+12,-5261,-5083,4419,-646,314,-626,1,7,11
1.72313E+12,-5335,-5030,4359,-425,588,-790,1,7,11
1.72313E+12,-5709,-5018,4064,-529,800,-664,1,7,11
1.72313E+12,-5563,-5192,4064,-147,668,-728,1,7,11
1.72313E+12,-5953,-5147,4036,-330,706,-701,1,7,11
1.72313E+12,-5951,-5205,4013,-263,894,-891,1,7,11
1.72313E+12,-5944,-5132,3987,11,807,-870,1,7,11
1.72313E+12,-5777,-5166,4220,-271,557,-599,1,7,11
1.72313E+12,-5955,-5222,4203,9,229,-222,1,7,11
1.72313E+12,-5557,-5063,4164,-268,147,-204,1,7,11
1.72313E+12,-5540,-5022,4178,30,370,-576,1,7,11
1.72313E+12,-5958,-5004,3991,-269,346,-594,1,7,11
1.72313E+12,-6007,-5210,4017,70,-12,-133,1,7,11
1.72313E+12,-5959,-5236,4213,9,-93,106,1,7,11
1.72313E+12,-5931,-5068,3969,-286,-91,-26,1,7,11
1.72313E+12,-5615,-5109,4197,-286,-84,-3,1,7,11
1.72313E+12,-5602,-5405,4198,-311,-53,-94,1,7,11
1.72313E+12,-5603,-5447,4211,-321,-52,99,1,7,11
1.72313E+12,-5545,-5480,4210,-283,-58,53,1,7,11
1.72313E+12,-5729,-5464,4197,31,-71,-267,1,7,11
1.72313E+12,-5685,-5428,4185,92,-68,-334,1,7,11
1.72313E+12,-5662,-5453,4160,-95,-26,-377,1,7,11
1.72313E+12,-5366,-5491,4158,256,310,-178,1,7,11
1.72313E+12,-5722,-5401,4198,322,147,-547,1,7,11
1.72313E+12,-5545,-5096,3991,290,376,-226,1,7,11
1.72313E+12,-5743,-5100,3983,-54,292,-295,1,7,11
1.72313E+12,-5597,-5385,4023,-94,293,62,1,7,11
1.72313E+12,-5573,-5109,4012,-26,-20,-11,1,7,11
1.72313E+12,-5755,-5411,4016,278,265,364,1,7,11
1.72313E+12,-5748,-5423,4036,364,295,138,1,7,11
1.72313E+12,-5737,-5400,4028,195,293,140,1,7,11
1.72313E+12,-5740,-5381,4008,251,303,134,1,7,11
1.72313E+12,-5742,-5113,3999,572,311,378,1,7,11
1.72313E+12,-5527,-5029,4001,639,323,354,1,7,11
1.72313E+12,-5597,-5216,4033,435,329,370,1,7,11
1.72313E+12,-5612,-5166,4030,478,306,187,1,7,11
1.72313E+12,-5924,-5191,4058,426,279,551,1,7,11
1.72313E+12,-5931,-5165,4075,496,-16,425,1,7,11
1.72313E+12,-5916,-5155,4089,774,-8,777,1,7,11
1.72313E+12,-5956,-4859,4369,833,275,873,1,7,11
1.72313E+12,-5961,-4791,4371,873,282,728,1,7,11
1.72313E+12,-5963,-4747,4379,884,325,1105,1,7,11
1.72313E+12,-5948,-4964,4368,882,376,956,1,7,11
1.72313E+12,-5959,-4898,4365,861,168,1010,1,7,11
1.72313E+12,-5995,-4595,4367,834,231,1294,1,7,11
1.72313E+12,-5763,-4574,4355,813,561,1298,1,7,11
1.72313E+12,-5781,-4499,4366,798,627,996,1,7,11
1.72313E+12,-5851,-4510,4365,505,411,906,1,7,11
1.72313E+12,-6168,-4732,4418,459,423,1123,1,7,11
1.72313E+12,-5845,-4698,4400,461,398,1112,1,7,11
1.72313E+12,-5842,-4673,4403,424,407,1047,1,7,11
1.72313E+12,-6167,-4617,4414,633,445,649,1,7,11
1.72313E+12,-6226,-4287,4435,587,445,854,1,7,11
1.72313E+12,-6027,-4255,4426,544,441,850,1,7,11
1.72313E+12,-6023,-4225,4437,527,460,844,1,7,11
1.72313E+12,-6041,-4444,4416,241,470,511,1,7,11
1.72313E+12,-6116,-4405,4413,184,442,388,1,7,11
1.72313E+12,-6472,-4359,4407,136,387,557,1,7,11
1.72313E+12,-6282,-4039,4390,336,569,512,1,7,11
1.72313E+12,-6295,-4035,4398,-282,282,150,1,7,11
1.72313E+12,-6293,-4051,4408,-305,263,361,1,7,11
1.72313E+12,-6275,-4072,4417,-322,262,310,1,7,11
1.72313E+12,-6523,-4078,4447,-317,258,-11,1,7,11
1.72313E+12,-6485,-4048,4426,-288,-14,-87,1,7,11
1.72313E+12,-6456,-4050,4404,-280,-3,77,1,7,11
1.72313E+12,-6436,-4032,4393,-284,264,24,1,7,11
1.72313E+12,-6420,-4056,4377,-290,288,-265,1,7,11
1.72313E+12,-6431,-4090,4069,-359,175,-114,1,7,11
1.72313E+12,-6428,-4363,4050,-367,196,-35,1,7,11
1.72313E+12,-6441,-4370,4035,-365,225,288,1,7,11
1.72313E+12,-6467,-4376,4029,-349,255,343,1,7,11
1.72313E+12,-6316,-4394,4020,40,250,194,1,7,11
1.72313E+12,-6358,-4387,4022,89,217,190,1,7,11
1.72313E+12,-6671,-4358,4017,-108,167,185,1,7,11
1.72313E+12,-6710,-4081,4015,-65,357,197,1,7,11
1.72313E+12,-6734,-4063,4014,-33,285,217,1,7,11
1.72313E+12,-6753,-4032,4020,-6,-59,242,1,7,11
1.72313E+12,-6767,-4011,4036,265,100,533,1,7,11
1.72313E+12,-6778,-3994,4059,288,-260,568,1,7,11
1.72313E+12,-6758,-4132,4063,309,-444,423,1,7,11
1.72313E+12,-6742,-4110,4354,299,-782,467,1,7,11
1.72313E+12,-6698,-3825,4382,301,-851,504,1,7,11
1.72313E+12,-6670,-3781,4406,303,-891,788,1,7,11
1.72313E+12,-6376,-3748,4423,302,-652,820,1,7,11
1.72313E+12,-6336,-3719,4438,295,-641,843,1,7,11
1.72313E+12,-6306,-3943,4471,287,-861,849,1,7,11
1.72313E+12,-6528,-3895,4239,272,-815,842,1,7,11
1.72313E+12,-6508,-3874,4276,-10,-496,806,1,7,11
1.72313E+12,-6508,-3856,4319,-45,-418,458,1,7,11
1.72313E+12,-6509,-3839,4608,-76,-597,421,1,7,11
1.72313E+12,-6524,-3571,4637,-103,-520,596,1,7,11
1.72313E+12,-6525,-3562,4662,126,-199,520,1,7,11
1.72313E+12,-6519,-3560,4680,113,-142,133,1,7,11
1.72313E+12,-6525,-3542,4682,99,-336,288,1,7,11
1.72313E+12,-6284,-3535,4695,85,-274,-57,1,7,11
1.72313E+12,-6288,-3538,4710,67,70,121,1,7,11
1.72313E+12,-6296,-3541,4715,54,122,44,1,7,11
1.72313E+12,-6311,-3534,4714,51,-92,-280,1,7,11
1.72313E+12,-6334,-3522,4708,39,-60,-347,1,7,11
1.72313E+12,-6350,-3513,4699,-2,-47,-154,1,7,11
1.72313E+12,-6356,-3517,4699,-280,-57,-220,1,7,11
1.72313E+12,-6359,-3539,4704,-372,-80,-562,1,7,11
1.72313E+12,-6372,-3553,4712,-144,-91,-411,1,7,11
1.72313E+12,-6394,-3565,4724,-204,-118,-500,1,7,11
1.72313E+12,-6661,-3841,4482,-249,79,-817,1,7,11
1.72313E+12,-6396,-3857,4483,-537,40,-849,1,7,11
1.72313E+12,-6375,-3874,4727,-549,9,-852,1,7,11
1.72313E+12,-6353,-3893,4719,-559,-271,-843,1,7,11
1.72313E+12,-6329,-3917,4705,-573,-292,-818,1,7,11
1.72313E+12,-6304,-3945,4688,-575,-304,-785,1,7,11
1.72313E+12,-6276,-3718,4684,-578,-308,-486,1,7,11
1.72313E+12,-6508,-3754,4683,-572,-306,-437,1,7,11
1.72313E+12,-6498,-3775,4680,-559,-300,-385,1,7,11
1.72313E+12,-6472,-3799,4672,-540,-292,-580,1,7,11
1.72313E+12,-6456,-3819,4668,-522,-274,-525,1,7,11
1.72313E+12,-6444,-3838,4670,-246,2,-217,1,7,11
1.72313E+12,-6427,-4114,4661,-223,20,-167,1,7,11
1.72313E+12,-6417,-4129,4650,-197,40,-380,1,7,11
1.72313E+12,-6409,-4139,4650,-176,62,-348,1,7,11
1.72313E+12,-6414,-4145,4654,-157,93,-323,1,7,11
1.72313E+12,-6428,-4152,4666,-136,117,-296,1,7,11
1.72313E+12,-6440,-4154,4667,-366,-124,-261,1,7,11
1.72313E+12,-6451,-4158,4680,-335,-112,32,1,7,11
1.72313E+12,-6448,-4157,4666,-306,-99,69,1,7,11
1.72313E+12,-6442,-4164,4666,-279,-83,101,1,7,11
1.72313E+12,-6434,-4168,4663,11,-59,-126,1,7,11
1.72313E+12,-6415,-4185,4667,50,-24,-87,1,7,11
1.72313E+12,-6127,-4206,4669,116,294,-41,1,7,11
1.72313E+12,-6097,-4209,4658,-44,154,258,1,7,11
1.72313E+12,-6088,-3984,4668,304,564,308,1,7,11
1.72313E+12,-6066,-4220,4640,177,476,360,1,7,11
1.72313E+12,-6069,-4188,4349,542,668,153,1,7,11
1.72313E+12,-6093,-4141,4316,385,1123,218,1,7,11
1.72313E+12,-6125,-3840,4289,457,1309,554,1,7,11
1.72313E+12,-6435,-3813,4288,772,1216,386,1,7,11
1.72313E+12,-6500,-3820,4308,813,1585,466,1,7,11
1.72313E+12,-6321,-3783,4290,872,1626,773,1,7,11
1.72313E+12,-6396,-3716,4268,648,1616,808,1,7,11
1.72313E+12,-6729,-3876,4226,651,1561,835,1,7,11
1.72313E+12,-6776,-3820,4439,877,1196,868,1,7,11
1.72313E+12,-6567,-3490,4412,813,1320,861,1,7,11
1.72313E+12,-6657,-3682,4391,461,916,836,1,7,11
1.72313E+12,-6955,-3633,4376,600,758,814,1,7,11
1.72313E+12,-6967,-3611,4382,204,848,789,1,7,11
1.72313E+12,-6983,-3325,4385,325,601,493,1,7,11
1.72313E+12,-6990,-3298,4384,-49,457,451,1,7,11
1.72313E+12,-7000,-3283,4388,96,336,419,1,7,11
1.72313E+12,-6983,-3267,4379,-24,-16,402,1,7,11
1.72313E+12,-6954,-3266,4384,-343,-76,394,1,7,11
1.72313E+12,-6928,-3278,4400,-132,-111,386,1,7,11
1.72313E+12,-6648,-3278,4404,-154,125,622,1,7,11
1.72313E+12,-6633,-3264,4408,-161,120,585,1,7,11
1.72313E+12,-6635,-3241,4399,-162,-128,543,1,7,11
1.72313E+12,-6642,-3217,4397,-161,-110,250,1,7,11
1.72313E+12,-6641,-3456,4402,-159,-85,221,1,7,11
1.72313E+12,-6638,-3447,4410,-147,-55,201,1,7,11
1.72313E+12,-6629,-3442,4428,-130,-29,183,1,7,11
1.72313E+12,-6641,-3435,4438,-360,256,154,1,7,11
1.72313E+12,-6649,-3413,4426,-329,277,129,1,7,11
1.72313E+12,-6653,-3390,4397,-331,296,359,1,7,11
1.72313E+12,-6928,-3378,4384,-368,323,325,1,7,11
1.72313E+12,-6932,-3381,4382,-164,348,289,1,7,11
1.72313E+12,-6940,-3393,4384,-207,367,-3,1,7,11
1.72313E+12,-6948,-3403,4385,-229,382,-37,1,7,11
1.72313E+12,-6951,-3417,4370,-242,142,-71,1,7,11
1.72313E+12,-6954,-3430,4095,-253,162,-105,1,7,11
1.72313E+12,-6960,-3451,4084,-253,186,121,1,7,11
1.72313E+12,-6960,-3213,4079,-239,211,99,1,7,11
1.72313E+12,-6961,-3238,4083,-202,246,87,1,7,11
1.72313E+12,-6958,-3280,4095,-381,545,80,1,7,11
1.72313E+12,-6957,-3326,4356,-258,603,61,1,7,11
1.72313E+12,-6953,-3629,4092,-107,409,19,1,7,11
1.72313E+12,-6969,-3643,4069,334,463,-303,1,7,11
1.72313E+12,-6998,-3612,4016,512,501,-137,1,7,11
1.72313E+12,-7015,-3309,4206,621,500,-515,1,7,11
1.72313E+12,-7031,-3282,4185,433,780,-600,1,7,11
1.72313E+12,-6825,-3274,4190,790,838,-592,1,7,11
1.72313E+12,-6858,-3266,4191,665,873,-518,1,7,11
1.72313E+12,-6868,-3252,4167,1050,643,-150,1,7,11
1.72313E+12,-6865,-3220,4119,1140,662,-296,1,7,11
1.72313E+12,-6857,-3449,3826,907,679,53,1,7,11
1.72313E+12,-6872,-3429,3808,897,679,117,1,7,11
1.72313E+12,-6885,-3403,3805,1129,647,-90,1,7,11
1.72313E+12,-6891,-3382,3805,1082,851,-52,1,7,11
1.72313E+12,-6903,-3358,3808,755,774,-33,1,7,11
1.72313E+12,-7177,-3051,3802,676,415,-39,1,7,11
1.72313E+12,-7210,-3020,3785,832,554,-58,1,7,11
1.72313E+12,-7240,-2960,3770,446,183,-66,1,7,11
1.72313E+12,-7256,-3144,3800,5,60,333,1,7,11
1.72313E+12,-7242,-3152,3824,-350,2,361,1,7,11
1.72313E+12,-7222,-3167,3832,-167,-292,375,1,7,11
1.72313E+12,-7203,-3190,4104,-240,-320,381,1,7,11
1.72313E+12,-7190,-2947,4115,-553,-340,373,1,7,11
1.72313E+12,-7174,-2959,4128,-600,-351,360,1,7,11
1.72313E+12,-6908,-2970,4139,-630,-354,348,1,7,11
1.72313E+12,-6902,-2983,4143,-394,-346,339,1,7,11
1.72313E+12,-6901,-2987,4150,-408,-340,334,1,7,11
1.72313E+12,-6893,-2986,4154,-418,-341,342,1,7,11
1.72313E+12,-6897,-2985,4159,-424,-339,354,1,7,11
1.72313E+12,-6906,-2972,4172,-420,-348,131,1,7,11
1.72313E+12,-7172,-3198,4173,-416,-357,182,1,7,11
1.72313E+12,-7185,-3155,4160,-419,-365,250,1,7,11
1.72313E+12,-7196,-3110,4139,-443,-369,590,1,7,11
1.72313E+12,-7207,-3081,4132,-484,-367,429,1,7,11
1.72313E+12,-7223,-2796,4142,-793,-366,789,1,7,11
1.72313E+12,-7238,-2773,4161,-854,-368,647,1,7,11
1.72313E+12,-7252,-2757,4176,-655,-368,766,1,7,11
1.72313E+12,-7269,-2735,4168,-704,-371,1145,1,7,11
1.72313E+12,-7278,-2714,4173,-749,-364,1023,1,7,11
1.72313E+12,-7270,-2711,4189,-1050,-352,1159,1,7,11
1.72313E+12,-7224,-2738,4216,-1089,-344,1277,1,7,11
1.72313E+12,-7188,-2764,3979,-1109,-356,1582,1,7,11
1.72313E+12,-7179,-2776,4007,-1126,-383,1207,1,7,11
1.72313E+12,-7185,-2774,4027,-1124,-206,1290,1,7,11
1.72313E+12,-7193,-2755,4016,-1080,-256,1087,1,7,11
1.72313E+12,-7198,-2734,4014,-1034,-532,885,1,7,11
1.72313E+12,-7187,-2724,4002,-752,-515,438,1,7,11
1.72313E+12,-7177,-2718,3997,-691,-206,514,1,7,11
1.72313E+12,-7178,-2722,4003,-868,-130,349,1,7,11
1.72313E+12,-7187,-2727,4021,-450,-300,-49,1,7,11
1.72313E+12,-7200,-2717,4026,-565,43,89,1,7,11
1.72313E+12,-7216,-2700,4025,-161,126,-258,1,7,11
1.72313E+12,-7236,-2939,4008,-288,-66,-317,1,7,11
1.72313E+12,-7252,-2916,3991,76,-13,-347,1,7,11
1.72313E+12,-7264,-2896,3969,-96,290,-354,1,7,11
1.72313E+12,-7267,-2884,4208,-35,327,-342,1,7,11
1.72313E+12,-7265,-2869,4195,266,352,-326,1,7,11
1.72313E+12,-7279,-2864,4185,288,371,-311,1,7,11
1.72313E+12,-7281,-2854,4167,299,374,-290,1,7,11
1.72313E+12,-7280,-2856,4154,291,376,-276,1,7,11
1.72313E+12,-7289,-2861,4149,274,374,-260,1,7,11
1.72313E+12,-7042,-2867,4157,266,369,13,1,7,11
1.72313E+12,-7059,-2876,4184,265,360,30,1,7,11
1.72313E+12,-7070,-2879,4202,288,344,50,1,7,11
1.72313E+12,-7069,-2867,4207,322,319,68,1,7,11
1.72313E+12,-7064,-2846,4194,349,293,77,1,7,11
1.72313E+12,-7065,-2822,4177,361,271,77,1,7,11
1.72313E+12,-7077,-2546,4173,360,-1,70,1,7,11
1.72313E+12,-7091,-2537,4186,354,-24,63,1,7,11
1.72313E+12,-7097,-2529,4198,345,-52,52,1,7,11
1.72313E+12,-7101,-2526,4222,334,-79,40,1,7,11
1.72313E+12,-7103,-2522,3989,325,-110,27,1,7,11
1.72313E+12,-7100,-2514,4003,326,110,17,1,7,11
1.72313E+12,-7096,-2504,4008,323,75,16,1,7,11
1.72313E+12,-7090,-2494,4011,314,42,22,1,7,11
1.72313E+12,-7081,-2490,4018,290,15,33,1,7,11
1.72313E+12,-7069,-2483,4014,-3,-270,50,1,7,11
1.72313E+12,-7046,-2481,4010,-54,-286,69,1,7,11
1.72313E+12,-7288,-2488,4029,-111,-288,85,1,7,11
1.72313E+12,-7268,-2501,4036,105,-286,103,1,7,11
1.72313E+12,-7245,-2508,4045,83,-280,113,1,7,11
1.72313E+12,-7229,-2508,4046,66,-262,117,1,7,11
1.72313E+12,-7220,-2502,4051,58,27,119,1,7,11
1.72313E+12,-7216,-2506,4065,51,68,-128,1,7,11
1.72313E+12,-7224,-2503,4074,62,113,-117,1,7,11
1.72313E+12,-7227,-2497,4085,79,-103,-105,1,7,11
1.72313E+12,-7242,-2486,4082,98,-68,-100,1,7,11
1.72313E+12,-7258,-2474,4078,106,-43,-98,1,7,11
1.72313E+12,-7266,-2465,4091,103,-27,-99,1,7,11
1.72313E+12,-7282,-2448,4070,100,-22,-112,1,7,11
1.72313E+12,-7286,-2684,4047,85,-28,-127,1,7,11
1.72313E+12,-7296,-2668,4044,63,-33,114,1,7,11
1.72313E+12,-7049,-2661,4034,32,-36,105,1,7,11
1.72313E+12,-7055,-2655,4035,4,-41,99,1,7,11
1.72313E+12,-7064,-2656,4037,-272,-46,95,1,7,11
1.72313E+12,-7070,-2662,4037,-284,-51,93,1,7,11
1.72313E+12,-7067,-2668,4038,-290,-57,94,1,7,11
1.72313E+12,-7060,-2676,4033,-291,-58,92,1,7,11
1.72313E+12,-7061,-2682,4025,-294,-58,87,1,7,11
1.72313E+12,-7061,-2683,4021,-299,-56,78,1,7,11
1.72313E+12,-7053,-2439,4013,-303,-60,68,1,7,11
1.72313E+12,-7053,-2442,4014,-309,-62,45,1,7,11
1.72313E+12,-7062,-2447,4022,-308,-62,23,1,7,11
1.72313E+12,-7070,-2446,4020,-303,-62,11,1,7,11
1.72313E+12,-7071,-2445,4019,-293,-63,10,1,7,11
1.72313E+12,-7066,-2443,4018,-286,-62,14,1,7,11
1.72313E+12,-7057,-2448,4011,-284,-61,13,1,7,11
1.72313E+12,-7059,-2458,4011,-287,-60,4,1,7,11
1.72313E+12,-7052,-2461,4020,-284,-66,-260,1,7,11
1.72313E+12,-7048,-2469,4023,-283,-73,-265,1,7,11
1.72313E+12,-7050,-2477,4029,-285,-83,-266,1,7,11
1.72313E+12,-7050,-2486,4033,-288,-96,-264,1,7,11
1.72313E+12,-7060,-2488,4052,-283,-107,-264,1,7,11
1.72313E+12,-7050,-2486,4056,0,-125,6,1,7,11
1.72313E+12,-7292,-2480,4048,12,-125,19,1,7,11
1.72313E+12,-7276,-2471,4037,13,-112,31,1,7,11
1.72313E+12,-7272,-2472,4032,0,-90,37,1,7,11
1.72313E+12,-7281,-2473,4041,-260,-77,40,1,7,11
1.72313E+12,-7289,-2473,4040,-258,-81,38,1,7,11
1.72313E+12,-7292,-2470,4033,-259,-90,31,1,7,11
1.72313E+12,-7043,-2469,4024,-278,-95,24,1,7,11
1.72313E+12,-7045,-2474,4021,-298,-98,19,1,7,11
1.72313E+12,-7049,-2485,4023,-319,-100,16,1,7,11
1.72313E+12,-7047,-2501,4031,-333,-100,19,1,7,11
1.72313E+12,-7293,-2512,4040,-330,-103,22,1,7,11
1.72313E+12,-7287,-2520,4040,-325,-105,23,1,7,11
1.72313E+12,-7267,-2519,4034,-313,-109,21,1,7,11
1.72313E+12,-7262,-2523,4034,-314,-104,16,1,7,11
1.72313E+12,-7278,-2527,4046,-290,-102,18,1,7,11
1.72313E+12,-7288,-2523,4035,-270,-108,26,1,7,11
1.72313E+12,-7041,-2505,4037,1,-103,36,1,7,11
1.72313E+12,-7048,-2503,4036,9,-98,45,1,7,11
1.72313E+12,-7044,-2497,4040,9,-95,50,1,7,11
1.72313E+12,-7049,-2482,4037,12,-92,56,1,7,11
1.72313E+12,-7050,-2477,4036,14,-96,58,1,7,11
1.72313E+12,-7046,-2482,4040,7,-100,57,1,7,11
1.72313E+12,-7043,-2483,4054,4,-104,51,1,7,11
1.72313E+12,-7290,-2483,4059,1,-116,43,1,7,11
1.72313E+12,-7284,-2480,4051,-262,-117,36,1,7,11
1.72313E+12,-7285,-2482,4045,-264,-110,30,1,7,11
1.72313E+12,-7278,-2484,4051,-263,-98,29,1,7,11
1.72313E+12,-7273,-2481,4057,-262,-84,33,1,7,11
1.72313E+12,-7270,-2486,4060,4,-76,29,1,7,11
1.72313E+12,-7270,-2476,4067,1,-76,24,1,7,11
1.72313E+12,-7272,-2468,4054,-261,-76,12,1,7,11
1.72313E+12,-7271,-2458,4042,-271,-75,7,1,7,11
1.72313E+12,-7274,-2456,4045,-286,-67,8,1,7,11
1.72313E+12,-7267,-2461,4041,-299,-59,13,1,7,11
1.72313E+12,-7270,-2474,4037,-314,-50,17,1,7,11
1.72313E+12,-7272,-2479,4039,-331,-44,15,1,7,11
1.72313E+12,-7281,-2491,4036,-346,-38,12,1,7,11
1.72313E+12,-7286,-2503,4035,-358,-35,13,1,7,11
1.72313E+12,-7287,-2503,4043,-361,-36,13,1,7,11
1.72313E+12,-7284,-2508,4036,-363,-37,10,1,7,11
1.72313E+12,-7286,-2517,4036,-368,-35,3,1,7,11
1.72313E+12,-7293,-2529,4031,-372,-33,-267,1,7,11
1.72313E+12,-7291,-2540,4021,-373,-43,-279,1,7,11
1.72313E+12,-7289,-2550,4019,-374,-57,-292,1,7,11
1.72313E+12,-7291,-2556,4029,-380,-71,-319,1,7,11
1.72313E+12,-7280,-2823,4035,-381,-95,-332,1,7,11
1.72313E+12,-7290,-2826,4037,-369,-104,-337,1,7,11
1.72313E+12,-7288,-2817,4024,-352,-111,-330,1,7,11
1.72313E+12,-7274,-2553,4019,-346,-109,-319,1,7,11
1.72313E+12,-7261,-2548,4000,-349,-99,-309,1,7,11
1.72313E+12,-7265,-2551,4002,-359,-77,-306,1,7,11
1.72313E+12,-7273,-2560,4011,-365,-62,-301,1,7,11
1.72313E+12,-7281,-2821,4012,-355,-60,-293,1,7,11
1.72313E+12,-7278,-2819,4005,-343,-66,-280,1,7,11
1.72313E+12,-7266,-2830,3993,-339,-68,-266,1,7,11
1.72313E+12,-7255,-2836,3987,-344,-68,2,1,7,11
1.72313E+12,-7255,-2849,4004,-350,-67,2,1,7,11
1.72313E+12,-7261,-2853,4009,-354,-68,-257,1,7,11
1.72313E+12,-7263,-2850,4003,-349,-76,-258,1,7,11
1.72313E+12,-7259,-2851,4008,-363,-74,-259,1,7,11
1.72313E+12,-7254,-2850,4001,-376,-72,-257,1,7,11
1.72313E+12,-7264,-2847,4010,-155,124,-310,1,7,11
1.72313E+12,-7269,-2841,3996,-180,102,-338,1,7,11
1.72313E+12,-7280,-2847,3996,-215,75,-376,1,7,11
1.72313E+12,-7287,-2860,4004,-513,34,-167,1,7,11
1.72313E+12,-7294,-2871,4014,-558,-272,-227,1,7,11
1.72313E+12,-7292,-2889,4031,-597,-331,-553,1,7,11
1.72313E+12,-7286,-2909,4037,-631,-151,-585,1,7,11
1.72313E+12,-7275,-2928,4044,-403,-204,-606,1,7,11
1.72313E+12,-7257,-2694,4046,-418,-255,-621,1,7,11
1.72313E+12,-7232,-2714,4034,-436,-554,-387,1,7,11
1.72313E+12,-7211,-2745,4035,-454,-593,-411,1,7,11
1.72313E+12,-7182,-2771,4035,-478,-628,-433,1,7,11
1.72313E+12,-6904,-2802,4046,-499,-395,-462,1,7,11
1.72313E+12,-6883,-3083,4055,-512,-417,-484,1,7,11
1.72313E+12,-6856,-3113,4076,-771,-430,-495,1,7,11
1.72313E+12,-6835,-3155,4088,-508,-435,-502,1,7,11
1.72313E+12,-6813,-3191,4354,-483,-430,-511,1,7,11
1.72313E+12,-6790,-2966,4364,-451,-412,-776,1,7,11
1.72313E+12,-7030,-2997,4378,-418,-394,-787,1,7,11
1.72313E+12,-7027,-3021,4403,-634,-633,-811,1,7,11
1.72313E+12,-7027,-3036,4421,-585,-632,-827,1,7,11
1.72313E+12,-7019,-3039,4418,-540,-628,-839,1,7,11
1.72313E+12,-7033,-3052,4432,-513,-625,-855,1,7,11
1.72313E+12,-7024,-3332,4434,-235,-630,-855,1,7,11
1.72313E+12,-7010,-3353,4440,-218,-629,-862,1,7,11
1.72313E+12,-6980,-3367,4444,-207,-637,-884,1,7,11
1.72313E+12,-6955,-3380,4443,-207,-634,-669,1,7,11
1.72313E+12,-6943,-3402,4443,-217,-623,-706,1,7,11
1.72313E+12,-6925,-3436,4471,-223,-607,-722,1,7,11
1.72313E+12,-6649,-3217,4247,-211,-581,-723,1,7,11
1.72313E+12,-6648,-3246,4274,-179,-546,-698,1,7,11
1.72313E+12,-6624,-3270,4309,-382,-253,-643,1,7,11
1.72313E+12,-6595,-3289,4321,-310,-205,-827,1,7,11
1.72313E+12,-6550,-3305,4323,27,-141,-490,1,7,11
1.72313E+12,-6757,-3326,4327,112,-301,-413,1,7,11
1.72313E+12,-6725,-3604,4329,-52,84,-594,1,7,11
1.72313E+12,-6698,-3616,4335,312,-34,-519,1,7,11
1.72313E+12,-6683,-3593,4305,169,369,-191,1,7,11
1.72313E+12,-6675,-3573,4284,518,522,-371,1,7,11
1.72313E+12,-6707,-3295,4265,591,420,-287,1,7,11
1.72313E+12,-6738,-3286,4271,385,826,120,1,7,11
1.72313E+12,-6774,-3600,4313,389,749,-34,1,7,11
1.72313E+12,-6773,-3592,4303,429,1037,289,1,7,11
1.72313E+12,-6546,-3315,4282,451,1038,283,1,7,11
1.72313E+12,-6597,-3269,4271,437,1026,245,1,7,11
1.72313E+12,-6650,-3221,4254,388,674,-62,1,7,11
1.72313E+12,-6962,-3422,4232,575,840,-99,1,7,11
1.72313E+12,-7007,-3380,4233,179,479,-104,1,7,11
1.72313E+12,-7029,-3361,4236,328,621,-93,1,7,11
1.72313E+12,-7028,-3342,4229,-24,252,-70,1,7,11
1.72313E+12,-7015,-3345,4475,-122,152,-46,1,7,11
1.72313E+12,-6997,-3344,4232,45,322,-28,1,7,11
1.72313E+12,-6988,-3346,4243,-286,257,-19,1,7,11
1.72313E+12,-6974,-3355,4238,-348,-51,-11,1,7,11
1.72313E+12,-6956,-3362,4246,-136,-87,-8,1,7,11
1.72313E+12,-6942,-3375,4253,-161,-109,-12,1,7,11
1.72313E+12,-6926,-3382,4252,-176,-116,-29,1,7,11
1.72313E+12,-6913,-3385,4245,-186,-108,-51,1,7,11
1.72313E+12,-6656,-3387,4240,-187,-88,-76,1,7,11
1.72313E+12,-6650,-3387,4234,-180,-63,-99,1,7,11
1.72313E+12,-6655,-3383,4231,-174,-38,-119,1,7,11
1.72313E+12,-6921,-3380,4224,-159,-10,126,1,7,11
1.72313E+12,-6937,-3380,4468,-147,270,125,1,7,11
1.72313E+12,-6955,-3369,4458,-129,285,-125,1,7,11
1.72313E+12,-6966,-3356,4445,-376,290,-112,1,7,11
1.72313E+12,-6974,-3350,4434,-371,294,-98,1,7,11
1.72313E+12,-6978,-3343,4421,-375,292,-84,1,7,11
1.72313E+12,-6989,-3346,4416,-380,295,-73,1,7,11
1.72313E+12,-7004,-3340,4408,-380,293,-52,1,7,11
1.72313E+12,-7017,-3332,4414,-375,290,-25,1,7,11
1.72313E+12,-7023,-3069,4404,-371,293,263,1,7,11
1.72313E+12,-7024,-3067,4389,-373,296,289,1,7,11
1.72313E+12,-7030,-3056,4376,-378,304,304,1,7,11
1.72313E+12,-7040,-3055,4372,-131,311,311,1,7,11
1.72313E+12,-7030,-3050,4364,-136,311,317,1,7,11
1.72313E+12,-7032,-3053,4362,-147,317,312,1,7,11
1.72313E+12,-7030,-3061,4365,-156,317,305,1,7,11
1.72313E+12,-7033,-3332,4380,-160,317,293,1,7,11
1.72313E+12,-7040,-3337,4389,-150,310,278,1,7,11
1.72313E+12,-6791,-3330,4371,-130,303,266,1,7,11
1.72313E+12,-6794,-3055,4084,-374,300,259,1,7,11
1.72313E+12,-6792,-3034,4055,-374,305,-3,1,7,11
1.72313E+12,-6796,-3032,4036,-136,315,-10,1,7,11
1.72313E+12,-6804,-3046,4036,-156,326,-16,1,7,11
1.72313E+12,-6808,-3051,4053,-171,327,-22,1,7,11
1.72313E+12,-6809,-3063,4047,-164,319,-31,1,7,11
1.72313E+12,-6811,-3070,4045,-152,310,-45,1,7,11
1.72313E+12,-6819,-3067,4038,-138,300,-55,1,7,11
1.72313E+12,-6821,-3065,4036,-382,291,-62,1,7,11
1.72313E+12,-6823,-3054,4027,-371,284,-68,1,7,11
1.72313E+12,-6827,-3041,4011,-364,275,-73,1,7,11
1.72313E+12,-6824,-3044,4015,-362,271,-77,1,7,11
1.72313E+12,-6818,-3053,4009,-363,265,-82,1,7,11
1.72313E+12,-6823,-3063,4021,-367,260,-90,1,7,11
1.72313E+12,-6834,-3061,4030,-361,-1,-102,1,7,11
1.72313E+12,-6839,-3051,4021,-341,-6,-93,1,7,11
1.72313E+12,-6839,-3042,4018,-314,-8,-76,1,7,11
1.72313E+12,-6841,-3032,4003,-287,-1,-54,1,7,11
1.72313E+12,-6848,-3018,3996,5,267,-34,1,7,11
1.72313E+12,-6852,-3007,3997,25,277,-9,1,7,11
1.72313E+12,-6860,-2991,3994,45,286,269,1,7,11
1.72313E+12,-6865,-2983,3984,60,292,289,1,7,11
1.72313E+12,-6866,-2973,3984,66,299,307,1,7,11
1.72313E+12,-6869,-2975,3986,74,305,320,1,7,11
1.72313E+12,-6865,-2977,3974,81,308,323,1,7,11
1.72313E+12,-6861,-2972,3978,86,309,309,1,7,11
1.72313E+12,-6867,-2962,3972,89,307,277,1,7,11
1.72313E+12,-6868,-2955,3970,84,306,-23,1,7,11
1.72313E+12,-6883,-2948,4222,74,301,-77,1,7,11
1.72313E+12,-6891,-2946,3974,73,295,-128,1,7,11
1.72313E+12,-6903,-3187,3976,89,289,82,1,7,11
1.72313E+12,-7169,-3179,3973,105,288,53,1,7,11
1.72313E+12,-7173,-3167,3973,-125,288,39,1,7,11
1.72313E+12,-6906,-3156,4215,-97,288,38,1,7,11
1.72313E+12,-6895,-3156,4204,-75,296,45,1,7,11
1.72313E+12,-6887,-3156,4192,-59,307,53,1,7,11
1.72313E+12,-6896,-3158,4193,-51,325,63,1,7,11
1.72313E+12,-6905,-3154,4201,-54,347,73,1,7,11
1.72313E+12,-7169,-3155,4209,-55,355,77,1,7,11
1.72313E+12,-7171,-3147,4210,-55,358,78,1,7,11
1.72313E+12,-7174,-3144,4217,-57,359,81,1,7,11
1.72313E+12,-7174,-3139,4222,-59,350,83,1,7,11
1.72313E+12,-7178,-3135,4216,-69,338,81,1,7,11
1.72313E+12,-7192,-3129,4207,-76,329,83,1,7,11
1.72313E+12,-7199,-3124,4208,-93,295,95,1,7,11
1.72313E+12,-7217,-3111,4218,-112,277,119,1,7,11
1.72313E+12,-7223,-3087,4209,-122,258,-102,1,7,11
1.72313E+12,-7230,-2796,4184,125,-8,-67,1,7,11
1.72313E+12,-7235,-2762,4149,72,-16,-40,1,7,11
1.72313E+12,-7237,-2749,4136,-264,-20,-30,1,7,11
1.72313E+12,-7243,-2748,4139,-347,-37,-30,1,7,11
1.72313E+12,-7224,-2752,4129,-184,-73,-46,1,7,11
1.72313E+12,-7220,-2746,4134,-542,-102,-94,1,7,11
1.72313E+12,-7223,-2737,4129,-389,123,110,1,7,11
1.72313E+12,-7228,-2733,4126,-500,95,60,1,7,11
1.72313E+12,-7238,-2748,4139,-874,72,19,1,7,11
1.72313E+12,-7247,-2776,4171,-713,42,-268,1,7,11
1.72313E+12,-7241,-2814,4202,-1034,0,-288,1,7,11
1.72313E+12,-7231,-3107,4213,-1070,-300,-311,1,7,11
1.72313E+12,-7218,-3146,4211,-1078,-347,-330,1,7,11
1.72313E+12,-7194,-3186,4207,-1073,-384,-349,1,7,11
1.72313E+12,-6910,-2963,4206,-1051,-149,-368,1,7,11
1.72313E+12,-6871,-2990,4197,-757,-151,-380,1,7,11
1.72313E+12,-6848,-3005,4192,-701,-380,-140,1,7,11
1.72313E+12,-6841,-3014,4183,-894,-327,-150,1,7,11
1.72313E+12,-6837,-3027,4171,-831,-258,-147,1,7,11
1.72313E+12,-6828,-3048,4170,-502,71,-136,1,7,11
1.72313E+12,-6828,-3063,4167,-431,-114,-131,1,7,11
1.72313E+12,-6833,-3068,4152,-619,-53,-131,1,7,11
1.72313E+12,-6836,-3063,4124,-552,256,-381,1,7,11
1.72313E+12,-6820,-3056,4114,-241,305,-369,1,7,11
1.72313E+12,-6787,-3064,3811,-214,355,-380,1,7,11
1.72313E+12,-7018,-3061,3776,-230,168,-177,1,7,11
1.72313E+12,-7016,-3337,3758,-522,243,-252,1,7,11
1.72313E+12,-6980,-3357,3726,-556,560,-592,1,7,11
1.72313E+12,-6938,-3390,3952,-616,386,-459,1,7,11
1.72313E+12,-6969,-3424,3959,-420,501,-872,1,7,11
1.72313E+12,-7003,-3202,3713,-459,842,-739,1,7,11
1.72313E+12,-7027,-3256,3718,-486,643,-1109,1,7,11
1.72313E+12,-6813,-3292,3716,-487,682,-956,1,7,11
1.72313E+12,-6863,-3323,3966,-470,694,-1290,1,7,11
1.72313E+12,-7176,-3599,3951,-442,681,-1329,1,7,11
1.72313E+12,-7229,-3631,3940,-409,883,-1321,1,7,11
1.72313E+12,-7263,-3654,3922,-622,802,-1017,1,7,11
1.72313E+12,-7281,-3679,3903,-581,446,-938,1,7,11
1.72313E+12,-7273,-3457,3893,-546,585,-1101,1,7,11
1.72313E+12,-7260,-3490,3879,-256,211,-753,1,7,11
1.72313E+12,-7236,-3499,3853,-220,345,-658,1,7,11
1.72313E+12,-7199,-3513,3572,-193,-34,-813,1,7,11
1.72313E+12,-6893,-3528,3553,-176,116,-462,1,7,11
1.72313E+12,-6848,-3538,3533,-171,43,-634,1,7,11
1.72313E+12,-6821,-3546,3538,-176,6,-548,1,7,11
1.72313E+12,-6795,-3561,3544,-167,-266,-190,1,7,11
1.72313E+12,-7022,-3572,3546,-146,-266,-338,1,7,11
1.72313E+12,-6997,-3841,3540,-374,14,18,1,7,11
1.72313E+12,-6978,-3841,3533,-345,58,99,1,7,11
1.72313E+12,-6985,-3581,3530,-315,111,-96,1,7,11
1.72313E+12,-7010,-3565,3531,-289,-96,-36,1,7,11
1.72313E+12,-7023,-3562,3537,-265,-62,289,1,7,11
1.72313E+12,-6785,-3558,3534,7,-51,346,1,7,11
1.72313E+12,-6835,-3521,3530,23,-125,129,1,7,11
1.72313E+12,-6836,-3492,3518,19,111,353,1,7,11
1.72313E+12,-6836,-3469,3521,7,103,328,1,7,11
1.72313E+12,-6835,-3461,3516,-257,104,307,1,7,11
1.72313E+12,-6843,-3694,3523,-259,110,292,1,7,11
1.72313E+12,-6854,-3683,3542,-266,125,285,1,7,11
1.72313E+12,-6866,-3668,3546,-260,-127,295,1,7,11
1.72313E+12,-6874,-3661,3547,-257,122,318,1,7,11
1.72313E+12,-6869,-3668,3546,4,111,342,1,7,11
1.72313E+12,-6860,-3681,3543,12,104,345,1,7,11
1.72313E+12,-6844,-3682,3544,23,98,327,1,7,11
1.72313E+12,-6833,-3686,3553,28,97,286,1,7,11
1.72313E+12,-6831,-3677,3556,38,101,-18,1,7,11
1.72313E+12,-6830,-3666,3565,54,103,-57,1,7,11
1.72313E+12,-6829,-3662,3572,69,107,-65,1,7,11
1.72313E+12,-6828,-3647,3583,84,106,-77,1,7,11
1.72313E+12,-6834,-3638,3841,98,109,-94,1,7,11
1.72313E+12,-6841,-3624,3844,102,113,-96,1,7,11
1.72313E+12,-6847,-3615,3857,103,-128,-93,1,7,11
1.72313E+12,-6848,-3612,3865,109,-120,-87,1,7,11
1.72313E+12,-6843,-3606,3866,107,-112,-87,1,7,11
1.72313E+12,-6838,-3595,3880,103,-106,-94,1,7,11
1.72313E+12,-6835,-3589,3880,99,-104,-104,1,7,11
1.72313E+12,-6845,-3321,3879,92,-96,-120,1,7,11
1.72313E+12,-6853,-3313,3880,83,-86,121,1,7,11
1.72313E+12,-6862,-3300,3880,74,-80,116,1,7,11
1.72313E+12,-6866,-3297,3893,57,-84,125,1,7,11
1.72313E+12,-6857,-3301,3898,43,-94,-120,1,7,11
1.72313E+12,-6856,-3296,3873,33,-83,-118,1,7,11
1.72313E+12,-6848,-3300,3862,6,-66,-128,1,7,11
1.72313E+12,-6841,-3315,3868,-262,-39,115,1,7,11
1.72313E+12,-6842,-3590,3868,-282,-35,101,1,7,11
1.72313E+12,-6848,-3588,3871,-291,-38,93,1,7,11
1.72313E+12,-6852,-3608,3875,-289,-35,88,1,7,11
1.72313E+12,-6841,-3616,3877,-280,-36,90,1,7,11
1.72313E+12,-6841,-3608,3878,-258,-23,79,1,7,11
1.72313E+12,-6846,-3598,3869,30,-10,67,1,7,11
1.72313E+12,-6855,-3315,3862,41,264,54,1,7,11
1.72313E+12,-6866,-3309,3872,37,277,40,1,7,11
1.72313E+12,-6877,-3587,3887,29,270,26,1,7,11
1.72313E+12,-6884,-3586,3894,43,-4,-257,1,7,11
1.72313E+12,-6884,-3323,3886,56,-21,-298,1,7,11
1.72313E+12,-6878,-3587,3879,50,-43,-341,1,7,11
1.72313E+12,-6866,-3587,3868,33,-75,-137,1,7,11
1.72313E+12,-6858,-3327,3843,-258,-95,-198,1,7,11
1.72313E+12,-6855,-3594,3847,-305,-116,-251,1,7,11
1.72313E+12,-6823,-3623,3849,-358,102,-546,1,7,11
1.72313E+12,-6813,-3665,3862,-152,59,-610,1,7,11
1.72313E+12,-6815,-3665,3854,-178,10,-408,1,7,11
1.72313E+12,-6817,-3669,3852,-215,-288,-433,1,7,11
1.72313E+12,-6820,-3662,3846,-235,-322,-419,1,7,11
1.72313E+12,-6814,-3662,3841,-518,-343,-390,1,7,11
1.72313E+12,-6812,-3677,3576,-548,-360,-615,1,7,11
1.72313E+12,-6807,-3679,3568,-565,-356,-601,1,7,11
1.72313E+12,-6797,-3710,3581,-594,-330,-606,1,7,11
1.72313E+12,-6789,-3483,3862,-600,-304,-614,1,7,11
1.72313E+12,-6792,-3502,3878,-593,-279,-620,1,7,11
1.72313E+12,-6799,-3495,3880,-580,-264,-592,1,7,11
1.72313E+12,-6802,-3508,3889,-567,8,-516,1,7,11
1.72313E+12,-7018,-3512,3865,-531,27,-160,1,7,11
1.72313E+12,-6991,-3519,3850,-255,77,-334,1,7,11
1.72313E+12,-6964,-3537,3580,-236,125,5,1,7,11
1.72313E+12,-6943,-3553,3565,-229,-75,57,1,7,11
1.72313E+12,-6948,-3570,3560,-234,-20,98,1,7,11
1.72313E+12,-6963,-3583,3564,-227,286,125,1,7,11
1.72313E+12,-6984,-3841,3575,-213,323,-106,1,7,11
1.72313E+12,-6999,-3583,3556,-193,347,-76,1,7,11
1.72313E+12,-7018,-3856,3552,-175,369,-43,1,7,11
1.72313E+12,-7026,-3871,3554,-149,376,-4,1,7,11
1.72313E+12,-7036,-3877,3561,-371,374,275,1,7,11
1.72313E+12,-6796,-3862,3560,-317,350,278,1,7,11
1.72313E+12,-6813,-3584,3545,-280,329,277,1,7,11
1.72313E+12,-6823,-3566,3527,-259,311,277,1,7,11
1.72313E+12,-6831,-3547,3522,10,297,296,1,7,11
1.72313E+12,-6831,-3540,3521,23,288,323,1,7,11
1.72313E+12,-6828,-3529,3515,33,287,340,1,7,11
1.72313E+12,-6829,-3545,3521,30,287,350,1,7,11
1.72313E+12,-6813,-3537,3515,38,269,342,1,7,11
1.72313E+12,-6805,-3513,3500,34,265,320,1,7,11
1.72313E+12,-6823,-3490,3497,35,268,315,1,7,11
1.72313E+12,-6823,-3473,3506,37,264,351,1,7,11
1.72313E+12,-6828,-3475,3511,41,264,148,1,7,11
1.72313E+12,-6818,-3474,3520,62,267,199,1,7,11
1.72313E+12,-6810,-3459,3519,95,279,235,1,7,11
1.72313E+12,-6814,-3686,3509,-127,299,515,1,7,11
1.72313E+12,-6817,-3661,3505,-102,328,529,1,7,11
1.72313E+12,-6837,-3627,3497,-78,363,538,1,7,11
1.72313E+12,-6875,-3328,3503,-65,141,555,1,7,11
1.72313E+12,-7171,-3298,3508,-61,164,591,1,7,11
1.72313E+12,-7179,-3279,3497,-53,172,401,1,7,11
1.72313E+12,-6911,-3274,3495,-63,172,423,1,7,11
1.72313E+12,-6911,-3279,3502,-79,179,405,1,7,11
1.72313E+12,-7185,-3272,3512,-81,178,610,1,7,11
1.72313E+12,-7216,-3253,3521,-81,174,551,1,7,11
1.72313E+12,-7242,-3230,3522,-71,164,247,1,7,11
1.72313E+12,-7255,-3203,3509,-65,148,221,1,7,11
1.72313E+12,-7254,-3434,3500,-70,132,209,1,7,11
1.72313E+12,-7248,-3429,3495,-89,381,209,1,7,11
1.72313E+12,-7240,-3432,3499,-106,376,205,1,7,11
1.72313E+12,-7239,-3431,3503,-108,370,195,1,7,11
1.72313E+12,-7245,-3406,3501,-95,361,186,1,7,11
1.72313E+12,-7261,-3373,3484,-86,359,182,1,7,11
1.72313E+12,-7267,-3351,3466,-84,363,194,1,7,11
1.72313E+12,-7268,-3337,3463,-91,369,215,1,7,11
1.72313E+12,-7275,-3329,3456,-101,382,231,1,7,11
1.72313E+12,-7278,-3069,3698,-116,136,238,1,7,11
1.72313E+12,-7278,-3062,3698,-126,145,233,1,7,11
1.72313E+12,-7282,-3063,3699,114,154,217,1,7,11
1.72313E+12,-7296,-3049,3689,108,154,192,1,7,11
1.72313E+12,-7067,-3031,3684,94,152,166,1,7,11
1.72313E+12,-7084,-3003,3670,85,139,150,1,7,11
1.72313E+12,-7094,-2969,3654,71,374,144,1,7,11
1.72313E+12,-7097,-2952,3632,46,353,140,1,7,11
1.72313E+12,-7103,-2946,3627,12,334,131,1,7,11
1.72313E+12,-7100,-2947,3629,-276,319,366,1,7,11
1.72313E+12,-7106,-3198,3629,-298,310,340,1,7,11
1.72313E+12,-7112,-3197,3617,-313,294,313,1,7,11
1.72313E+12,-7116,-3183,3611,-317,283,278,1,7,11
1.72313E+12,-7132,-3171,3614,-324,275,-15,1,7,11
1.72313E+12,-7143,-3159,3601,-332,262,-47,1,7,11
1.72313E+12,-7149,-3150,3608,-348,-33,-83,1,7,11
1.72313E+12,-7154,-3145,3608,-365,-65,-106,1,7,11
1.72313E+12,-7161,-3139,3614,-380,-93,-128,1,7,11
1.72313E+12,-7148,-3129,3621,-138,-120,110,1,7,11
1.72313E+12,-7149,-3119,3625,-150,116,93,1,7,11
1.72313E+12,-7121,-3138,3628,-163,102,77,1,7,11
1.72313E+12,-7085,-3151,3635,-168,108,24,1,7,11
1.72313E+12,-7100,-3128,3625,-156,-112,-307,1,7,11
1.72313E+12,-7106,-3127,3624,-165,-66,-338,1,7,11
1.72313E+12,-7104,-2945,3606,-208,341,-525,1,7,11
1.72313E+12,-7121,-3195,3601,-221,361,-541,1,7,11
1.72313E+12,-7140,-2947,3598,-246,377,-524,1,7,11
1.72313E+12,-7138,-2960,3586,-517,134,-230,1,7,11
1.72313E+12,-7125,-2965,3306,-526,145,-185,1,7,11
1.72313E+12,-7112,-2971,3281,-547,159,-139,1,7,11
1.72313E+12,-7107,-2991,3265,-574,169,-352,1,7,11
1.72313E+12,-7110,-3006,3259,-588,182,-324,1,7,11
1.72313E+12,-7111,-3032,3251,-594,199,-290,1,7,11
1.72313E+12,-7109,-3057,3242,-589,222,-263,1,7,11
1.72313E+12,-7108,-3335,3231,-578,244,13,1,7,11
1.72313E+12,-7104,-3345,3221,-566,520,23,1,7,11
1.72313E+12,-7105,-3355,3213,-555,536,19,1,7,11
1.72313E+12,-7112,-3366,3450,-534,545,3,1,7,11
1.72313E+12,-7122,-3352,3434,-254,550,-267,1,7,11
1.72313E+12,-7134,-3348,3410,-235,548,-270,1,7,11
1.72313E+12,-7144,-3343,3387,-230,545,-270,1,7,11
1.72313E+12,-7145,-3352,3360,-233,540,-266,1,7,11
1.72313E+12,-7153,-3381,3367,-238,532,-264,1,7,11
1.72313E+12,-7143,-3398,3350,-214,254,-260,1,7,11
1.72313E+12,-7129,-3400,3071,-183,242,-276,1,7,11
1.72313E+12,-7131,-3394,3032,-156,243,-304,1,7,11
1.72313E+12,-7146,-3400,3011,-139,247,-347,1,7,11
1.72313E+12,-7167,-3410,2997,-374,515,-368,1,7,11
1.72313E+12,-7441,-3419,2997,-355,255,-375,1,7,11
1.72313E+12,-7446,-3424,2980,-335,239,-136,1,7,11
1.72313E+12,-7455,-3429,2974,-321,212,-153,1,7,11
1.72313E+12,-7463,-3423,2964,-304,176,-176,1,7,11
1.72313E+12,-7469,-3404,3195,-301,140,-194,1,7,11
1.72313E+12,-7476,-3400,3181,-317,360,-196,1,7,11
1.72313E+12,-7453,-3410,3176,-340,322,-189,1,7,11
1.72313E+12,-7433,-3421,3170,-363,284,-185,1,7,11
1.72313E+12,-7426,-3431,3169,-131,-5,-193,1,7,11
1.72313E+12,-7167,-3447,3182,-148,-36,-194,1,7,11
1.72313E+12,-7155,-3447,3175,-158,-60,-184,1,7,11
1.72313E+12,-7147,-3456,3169,-174,-75,-169,1,7,11
1.72313E+12,-7138,-3214,3167,-191,-87,-148,1,7,11
1.72313E+12,-7137,-3229,3167,-202,-101,-131,1,7,11
1.72313E+12,-7134,-3242,3178,-207,-108,-374,1,7,11
1.72313E+12,-7144,-3252,3185,-203,-112,-360,1,7,11
1.72313E+12,-7141,-3261,3185,-185,-116,-333,1,7,11
1.72313E+12,-7129,-3266,3181,-156,-113,-299,1,7,11
1.72313E+12,-7122,-3261,3173,-132,-105,-263,1,7,11
1.72313E+12,-7121,-3282,3171,-371,-97,34,1,7,11
1.72313E+12,-7116,-3298,3188,-351,-92,64,1,7,11
1.72313E+12,-7123,-3300,3185,-325,-92,70,1,7,11
1.72313E+12,-7131,-3301,3195,-302,-96,58,1,7,11
1.72313E+12,-7136,-3301,2952,-285,-102,41,1,7,11
1.72313E+12,-7133,-3293,2960,-262,-121,32,1,7,11
1.72313E+12,-7123,-3286,2955,19,110,5,1,7,11
1.72313E+12,-7107,-3280,2957,33,99,-257,1,7,11
1.72313E+12,-7076,-3279,3199,32,91,0,1,7,11
1.72313E+12,-7070,-3275,3182,23,101,-267,1,7,11
1.72313E+12,-7080,-3283,2945,5,113,-275,1,7,11
1.72313E+12,-7098,-3276,2963,-265,124,-279,1,7,11
1.72313E+12,-7101,-3273,2967,-278,122,-272,1,7,11
1.72313E+12,-7105,-3271,2966,-288,122,-270,1,7,11
1.72313E+12,-7102,-3267,2960,-303,121,-275,1,7,11
1.72313E+12,-7094,-3271,2964,-315,118,-278,1,7,11
1.72313E+12,-7080,-3290,2964,-326,106,-279,1,7,11
1.72313E+12,-7063,-3299,2964,-329,92,-289,1,7,11
1.72313E+12,-7056,-3295,2962,-325,90,-309,1,7,11
1.72313E+12,-7062,-3303,2964,-335,90,-320,1,7,11
1.72313E+12,-7062,-3303,2965,-333,89,-324,1,7,11
1.72313E+12,-7070,-3303,2973,-330,96,-323,1,7,11
1.72313E+12,-7068,-3300,2969,-324,111,-312,1,7,11
1.72313E+12,-7052,-3302,2958,-319,127,-292,1,7,11
1.72313E+12,-7050,-3309,2964,-334,-116,-295,1,7,11
1.72313E+12,-7064,-3324,2969,-342,-108,-303,1,7,11
1.72313E+12,-7078,-3590,2985,-334,-107,-299,1,7,11
1.72313E+12,-7070,-3602,2980,-318,-116,-290,1,7,11
1.72313E+12,-7059,-3594,2975,-300,-124,-291,1,7,11
1.72313E+12,-7065,-3586,2972,-296,127,-293,1,7,11
1.72313E+12,-7075,-3591,2970,-291,-128,-295,1,7,11
1.72313E+12,-7089,-3592,2971,-286,-125,-296,1,7,11
1.72313E+12,-7086,-3590,2968,-288,-125,-289,1,7,11
1.72313E+12,-7082,-3593,2973,-295,127,-288,1,7,11
1.72313E+12,-7085,-3600,2978,-301,124,-298,1,7,11
1.72313E+12,-7082,-3605,2986,-304,119,-312,1,7,11
1.72313E+12,-7073,-3617,2993,-310,101,-340,1,7,11
1.72313E+12,-7069,-3612,2988,-305,95,-369,1,7,11
1.72313E+12,-7062,-3617,2989,-313,89,-142,1,7,11
1.72313E+12,-7061,-3617,2990,-317,84,-169,1,7,11
1.72313E+12,-7057,-3614,2995,-332,73,-187,1,7,11
1.72313E+12,-7049,-3619,2994,-345,70,-204,1,7,11
1.72313E+12,-7061,-3617,3003,-358,76,-224,1,7,11
1.72313E+12,-7061,-3617,2999,-367,75,-227,1,7,11
1.72313E+12,-7067,-3615,3003,-369,74,-224,1,7,11
1.72313E+12,-7072,-3614,2996,-377,76,-213,1,7,11
1.72313E+12,-7066,-3622,2991,-135,82,-194,1,7,11
1.72313E+12,-7059,-3634,2994,-147,86,-179,1,7,11
1.72313E+12,-7055,-3650,3003,-152,87,-174,1,7,11
1.72313E+12,-7041,-3671,3009,-145,88,-170,1,7,11
1.72313E+12,-7286,-3684,3012,-135,87,-173,1,7,11
1.72313E+12,-7280,-3692,3008,-380,91,-180,1,7,11
1.72313E+12,-7283,-3691,3015,-366,100,-179,1,7,11
1.72313E+12,-7280,-3693,3017,-361,115,-164,1,7,11
1.72313E+12,-7270,-3699,3008,-360,-118,-143,1,7,11
1.72313E+12,-7257,-3466,3007,-370,-93,-378,1,7,11
1.72313E+12,-7247,-3496,3016,-383,-75,-372,1,7,11
1.72313E+12,-7242,-3512,3016,-138,-65,-375,1,7,11
1.72313E+12,-7227,-3532,3017,-141,-69,-382,1,7,11
1.72313E+12,-7213,-3534,3003,-140,-83,-144,1,7,11
1.72313E+12,-7203,-3543,2998,-144,-97,-166,1,7,11
1.72313E+12,-7209,-3562,2999,-158,-103,-178,1,7,11
1.72313E+12,-7224,-3571,3007,-161,-98,-178,1,7,11
1.72313E+12,-7222,-3574,2994,-132,-94,-140,1,7,11
1.72313E+12,-7213,-3578,2978,-372,-80,-373,1,7,11
1.72313E+12,-7205,-3581,2970,-355,-64,-362,1,7,11
1.72313E+12,-7205,-3582,2960,-347,-50,-361,1,7,11
1.72313E+12,-7207,-3849,2970,-345,-46,-365,1,7,11
1.72313E+12,-7205,-3859,2968,-342,-53,-374,1,7,11
1.72313E+12,-7204,-3864,2961,-334,-66,-382,1,7,11
1.72313E+12,-7211,-3876,2964,-336,-77,-132,1,7,11
1.72313E+12,-7210,-3882,2968,-335,-90,-383,1,7,11
1.72313E+12,-7205,-3893,2973,-332,-102,-371,1,7,11
1.72313E+12,-7198,-3903,2967,-333,-111,-363,1,7,11
1.72313E+12,-7194,-3901,2973,-332,-117,-358,1,7,11
1.72313E+12,-7180,-3894,2964,-326,122,-351,1,7,11
1.72313E+12,-6910,-3903,2959,-341,110,-355,1,7,11
1.72313E+12,-6903,-3918,2964,-354,104,-363,1,7,11
1.72313E+12,-6911,-3935,2975,-354,95,-368,1,7,11
1.72313E+12,-7172,-3944,2974,-342,91,-360,1,7,11
1.72313E+12,-7173,-3946,2971,-327,93,-344,1,7,11
1.72313E+12,-7176,-3945,2974,-314,99,-323,1,7,11
1.72313E+12,-7183,-3944,2975,-294,107,-303,1,7,11
1.72313E+12,-7183,-3941,2970,-277,110,-288,1,7,11
1.72313E+12,-7190,-3938,2974,-267,101,-276,1,7,11
1.72313E+12,-7189,-3940,2977,-262,82,-277,1,7,11
1.72313E+12,-7175,-3940,2979,5,60,-287,1,7,11
1.72313E+12,-6910,-3936,2972,12,47,-309,1,7,11
1.72313E+12,-6900,-3931,2970,15,44,-323,1,7,11
1.72313E+12,-6897,-3930,2980,14,48,-329,1,7,11
1.72313E+12,-6895,-3940,2990,18,55,-325,1,7,11
1.72313E+12,-6888,-3954,3003,31,62,-314,1,7,11
1.72313E+12,-6883,-3952,3018,52,68,-302,1,7,11
1.72313E+12,-6871,-3954,3024,79,72,-290,1,7,11
1.72313E+12,-6852,-3951,3032,103,75,-280,1,7,11
1.72313E+12,-6841,-3943,3028,120,74,-274,1,7,11
1.72313E+12,-6842,-3928,3019,123,79,-276,1,7,11
1.72313E+12,-6844,-3918,3024,112,86,-264,1,7,11
1.72313E+12,-6849,-3918,3028,96,89,14,1,7,11
1.72313E+12,-6847,-3927,3040,81,90,39,1,7,11
1.72313E+12,-6843,-3940,3044,76,92,59,1,7,11
1.72313E+12,-6836,-3947,3057,73,103,61,1,7,11
1.72313E+12,-6834,-3942,3057,71,117,60,1,7,11
1.72313E+12,-6841,-3943,3069,67,-119,67,1,7,11
1.72313E+12,-6846,-3948,3338,67,-101,80,1,7,11
1.72313E+12,-6861,-3955,3331,75,-90,109,1,7,11
1.72313E+12,-6861,-3956,3348,77,-91,125,1,7,11
1.72313E+12,-6864,-3965,3351,74,-98,127,1,7,11
1.72313E+12,-6867,-3960,3351,71,-104,112,1,7,11
1.72313E+12,-6870,-3960,3357,64,-110,103,1,7,11
1.72313E+12,-6869,-3961,3363,60,-115,101,1,7,11
1.72313E+12,-6878,-3958,3366,54,-116,111,1,7,11
1.72313E+12,-6873,-3960,3369,44,-121,-114,1,7,11
1.72313E+12,-6867,-3965,3380,50,125,-85,1,7,11
1.72313E+12,-6862,-3951,3382,70,110,-56,1,7,11
1.72313E+12,-6849,-3934,3366,80,104,-30,1,7,11
1.72313E+12,-6845,-3921,3366,84,118,-7,1,7,11
1.72313E+12,-6846,-3906,3359,86,-121,272,1,7,11
1.72313E+12,-6852,-3894,3361,88,-97,299,1,7,11
1.72313E+12,-6866,-3888,3380,96,-72,332,1,7,11
1.72313E+12,-6869,-3887,3369,108,-62,367,1,7,11
1.72313E+12,-6877,-3873,3364,121,-63,131,1,7,11
1.72313E+12,-6892,-3854,3360,115,-67,135,1,7,11
1.72313E+12,-7171,-3582,3361,101,-71,136,1,7,11
1.72313E+12,-7194,-3560,3360,91,-75,146,1,7,11
1.72313E+12,-7205,-3541,3362,87,-81,160,1,7,11
1.72313E+12,-7206,-3515,3359,83,-88,168,1,7,11
1.72313E+12,-7203,-3513,3363,69,-99,155,1,7,11
1.72313E+12,-7197,-3509,3364,60,-115,375,1,7,11
1.72313E+12,-7202,-3507,3371,47,-126,321,1,7,11
1.72313E+12,-7210,-3507,3389,44,124,275,1,7,11
1.72313E+12,-7204,-3496,3400,54,120,-19,1,7,11
1.72313E+12,-7203,-3485,3389,65,124,-57,1,7,11
1.72313E+12,-7213,-3467,3384,67,-121,-88,1,7,11
1.72313E+12,-7218,-3459,3383,65,-105,-107,1,7,11
1.72313E+12,-7218,-3706,3384,63,-90,-121,1,7,11
1.72313E+12,-7218,-3703,3396,60,-80,122,1,7,11
1.72313E+12,-7226,-3703,3401,58,-75,112,1,7,11
1.72313E+12,-7229,-3708,3410,54,-77,108,1,7,11
1.72313E+12,-7230,-3710,3408,52,-81,100,1,7,11
1.72313E+12,-7232,-3709,3411,50,-83,92,1,7,11
1.72313E+12,-7231,-3708,3416,51,-85,88,1,7,11
1.72313E+12,-7226,-3700,3421,51,-93,92,1,7,11
1.72313E+12,-7208,-3696,3414,48,-104,89,1,7,11
1.72313E+12,-7202,-3691,3406,34,-105,72,1,7,11
1.72313E+12,-7204,-3691,3407,15,-104,55,1,7,11
1.72313E+12,-7208,-3694,3412,1,-101,40,1,7,11
1.72313E+12,-7212,-3705,3427,-266,-98,34,1,7,11
1.72313E+12,-7213,-3461,3428,-265,-102,35,1,7,11
1.72313E+12,-7214,-3465,3432,-265,-104,39,1,7,11
1.72313E+12,-7212,-3467,3434,-268,-106,51,1,7,11
1.72313E+12,-7206,-3467,3419,-269,-115,61,1,7,11
1.72313E+12,-7201,-3466,3411,-276,-119,69,1,7,11
1.72313E+12,-7204,-3462,3411,-289,-117,77,1,7,11
1.72313E+12,-7202,-3471,3407,-306,-111,87,1,7,11
1.72313E+12,-7198,-3475,3407,-310,-108,97,1,7,11
1.72313E+12,-7197,-3473,3409,-310,-104,100,1,7,11
1.72313E+12,-7198,-3476,3402,-306,-99,101,1,7,11
1.72313E+12,-7204,-3473,3397,-302,-94,101,1,7,11
1.72313E+12,-7201,-3472,3388,-304,-96,102,1,7,11
1.72313E+12,-7205,-3478,3394,-309,-93,106,1,7,11
1.72313E+12,-7207,-3480,3392,-313,-88,106,1,7,11
1.72313E+12,-7211,-3485,3417,-302,-79,104,1,7,11
1.72313E+12,-7212,-3483,3418,-284,-82,107,1,7,11
1.72313E+12,-7210,-3476,3414,-263,-87,105,1,7,11
1.72313E+12,-7213,-3461,3407,4,-96,107,1,7,11
1.72313E+12,-7216,-3709,3406,9,-102,113,1,7,11
1.72313E+12,-7225,-3707,3414,10,-104,118,1,7,11
1.72313E+12,-7224,-3704,3419,16,-106,-126,1,7,11
1.72313E+12,-7220,-3689,3408,21,-104,-114,1,7,11
1.72313E+12,-7209,-3675,3395,17,-90,-111,1,7,11
1.72313E+12,-7213,-3674,3402,8,-71,-116,1,7,11
1.72313E+12,-7226,-3677,3412,7,-50,-115,1,7,11
1.72313E+12,-7234,-3681,3422,20,-49,-115,1,7,11
1.72313E+12,-7239,-3676,3435,37,-60,-117,1,7,11
1.72313E+12,-7232,-3676,3438,49,-73,-117,1,7,11
1.72313E+12,-7242,-3654,3431,63,-77,-118,1,7,11
1.72313E+12,-7234,-3643,3416,56,-81,-107,1,7,11
1.72313E+12,-7234,-3631,3420,40,-77,-104,1,7,11
1.72313E+12,-7243,-3629,3424,22,-68,-111,1,7,11
1.72313E+12,-7248,-3617,3423,13,-64,-117,1,7,11
1.72313E+12,-7248,-3631,3428,-257,-66,-124,1,7,11
1.72313E+12,-7239,-3634,3417,-263,-70,116,1,7,11
1.72313E+12,-7242,-3633,3420,-267,-65,91,1,7,11
1.72313E+12,-7253,-3634,3417,-264,-65,74,1,7,11
1.72313E+12,-7254,-3638,3423,7,-68,70,1,7,11
1.72313E+12,-7247,-3634,3432,22,-68,68,1,7,11
1.72313E+12,-7248,-3640,3438,30,-63,67,1,7,11
1.72313E+12,-7244,-3640,3428,32,-61,61,1,7,11
1.72313E+12,-7242,-3638,3422,25,-56,39,1,7,11
1.72313E+12,-7243,-3628,3418,13,-54,10,1,7,11
1.72313E+12,-7246,-3636,3430,-261,-52,-275,1,7,11
1.72313E+12,-7238,-3641,3436,-275,-56,-299,1,7,11
1.72313E+12,-7233,-3636,3441,-289,-55,-325,1,7,11
1.72313E+12,-7235,-3649,3446,-308,-53,-339,1,7,11
1.72313E+12,-7246,-3651,3438,-316,-45,-349,1,7,11
1.72313E+12,-7237,-3657,3435,-335,-44,-338,1,7,11
1.72313E+12,-7238,-3660,3435,-353,-37,-329,1,7,11
1.72313E+12,-7225,-3671,3426,-367,-40,-308,1,7,11
1.72313E+12,-7212,-3676,3411,-378,-36,-291,1,7,11
1.72313E+12,-7198,-3686,3410,-132,-29,-271,1,7,11
1.72313E+12,-7199,-3694,3401,-134,-14,2,1,7,11
1.72313E+12,-7203,-3697,3394,-378,-3,21,1,7,11
1.72313E+12,-7206,-3698,3373,-367,265,40,1,7,11
1.72313E+12,-7224,-3698,3373,-365,279,58,1,7,11
1.72313E+12,-7250,-3711,3384,-362,283,81,1,7,11
1.72313E+12,-7257,-3710,3381,-350,280,107,1,7,11
1.72313E+12,-7261,-3709,3378,-337,272,-123,1,7,11
1.72313E+12,-7253,-3700,3371,-321,265,-99,1,7,11
1.72313E+12,-7247,-3687,3364,-302,262,-78,1,7,11
1.72313E+12,-7248,-3671,3356,-289,267,-52,1,7,11
1.72313E+12,-7255,-3665,3353,-281,282,-17,1,7,11
1.72313E+12,-7258,-3666,3339,-276,298,283,1,7,11
1.72313E+12,-7246,-3671,3328,-273,310,317,1,7,11
1.72313E+12,-7244,-3679,3329,-275,323,326,1,7,11
1.72313E+12,-7263,-3680,3331,-276,327,315,1,7,11
1.72313E+12,-7287,-3676,3330,-274,314,300,1,7,11
1.72313E+12,-7289,-3664,3067,-269,284,282,1,7,11
1.72313E+12,-7291,-3648,3052,-270,-9,261,1,7,11
1.72313E+12,-7296,-3639,3048,-285,-47,-9,1,7,11
1.72313E+12,-7042,-3640,3049,-305,-78,-15,1,7,11
1.72313E+12,-7054,-3650,3056,-317,-95,-11,1,7,11
1.72313E+12,-7052,-3651,3044,-302,-110,259,1,7,11
1.72313E+12,-7043,-3642,3035,-287,-115,266,1,7,11
1.72313E+12,-7051,-3619,3037,-277,-103,267,1,7,11
1.72313E+12,-7058,-3609,3045,-263,-92,270,1,7,11
1.72313E+12,-7060,-3605,3042,17,-76,262,1,7,11
1.72313E+12,-7067,-3607,3055,48,-67,-5,1,7,11
1.72313E+12,-7069,-3595,3053,83,-66,-26,1,7,11
1.72313E+12,-7077,-3318,3056,100,-71,-47,1,7,11
1.72313E+12,-7073,-3314,3053,106,-95,-61,1,7,11
1.72313E+12,-7074,-3314,3071,99,-114,-67,1,7,11
1.72313E+12,-7065,-3308,3067,102,123,-73,1,7,11
1.72313E+12,-7063,-3294,3328,103,110,-74,1,7,11
1.72313E+12,-7048,-3278,3067,106,98,-58,1,7,11
1.72313E+12,-7053,-3282,3338,99,96,-46,1,7,11
1.72313E+12,-7052,-3282,3356,99,93,-20,1,7,11
1.72313E+12,-7053,-3284,3379,112,93,259,1,7,11
1.72313E+12,-7061,-3264,3390,-110,91,286,1,7,11
1.72313E+12,-7062,-3234,3393,-78,90,320,1,7,11
1.72313E+12,-7069,-3204,3379,-60,107,354,1,7,11
1.72313E+12,-7082,-3443,3379,-58,127,140,1,7,11
1.72313E+12,-7108,-3437,3396,-58,-106,196,1,7,11
1.72313E+12,-7136,-3434,3424,-38,-88,522,1,7,11
1.72313E+12,-7163,-3422,3433,-11,-88,606,1,7,11
1.72313E+12,-7425,-3415,3442,277,-107,448,1,7,11
1.72313E+12,-7425,-3405,3450,310,116,794,1,7,11
1.72313E+12,-7164,-3392,3438,350,74,864,1,7,11
1.72313E+12,-7161,-3362,3438,129,37,651,1,7,11
1.72313E+12,-7146,-3337,3416,139,-261,674,1,7,11
1.72313E+12,-7114,-3069,3409,132,-274,654,1,7,11
1.72313E+12,-7087,-3060,3408,135,1,839,1,7,11
1.72313E+12,-7076,-3029,3406,143,39,485,1,7,11
1.72313E+12,-7058,-3016,3401,148,100,629,1,7,11
1.72313E+12,-7061,-2990,3406,180,-63,228,1,7,11
1.72313E+12,-7096,-3193,3418,210,296,322,1,7,11
1.72313E+12,-7143,-3143,3445,205,368,-43,1,7,11
1.72313E+12,-7432,-3119,3206,153,374,-88,1,7,11
1.72313E+12,-7441,-3126,3221,328,310,-100,1,7,11
1.72313E+12,-7472,-3133,3243,-3,-43,117,1,7,11
1.72313E+12,-7509,-3104,3247,-45,109,76,1,7,11
1.72313E+12,-7506,-3081,3231,-75,45,50,1,7,11
1.72313E+12,-7484,-2802,3228,-98,32,27,1,7,11
1.72313E+12,-7458,-2807,3241,-128,36,10,1,7,11
1.72313E+12,-7441,-2812,3260,111,38,-279,1,7,11
1.72313E+12,-7447,-3073,3291,102,34,-325,1,7,11
1.72313E+12,-7467,-2805,3305,103,23,-375,1,7,11
1.72313E+12,-7488,-2783,3319,100,9,-149,1,7,11
1.72313E+12,-7475,-2783,3321,89,-271,-158,1,7,11
1.72313E+12,-7464,-2777,3313,78,-294,-173,1,7,11
1.72313E+12,-7455,-2773,3302,50,-323,-186,1,7,11
1.72313E+12,-7459,-2779,3319,-259,-337,-198,1,7,11
1.72313E+12,-7458,-2801,3600,-315,-343,-202,1,7,11
1.72313E+12,-7453,-3073,3603,-351,-346,-203,1,7,11
1.72313E+12,-7443,-3099,3612,-377,-340,-213,1,7,11
1.72313E+12,-7437,-3116,3608,-142,-339,-255,1,7,11
1.72313E+12,-7438,-3136,3618,-165,-348,-555,1,7,11
1.72313E+12,-7438,-3151,3624,-196,-134,-612,1,7,11
1.72313E+12,-7434,-3159,3627,-224,-172,-410,1,7,11
1.72313E+12,-7158,-3172,3621,-252,-208,-447,1,7,11
1.72313E+12,-7124,-3193,3609,-535,-237,-462,1,7,11
1.72313E+12,-7087,-2970,3605,-565,-233,-460,1,7,11
1.72313E+12,-7049,-3008,3612,-587,-206,-440,1,7,11
1.72313E+12,-7269,-3048,3613,-587,-165,-417,1,7,11
1.72313E+12,-7246,-3343,3622,-573,-360,-398,1,7,11
1.72313E+12,-7215,-3377,3619,-557,-300,-631,1,7,11
1.72313E+12,-7199,-3410,3628,-540,17,-607,1,7,11
1.72313E+12,-7185,-3453,3649,-521,74,-571,1,7,11
1.72313E+12,-6903,-3248,3665,-228,107,-529,1,7,11
1.72313E+12,-7175,-3243,3649,-168,-123,-248,1,7,11
1.72313E+12,-7215,-3224,3632,-137,-97,-202,1,7,11
1.72313E+12,-7237,-3213,3606,-373,-63,-374,1,7,11
1.72313E+12,-7248,-3226,3607,-360,-15,-303,1,7,11
1.72313E+12,-7263,-3235,3620,-337,281,17,1,7,11
1.72313E+12,-7282,-3245,3637,-302,298,81,1,7,11
1.72313E+12,-7281,-3243,3640,6,304,-117,1,7,11
1.72313E+12,-7249,-3252,3625,42,316,-71,1,7,11
1.72313E+12,-7244,-3252,3623,74,348,-51,1,7,11
1.72313E+12,-7257,-3253,3627,110,369,-30,1,7,11
1.72313E+12,-7269,-3243,3625,-107,135,257,1,7,11
1.72313E+12,-7048,-3227,3633,-76,156,291,1,7,11
1.72313E+12,-7042,-3223,3627,-47,144,337,1,7,11
1.72313E+12,-7272,-3217,3605,-23,376,348,1,7,11
1.72313E+12,-7272,-3206,3598,-23,353,316,1,7,11
1.72313E+12,-7287,-3447,3597,-27,321,272,1,7,11
1.72313E+12,-7290,-3427,3601,-33,281,-17,1,7,11
1.72313E+12,-7274,-3402,3597,-34,-12,-33,1,7,11
1.72313E+12,-7270,-3385,3595,-36,-30,-35,1,7,11
1.72313E+12,-7251,-3380,3326,-24,-33,-18,1,7,11
1.72313E+12,-7248,-3372,3322,256,-6,-1,1,7,11
1.72313E+12,-7260,-3358,3586,288,289,277,1,7,11
1.72313E+12,-7277,-3349,3603,327,322,299,1,7,11
1.72313E+12,-7291,-3071,3602,373,351,312,1,7,11
1.72313E+12,-7045,-3052,3596,149,380,314,1,7,11
1.72313E+12,-7058,-3033,3611,165,146,309,1,7,11
1.72313E+12,-7064,-3022,3606,187,157,304,1,7,11
1.72313E+12,-7062,-3016,3610,198,165,287,1,7,11
1.72313E+12,-7066,-3007,3616,212,176,258,1,7,11
1.72313E+12,-7278,-3032,3624,217,170,-32,1,7,11
1.72313E+12,-7246,-3047,3605,244,175,-111,1,7,11
1.72313E+12,-7276,-3021,3601,522,212,50,1,7,11
1.72313E+12,-7051,-2985,3567,555,243,27,1,7,11
1.72313E+12,-7058,-3188,3284,591,547,74,1,7,11
1.72313E+12,-7109,-3142,3284,600,624,-93,1,7,11
1.72313E+12,-7119,-3130,3287,580,403,-3,1,7,11
1.72313E+12,-7165,-3102,3294,542,638,298,1,7,11
1.72313E+12,-7474,-2808,3297,220,567,315,1,7,11
1.72313E+12,-7517,-2766,3300,149,220,341,1,7,11
1.72313E+12,-7533,-2742,3303,318,135,133,1,7,11
1.72313E+12,-7544,-2754,3311,-21,327,199,1,7,11
1.72313E+12,-7502,-2768,3317,-89,277,521,1,7,11
1.72313E+12,-7452,-2789,3326,107,-6,530,1,7,11
1.72313E+12,-7164,-2780,3319,65,-27,253,1,7,11
1.72313E+12,-7157,-2788,3310,46,-21,202,1,7,11
1.72313E+12,-7161,-2784,3323,38,265,348,1,7,11
1.72313E+12,-7449,-2748,3320,37,288,257,1,7,11
1.72313E+12,-7503,-2723,3586,13,275,-68,1,7,11
1.72313E+12,-7544,-2705,3592,-265,257,-104,1,7,11
1.72313E+12,-7300,-2696,3326,-288,-20,-119,1,7,11
1.72313E+12,-7540,-2704,3316,-328,-56,123,1,7,11
1.72313E+12,-7528,-2696,3294,-351,-81,87,1,7,11
1.72313E+12,-7524,-2697,3294,-131,-91,55,1,7,11
1.72313E+12,-7504,-2702,3301,-168,-114,40,1,7,11
1.72313E+12,-7494,-2712,3286,-194,100,36,1,7,11
1.72313E+12,-7532,-2924,3304,-204,63,53,1,7,11
1.72313E+12,-7533,-2900,3283,-199,24,101,1,7,11
1.72313E+12,-7496,-2918,3263,-230,16,111,1,7,11
1.72313E+12,-7520,-2695,3267,-536,10,34,1,7,11
1.72313E+12,-7524,-2714,3274,-590,-312,-288,1,7,11
1.72313E+12,-7523,-2935,3289,-391,-372,-371,1,7,11
1.72313E+12,-7545,-2940,3311,-440,-165,-185,1,7,11
1.72313E+12,-7533,-2708,3316,-452,-214,-224,1,7,11
1.72313E+12,-7519,-2865,3306,-457,-222,-253,1,7,11
1.72313E+12,-7304,-2689,3324,-802,-188,-210,1,7,11
1.72313E+12,-7465,-2720,3303,-512,-169,-185,1,7,11
1.72313E+12,-7446,-2753,3300,-789,-341,-568,1,7,11
1.72313E+12,-7520,-2761,3585,-796,-286,-443,1,7,11
1.72313E+12,-7542,-2772,3587,-793,-293,-784,1,7,11
1.72313E+12,-7538,-2772,3322,-791,-283,-834,1,7,11
1.72313E+12,-7521,-2803,3320,-812,-292,-853,1,7,11
1.72313E+12,-7495,-3095,3303,-844,-312,-880,1,7,11
1.72313E+12,-7478,-3155,3315,-642,-345,-680,1,7,11
1.72313E+12,-7458,-2966,3606,-693,-162,-759,1,7,11
1.72313E+12,-7474,-2983,3614,-721,-256,-1118,1,7,11
1.72313E+12,-7465,-2990,3624,-746,-624,-921,1,7,11
1.72313E+12,-7136,-3036,3616,-1025,-464,-936,1,7,11
1.72313E+12,-7274,-3407,3631,-1052,-791,-999,1,7,11
1.72313E+12,-7203,-3219,3631,-1091,-820,-1313,1,7,11
1.72313E+12,-7177,-3295,3661,-1122,-818,-1404,1,7,11
1.72313E+12,-7186,-3619,3708,-1104,-796,-1229,1,7,11
1.72313E+12,-6886,-3662,3464,-1047,-506,-1264,1,7,11
1.72313E+12,-6795,-3464,3689,-743,-449,-1544,1,7,11
1.72313E+12,-6954,-3513,3643,-712,-615,-1590,1,7,11
1.72313E+12,-6919,-3547,3634,-712,-231,-1410,1,7,11
1.72313E+12,-6640,-3862,3633,-729,-354,-1448,1,7,11
1.72313E+12,-6608,-3925,3632,-714,28,-1466,1,7,11
1.72313E+12,-6583,-3732,3612,-690,-92,-1476,1,7,11
1.72313E+12,-6560,-3793,3617,-655,296,-1459,1,7,11
1.72313E+12,-6553,-4106,3600,-870,168,-1424,1,7,11
1.72313E+12,-6571,-4140,3319,-802,548,-1601,1,7,11
1.72313E+12,-6580,-4169,3285,-491,406,-1193,1,7,11
1.72313E+12,-6593,-4212,3265,-442,772,-997,1,7,11
1.72313E+12,-6633,-3979,3250,-388,865,-1033,1,7,11
1.72313E+12,-6931,-4048,3247,-596,643,-790,1,7,11
1.72313E+12,-6995,-4081,3224,-519,812,-250,1,7,11
1.72313E+12,-6816,-4096,3223,-231,421,-129,1,7,11
1.72313E+12,-6877,-4082,3209,-194,232,-276,1,7,11
1.72313E+12,-7170,-4066,3439,-165,280,84,1,7,11
1.72313E+12,-6908,-4040,3420,-138,98,-56,1,7,11
1.72313E+12,-6877,-4019,3406,-378,-293,306,1,7,11
1.72313E+12,-6839,-3998,3392,-376,-144,131,1,7,11
1.72313E+12,-6791,-3997,3392,-135,-222,166,1,7,11
1.72313E+12,-7005,-3990,3386,-160,-536,146,1,7,11
1.72313E+12,-6980,-3983,3408,-191,-558,336,1,7,11
1.72313E+12,-6954,-3985,3442,-213,-558,264,1,7,11
1.72313E+12,-6920,-3985,3208,-216,-540,-57,1,7,11
1.72313E+12,-6621,-3994,3239,-202,-516,-127,1,7,11
1.72313E+12,-6559,-3991,3239,-178,-252,49,1,7,11
1.72313E+12,-6783,-3983,3228,-170,-217,-328,1,7,11
1.72313E+12,-6533,-4217,3244,-180,-172,-196,1,7,11
1.72313E+12,-6537,-4206,3267,-188,-132,-542,1,7,11
1.72313E+12,-6555,-4206,3281,-179,-349,-606,1,7,11
1.72313E+12,-6592,-4199,3287,-176,-303,-389,1,7,11
1.72313E+12,-6605,-4201,3295,-169,-268,-393,1,7,11
1.72313E+12,-6595,-4203,3281,-173,10,-397,1,7,11
1.72313E+12,-6599,-4210,3277,-183,42,-410,1,7,11
1.72313E+12,-6604,-4224,3287,-191,68,-411,1,7,11
1.72313E+12,-6612,-3992,3288,-193,90,-403,1,7,11
1.72313E+12,-6633,-4015,3313,-192,111,-385,1,7,11
1.72313E+12,-6914,-4026,3321,-183,124,-602,1,7,11
1.72313E+12,-6647,-4034,3312,-167,-122,-541,1,7,11
1.72313E+12,-6627,-4057,3316,-157,-99,-230,1,7,11
1.72313E+12,-6619,-4078,3587,-147,-81,-184,1,7,11
1.72313E+12,-6607,-4353,3587,-131,-75,-146,1,7,11
1.72313E+12,-6591,-4366,3591,-370,-76,-373,1,7,11
1.72313E+12,-6577,-4365,3322,-357,-80,-347,1,7,11
1.72313E+12,-6559,-4364,3305,-340,-70,-316,1,7,11
1.72313E+12,-6540,-4370,3306,-337,-45,-276,1,7,11
1.72313E+12,-6531,-4378,3306,-337,-18,29,1,7,11
1.72313E+12,-6566,-4369,3288,-321,285,78,1,7,11
1.72313E+12,-6639,-4075,3244,-294,364,-83,1,7,11
1.72313E+12,-7019,-3990,3422,2,230,322,1,7,11
1.72313E+12,-7209,-3836,3331,51,424,573,1,7,11
1.72313E+12,-7096,-3949,3041,64,673,730,1,7,11
1.72313E+12,-7109,-3917,3356,64,920,1278,1,7,11
1.72313E+12,-7248,-3748,3452,-119,1374,2097,1,7,11
1.72313E+12,-6948,-4213,3253,-18,1174,2282,1,7,11
1.72313E+12,-6743,-3997,3451,155,1195,2618,1,7,11
1.72313E+12,-6742,-4197,3393,519,1241,2193,1,7,11
1.72313E+12,-6559,-4136,3364,599,1536,1964,1,7,11
1.72313E+12,-6632,-4120,3390,628,1278,1722,1,7,11
1.72313E+12,-6616,-4152,3397,409,1152,1470,1,7,11
1.72313E+12,-6602,-4121,3054,426,963,1359,1,7,11
1.72313E+12,-6990,-3786,2996,627,1045,658,1,7,11
1.72313E+12,-6895,-3934,2959,533,854,555,1,7,11
1.72313E+12,-7274,-3854,2965,169,409,310,1,7,11
1.72313E+12,-7074,-3545,2952,349,138,-106,1,7,11
1.72313E+12,-7101,-3484,3178,267,282,126,1,7,11
1.72313E+12,-7137,-3687,3164,-28,-33,-85,1,7,11
1.72313E+12,-7142,-3668,3153,-44,-68,270,1,7,11
1.72313E+12,-7107,-3682,3149,-52,-84,352,1,7,11
1.72313E+12,-7057,-3460,3144,-53,-91,367,1,7,11
1.72313E+12,-7251,-3527,3151,-89,-122,257,1,7,11
1.72313E+12,-7248,-3558,3163,-114,89,-261,1,7,11
1.72313E+12,-7055,-3543,3165,113,30,-578,1,7,11
1.72313E+12,-7086,-3549,3188,62,-298,-840,1,7,11
1.72313E+12,-7066,-3574,2949,17,-383,-1047,1,7,11
1.72313E+12,-7283,-3850,2959,-266,-207,-957,1,7,11
1.72313E+12,-7227,-3854,2976,-290,-526,-1327,1,7,11
1.72313E+12,-6902,-3899,3000,-322,-580,-1380,1,7,11
1.72313E+12,-6842,-3912,3003,-317,-620,-1407,1,7,11
1.72313E+12,-6787,-3946,3017,-346,-634,-1392,1,7,11
1.72313E+12,-6970,-3730,3056,-360,-635,-1350,1,7,11
1.72313E+12,-6916,-3767,3068,-377,-622,-1312,1,7,11
1.72313E+12,-6639,-3790,3338,-377,-599,-1001,1,7,11
1.72313E+12,-6643,-3810,3375,-376,-564,-922,1,7,11
1.72313E+12,-6916,-4117,3409,-378,-544,-1071,1,7,11
1.72313E+12,-6938,-4116,3414,-361,-573,-704,1,7,11
1.72313E+12,-7017,-4108,3421,-334,-619,-888,1,7,11
1.72313E+12,-7031,-4112,3417,-327,-416,-795,1,7,11
1.72313E+12,-7020,-4127,3417,-329,-487,-399,1,7,11
1.72313E+12,-6995,-4167,3449,-357,-782,-605,1,7,11
1.72313E+12,-6952,-4200,3232,-362,-837,-576,1,7,11
1.72313E+12,-6916,-3977,3262,-352,-884,-580,1,7,11
1.72313E+12,-6924,-3982,3284,-328,-644,-607,1,7,11
1.72313E+12,-6656,-3996,3312,-321,-647,-615,1,7,11
1.72313E+12,-6620,-4047,3621,-321,-894,-387,1,7,11
1.72313E+12,-6603,-4055,3647,-283,-641,-477,1,7,11
1.72313E+12,-6585,-4032,3655,-266,-647,-675,1,7,11
1.72313E+12,-6571,-4014,3660,-267,-642,-1068,1,7,11
1.72313E+12,-6552,-4007,3661,-282,-895,-928,1,7,11
1.72313E+12,-6532,-3993,3647,-315,-890,-1019,1,7,11
1.72313E+12,-6780,-4003,3649,-382,-879,-1347,1,7,11
1.72313E+12,-6594,-4221,3663,-196,-512,-1354,1,7,11
1.72313E+12,-6574,-4038,3470,-231,-489,-914,1,7,11
1.72313E+12,-6689,-4379,3682,-245,-472,-1078,1,7,11
1.72313E+12,-6730,-4419,3472,-255,-636,-1054,1,7,11
1.72313E+12,-6711,-4429,3483,-234,-625,-694,1,7,11
1.72313E+12,-6667,-4401,3460,-228,-584,-851,1,7,11
1.72313E+12,-6666,-4438,3489,-559,-523,-469,1,7,11
1.72313E+12,-6677,-4249,3555,-577,-246,-574,1,7,11
1.72313E+12,-6666,-4307,3843,-547,-571,-196,1,7,11
1.72313E+12,-6334,-4344,3576,-248,-426,-368,1,7,11
1.72313E+12,-6306,-4345,3554,-180,-470,-358,1,7,11
1.72313E+12,-6301,-4250,3573,-156,-463,-348,1,7,11
1.72313E+12,-6359,-4283,3865,-144,-398,7,1,7,11
1.72313E+12,-6322,-4272,3852,-313,-570,-121,1,7,11
1.72313E+12,-6278,-4281,3854,-257,-176,-13,1,7,11
1.72313E+12,-6501,-4334,3862,22,-323,335,1,7,11
1.72313E+12,-6462,-4655,3879,48,12,372,1,7,11
1.72313E+12,-6438,-4700,3898,114,85,344,1,7,11
1.72313E+12,-6407,-4655,3905,-52,119,280,1,7,11
1.72313E+12,-6460,-4625,3914,-10,-98,-55,1,7,11
1.72313E+12,-6508,-4351,3927,310,-82,-77,1,7,11
1.72313E+12,-6516,-4337,3722,337,-78,-85,1,7,11
1.72313E+12,-6276,-4329,3768,321,-118,-99,1,7,11
1.72313E+12,-6281,-4319,3765,304,39,-121,1,7,11
1.72313E+12,-6299,-4296,3722,301,-316,89,1,7,11
1.72313E+12,-6520,-4235,3716,268,-372,23,1,7,11
1.72313E+12,-6464,-4322,3946,-52,-352,-373,1,7,11
1.72313E+12,-6501,-4258,3949,-49,-295,-221,1,7,11
1.72313E+12,-6491,-4264,3945,-16,50,-254,1,7,11
1.72313E+12,-6489,-4258,3948,299,-59,-514,1,7,11
1.72313E+12,-6525,-4255,3732,353,342,-242,1,7,11
1.72313E+12,-6496,-4264,3719,132,184,-161,1,7,11
1.72313E+12,-6478,-4269,3745,150,560,-382,1,7,11
1.72313E+12,-6288,-4453,3815,138,594,-315,1,7,11
1.72313E+12,-6675,-4240,4140,301,535,-87,1,7,11
1.72313E+12,-6727,-4295,4163,149,157,181,1,7,11
1.72313E+12,-6334,-4320,3816,535,286,547,1,7,11
1.72313E+12,-6387,-4478,3812,561,-32,254,1,7,11
1.72313E+12,-6723,-4421,3821,570,42,526,1,7,11
1.72313E+12,-6720,-4417,3775,237,-195,570,1,7,11
1.72313E+12,-6682,-4407,3760,185,-411,574,1,7,11
1.72313E+12,-6324,-4086,3738,337,-820,243,1,7,11
1.72313E+12,-6356,-4052,3791,-41,-858,146,1,7,11
1.72313E+12,-6370,-3971,4114,120,-656,186,1,7,11
1.72313E+12,-6319,-3993,4141,57,-641,585,1,7,11
1.72313E+12,-6424,-4080,4142,96,-778,457,1,7,11
1.72313E+12,-6245,-4371,4160,-67,-562,456,1,7,11
1.72313E+12,-6079,-4375,4216,-1,-313,589,1,7,11
1.72313E+12,-6421,-4060,4012,360,104,596,1,7,11
1.72313E+12,-6499,-4018,4019,531,379,399,1,7,11
1.72313E+12,-6306,-4210,4009,589,185,392,1,7,11
1.72313E+12,-6398,-4200,4048,586,208,622,1,7,11
1.72313E+12,-6705,-4162,4046,631,167,622,1,7,11
1.72313E+12,-6717,-3835,4026,612,135,552,1,7,11
1.72313E+12,-6752,-3752,4027,255,362,181,1,7,11
1.72313E+12,-6758,-3909,4015,325,294,347,1,7,11
1.72313E+12,-6546,-3931,4014,55,-11,357,1,7,11
1.72313E+12,-6769,-3716,3987,-320,-44,356,1,7,11
1.72313E+12,-6365,-3745,4221,-165,-43,262,1,7,11
1.72313E+12,-6387,-3765,4001,-520,294,26,1,7,11
1.72313E+12,-6369,-3773,4007,-612,289,-336,1,7,11
1.72313E+12,-6327,-3789,4209,-398,314,-223,1,7,11
1.72313E+12,-6391,-4136,3988,-775,352,-606,1,7,11
1.72313E+12,-6736,-4139,4048,-445,302,-580,1,7,11
1.72313E+12,-6676,-4161,4010,-393,-45,-249,1,7,11
1.72313E+12,-6698,-4157,4010,-566,-71,-208,1,7,11
1.72313E+12,-6724,-4151,4001,-519,-102,-129,1,7,11
1.72313E+12,-6716,-4156,3985,-203,-123,-267,1,7,11
1.72313E+12,-6708,-4152,3981,-155,101,98,1,7,11
1.72313E+12,-6743,-4119,3981,-364,69,-25,1,7,11
1.72313E+12,-6755,-4105,4002,-346,22,147,1,7,11
1.72313E+12,-6743,-4122,4008,-316,-265,531,1,7,11
1.72313E+12,-6705,-4113,3972,6,25,575,1,7,11
1.72313E+12,-6746,-3829,3980,45,-119,568,1,7,11
1.72313E+12,-6742,-4101,3995,41,-86,617,1,7,11
1.72313E+12,-6694,-3839,4195,40,-110,635,1,7,11
1.72313E+12,-6679,-3758,4183,-291,-120,599,1,7,11
1.72313E+12,-6752,-3763,4170,-150,-124,617,1,7,11
1.72313E+12,-6726,-3802,4118,-172,-121,395,1,7,11
1.72313E+12,-6379,-4115,4111,-203,-63,598,1,7,11
1.72313E+12,-6404,-4100,4124,-243,-24,217,1,7,11
1.72313E+12,-6725,-3786,4126,-526,-42,337,1,7,11
1.72313E+12,-6741,-3795,3839,-557,-46,-4,1,7,11
1.72313E+12,-6683,-4104,3814,-578,-46,-57,1,7,11
1.72313E+12,-6364,-3804,3796,-562,-26,74,1,7,11
1.72313E+12,-6686,-4107,4115,-406,-1,-357,1,7,11
1.72313E+12,-6737,-4107,4139,-430,-34,-153,1,7,11
1.72313E+12,-6747,-4121,4144,-402,-50,-167,1,7,11
1.72313E+12,-6708,-4116,4125,-594,-7,-155,1,7,11
1.72313E+12,-6712,-4129,4142,-553,305,-168,1,7,11
1.72313E+12,-6739,-4127,4160,-489,320,-140,1,7,11
1.72313E+12,-6775,-4097,4159,-190,316,-354,1,7,11
1.72313E+12,-6547,-3834,4164,-156,317,-262,1,7,11
1.72313E+12,-6545,-3833,4144,-382,317,108,1,7,11
1.72313E+12,-6779,-4103,4123,-355,310,-78,1,7,11
1.72313E+12,-6776,-4097,4103,-341,271,-34,1,7,11
1.72313E+12,-6537,-3823,3828,-336,-31,256,1,7,11
1.72313E+12,-6531,-3832,3818,-330,-61,305,1,7,11
1.72313E+12,-6532,-3834,3835,-309,-59,330,1,7,11
1.72313E+12,-6533,-3825,4103,-280,-59,334,1,7,11
1.72313E+12,-6776,-3836,4099,25,-53,316,1,7,11
1.72313E+12,-6779,-3821,4104,79,-30,278,1,7,11
1.72313E+12,-6781,-3802,4121,-116,261,-17,1,7,11
1.72313E+12,-6553,-3796,4135,-52,315,-57,1,7,11
1.72313E+12,-6584,-3774,4137,272,358,-75,1,7,11
1.72313E+12,-6596,-3738,4125,323,128,-71,1,7,11
1.72313E+12,-6603,-3725,4119,338,144,-56,1,7,11
1.72313E+12,-6592,-3951,4107,354,161,-29,1,7,11
1.72313E+12,-6593,-3930,4114,370,202,262,1,7,11
1.72313E+12,-6607,-3894,4124,151,514,323,1,7,11
1.72313E+12,-6642,-3865,4135,195,601,175,1,7,11
1.72313E+12,-6922,-3876,4160,512,436,615,1,7,11
1.72313E+12,-6611,-3896,4148,607,502,846,1,7,11
1.72313E+12,-6553,-3878,4136,458,861,1043,1,7,11
1.72313E+12,-6737,-3887,4209,811,734,968,1,7,11
1.72313E+12,-6289,-3754,4382,691,1122,1374,1,7,11
1.72313E+12,-6040,-4107,4442,1297,1335,1407,1,7,11
1.72313E+12,-5878,-3790,4045,1530,1506,1343,1,7,11
1.72313E+12,-5833,-3872,3773,1985,2180,1285,1,7,11
1.72313E+12,-6149,-3654,3462,2292,3012,1007,1,7,11
1.72313E+12,-6051,-3449,3221,2609,3803,1002,1,7,11
1.72313E+12,-6717,-3404,3205,2313,4344,1119,1,7,11
1.72313E+12,-7159,-3012,3254,1714,4619,877,1,7,11
1.72313E+12,-8044,-3073,3230,1542,3800,471,1,7,11
1.72313E+12,-8468,-2924,3427,743,3129,437,1,7,11
1.72313E+12,-8379,-2852,3353,161,1785,781,1,7,11
1.72313E+12,-8527,-2890,3026,-152,709,684,1,7,11
1.72313E+12,-8277,-2727,2981,-858,107,1063,1,7,11
1.72313E+12,-8008,-3080,2983,-1146,-466,1119,1,7,11
1.72313E+12,-7757,-3177,3013,-1006,-1027,1130,1,7,11
1.72313E+12,-7540,-3006,3045,-985,-1126,1089,1,7,11
1.72313E+12,-7133,-3033,3050,-1130,-1067,720,1,7,11
1.72313E+12,-7064,-3034,3338,-747,-668,817,1,7,11
1.72313E+12,-7046,-3006,3364,-862,-499,396,1,7,11
1.72313E+12,-7062,-2961,3394,-479,-603,239,1,7,11
1.72313E+12,-7088,-3187,3426,-627,-232,376,1,7,11
1.72313E+12,-7107,-3158,3427,-519,-144,284,1,7,11
1.72313E+12,-7121,-3125,3430,-182,-336,-42,1,7,11
1.72313E+12,-7125,-3090,3413,-372,-278,-87,1,7,11
1.72313E+12,-7135,-2800,3411,-333,35,-115,1,7,11
1.72313E+12,-7145,-2776,3403,-316,88,-115,1,7,11
1.72313E+12,-7153,-2756,3398,-312,-112,-100,1,7,11
1.72313E+12,-7166,-2746,3394,-309,-58,-82,1,7,11
1.72313E+12,-7441,-2735,3395,-302,-13,-76,1,7,11
1.72313E+12,-7477,-2734,3401,-300,275,-75,1,7,11
1.72313E+12,-7509,-2737,3407,-297,290,-71,1,7,11
1.72313E+12,-7523,-2760,3445,-286,290,-57,1,7,11
1.72313E+12,-7298,-2784,3455,9,272,-65,1,7,11
1.72313E+12,-7313,-2778,3453,101,261,-94,1,7,11
1.72313E+12,-7327,-2759,3443,-106,-2,120,1,7,11
1.72313E+12,-7333,-2750,3442,-66,-7,79,1,7,11
1.72313E+12,-7338,-2744,3451,-39,-12,36,1,7,11
1.72313E+12,-7349,-2738,3208,-12,-23,-260,1,7,11
1.72313E+12,-7357,-2731,3234,274,-47,-286,1,7,11
1.72313E+12,-7344,-2733,3253,292,-85,-295,1,7,11
1.72313E+12,-7303,-2741,3256,295,127,-309,1,7,11
1.72313E+12,-7520,-2751,3274,280,98,-341,1,7,11
1.72313E+12,-7493,-2756,3289,257,79,-380,1,7,11
1.72313E+12,-7462,-2759,3298,-21,67,-158,1,7,11
1.72313E+12,-7447,-2769,3305,-52,56,-179,1,7,11
1.72313E+12,-7430,-2769,3309,-82,46,-179,1,7,11
1.72313E+12,-7161,-2784,3317,-122,44,-165,1,7,11
1.72313E+12,-7156,-2793,3327,108,38,-138,1,7,11
1.72313E+12,-7152,-2794,3588,87,32,-362,1,7,11
1.72313E+12,-7157,-2784,3584,60,29,-320,1,7,11
1.72313E+12,-7163,-2770,3323,28,26,-271,1,7,11
1.72313E+12,-7446,-2759,3325,-267,20,40,1,7,11
1.72313E+12,-7481,-2755,3596,-312,-261,97,1,7,11
1.72313E+12,-7516,-2755,3604,-361,-322,-115,1,7,11
1.72313E+12,-7307,-2742,3610,-152,-164,-90,1,7,11
1.72313E+12,-7358,-2720,3610,-218,-543,-66,1,7,11
1.72313E+12,-7373,-2705,3612,-543,-427,-16,1,7,11
1.72313E+12,-7370,-2699,3637,-616,-818,304,1,7,11
1.72313E+12,-7356,-2694,3651,-426,-683,369,1,7,11
1.72313E+12,-7349,-2697,3669,-468,-1041,181,1,7,11
1.72313E+12,-7314,-2700,3690,-497,-1132,512,1,7,11
1.72313E+12,-7539,-2715,3480,-770,-950,587,1,7,11
1.72313E+12,-7492,-2730,3508,-509,-1012,405,1,7,11
1.72313E+12,-7444,-2736,3531,-470,-1309,504,1,7,11
1.72313E+12,-7122,-2750,3564,-421,-1315,818,1,7,11
1.72313E+12,-7295,-2761,3573,-614,-1285,860,1,7,11
1.72313E+12,-7194,-2742,3560,-539,-951,863,1,7,11
1.72313E+12,-6859,-2727,3556,-208,-1057,819,1,7,11
1.72313E+12,-6810,-2721,3579,-181,-842,481,1,7,11
1.72313E+12,-6787,-2730,3888,-142,-611,633,1,7,11
1.72313E+12,-6794,-2716,3914,-327,-132,252,1,7,11
1.72313E+12,-6840,-2941,3938,-268,83,361,1,7,11
1.72313E+12,-7184,-2905,3713,38,265,-29,1,7,11
1.72313E+12,-7256,-2874,3730,80,130,126,1,7,11
1.72313E+12,-7077,-2839,3734,100,192,43,1,7,11
1.72313E+12,-7425,-2546,3727,99,209,-274,1,7,11
1.72313E+12,-7503,-2511,3721,81,177,-294,1,7,11
1.72313E+12,-7545,-2492,3965,48,368,-276,1,7,11
1.72313E+12,-7542,-2502,3953,3,280,18,1,7,11
1.72313E+12,-7512,-2516,3943,-291,-64,47,1,7,11
1.72313E+12,-7482,-2529,3943,-328,-127,52,1,7,11
1.72313E+12,-7447,-2553,3944,-360,92,45,1,7,11
1.72313E+12,-7159,-2844,3956,-372,75,21,1,7,11
1.72313E+12,-7133,-2865,3958,-366,75,-269,1,7,11
1.72313E+12,-7115,-2880,3712,-354,88,-309,1,7,11
1.72313E+12,-7107,-2878,3962,-328,107,-340,1,7,11
1.72313E+12,-7100,-2874,3966,-296,-122,-355,1,7,11
1.72313E+12,-7096,-2862,3955,-272,-98,-356,1,7,11
1.72313E+12,-7097,-2851,3953,-262,-77,-354,1,7,11
1.72313E+12,-7115,-2837,3952,-262,-62,-330,1,7,11
1.72313E+12,-7121,-2842,3959,-264,-56,-296,1,7,11
1.72313E+12,-7125,-2848,3966,-278,-73,-259,1,7,11
1.72313E+12,-7140,-2835,3957,-260,-102,30,1,7,11
1.72313E+12,-7130,-2830,3950,-268,124,73,1,7,11
1.72313E+12,-7117,-2845,3943,-292,104,98,1,7,11
1.72313E+12,-7122,-2862,3956,-286,88,96,1,7,11
1.72313E+12,-7128,-2873,3716,-263,65,98,1,7,11
1.72313E+12,-7144,-2860,3717,32,45,102,1,7,11
1.72313E+12,-7152,-2869,3729,56,20,120,1,7,11
1.72313E+12,-7427,-2860,3749,113,4,-91,1,7,11
1.72313E+12,-7437,-2847,3754,-84,-293,-29,1,7,11
1.72313E+12,-7153,-2858,3760,-44,-332,278,1,7,11
1.72313E+12,-7425,-2853,3777,268,-354,314,1,7,11
1.72313E+12,-7165,-2850,3795,329,-152,134,1,7,11
1.72313E+12,-7115,-2553,3773,359,-189,160,1,7,11
1.72313E+12,-7135,-2548,3796,340,-182,136,1,7,11
1.72313E+12,-7425,-2543,3833,368,-206,164,1,7,11
1.72313E+12,-7137,-2509,3831,134,-242,185,1,7,11
1.72313E+12,-7133,-2490,4104,129,-241,168,1,7,11
1.72313E+12,-7139,-2485,4123,374,-232,156,1,7,11
1.72313E+12,-7155,-2479,4150,133,-235,172,1,7,11
1.72313E+12,-7428,-2462,4181,172,-252,235,1,7,11
1.72313E+12,-7429,-2445,4204,205,-551,548,1,7,11
1.72313E+12,-7428,-2648,4215,236,-612,573,1,7,11
1.72313E+12,-7433,-2624,3971,226,-423,583,1,7,11
1.72313E+12,-7435,-2584,3982,214,-485,587,1,7,11
1.72313E+12,-7429,-2281,3978,190,-787,612,1,7,11
1.72313E+12,-7155,-2255,4010,138,-808,386,1,7,11
1.72313E+12,-7131,-2241,4044,382,-814,422,1,7,11
1.72313E+12,-7106,-2233,4078,380,-811,455,1,7,11
1.72313E+12,-7099,-2210,4358,383,-796,454,1,7,11
1.72313E+12,-7092,-2178,4381,383,-792,452,1,7,11
1.72313E+12,-7073,-2412,4411,362,-782,434,1,7,11
1.72313E+12,-7064,-2387,4434,356,-492,416,1,7,11
1.72313E+12,-7043,-2373,4455,364,-449,408,1,7,11
1.72313E+12,-7275,-2341,4456,128,-395,396,1,7,11
1.72313E+12,-7253,-2312,4464,148,-589,608,1,7,11
1.72313E+12,-7237,-2026,4476,149,-519,566,1,7,11
1.72313E+12,-7238,-2009,4249,136,-173,506,1,7,11
1.72313E+12,-7230,-1996,4273,141,-338,205,1,7,11
1.72313E+12,-7248,-1981,4290,152,3,148,1,7,11
1.72313E+12,-7259,-1957,4302,150,98,357,1,7,11
1.72313E+12,-7292,-1933,4320,153,-106,325,1,7,11
1.72313E+12,-7047,-2162,4321,149,-78,304,1,7,11
1.72313E+12,-7065,-2131,4325,136,-64,268,1,7,11
1.72313E+12,-7074,-2124,4325,343,-65,-21,1,7,11
1.72313E+12,-7085,-2104,4324,312,-69,-56,1,7,11
1.72313E+12,-7091,-2090,4336,264,-77,-87,1,7,11
1.72313E+12,-7081,-2093,4350,-38,-76,-113,1,7,11
1.72313E+12,-7071,-2084,4611,-74,-80,90,1,7,11
1.72313E+12,-7085,-2072,4615,-106,-80,34,1,7,11
1.72313E+12,-7082,-1792,4337,109,-77,-273,1,7,11
1.72313E+12,-7080,-1764,4319,52,-59,-340,1,7,11
1.72313E+12,-7069,-1752,4303,-289,-42,-162,1,7,11
1.72313E+12,-7083,-1759,4328,-379,260,-213,1,7,11
1.72313E+12,-7106,-1784,4343,-191,289,-235,1,7,11
1.72313E+12,-7129,-2051,4343,-212,305,-230,1,7,11
1.72313E+12,-7149,-2055,4336,-237,317,-215,1,7,11
1.72313E+12,-7160,-2068,4334,-529,326,-194,1,7,11
1.72313E+12,-7129,-2118,4344,-566,305,-153,1,7,11
1.72313E+12,-7087,-2157,4315,-593,263,-168,1,7,11
1.72313E+12,-7073,-1923,4286,-619,-22,-224,1,7,11
1.72313E+12,-7068,-1935,4264,-405,-37,-535,1,7,11
1.72313E+12,-7087,-1989,4296,-449,-45,-556,1,7,11
1.72313E+12,-7087,-2044,4313,-434,-72,-542,1,7,11
1.72313E+12,-7085,-2351,4326,-635,-107,-516,1,7,11
1.72313E+12,-7052,-2367,4291,-569,93,-247,1,7,11
1.72313E+12,-7042,-2376,4270,-538,55,-524,1,7,11
1.72313E+12,-7281,-2380,4242,-533,21,-535,1,7,11
1.72313E+12,-7280,-2396,4258,-545,3,-530,1,7,11
1.72313E+12,-7267,-2417,4258,-558,-288,-519,1,7,11
1.72313E+12,-7264,-2189,4261,-565,-309,-256,1,7,11
1.72313E+12,-7249,-2216,4266,-553,-327,-237,1,7,11
1.72313E+12,-7243,-2243,4283,-533,-327,-214,1,7,11
1.72313E+12,-7242,-2266,4312,-233,-315,-152,1,7,11
1.72313E+12,-7225,-2272,4312,-163,-298,-346,1,7,11
1.72313E+12,-7217,-2286,4312,-358,-266,-300,1,7,11
1.72313E+12,-7202,-2284,4312,-282,37,-273,1,7,11
1.72313E+12,-7198,-2285,4313,3,65,-281,1,7,11
1.72313E+12,-7207,-2287,4326,29,88,-281,1,7,11
1.72313E+12,-7212,-2280,4327,52,105,-289,1,7,11
1.72313E+12,-7226,-2265,4327,65,121,-298,1,7,11
1.72313E+12,-7247,-2270,4344,75,-125,-285,1,7,11
1.72313E+12,-7253,-2269,4342,102,-119,-266,1,7,11
1.72313E+12,-7256,-2262,4342,123,-120,-257,1,7,11
1.72313E+12,-7254,-2260,4344,-119,123,14,1,7,11
1.72313E+12,-7250,-2236,4349,-106,109,18,1,7,11
1.72313E+12,-7257,-2215,4346,-104,98,20,1,7,11
1.72313E+12,-7272,-2209,4351,-105,94,37,1,7,11
1.72313E+12,-7271,-2200,4615,-97,86,68,1,7,11
1.72313E+12,-7258,-2197,4622,-90,78,95,1,7,11
1.72313E+12,-7247,-2200,4625,-72,72,113,1,7,11
1.72313E+12,-7234,-2191,4619,-58,68,119,1,7,11
1.72313E+12,-7244,-2432,4636,-46,74,118,1,7,11
1.72313E+12,-7243,-2428,4649,-25,73,121,1,7,11
1.72313E+12,-7227,-2419,4644,-6,69,115,1,7,11
1.72313E+12,-7218,-2414,4653,259,60,95,1,7,11
1.72313E+12,-7220,-2407,4663,266,50,57,1,7,11
1.72313E+12,-7236,-2395,4677,273,44,37,1,7,11
1.72313E+12,-7250,-2375,4687,301,38,46,1,7,11
1.72313E+12,-7254,-2355,4692,328,38,62,1,7,11
1.72313E+12,-7259,-2332,4685,356,38,76,1,7,11
1.72313E+12,-7267,-2313,4690,372,34,80,1,7,11
1.72313E+12,-7277,-2035,4689,376,19,85,1,7,11
1.72313E+12,-7275,-2024,4695,357,-257,78,1,7,11
1.72313E+12,-7292,-2019,4714,334,-287,58,1,7,11
1.72313E+12,-7046,-2011,4483,316,-332,45,1,7,11
1.72313E+12,-7042,-2002,4496,305,-134,43,1,7,11
1.72313E+12,-7284,-2002,4500,284,-190,34,1,7,11
1.72313E+12,-7278,-1994,4491,-11,-241,12,1,7,11
1.72313E+12,-7259,-1982,4489,-65,-544,-272,1,7,11
1.72313E+12,-7233,-1977,4490,116,-578,-302,1,7,11
1.72313E+12,-7215,-1988,4522,29,-602,-328,1,7,11
1.72313E+12,-7188,-2013,4542,-307,-624,-363,1,7,11
1.72313E+12,-6889,-2043,4590,-375,-390,-150,1,7,11
1.72313E+12,-6869,-2321,4871,-180,-404,-212,1,7,11
1.72313E+12,-6846,-2337,4896,-200,-396,-221,1,7,11
1.72313E+12,-6811,-2351,4900,-226,-632,-225,1,7,11
1.72313E+12,-7038,-2363,4898,-514,-598,-245,1,7,11
1.72313E+12,-7028,-2376,4909,-559,-553,-535,1,7,11
1.72313E+12,-7034,-2396,4932,-598,-248,-562,1,7,11
1.72313E+12,-7023,-2427,4952,-615,-210,-561,1,7,11
1.72313E+12,-6997,-2216,4957,-393,-140,-563,1,7,11
1.72313E+12,-6987,-2244,4971,-411,-358,-571,1,7,11
1.72313E+12,-6974,-2266,4981,-420,-326,-583,1,7,11
1.72313E+12,-6964,-2289,4979,-420,-299,-588,1,7,11
1.72313E+12,-6961,-2566,4985,-417,-272,-593,1,7,11
1.72313E+12,-6956,-2574,4989,-419,13,-597,1,7,11
1.72313E+12,-6947,-2583,4985,-415,70,-597,1,7,11
1.72313E+12,-6951,-2593,4975,-418,125,-584,1,7,11
1.72313E+12,-6932,-2613,4956,-432,-76,-574,1,7,11
1.72313E+12,-6918,-2630,4939,-466,-20,-594,1,7,11
1.72313E+12,-6941,-2658,4958,-511,291,-618,1,7,11
1.72313E+12,-6944,-2668,4943,-775,306,-388,1,7,11
1.72313E+12,-6653,-2674,4901,-809,318,-437,1,7,11
1.72313E+12,-6621,-2656,4595,-665,366,-811,1,7,11
1.72313E+12,-6619,-2683,4574,-1110,170,-733,1,7,11
1.72313E+12,-7038,-2547,4934,-975,514,-1065,1,7,11
1.72313E+12,-6832,-2827,4923,-899,199,-704,1,7,11
1.72313E+12,-6818,-2870,4900,-1076,151,-823,1,7,11
1.72313E+12,-6816,-2895,4895,-737,128,-448,1,7,11
1.72313E+12,-6791,-2928,4887,-645,361,-591,1,7,11
1.72313E+12,-7023,-2700,4868,-809,346,-241,1,7,11
1.72313E+12,-6997,-2732,4594,-476,334,-152,1,7,11
1.72313E+12,-6970,-2759,4560,-398,329,-341,1,7,11
1.72313E+12,-6964,-2782,4549,-602,343,-294,1,7,11
1.72313E+12,-6961,-2780,4526,-531,359,18,1,7,11
1.72313E+12,-6962,-2776,4511,-212,378,66,1,7,11
1.72313E+12,-6964,-2758,4483,-158,140,98,1,7,11
1.72313E+12,-6961,-2759,4725,-133,163,127,1,7,11
1.72313E+12,-6967,-2759,4715,-353,212,-75,1,7,11
1.72313E+12,-6979,-2754,4718,-333,222,-44,1,7,11
1.72313E+12,-7008,-2749,4718,-294,225,-11,1,7,11
1.72313E+12,-7014,-2726,4695,9,226,274,1,7,11
1.72313E+12,-7028,-2699,4680,43,244,293,1,7,11
1.72313E+12,-6804,-2925,4666,72,528,341,1,7,11
1.72313E+12,-6825,-2910,4666,100,569,185,1,7,11
1.72313E+12,-6806,-2922,4688,-120,617,566,1,7,11
1.72313E+12,-7001,-2708,4683,-82,632,396,1,7,11
1.72313E+12,-6997,-2704,4658,-46,639,629,1,7,11
1.72313E+12,-7037,-2931,4636,-37,624,568,1,7,11
1.72313E+12,-6825,-2884,4626,-51,601,242,1,7,11
1.72313E+12,-6870,-2842,4619,-75,584,186,1,7,11
1.72313E+12,-6907,-2545,4610,-86,579,169,1,7,11
1.72313E+12,-7201,-2524,4606,-82,585,211,1,7,11
1.72313E+12,-7189,-2520,4342,-66,583,541,1,7,11
1.72313E+12,-7173,-2522,4334,-56,578,599,1,7,11
1.72313E+12,-6907,-2521,4329,-49,571,618,1,7,11
1.72313E+12,-6923,-2503,4320,-36,558,604,1,7,11
1.72313E+12,-7199,-2480,4311,-21,540,583,1,7,11
1.72313E+12,-7196,-2442,4283,264,252,579,1,7,11
1.72313E+12,-7207,-2661,4264,274,235,560,1,7,11
1.72313E+12,-7212,-2645,4254,267,227,558,1,7,11
1.72313E+12,-7218,-2638,4251,-6,217,560,1,7,11
1.72313E+12,-7233,-2635,4254,-18,209,550,1,7,11
1.72313E+12,-7233,-2600,4238,-6,199,539,1,7,11
1.72313E+12,-7244,-2574,4229,-4,187,515,1,7,11
1.72313E+12,-7270,-2286,4224,-4,185,246,1,7,11
1.72313E+12,-7282,-2253,4476,264,181,518,1,7,11
1.72313E+12,-7293,-2228,4476,270,173,536,1,7,11
1.72313E+12,-7046,-2204,4468,267,170,553,1,7,11
1.72313E+12,-7053,-2184,4461,-3,165,554,1,7,11
1.72313E+12,-7066,-2419,4446,-42,154,525,1,7,11
1.72313E+12,-7088,-2395,4442,-73,135,235,1,7,11
1.72313E+12,-7124,-2376,4444,-102,367,221,1,7,11
1.72313E+12,-7130,-2361,4446,-123,338,237,1,7,11
1.72313E+12,-7132,-2353,4446,117,318,512,1,7,11
1.72313E+12,-7120,-2345,4447,106,300,524,1,7,11
1.72313E+12,-7117,-2326,4445,96,292,525,1,7,11
1.72313E+12,-7125,-2312,4450,82,289,527,1,7,11
1.72313E+12,-7119,-2038,4440,76,283,533,1,7,11
1.72313E+12,-7113,-2022,4436,67,285,544,1,7,11
1.72313E+12,-7112,-2016,4427,54,292,561,1,7,11
1.72313E+12,-7113,-2021,4453,48,305,590,1,7,11
1.72313E+12,-7116,-2018,4454,55,313,617,1,7,11
1.72313E+12,-7113,-2006,4456,71,309,635,1,7,11
1.72313E+12,-7114,-1988,4447,83,312,638,1,7,11
1.72313E+12,-7109,-1963,4431,86,308,633,1,7,11
1.72313E+12,-7107,-1939,4418,78,312,609,1,7,11
1.72313E+12,-7124,-2172,4405,70,315,581,1,7,11
1.72313E+12,-7126,-2158,4405,56,314,538,1,7,11
1.72313E+12,-7138,-2136,4397,41,309,219,1,7,11
1.72313E+12,-7148,-2122,4398,22,301,148,1,7,11
1.72313E+12,-7428,-2114,4398,5,298,333,1,7,11
1.72313E+12,-7445,-2097,4403,-272,298,278,1,7,11
1.72313E+12,-7472,-2077,4402,-283,295,-17,1,7,11
1.72313E+12,-7469,-2067,4395,-289,296,-38,1,7,11
1.72313E+12,-7468,-2072,4383,-288,296,-42,1,7,11
1.72313E+12,-7458,-2059,4358,-292,291,-51,1,7,11
1.72313E+12,-7457,-2059,4355,-306,291,-67,1,7,11
1.72313E+12,-7474,-2068,4363,-324,288,-73,1,7,11
1.72313E+12,-7477,-2067,4364,-322,280,-60,1,7,11
1.72313E+12,-7486,-2063,4365,-306,271,-34,1,7,11
1.72313E+12,-7481,-2061,4356,-293,267,261,1,7,11
1.72313E+12,-7470,-2063,4095,-278,276,287,1,7,11
1.72313E+12,-7472,-2059,4095,-260,288,310,1,7,11
1.72313E+12,-7471,-2052,4093,14,292,327,1,7,11
1.72313E+12,-7464,-1788,4086,25,297,333,1,7,11
1.72313E+12,-7455,-1784,4082,30,298,327,1,7,11
1.72313E+12,-7463,-1766,4068,31,301,300,1,7,11
1.72313E+12,-7474,-1748,4065,26,305,277,1,7,11
1.72313E+12,-7496,-1735,4064,13,312,260,1,7,11
1.72313E+12,-7508,-1727,4070,5,311,-6,1,7,11
1.72313E+12,-7521,-1723,4063,-257,301,-13,1,7,11
1.72313E+12,-7528,-1719,4057,-261,283,-15,1,7,11
1.72313E+12,-7537,-1720,4051,-257,266,-11,1,7,11
1.72313E+12,-7540,-1715,4054,12,-12,263,1,7,11
1.72313E+12,-7528,-1692,4042,28,-28,282,1,7,11
1.72313E+12,-7515,-1682,4035,28,-42,287,1,7,11
1.72313E+12,-7510,-1676,4035,20,-51,282,1,7,11
1.72313E+12,-7515,-1670,4031,14,-52,275,1,7,11
1.72313E+12,-7520,-1665,4044,10,-51,280,1,7,11
1.72313E+12,-7517,-1912,4040,16,-43,277,1,7,11
1.72313E+12,-7519,-1904,4033,15,-34,278,1,7,11
1.72313E+12,-7515,-1893,4028,1,-22,274,1,7,11
1.72313E+12,-7520,-1885,4031,-280,-5,259,1,7,11
1.72313E+12,-7524,-1887,4041,-301,-1,-8,1,7,11
1.72313E+12,-7515,-1880,4025,-319,-5,-23,1,7,11
1.72313E+12,-7522,-1873,4013,-345,-3,-45,1,7,11
1.72313E+12,-7535,-1888,4018,-372,-3,-58,1,7,11
1.72313E+12,-7548,-1891,4028,-361,-16,-48,1,7,11
1.72313E+12,-7301,-1881,4022,-352,-23,-41,1,7,11
1.72313E+12,-7311,-1866,4024,-333,-27,-30,1,7,11
1.72313E+12,-7309,-1852,4017,-314,-27,-22,1,7,11
1.72313E+12,-7316,-1844,4016,-290,-17,-14,1,7,11
1.72313E+12,-7308,-1826,4005,0,-8,-7,1,7,11
1.72313E+12,-7313,-1820,4010,11,262,-22,1,7,11
1.72313E+12,-7320,-1809,3997,13,258,-46,1,7,11
1.72313E+12,-7322,-1800,3990,3,-14,-78,1,7,11
1.72313E+12,-7326,-1803,3996,-270,-28,-114,1,7,11
1.72313E+12,-7326,-1810,4000,-281,-36,115,1,7,11
1.72313E+12,-7329,-1812,3997,-277,-48,93,1,7,11
1.72313E+12,-7327,-1809,3998,-266,-52,82,1,7,11
1.72313E+12,-7324,-1811,3991,-261,-59,74,1,7,11
1.72313E+12,-7315,-1812,3981,-263,-70,68,1,7,11
1.72313E+12,-7297,-1821,3984,-270,-70,62,1,7,11
1.72313E+12,-7550,-1826,3993,-276,-71,54,1,7,11
1.72313E+12,-7541,-1834,3994,-283,-64,47,1,7,11
1.72313E+12,-7538,-1828,3982,-284,-53,37,1,7,11
1.72313E+12,-7540,-1821,3968,-284,-44,40,1,7,11
1.72313E+12,-7552,-1817,4217,-290,-30,37,1,7,11
1.72313E+12,-7312,-1822,3971,-303,-15,31,1,7,11
1.72313E+12,-7325,-1819,4223,-309,-12,21,1,7,11
1.72313E+12,-7330,-1821,3975,-318,-16,-257,1,7,11
1.72313E+12,-7333,-1819,3974,-330,-28,-283,1,7,11
1.72313E+12,-7337,-1820,3973,-342,-45,-309,1,7,11
1.72313E+12,-7336,-1829,3971,-361,-57,-335,1,7,11
1.72313E+12,-7340,-1844,3979,-364,-69,-340,1,7,11
1.72313E+12,-7322,-1862,3980,-357,-81,-340,1,7,11
1.72313E+12,-7322,-1874,3989,-351,-84,-331,1,7,11
1.72313E+12,-7313,-1891,3995,-328,-88,-308,1,7,11
1.72313E+12,-7300,-1896,3978,-272,-95,-286,1,7,11
1.72313E+12,-7299,-1902,3977,-259,-92,-273,1,7,11
1.72313E+12,-7550,-1900,3976,12,-96,0,1,7,11
1.72313E+12,-7545,-1897,3974,21,-101,14,1,7,11
1.72313E+12,-7535,-1885,4223,29,-106,25,1,7,11
1.72313E+12,-7530,-1878,4217,19,-100,32,1,7,11
1.72313E+12,-7528,-1872,4222,9,-90,40,1,7,11
1.72313E+12,-7529,-1874,3971,-269,-77,37,1,7,11
1.72313E+12,-7537,-1873,4223,-283,-63,35,1,7,11
1.72313E+12,-7548,-1879,3969,-298,-52,35,1,7,11
1.72313E+12,-7300,-1882,3977,-301,-47,33,1,7,11
1.72313E+12,-7309,-1887,3987,-294,-48,36,1,7,11
1.72313E+12,-7304,-1881,3988,-286,-55,37,1,7,11
1.72313E+12,-7309,-1878,3978,-291,-62,25,1,7,11
1.72313E+12,-7316,-1881,3979,-296,-70,15,1,7,11
1.72313E+12,-7315,-1883,3975,-304,-80,1,1,7,11
1.72313E+12,-7323,-1883,3975,-305,-81,-267,1,7,11
1.72313E+12,-7327,-1881,4220,-295,-85,-266,1,7,11
1.72313E+12,-7321,-1873,4220,-282,-82,-259,1,7,11
1.72313E+12,-7322,-1871,4210,-276,-79,1,1,7,11
1.72313E+12,-7316,-1862,4199,-279,-75,-257,1,7,11
1.72313E+12,-7315,-1866,4202,-282,-72,-257,1,7,11
1.72313E+12,-7316,-1876,4214,-282,-73,-263,1,7,11
1.72313E+12,-7312,-1888,4218,-281,-82,-272,1,7,11
1.72313E+12,-7307,-1887,4215,-274,-92,-274,1,7,11
1.72313E+12,-7309,-1885,4216,-273,-94,-270,1,7,11
1.72313E+12,-7304,-1887,4219,-273,-90,-262,1,7,11
1.72313E+12,-7301,-1894,3969,-277,-82,-259,1,7,11
1.72313E+12,-7548,-1894,4222,-275,-81,-257,1,7,11
1.72313E+12,-7550,-1908,4223,-279,-83,-257,1,7,11
1.72313E+12,-7543,-1907,4211,-276,-88,-259,1,7,11
1.72313E+12,-7543,-1912,4217,-292,-89,-269,1,7,11
1.72313E+12,-7550,-1666,3971,-300,-88,-276,1,7,11
1.72313E+12,-7300,-1681,3986,-301,-90,-275,1,7,11
1.72313E+12,-7299,-1683,3986,-286,-93,-265,1,7,11
1.72313E+12,-7298,-1677,3982,-274,-88,-258,1,7,11
1.72313E+12,-7552,-1667,3968,-266,-79,11,1,7,11
1.72313E+12,-7551,-1669,3970,-264,-68,17,1,7,11
1.72313E+12,-7552,-1673,3970,-264,-61,8,1,7,11
1.72313E+12,-7301,-1684,3973,-269,-59,-262,1,7,11
1.72313E+12,-7297,-1680,3976,-274,-63,-277,1,7,11
1.72313E+12,-7542,-1688,3968,-283,-66,-292,1,7,11
1.72313E+12,-7540,-1693,3971,-293,-61,-311,1,7,11
1.72313E+12,-7529,-1699,3969,-291,-56,-326,1,7,11
1.72313E+12,-7528,-1707,4223,-292,-42,-342,1,7,11
1.72313E+12,-7524,-1714,4220,-285,-28,-357,1,7,11
1.72313E+12,-7507,-1729,4213,-281,-13,-373,1,7,11
1.72313E+12,-7476,-1750,4206,-272,258,-151,1,7,11
1.72313E+12,-7460,-1761,4199,-268,287,-195,1,7,11
1.72313E+12,-7461,-1770,4192,0,330,-243,1,7,11
1.72313E+12,-7473,-1773,4189,24,155,-540,1,7,11
1.72313E+12,-7487,-1779,4174,53,208,-564,1,7,11
1.72313E+12,-7487,-1781,4155,91,253,-578,1,7,11
1.72313E+12,-7493,-1771,4135,107,558,-595,1,7,11
1.72313E+12,-7506,-1780,4128,109,600,-608,1,7,11
1.72313E+12,-7523,-1789,4125,108,637,-619,1,7,11
1.72313E+12,-7544,-2053,4113,116,409,-631,1,7,11
1.72313E+12,-7298,-2052,3834,115,419,-629,1,7,11
1.72313E+12,-7306,-2061,3813,106,428,-634,1,7,11
1.72313E+12,-7331,-2066,3805,95,437,-633,1,7,11
1.72313E+12,-7345,-2071,3790,88,429,-620,1,7,11
1.72313E+12,-7357,-2089,3782,70,415,-602,1,7,11
1.72313E+12,-7368,-2102,3769,55,391,-586,1,7,11
1.72313E+12,-7380,-2118,3763,37,608,-572,1,7,11
1.72313E+12,-7391,-2133,3754,15,567,-560,1,7,11
1.72313E+12,-7406,-2145,3757,0,520,-538,1,7,11
1.72313E+12,-7410,-2150,3751,-257,213,-254,1,7,11
1.72313E+12,-7409,-2146,3734,-266,164,-227,1,7,11
1.72313E+12,-7403,-2141,3714,-281,375,-199,1,7,11
1.72313E+12,-7400,-2137,3952,-309,334,-171,1,7,11
1.72313E+12,-7402,-2151,3953,-337,297,-141,1,7,11
1.72313E+12,-7399,-2171,3958,-355,-1,-364,1,7,11
1.72313E+12,-7389,-1927,3958,-370,-44,-345,1,7,11
1.72313E+12,-7372,-1942,3956,-132,-81,-336,1,7,11
1.72313E+12,-7355,-1958,3950,-146,-105,-337,1,7,11
1.72313E+12,-7350,-1968,3951,-167,-121,-341,1,7,11
1.72313E+12,-7342,-1982,3963,-178,126,-345,1,7,11
1.72313E+12,-7324,-1995,3960,-174,118,-345,1,7,11
1.72313E+12,-7311,-2010,3965,-167,118,-338,1,7,11
1.72313E+12,-7300,-2018,3959,-158,116,-334,1,7,11
1.72313E+12,-7307,-2021,3957,-152,120,-335,1,7,11
1.72313E+12,-7313,-2026,3961,-142,125,-327,1,7,11
1.72313E+12,-7312,-2023,3954,-130,123,-314,1,7,11
1.72313E+12,-7308,-2019,3940,-129,125,-301,1,7,11
1.72313E+12,-7304,-2020,3934,-131,-127,-287,1,7,11
1.72313E+12,-7305,-2028,3935,-139,-121,-286,1,7,11
1.72313E+12,-7322,-2033,3948,-148,-116,-291,1,7,11
1.72313E+12,-7324,-2035,3948,-154,-120,-296,1,7,11
1.72313E+12,-7318,-2041,3950,-154,-128,-302,1,7,11
1.72313E+12,-7326,-2047,3962,-151,123,-316,1,7,11
1.72313E+12,-7335,-2305,3714,-140,114,-326,1,7,11
1.72313E+12,-7336,-2309,3950,-382,104,-332,1,7,11
1.72313E+12,-7331,-2320,3959,-373,101,-336,1,7,11
1.72313E+12,-7324,-2324,3953,-368,94,-343,1,7,11
1.72313E+12,-7310,-2333,3955,-365,89,-356,1,7,11
1.72313E+12,-7297,-2338,3956,-362,83,-360,1,7,11
1.72313E+12,-7550,-2343,3964,-363,76,-368,1,7,11
1.72313E+12,-7548,-2344,3967,-358,66,-370,1,7,11
1.72313E+12,-7546,-2342,3967,-352,55,-367,1,7,11
1.72313E+12,-7544,-2350,3713,-351,51,-355,1,7,11
1.72313E+12,-7542,-2351,3719,-350,51,-340,1,7,11
1.72313E+12,-7301,-2348,3721,-349,57,-325,1,7,11
1.72313E+12,-7307,-2347,3725,-354,58,-310,1,7,11
1.72313E+12,-7304,-2342,3733,-350,53,-295,1,7,11
1.72313E+12,-7305,-2358,3738,-350,48,-292,1,7,11
1.72313E+12,-7303,-2366,3736,-347,39,-293,1,7,11
1.72313E+12,-7297,-2376,3734,-343,22,-296,1,7,11
1.72313E+12,-7548,-2387,3737,-344,4,-305,1,7,11
1.72313E+12,-7551,-2396,3742,-348,-272,-323,1,7,11
1.72313E+12,-7541,-2394,3742,-355,-292,-342,1,7,11
1.72313E+12,-7542,-2394,3753,-364,-307,-364,1,7,11
1.72313E+12,-7527,-2398,3764,-373,-329,-376,1,7,11
1.72313E+12,-7528,-2415,3768,-376,-351,-133,1,7,11
1.72313E+12,-7523,-2181,3783,-369,-376,-384,1,7,11
1.72313E+12,-7516,-2191,3803,-328,-147,-350,1,7,11
1.72313E+12,-7503,-2196,3813,-296,-168,-313,1,7,11
1.72313E+12,-7489,-2197,3816,-272,-183,-288,1,7,11
1.72313E+12,-7472,-2209,3817,-266,-186,-276,1,7,11
1.72313E+12,-7450,-2213,3818,-257,-192,-273,1,7,11
1.72313E+12,-7430,-2207,3821,-271,-187,-271,1,7,11
1.72313E+12,-7432,-2211,3834,-295,-172,-264,1,7,11
1.72313E+12,-7436,-2219,4101,-303,-162,11,1,7,11
1.72313E+12,-7442,-2225,4117,-311,-147,30,1,7,11
1.72313E+12,-7436,-2227,4125,-319,-384,48,1,7,11
1.72313E+12,-7162,-2236,4137,-332,-362,52,1,7,11
1.72313E+12,-7150,-2247,4150,-338,-337,39,1,7,11
1.72313E+12,-7150,-2251,4167,-329,-306,18,1,7,11
1.72313E+12,-7161,-2252,4185,-288,2,-268,1,7,11
1.72313E+12,-7150,-2248,4184,0,23,-266,1,7,11
1.72313E+12,-7147,-2244,4187,22,57,-265,1,7,11
1.72313E+12,-7160,-2240,4196,48,93,-257,1,7,11
1.72313E+12,-7429,-2208,4190,110,-93,64,1,7,11
1.72313E+12,-7437,-2188,4179,-117,-56,-125,1,7,11
1.72313E+12,-7445,-2204,4196,-102,-16,-37,1,7,11
1.72313E+12,-7150,-2226,4189,-76,257,308,1,7,11
1.72313E+12,-7121,-2237,4196,-51,288,371,1,7,11
1.72313E+12,-7112,-2227,4196,-30,298,137,1,7,11
1.72313E+12,-7118,-2213,4196,-18,310,135,1,7,11
1.72313E+12,-7127,-2190,4193,256,313,137,1,7,11
1.72313E+12,-7123,-2178,4193,260,316,134,1,7,11
1.72313E+12,-7120,-2423,4178,264,325,376,1,7,11
1.72313E+12,-7117,-2405,4169,261,332,354,1,7,11
1.72313E+12,-7124,-2378,4158,-3,344,319,1,7,11
1.72313E+12,-7153,-2357,4157,-19,355,278,1,7,11
1.72313E+12,-7433,-2347,4164,-32,362,-9,1,7,11
1.72313E+12,-7457,-2330,4176,-25,362,-32,1,7,11
1.72313E+12,-7469,-2321,4182,-18,358,-49,1,7,11
1.72313E+12,-7480,-2310,4180,-16,352,-70,1,7,11
1.72313E+12,-7481,-2046,4181,-26,344,-107,1,7,11
1.72313E+12,-7494,-2029,4175,-46,335,87,1,7,11
1.72313E+12,-7516,-2010,4173,-72,319,29,1,7,11
1.72313E+12,-7528,-2002,4158,-107,296,-266,1,7,11
1.72313E+12,-7510,-2000,4141,110,273,-304,1,7,11
1.72313E+12,-7498,-2005,4139,62,268,-359,1,7,11
1.72313E+12,-7496,-2008,4147,29,265,-158,1,7,11
1.72313E+12,-7491,-2019,4156,13,265,-191,1,7,11
1.72313E+12,-7482,-2031,4157,-258,259,-206,1,7,11
1.72313E+12,-7470,-2310,4155,-268,-6,-207,1,7,11
1.72313E+12,-7456,-2329,4161,-278,-10,-225,1,7,11
1.72313E+12,-7444,-2338,4165,-280,-11,-513,1,7,11
1.72313E+12,-7437,-2348,4156,-275,-12,-549,1,7,11
1.72313E+12,-7168,-2353,4152,-275,-6,-590,1,7,11
1.72313E+12,-7427,-2354,4144,-289,265,-395,1,7,11
1.72313E+12,-7425,-2355,4136,-307,272,-451,1,7,11
1.72313E+12,-7168,-2369,4129,-328,278,-501,1,7,11
1.72313E+12,-7427,-2381,4126,-347,287,-795,1,7,11
1.72313E+12,-7436,-2403,4132,-356,303,-809,1,7,11
1.72313E+12,-7443,-2418,4137,-349,316,-815,1,7,11
1.72313E+12,-7460,-2421,4126,-337,333,-815,1,7,11
1.72313E+12,-7460,-2178,4110,-337,344,-797,1,7,11
1.72313E+12,-7452,-2189,3835,-351,355,-786,1,7,11
1.72313E+12,-7463,-2215,3827,-371,368,-783,1,7,11
1.72313E+12,-7469,-2240,3828,-131,360,-773,1,7,11
1.72313E+12,-7474,-2261,3830,-150,341,-775,1,7,11
1.72313E+12,-7478,-2278,3818,-170,307,-775,1,7,11
1.72313E+12,-7475,-2563,3814,-203,268,-781,1,7,11
1.72313E+12,-7473,-2587,3800,-233,-30,-786,1,7,11
1.72313E+12,-7470,-2605,3797,-526,-74,-792,1,7,11
1.72313E+12,-7465,-2627,3783,-568,-109,-789,1,7,11
1.72313E+12,-7457,-2651,3771,-605,122,-773,1,7,11
1.72313E+12,-7457,-2688,3769,-638,101,-485,1,7,11
1.72313E+12,-7433,-2468,3760,-404,75,-435,1,7,11
1.72313E+12,-7157,-2513,3769,-420,60,-392,1,7,11
1.72313E+12,-7149,-2557,3791,-416,45,-608,1,7,11
1.72313E+12,-7130,-2843,3789,-385,35,-571,1,7,11
1.72313E+12,-7114,-2856,3789,-606,39,-532,1,7,11
1.72313E+12,-7104,-2873,3781,-574,55,-233,1,7,11
1.72313E+12,-7102,-2890,3779,-544,78,-190,1,7,11
1.72313E+12,-7097,-2897,3783,-256,98,-149,1,7,11
1.72313E+12,-7092,-2912,3796,-220,112,-363,1,7,11
1.72313E+12,-7085,-2917,3791,-183,124,-330,1,7,11
1.72313E+12,-7069,-2924,3770,-157,-122,-308,1,7,11
1.72313E+12,-7073,-2930,3769,-136,-106,-302,1,7,11
1.72313E+12,-7078,-2931,3785,-377,-99,-288,1,7,11
1.72313E+12,-7077,-2930,3791,-356,-99,-272,1,7,11
1.72313E+12,-7075,-2929,3782,-342,-97,0,1,7,11
1.72313E+12,-7069,-2932,3781,-334,-100,8,1,7,11
1.72313E+12,-7070,-2926,3776,-318,-104,5,1,7,11
1.72313E+12,-7070,-2917,3772,-309,-105,-258,1,7,11
1.72313E+12,-7080,-2904,3771,-303,-98,-262,1,7,11
1.72313E+12,-7075,-2896,3760,-299,-91,7,1,7,11
1.72313E+12,-7075,-2896,3755,-294,-86,23,1,7,11
1.72313E+12,-7080,-2888,3749,-288,-76,43,1,7,11
1.72313E+12,-7092,-2884,3752,-281,-74,62,1,7,11
1.72313E+12,-7096,-2888,3764,-285,-75,78,1,7,11
1.72313E+12,-7096,-2886,3768,-285,-77,92,1,7,11
1.72313E+12,-7089,-2881,3765,-284,-83,102,1,7,11
1.72313E+12,-7081,-2879,3759,-288,-90,105,1,7,11
1.72313E+12,-7092,-2878,3761,-288,-95,106,1,7,11
1.72313E+12,-7094,-2875,3760,-287,-98,111,1,7,11
1.72313E+12,-7095,-2868,3770,-288,-100,111,1,7,11
1.72313E+12,-7100,-2871,3770,-294,-102,114,1,7,11
1.72313E+12,-7101,-2878,3765,-304,-104,110,1,7,11
1.72313E+12,-7103,-2890,3783,-312,-110,100,1,7,11
1.72313E+12,-7101,-2899,3792,-311,-119,87,1,7,11
1.72313E+12,-7099,-2905,3795,-300,120,75,1,7,11
1.72313E+12,-7090,-2896,3789,-287,103,69,1,7,11
1.72313E+12,-7088,-2893,3791,-287,89,65,1,7,11
1.72313E+12,-7092,-2892,3794,-295,77,67,1,7,11
1.72313E+12,-7101,-2891,3795,-304,69,77,1,7,11
1.72313E+12,-7106,-2885,3796,-302,59,98,1,7,11
1.72313E+12,-7099,-2875,3795,-297,53,122,1,7,11
1.72313E+12,-7097,-2858,3794,-289,51,-112,1,7,11
1.72313E+12,-7098,-2849,3797,-289,48,-98,1,7,11
1.72313E+12,-7103,-2841,3800,-298,40,-88,1,7,11
1.72313E+12,-7116,-2839,3810,-315,25,-77,1,7,11
1.72313E+12,-7123,-2838,3822,-325,5,-63,1,7,11
1.72313E+12,-7123,-2830,3831,-336,-282,-48,1,7,11
1.72313E+12,-7117,-2826,3831,-347,-319,-40,1,7,11
1.72313E+12,-7104,-2560,3835,-370,-351,-40,1,7,11
1.72313E+12,-7096,-2553,3834,-144,-373,-41,1,7,11
1.72313E+12,-7084,-2553,3833,-168,-383,-45,1,7,11
1.72313E+12,-7072,-2551,3826,-190,-383,-56,1,7,11
1.72313E+12,-7056,-2556,3836,-221,-374,-70,1,7,11
1.72313E+12,-7044,-2825,4108,-246,-363,-87,1,7,11
1.72313E+12,-7293,-2843,4126,-514,-347,-109,1,7,11
1.72313E+12,-7288,-2857,4139,-248,-333,126,1,7,11
1.72313E+12,-7282,-2862,4156,-229,-315,97,1,7,11
1.72313E+12,-7276,-2858,4159,-208,-290,74,1,7,11
1.72313E+12,-7270,-2860,4152,-192,0,44,1,7,11
1.72313E+12,-7268,-2864,4139,-175,34,11,1,7,11
1.72313E+12,-7271,-2872,4143,-158,82,-269,1,7,11
1.72313E+12,-7271,-2876,4155,-144,107,-286,1,7,11
1.72313E+12,-7272,-2884,4159,-129,123,-295,1,7,11
1.72313E+12,-7272,-2884,4169,-365,-123,-300,1,7,11
1.72313E+12,-7276,-2887,4170,-344,-114,-305,1,7,11
1.72313E+12,-7286,-2887,4168,-331,-102,-300,1,7,11
1.72313E+12,-7293,-2882,4185,-320,-91,-286,1,7,11
1.72313E+12,-7043,-2874,4180,-309,-83,-264,1,7,11
1.72313E+12,-7047,-2868,4171,-303,-77,16,1,7,11
1.72313E+12,-7048,-2867,4164,-305,-71,41,1,7,11
1.72313E+12,-7296,-2872,4164,-306,-71,53,1,7,11
1.72313E+12,-7285,-2873,4163,-304,-68,49,1,7,11
1.72313E+12,-7293,-2874,4164,-315,-62,37,1,7,11
1.72313E+12,-7043,-2880,4169,-324,-61,27,1,7,11
1.72313E+12,-7046,-2878,4165,-330,-66,13,1,7,11
1.72313E+12,-7041,-2876,4156,-345,-66,-259,1,7,11
1.72313E+12,-7052,-2889,4153,-372,-66,-286,1,7,11
1.72313E+12,-7064,-2896,4156,-382,-65,-288,1,7,11
1.72313E+12,-7064,-2910,4149,-133,-63,-291,1,7,11
1.72313E+12,-7053,-2923,4150,-133,-57,-298,1,7,11
1.72313E+12,-7042,-2932,4145,-382,-52,-307,1,7,11
1.72313E+12,-7290,-2942,4140,-372,-47,-323,1,7,11
1.72313E+12,-7283,-2698,4133,-360,-45,-330,1,7,11
1.72313E+12,-7284,-2703,4135,-349,-39,-355,1,7,11
1.72313E+12,-7288,-2698,4138,-337,-35,-366,1,7,11
1.72313E+12,-7294,-2944,4131,-319,-32,-367,1,7,11
1.72313E+12,-7292,-2937,4120,-312,-36,-350,1,7,11
1.72313E+12,-7279,-2720,4112,-355,-80,-309,1,7,11
1.72313E+12,-7277,-2731,4123,-359,-93,-301,1,7,11
1.72313E+12,-7261,-2718,4100,-263,-8,25,1,7,11
1.72313E+12,-7278,-2717,4100,6,262,39,1,7,11
1.72313E+12,-7291,-2708,3837,-275,-51,37,1,7,11
1.72313E+12,-7044,-2715,4100,-295,-63,27,1,7,11
1.72313E+12,-7265,-2760,4096,-292,-86,-266,1,7,11
1.72313E+12,-7266,-2757,4101,-285,-84,-285,1,7,11
1.72313E+12,-7273,-2746,4098,-290,-53,28,1,7,11
1.72313E+12,-7285,-2757,4096,-288,-56,43,1,7,11
1.72313E+12,-7276,-2770,4098,-264,-89,32,1,7,11
1.72313E+12,-7285,-2770,4098,-269,-92,21,1,7,11
1.72313E+12,-7280,-2748,4113,-261,-118,48,1,7,11
1.72313E+12,-7288,-2744,4129,-265,125,50,1,7,11
1.72313E+12,-7276,-2724,4100,-263,36,29,1,7,11
1.72313E+12,-7265,-2720,4106,-282,39,20,1,7,11
1.72313E+12,-7291,-2723,4147,-359,-311,12,1,7,11
1.72313E+12,-7290,-2721,4147,-376,-335,24,1,7,11
1.72313E+12,-7234,-2736,4156,-181,-341,67,1,7,11
1.72313E+12,-7220,-2757,4175,-199,-317,47,1,7,11
1.72313E+12,-7208,-2807,4180,-372,-48,-131,1,7,11
1.72313E+12,-7207,-3143,4181,-325,-86,-358,1,7,11
1.72313E+12,-7210,-3155,4192,-310,-88,-349,1,7,11
1.72313E+12,-7180,-3177,4200,4,101,-339,1,7,11
1.72313E+12,-6903,-3158,4179,40,-127,-315,1,7,11
1.72313E+12,-7169,-3148,4173,31,-114,-322,1,7,11
1.72313E+12,-7174,-3197,4208,-338,82,-349,1,7,11
1.72313E+12,-7171,-2947,4217,-356,54,-341,1,7,11
1.72313E+12,-6883,-3192,3968,-133,-267,27,1,7,11
1.72313E+12,-6869,-3193,3979,-136,-266,68,1,7,11
1.72313E+12,-6857,-3195,4214,-137,32,112,1,7,11
1.72313E+12,-6860,-2958,3971,-153,45,103,1,7,11
1.72313E+12,-6856,-3001,4010,-319,90,98,1,7,11
1.72313E+12,-6851,-2984,4004,-288,104,93,1,7,11
1.72313E+12,-6862,-2974,4012,38,-126,17,1,7,11
1.72313E+12,-6859,-2988,4025,65,114,23,1,7,11
1.72313E+12,-6835,-3003,4022,64,100,43,1,7,11
1.72313E+12,-6822,-2996,4028,-59,-94,46,1,7,11
1.72313E+12,-6825,-2990,4034,-40,-83,46,1,7,11
1.72313E+12,-6860,-3171,4049,256,-51,22,1,7,11
1.72313E+12,-6872,-3125,4075,103,95,18,1,7,11
1.72313E+12,-6865,-3118,4066,60,80,22,1,7,11
1.72313E+12,-6845,-3158,4379,-146,-308,-279,1,7,11
1.72313E+12,-6836,-3177,4378,-175,-350,-288,1,7,11
1.72313E+12,-6788,-3185,4383,-531,-164,-263,1,7,11
1.72313E+12,-7038,-2980,4431,-592,-366,59,1,7,11
1.72313E+12,-7021,-3000,4437,-595,-365,88,1,7,11
1.72313E+12,-6966,-3030,4458,-253,-307,-82,1,7,11
1.72313E+12,-6960,-3031,4455,-226,-264,-62,1,7,11
1.72313E+12,-6987,-3026,4447,-284,305,-8,1,7,11
1.72313E+12,-7008,-3021,4438,10,341,-10,1,7,11
1.72313E+12,-6803,-2995,4440,106,344,269,1,7,11
1.72313E+12,-6810,-2974,4433,-110,341,296,1,7,11
1.72313E+12,-6795,-3139,4375,-63,207,374,1,7,11
1.72313E+12,-6807,-3140,4384,-56,236,372,1,7,11
1.72313E+12,-6871,-3086,4089,-33,564,262,1,7,11
1.72313E+12,-6889,-2809,4079,-30,568,-16,1,7,11
1.72313E+12,-7221,-2781,4057,-90,210,-67,1,7,11
1.72313E+12,-7225,-2770,4048,-88,168,-62,1,7,11
1.72313E+12,-7233,-2757,4040,-92,132,-62,1,7,11
1.72313E+12,-7235,-2744,4027,-100,354,-57,1,7,11
1.72313E+12,-7227,-2737,4019,-118,322,-48,1,7,11
1.72313E+12,-7230,-2732,4020,114,301,-50,1,7,11
1.72313E+12,-7239,-2728,4025,104,279,-54,1,7,11
1.72313E+12,-7229,-2716,4025,95,257,-53,1,7,11
1.72313E+12,-7225,-2708,4022,85,-13,-59,1,7,11
1.72313E+12,-7226,-2699,4018,76,-22,-66,1,7,11
1.72313E+12,-7226,-2699,4024,70,-29,-72,1,7,11
1.72313E+12,-7225,-2696,4021,67,-34,-77,1,7,11
1.72313E+12,-7217,-2694,4025,64,-33,-88,1,7,11
1.72313E+12,-7226,-2922,4019,10,-38,119,1,7,11
1.72313E+12,-7220,-2941,4007,-287,-55,-126,1,7,11
1.72313E+12,-7219,-2936,4007,-286,-56,121,1,7,11
1.72313E+12,-7253,-2925,3995,-285,-45,60,1,7,11
1.72313E+12,-7253,-2928,3993,-289,-50,48,1,7,11
1.72313E+12,-7242,-2932,3995,-292,-59,35,1,7,11
1.72313E+12,-7241,-2944,4003,-298,-72,19,1,7,11
1.72313E+12,-7244,-2692,4015,-291,-96,2,1,7,11
1.72313E+12,-7241,-2689,4025,-290,-116,-271,1,7,11
1.72313E+12,-7242,-2690,4024,-283,125,-277,1,7,11
1.72313E+12,-7233,-2941,4014,-266,112,-272,1,7,11
1.72313E+12,-7216,-2926,3998,-262,117,-261,1,7,11
1.72313E+12,-7203,-2917,3981,-276,-117,7,1,7,11
1.72313E+12,-7206,-2918,3979,-299,-91,13,1,7,11
1.72313E+12,-7218,-2930,3992,-320,-73,17,1,7,11
1.72313E+12,-7232,-2937,4001,-320,-74,21,1,7,11
1.72313E+12,-7239,-2939,4002,-309,-88,26,1,7,11
1.72313E+12,-7243,-2689,4004,-303,-94,33,1,7,11
1.72313E+12,-7249,-2942,4001,-304,-100,38,1,7,11
1.72313E+12,-7251,-2941,4004,-302,-101,39,1,7,11
1.72313E+12,-7249,-2690,4012,-298,-104,36,1,7,11
1.72313E+12,-7245,-2690,4014,-293,-107,32,1,7,11
1.72313E+12,-7229,-2932,4000,-289,-111,26,1,7,11
1.72313E+12,-7230,-2935,3989,-307,-100,16,1,7,11
1.72313E+12,-7218,-2933,3992,-333,-98,5,1,7,11
1.72313E+12,-7220,-2697,4013,-362,-94,-272,1,7,11
1.72313E+12,-7224,-2711,4032,-363,-103,-286,1,7,11
1.72313E+12,-7215,-2716,4032,-351,-116,-290,1,7,11
1.72313E+12,-7196,-2718,4018,-335,-117,-295,1,7,11
1.72313E+12,-7191,-2713,4009,-326,-104,-299,1,7,11
1.72313E+12,-7196,-2709,4005,-322,-88,-299,1,7,11
1.72313E+12,-7204,-2713,4009,-328,-76,-303,1,7,11
1.72313E+12,-7213,-2715,4009,-337,-72,-306,1,7,11
1.72313E+12,-7220,-2721,4012,-344,-78,-303,1,7,11
1.72313E+12,-7216,-2723,4019,-355,-93,-300,1,7,11
1.72313E+12,-7210,-2721,4012,-367,-103,-297,1,7,11
1.72313E+12,-7200,-2727,4007,-375,-109,-288,1,7,11
1.72313E+12,-7196,-2735,4007,-381,-109,-284,1,7,11
1.72313E+12,-7196,-2746,4009,-133,-102,-276,1,7,11
1.72313E+12,-7193,-2748,4012,-384,-96,-276,1,7,11
1.72313E+12,-7197,-2754,4012,-129,-91,-277,1,7,11
1.72313E+12,-7194,-2757,4010,-129,-90,-280,1,7,11
1.72313E+12,-7194,-2760,3997,-133,-92,-285,1,7,11
1.72313E+12,-7201,-2761,3982,-137,-98,-287,1,7,11
1.72313E+12,-7202,-2769,3980,-143,-108,-287,1,7,11
1.72313E+12,-7198,-2776,3977,-150,-118,-284,1,7,11
1.72313E+12,-7197,-2779,3983,-153,-122,-285,1,7,11
1.72313E+12,-7202,-2784,3988,-156,-121,-280,1,7,11
1.72313E+12,-7195,-2782,3988,-156,-118,-272,1,7,11
1.72313E+12,-7183,-2816,3971,-165,-97,-319,1,7,11
1.72313E+12,-7176,-3077,3970,-186,-99,-341,1,7,11
1.72313E+12,-7178,-3094,4223,-207,-105,-362,1,7,11
1.72313E+12,-7175,-3105,4219,-219,-115,-373,1,7,11
1.72313E+12,-7175,-3120,3981,-221,-107,-382,1,7,11
1.72313E+12,-7178,-3136,3984,-205,-96,-377,1,7,11
1.72313E+12,-6909,-3138,3970,-177,-76,-371,1,7,11
1.72313E+12,-6899,-3126,4197,-161,-46,-376,1,7,11
1.72313E+12,-6882,-3141,4193,-163,-15,-132,1,7,11
1.72313E+12,-6877,-3162,4192,-155,279,-170,1,7,11
1.72313E+12,-6884,-3180,4195,-137,313,-224,1,7,11
1.72313E+12,-6893,-3191,4203,-381,322,-518,1,7,11
1.72313E+12,-6888,-2950,4198,-352,335,-547,1,7,11
1.72313E+12,-6895,-2946,4188,-335,346,-575,1,7,11
1.72313E+12,-7173,-2952,4191,-338,339,-575,1,7,11
1.72313E+12,-7191,-2973,4194,-347,314,-554,1,7,11
1.72313E+12,-7184,-2987,4198,-342,280,-530,1,7,11
1.72313E+12,-7169,-2986,4179,-330,-8,-252,1,7,11
1.72313E+12,-6906,-2986,4168,-347,-46,-227,1,7,11
1.72313E+12,-6887,-2999,4164,-368,-82,-191,1,7,11
1.72313E+12,-6881,-3011,4166,-382,-105,-174,1,7,11
1.72313E+12,-6879,-3024,4169,-384,-125,-150,1,7,11
1.72313E+12,-6877,-3039,4169,-381,123,-382,1,7,11
1.72313E+12,-6870,-3049,4168,-374,123,-368,1,7,11
1.72313E+12,-6863,-3065,4175,-371,127,-353,1,7,11
1.72313E+12,-6865,-3070,4178,-362,-123,-345,1,7,11
1.72313E+12,-6864,-3329,4167,-351,-121,-335,1,7,11
1.72313E+12,-6863,-3329,4166,-343,-127,-331,1,7,11
1.72313E+12,-6864,-3331,4162,-342,-128,-330,1,7,11
1.72313E+12,-6864,-3331,4162,-342,119,-326,1,7,11
1.72313E+12,-6862,-3338,4171,-340,112,-319,1,7,11
1.72313E+12,-6847,-3347,4189,-298,83,-293,1,7,11
1.72313E+12,-6840,-3351,4186,-280,85,-286,1,7,11
1.72313E+12,-6834,-3345,4180,-263,94,-279,1,7,11
1.72313E+12,-6844,-3348,4175,2,101,-278,1,7,11
1.72313E+12,-6837,-3351,4183,12,98,-273,1,7,11
1.72313E+12,-6846,-3347,4182,21,85,-278,1,7,11
1.72313E+12,-6848,-3340,4182,24,63,-275,1,7,11
1.72313E+12,-6847,-3331,4175,23,50,-268,1,7,11
1.72313E+12,-6850,-3070,4184,16,48,0,1,7,11
1.72313E+12,-6847,-3064,4187,11,47,21,1,7,11
1.72313E+12,-6841,-3070,4194,0,50,42,1,7,11
1.72313E+12,-6842,-3331,4204,-261,54,55,1,7,11
1.72313E+12,-6839,-3335,4212,-261,53,67,1,7,11
1.72313E+12,-6826,-3344,4209,-258,51,73,1,7,11
1.72313E+12,-6819,-3348,4212,1,51,77,1,7,11
1.72313E+12,-6812,-3367,3969,1,47,76,1,7,11
1.72313E+12,-6801,-3376,3985,7,47,71,1,7,11
1.72313E+12,-6803,-3375,3999,17,51,65,1,7,11
1.72313E+12,-6813,-3360,4002,38,56,71,1,7,11
1.72313E+12,-6810,-3350,4004,61,64,85,1,7,11
1.72313E+12,-6801,-3332,3999,77,76,105,1,7,11
1.72313E+12,-6797,-3062,4008,81,95,123,1,7,11
1.72313E+12,-6806,-3048,4014,78,114,-119,1,7,11
1.72313E+12,-6810,-3051,4020,73,127,-107,1,7,11
1.72313E+12,-6801,-3051,4022,74,-124,-106,1,7,11
1.72313E+12,-6804,-3049,4019,67,-119,-112,1,7,11
1.72313E+12,-6804,-3052,4019,58,-109,-128,1,7,11
1.72313E+12,-6815,-3061,4027,51,-99,109,1,7,11
1.72313E+12,-6815,-3064,4043,50,-93,95,1,7,11
1.72313E+12,-6811,-3060,4029,60,-91,84,1,7,11
1.72313E+12,-6808,-3052,4025,59,-83,78,1,7,11
1.72313E+12,-6812,-3050,4027,53,-79,77,1,7,11
1.72313E+12,-6822,-3055,4036,41,-75,72,1,7,11
1.72313E+12,-6833,-3056,4045,40,-75,81,1,7,11
1.72313E+12,-6832,-3046,4042,50,-88,98,1,7,11
1.72313E+12,-6823,-3030,4031,68,-89,115,1,7,11
1.72313E+12,-6812,-3022,4024,69,-77,-124,1,7,11
1.72313E+12,-6806,-3022,4024,61,-56,-115,1,7,11
1.72313E+12,-6807,-3020,4035,57,-43,-110,1,7,11
1.72313E+12,-6810,-3023,4032,54,-34,-113,1,7,11
1.72313E+12,-6817,-3023,4028,51,-31,-121,1,7,11
1.72313E+12,-6827,-3014,4023,47,-32,124,1,7,11
1.72313E+12,-6841,-3007,4031,40,-34,117,1,7,11
1.72313E+12,-6848,-3003,4027,36,-40,116,1,7,11
1.72313E+12,-6850,-2996,4024,30,-42,120,1,7,11
1.72313E+12,-6849,-2997,4030,26,-42,-126,1,7,11
1.72313E+12,-6846,-2992,4024,27,-46,-114,1,7,11
1.72313E+12,-6844,-2990,4011,29,-45,-108,1,7,11
1.72313E+12,-6844,-2988,4007,24,-40,-110,1,7,11
1.72313E+12,-6847,-2983,4007,16,-37,-118,1,7,11
1.72313E+12,-6846,-2984,4006,13,-39,123,1,7,11
1.72313E+12,-6850,-2975,4007,6,-43,109,1,7,11
1.72313E+12,-6857,-2979,4014,3,-45,100,1,7,11
1.72313E+12,-6865,-2973,4018,4,-50,94,1,7,11
1.72313E+12,-6871,-2960,4017,12,-55,94,1,7,11
1.72313E+12,-6879,-2956,4013,8,-59,96,1,7,11
1.72313E+12,-6874,-2953,4012,3,-59,98,1,7,11
1.72313E+12,-6868,-2959,4003,0,-56,99,1,7,11
1.72313E+12,-6864,-2966,4003,-261,-59,95,1,7,11
1.72313E+12,-6850,-2972,3998,-264,-65,76,1,7,11
