timestamp,ax,ay,az,gx,gy,gz,Label1,Label2,Label3
1.72313E+12,-5500,-4352,5323,-305,-47,-116,1,7,11
1.72313E+12,-5455,-4647,5262,-348,-115,116,1,7,11
1.72313E+12,-5403,-4704,5443,-148,82,72,1,7,11
1.72313E+12,-5120,-4527,5405,-194,61,36,1,7,11
1.72313E+12,-5094,-4581,5383,-194,68,37,1,7,11
1.72313E+12,-5099,-4882,5391,-169,114,54,1,7,11
1.72313E+12,-5378,-4904,5417,-373,-85,89,1,7,11
1.72313E+12,-5412,-4881,5454,-307,-28,-125,1,7,11
1.72313E+12,-5465,-4584,5258,-261,288,-90,1,7,11
1.72313E+12,-5264,-4527,5303,40,320,-66,1,7,11
1.72313E+12,-5306,-4708,5321,67,332,-65,1,7,11
1.72313E+12,-5348,-4636,5330,59,343,-85,1,7,11
1.72313E+12,-5370,-4328,5331,34,348,-122,1,7,11
1.72313E+12,-5636,-4273,5316,6,345,91,1,7,11
1.72313E+12,-5376,-4261,5303,-302,332,35,1,7,11
1.72313E+12,-5355,-4266,5261,-342,283,-284,1,7,11
1.72313E+12,-5301,-4305,5427,-151,-53,-357,1,7,11
1.72313E+12,-5479,-4637,5097,-248,-125,-182,1,7,11
1.72313E+12,-5414,-4736,5054,-594,88,-247,1,7,11
1.72313E+12,-5379,-4590,5048,-637,88,-524,1,7,11
1.72313E+12,-5103,-4937,5061,-612,121,-234,1,7,11
1.72313E+12,-5100,-4979,5089,-531,-66,-156,1,7,11
1.72313E+12,-5116,-4975,5088,-167,280,-306,1,7,11
1.72313E+12,-5403,-4936,5114,-336,131,44,1,7,11
1.72313E+12,-5454,-4904,5448,-278,241,114,1,7,11
1.72313E+12,-5258,-4588,5259,56,574,-96,1,7,11
1.72313E+12,-5311,-4523,5307,117,627,-78,1,7,11
1.72313E+12,-5369,-4694,5334,-97,394,-85,1,7,11
1.72313E+12,-5661,-4615,5336,-99,631,-118,1,7,11
1.72313E+12,-5682,-4301,5330,112,577,75,1,7,11
1.72313E+12,-5679,-4277,5298,37,224,-267,1,7,11
1.72313E+12,-5635,-4314,5498,-313,346,-365,1,7,11
1.72313E+12,-5299,-4654,5433,-174,-47,-215,1,7,11
1.72313E+12,-5495,-4509,5383,-523,103,-566,1,7,11
1.72313E+12,-5443,-4866,5081,-562,18,-603,1,7,11
1.72313E+12,-5398,-4959,5057,-576,-284,-592,1,7,11
1.72313E+12,-5109,-4766,5042,-557,-305,-540,1,7,11
1.72313E+12,-5089,-4782,5048,-516,-292,-219,1,7,11
1.72313E+12,-5098,-4761,5059,-210,3,-138,1,7,11
1.72313E+12,-5105,-4969,5079,-173,45,-303,1,7,11
1.72313E+12,-5380,-4923,5382,-161,98,23,1,7,11
1.72313E+12,-5391,-4895,5427,-153,-111,77,1,7,11
1.72313E+12,-5428,-4603,5464,-143,-68,91,1,7,11
1.72313E+12,-5466,-4555,5249,-140,-40,89,1,7,11
1.72313E+12,-5261,-4504,5288,-154,-19,77,1,7,11
1.72313E+12,-5294,-4715,5311,-176,-11,71,1,7,11
1.72313E+12,-5308,-4672,5310,-201,-26,64,1,7,11
1.72313E+12,-5311,-4661,5286,-515,-64,43,1,7,11
1.72313E+12,-5309,-4670,5487,-586,122,6,1,7,11
1.72313E+12,-5270,-4684,5382,-437,31,-288,1,7,11
1.72313E+12,-5479,-4486,5035,-838,-307,-317,1,7,11
1.72313E+12,-5425,-4589,5212,-712,-375,-324,1,7,11
1.72313E+12,-5116,-4965,5170,-1068,-151,-335,1,7,11
1.72313E+12,-5079,-4826,5143,-1112,-154,-345,1,7,11
1.72313E+12,-5055,-5148,4843,-1093,-142,-339,1,7,11
1.72313E+12,-5052,-5141,4794,-1059,-366,-323,1,7,11
1.72313E+12,-5076,-4822,4772,-1047,-305,-304,1,7,11
1.72313E+12,-5395,-4776,4811,-1077,26,-268,1,7,11
1.72313E+12,-5462,-4737,5122,-1122,96,57,1,7,11
1.72313E+12,-5268,-4941,5173,-898,-104,-105,1,7,11
1.72313E+12,-5300,-4904,5216,-936,-76,265,1,7,11
1.72313E+12,-5307,-4904,5019,-985,-76,381,1,7,11
1.72313E+12,-5489,-4987,5117,-1334,-94,219,1,7,11
1.72313E+12,-5413,-4832,5472,-1375,122,524,1,7,11
1.72313E+12,-5070,-5173,5497,-1333,43,519,1,7,11
1.72313E+12,-5008,-5230,5474,-981,-303,196,1,7,11
1.72313E+12,-5220,-5000,5423,-1140,-378,182,1,7,11
1.72313E+12,-5206,-5015,5382,-1041,-166,182,1,7,11
1.72313E+12,-4994,-5038,5395,-708,-157,229,1,7,11
1.72313E+12,-5033,-5023,5401,-852,-384,589,1,7,11
1.72313E+12,-5044,-5224,5108,-465,-356,550,1,7,11
1.72313E+12,-5035,-5129,5028,-602,-311,672,1,7,11
1.72313E+12,-5048,-4775,5200,-542,51,744,1,7,11
1.72313E+12,-5116,-4928,4856,-559,-126,1036,1,7,11
1.72313E+12,-5415,-4567,4758,-610,-71,1073,1,7,11
1.72313E+12,-5495,-4543,4974,-595,-21,1092,1,7,11
1.72313E+12,-5305,-4565,4936,-767,-29,1126,1,7,11
1.72313E+12,-5350,-4583,4871,-932,-73,902,1,7,11
1.72313E+12,-5373,-4604,4527,-1364,123,951,1,7,11
1.72313E+12,-5367,-4947,4732,-1558,78,1013,1,7,11
1.72313E+12,-5351,-4796,4721,-1416,71,1326,1,7,11
1.72313E+12,-5331,-5141,4704,-1433,100,1355,1,7,11
1.72313E+12,-5350,-5167,4677,-1611,-87,1341,1,7,11
1.72313E+12,-5679,-5130,4625,-1248,-20,1310,1,7,11
1.72313E+12,-5550,-4814,4328,-1171,293,1291,1,7,11
1.72313E+12,-5958,-4741,4347,-1382,299,1333,1,7,11
1.72313E+12,-5985,-4753,4646,-1324,262,1370,1,7,11
1.72313E+12,-5982,-4763,4664,-904,-28,1364,1,7,11
1.72313E+12,-6003,-4989,4663,-754,-37,1308,1,7,11
1.72313E+12,-5777,-4931,4665,-864,-27,987,1,7,11
1.72313E+12,-5821,-4890,4709,-469,260,936,1,7,11
1.72313E+12,-5885,-4878,4518,-560,291,902,1,7,11
1.72313E+12,-6201,-4607,4570,-334,304,1146,1,7,11
1.72313E+12,-6188,-4573,4579,-100,299,1139,1,7,11
1.72313E+12,-6163,-4524,4599,347,298,1071,1,7,11
1.72313E+12,-5863,-4714,4605,230,284,699,1,7,11
1.72313E+12,-5834,-4645,4871,568,274,801,1,7,11
1.72313E+12,-5827,-4313,4891,608,270,399,1,7,11
1.72313E+12,-5851,-4234,4897,617,270,537,1,7,11
1.72313E+12,-5888,-4411,4893,589,256,220,1,7,11
1.72313E+12,-6174,-4361,4909,517,-10,216,1,7,11
1.72313E+12,-6173,-4077,4907,173,-35,244,1,7,11
1.72313E+12,-6161,-4067,4901,328,-62,253,1,7,11
1.72313E+12,-6167,-4084,4912,-34,-92,229,1,7,11
1.72313E+12,-6183,-4356,4919,-125,119,190,1,7,11
1.72313E+12,-6195,-4374,4916,66,70,150,1,7,11
1.72313E+12,-6185,-4383,4886,10,17,368,1,7,11
1.72313E+12,-6153,-4417,4607,-312,-289,319,1,7,11
1.72313E+12,-5838,-4232,4588,-362,-342,-10,1,7,11
1.72313E+12,-5776,-4295,4536,-372,-374,-122,1,7,11
1.72313E+12,-6004,-4327,4491,-362,-370,19,1,7,11
1.72313E+12,-5990,-4350,4705,-352,-353,-314,1,7,11
1.72313E+12,-5965,-4657,4709,-349,-320,-350,1,7,11
1.72313E+12,-5957,-4694,4726,-306,-271,-361,1,7,11
1.72313E+12,-5975,-4708,4487,10,53,-349,1,7,11
1.72313E+12,-5761,-4721,4540,80,-122,-307,1,7,11
1.72313E+12,-5774,-4704,4572,-82,-67,15,1,7,11
1.72313E+12,-5785,-4656,4866,-8,-23,69,1,7,11
1.72313E+12,-5808,-4348,4900,288,-3,108,1,7,11
1.72313E+12,-5804,-4303,4942,304,-16,124,1,7,11
1.72313E+12,-5810,-4264,4755,324,-41,124,1,7,11
1.72313E+12,-5808,-4451,4798,368,-78,-113,1,7,11
1.72313E+12,-5786,-4378,4824,370,-104,-98,1,7,11
1.72313E+12,-5778,-4077,4853,306,-112,-115,1,7,11
1.72313E+12,-5768,-4070,5132,-45,-113,90,1,7,11
1.72313E+12,-5775,-4056,5134,114,-89,20,1,7,11
1.72313E+12,-5809,-4034,5121,37,-47,-290,1,7,11
1.72313E+12,-5815,-4028,4779,-298,-31,-304,1,7,11
1.72313E+12,-5823,-4065,4924,-139,258,-320,1,7,11
1.72313E+12,-5819,-4364,4532,-239,297,-323,1,7,11
1.72313E+12,-5818,-4410,4653,-585,347,-305,1,7,11
1.72313E+12,-5830,-4475,4287,-426,146,-276,1,7,11
1.72313E+12,-6152,-4297,4243,-490,207,5,1,7,11
1.72313E+12,-6238,-4630,4233,-490,244,66,1,7,11
1.72313E+12,-6061,-4674,4240,-421,516,-82,1,7,11
1.72313E+12,-6116,-4681,4262,-561,522,306,1,7,11
1.72313E+12,-6411,-4671,4307,-172,513,177,1,7,11
1.72313E+12,-6449,-4614,4345,-284,214,549,1,7,11
1.72313E+12,-6518,-4268,4619,90,143,405,1,7,11
1.72313E+12,-6363,-4386,4662,-44,281,848,1,7,11
1.72313E+12,-6694,-3979,4722,292,121,910,1,7,11
1.72313E+12,-6698,-3823,4539,328,-290,1574,1,7,11
1.72313E+12,-6323,-3764,4930,-10,-164,1690,1,7,11
1.72313E+12,-6449,-3794,4833,-49,-240,1925,1,7,11
1.72313E+12,-6265,-3782,5154,-61,-548,1939,1,7,11
1.72313E+12,-6170,-3764,5200,-117,-520,1693,1,7,11
1.72313E+12,-5873,-3739,5187,57,-214,1583,1,7,11
1.72313E+12,-6157,-3968,5152,-298,-149,901,1,7,11
1.72313E+12,-6205,-3928,4809,-149,-366,510,1,7,11
1.72313E+12,-6147,-3931,4598,-564,-360,174,1,7,11
1.72313E+12,-5856,-3795,4504,-789,-352,-315,1,7,11
1.72313E+12,-5822,-4213,4703,-729,-319,-542,1,7,11
1.72313E+12,-5798,-4393,4652,-1073,-281,-425,1,7,11
1.72313E+12,-5767,-4258,4328,-1026,8,-443,1,7,11
1.72313E+12,-5773,-4337,4269,-663,84,-422,1,7,11
1.72313E+12,-5826,-4347,4228,-697,-56,-597,1,7,11
1.72313E+12,-6184,-4312,4262,-620,271,-198,1,7,11
1.72313E+12,-6048,-4262,4347,-189,212,13,1,7,11
1.72313E+12,-6402,-4431,4683,52,561,-21,1,7,11
1.72313E+12,-6719,-4153,4756,469,434,239,1,7,11
1.72313E+12,-6741,-3800,4854,852,595,192,1,7,11
1.72313E+12,-6727,-3935,5161,716,193,347,1,7,11
1.72313E+12,-6662,-3534,5130,753,270,-68,1,7,11
1.72313E+12,-6309,-3686,4799,679,79,-265,1,7,11
1.72313E+12,-6434,-3697,4972,488,-371,-208,1,7,11
1.72313E+12,-6041,-3536,4890,247,-532,-414,1,7,11
1.72313E+12,-6196,-3938,4574,284,-611,-838,1,7,11
1.72313E+12,-6154,-4101,4566,-111,-582,-659,1,7,11
1.72313E+12,-6171,-4209,4582,-114,-227,-878,1,7,11
1.72313E+12,-6245,-3996,4603,-17,-334,-498,1,7,11
1.72313E+12,-6069,-3974,4895,134,50,-554,1,7,11
1.72313E+12,-6111,-4178,4907,518,-120,-358,1,7,11
1.72313E+12,-6427,-4100,4927,602,-65,34,1,7,11
1.72313E+12,-6501,-3759,4977,394,-46,-120,1,7,11
1.72313E+12,-6309,-3928,4802,430,-79,-35,1,7,11
1.72313E+12,-6316,-3867,5122,439,99,274,1,7,11
1.72313E+12,-6526,-3571,5168,449,-270,276,1,7,11
1.72313E+12,-6430,-3545,5166,420,-143,-56,1,7,11
1.72313E+12,-6098,-3558,5173,605,-250,57,1,7,11
1.72313E+12,-6024,-3561,5171,550,-596,-316,1,7,11
1.72313E+12,-6214,-3850,5172,230,-389,-383,1,7,11
1.72313E+12,-5888,-3884,5167,190,-403,-373,1,7,11
1.72313E+12,-5817,-3922,5156,135,-629,-344,1,7,11
1.72313E+12,-5781,-3942,5174,325,-546,-326,1,7,11
1.72313E+12,-5773,-3968,5201,263,-183,-303,1,7,11
1.72313E+12,-5762,-3717,5232,-27,-313,-277,1,7,11
1.72313E+12,-5831,-3728,5043,-32,92,-288,1,7,11
1.72313E+12,-5909,-3959,5104,276,-12,-286,1,7,11
1.72313E+12,-6249,-3928,5405,361,364,-284,1,7,11
1.72313E+12,-6056,-3864,5402,206,195,-302,1,7,11
1.72313E+12,-6078,-3564,5086,526,214,-341,1,7,11
1.72313E+12,-6079,-3562,5008,539,156,-357,1,7,11
1.72313E+12,-6267,-3850,5168,521,286,-362,1,7,11
1.72313E+12,-6203,-3932,5121,188,115,-139,1,7,11
1.72313E+12,-6147,-3760,4827,376,43,-134,1,7,11
1.72313E+12,-5843,-3821,4814,355,33,-347,1,7,11
1.72313E+12,-5860,-4126,4854,137,80,9,1,7,11
1.72313E+12,-5873,-3831,5130,254,-125,-90,1,7,11
1.72313E+12,-5881,-3762,5139,572,-49,293,1,7,11
1.72313E+12,-6171,-3950,5168,585,309,361,1,7,11
1.72313E+12,-6224,-3881,5208,581,160,373,1,7,11
1.72313E+12,-6022,-3524,4998,567,523,328,1,7,11
1.72313E+12,-6093,-3700,5057,525,599,261,1,7,11
1.72313E+12,-6142,-3623,5097,244,616,-64,1,7,11
1.72313E+12,-6443,-3289,5388,191,586,98,1,7,11
1.72313E+12,-6472,-3244,5404,374,238,6,1,7,11
1.72313E+12,-6434,-3245,5088,268,337,-326,1,7,11
1.72313E+12,-6099,-3366,5004,122,-90,-151,1,7,11
1.72313E+12,-6215,-3490,5168,-283,18,-210,1,7,11
1.72313E+12,-5888,-3844,4836,-164,-333,-219,1,7,11
1.72313E+12,-6160,-3914,4837,-201,-271,-161,1,7,11
1.72313E+12,-6218,-3931,4837,-163,94,-274,1,7,11
1.72313E+12,-6038,-3956,5150,-343,-29,-86,1,7,11
1.72313E+12,-6099,-3956,5188,54,344,350,1,7,11
1.72313E+12,-6443,-3901,5234,-30,186,225,1,7,11
1.72313E+12,-6285,-3547,5009,361,247,557,1,7,11
1.72313E+12,-6361,-3712,5083,194,515,594,1,7,11
1.72313E+12,-6397,-3636,5423,516,228,543,1,7,11
1.72313E+12,-6668,-3319,5496,576,148,168,1,7,11
1.72313E+12,-6373,-3253,5276,389,259,311,1,7,11
1.72313E+12,-6505,-3455,5481,394,86,-114,1,7,11
1.72313E+12,-6132,-3428,5422,564,-320,-342,1,7,11
1.72313E+12,-6251,-3204,5091,144,-201,-544,1,7,11
1.72313E+12,-5833,-3282,5241,-54,-552,-465,1,7,11
1.72313E+12,-5967,-3638,5170,-283,-546,-878,1,7,11
1.72313E+12,-5936,-3477,5161,-221,-181,-717,1,7,11
1.72313E+12,-6001,-3558,5209,-580,-275,-683,1,7,11
1.72313E+12,-5820,-3858,4992,-579,-111,-783,1,7,11
1.72313E+12,-6153,-3861,5024,-520,321,-587,1,7,11
1.72313E+12,-6252,-3858,5082,-179,226,-137,1,7,11
1.72313E+12,-6106,-3843,5400,-334,621,4,1,7,11
1.72313E+12,-6474,-3549,5477,84,439,121,1,7,11
1.72313E+12,-6508,-3467,5501,262,441,-50,1,7,11
1.72313E+12,-6525,-3641,5256,366,413,-80,1,7,11
1.72313E+12,-6289,-3314,5286,146,589,62,1,7,11
1.72313E+12,-6278,-3262,5301,128,190,-356,1,7,11
1.72313E+12,-6466,-3266,5262,327,-23,-252,1,7,11
1.72313E+12,-6060,-3309,5402,-35,-261,-388,1,7,11
1.72313E+12,-6171,-3670,5053,49,-164,-772,1,7,11
1.72313E+12,-5843,-3528,5002,-340,-220,-832,1,7,11
1.72313E+12,-5798,-3867,5239,-157,-204,-780,1,7,11
1.72313E+12,-5813,-3943,5007,-159,-382,-387,1,7,11
1.72313E+12,-5822,-3724,5025,-364,-301,-211,1,7,11
1.72313E+12,-5858,-3715,5050,-299,43,-318,1,7,11
1.72313E+12,-5883,-3926,5069,6,114,55,1,7,11
1.72313E+12,-6183,-3865,5100,35,-79,118,1,7,11
1.72313E+12,-6242,-3521,5399,62,-32,-103,1,7,11
1.72313E+12,-6026,-3475,5453,76,-15,-93,1,7,11
1.72313E+12,-6062,-3697,5254,73,-12,-124,1,7,11
1.72313E+12,-6082,-3657,5306,66,-23,78,1,7,11
1.72313E+12,-6080,-3629,5330,52,-52,13,1,7,11
1.72313E+12,-6060,-3593,5331,30,-102,-312,1,7,11
1.72313E+12,-6032,-3315,5293,-265,93,-380,1,7,11
1.72313E+12,-6233,-3598,5479,-341,14,-200,1,7,11
1.72313E+12,-6171,-3664,5396,-203,-314,-228,1,7,11
1.72313E+12,-5835,-3529,5066,-583,-373,-233,1,7,11
1.72313E+12,-5784,-3931,5039,-434,-373,-228,1,7,11
1.72313E+12,-6003,-3811,5029,-476,-343,-196,1,7,11
1.72313E+12,-6001,-4145,5014,-443,-295,-160,1,7,11
1.72313E+12,-5787,-4159,5004,-559,22,-360,1,7,11
1.72313E+12,-5822,-3835,5226,-195,87,-270,1,7,11
1.72313E+12,-5861,-3766,5222,-141,-75,72,1,7,11
1.72313E+12,-6179,-3967,5247,-364,294,-106,1,7,11
1.72313E+12,-6240,-3889,5042,-287,143,-18,1,7,11
1.72313E+12,-6021,-3844,5377,26,232,294,1,7,11
1.72313E+12,-6057,-3573,5477,74,524,288,1,7,11
1.72313E+12,-6073,-3558,5309,115,216,-28,1,7,11
1.72313E+12,-6054,-3514,5334,-121,348,-123,1,7,11
1.72313E+12,-6272,-3461,5305,78,-60,18,1,7,11
1.72313E+12,-6224,-3678,5497,-302,50,-325,1,7,11
1.72313E+12,-6146,-3686,5399,-206,-321,-363,1,7,11
1.72313E+12,-5809,-3475,5028,-635,-373,-379,1,7,11
1.72313E+12,-6013,-3571,5206,-801,-349,-130,1,7,11
1.72313E+12,-5979,-3934,5153,-657,-282,-384,1,7,11
1.72313E+12,-5987,-3790,5156,-719,79,-140,1,7,11
1.72313E+12,-5776,-4140,5179,-695,-77,-138,1,7,11
1.72313E+12,-5808,-4157,5186,-863,256,-373,1,7,11
1.72313E+12,-5840,-4110,5174,-795,310,-350,1,7,11
1.72313E+12,-5880,-3798,5195,-802,355,-336,1,7,11
1.72313E+12,-6198,-3728,5236,-836,130,-334,1,7,11
1.72313E+12,-6031,-3876,5074,-718,180,-312,1,7,11
1.72313E+12,-6051,-3860,5107,-766,196,-307,1,7,11
1.72313E+12,-6036,-3858,5075,-1049,190,-318,1,7,11
1.72313E+12,-6258,-3898,5014,-1085,179,-367,1,7,11
1.72313E+12,-6218,-3730,5183,-1112,174,-199,1,7,11
1.72313E+12,-6177,-4107,4855,-1110,171,-572,1,7,11
1.72313E+12,-5880,-3990,4789,-1075,165,-440,1,7,11
1.72313E+12,-5871,-4388,4755,-739,153,-818,1,7,11
1.72313E+12,-5861,-4472,4954,-867,131,-644,1,7,11
1.72313E+12,-5851,-4260,4892,-484,375,-682,1,7,11
1.72313E+12,-5875,-4286,4886,-631,131,-682,1,7,11
1.72313E+12,-6153,-4264,4903,-238,152,-873,1,7,11
1.72313E+12,-6182,-4239,4935,-355,181,-494,1,7,11
1.72313E+12,-6178,-4456,4986,38,192,-607,1,7,11
1.72313E+12,-6164,-4394,4745,-89,195,-250,1,7,11
1.72313E+12,-6163,-4068,4766,257,196,-193,1,7,11
1.72313E+12,-6195,-4003,4807,281,203,-168,1,7,11
1.72313E+12,-6233,-4218,5135,274,203,-153,1,7,11
1.72313E+12,-6251,-4182,5198,272,188,-130,1,7,11
1.72313E+12,-6260,-4169,5001,262,153,-356,1,7,11
1.72313E+12,-6256,-4142,5029,260,373,-356,1,7,11
1.72313E+12,-6247,-4104,5026,-18,320,-371,1,7,11
1.72313E+12,-6224,-3823,5214,-82,-8,-141,1,7,11
1.72313E+12,-6199,-3838,5143,49,-89,-179,1,7,11
1.72313E+12,-6157,-4135,4783,-353,79,-220,1,7,11
1.72313E+12,-5841,-4219,4926,-237,3,-516,1,7,11
1.72313E+12,-5809,-4094,4578,-601,-286,-546,1,7,11
1.72313E+12,-5810,-4473,4509,-628,-273,-551,1,7,11
1.72313E+12,-5816,-4321,4484,-593,24,-527,1,7,11
1.72313E+12,-5827,-4672,4504,-250,76,-241,1,7,11
1.72313E+12,-5821,-4730,4533,-365,109,-217,1,7,11
1.72313E+12,-5817,-4724,4572,62,-123,-210,1,7,11
1.72313E+12,-5804,-4664,4590,-40,-105,-199,1,7,11
1.72313E+12,-5808,-4349,4892,324,-74,-200,1,7,11
1.72313E+12,-5817,-4255,4925,162,-42,-189,1,7,11
1.72313E+12,-5837,-4431,4982,203,260,-173,1,7,11
1.72313E+12,-5855,-4356,4797,220,293,-130,1,7,11
1.72313E+12,-5870,-4035,5134,218,304,-347,1,7,11
1.72313E+12,-5884,-3978,5199,189,269,-321,1,7,11
1.72313E+12,-5871,-4154,5227,371,-67,-322,1,7,11
1.72313E+12,-5858,-4113,5238,-17,104,-336,1,7,11
1.72313E+12,-5828,-4116,5230,79,10,-352,1,7,11
1.72313E+12,-5770,-4179,5216,-342,-335,-363,1,7,11
1.72313E+12,-5966,-4029,5196,-234,-183,-378,1,7,11
1.72313E+12,-5912,-4382,5175,-589,-214,-134,1,7,11
1.72313E+12,-5630,-4441,5140,-386,-205,-144,1,7,11
1.72313E+12,-5630,-4468,4859,-404,-165,-384,1,7,11
1.72313E+12,-5898,-4235,4841,-392,-355,-344,1,7,11
1.72313E+12,-5918,-4249,4836,-628,-289,-286,1,7,11
1.72313E+12,-5954,-4233,4828,-597,32,28,1,7,11
1.72313E+12,-5983,-4464,4820,-574,88,77,1,7,11
1.72313E+12,-6014,-4455,4845,-564,-124,116,1,7,11
1.72313E+12,-5775,-4460,5133,-539,-104,-112,1,7,11
1.72313E+12,-5777,-4461,5151,-243,-101,-119,1,7,11
1.72313E+12,-5778,-4451,5161,-214,-108,90,1,7,11
1.72313E+12,-5773,-4444,5168,-209,123,13,1,7,11
1.72313E+12,-5764,-4450,5182,-223,82,-331,1,7,11
1.72313E+12,-6003,-4467,5172,-242,23,-155,1,7,11
1.72313E+12,-5965,-4232,5143,-523,-303,-210,1,7,11
1.72313E+12,-5912,-4250,4847,-559,-366,-239,1,7,11
1.72313E+12,-5611,-4287,4833,-607,-148,-243,1,7,11
1.72313E+12,-5554,-4336,4819,-636,-168,-214,1,7,11
1.72313E+12,-5513,-4635,4821,-385,-151,-167,1,7,11
1.72313E+12,-5722,-4647,4788,-606,-373,-356,1,7,11
1.72313E+12,-5705,-4661,4770,-580,-307,-297,1,7,11
1.72313E+12,-5726,-4671,4770,-546,20,19,1,7,11
1.72313E+12,-5510,-4669,4781,-235,88,76,1,7,11
1.72313E+12,-5559,-4653,4785,-182,-99,-122,1,7,11
1.72313E+12,-5607,-4620,4809,-135,-43,-67,1,7,11
1.72313E+12,-5900,-4345,4836,-367,-4,-29,1,7,11
1.72313E+12,-5934,-4346,5138,-341,277,-31,1,7,11
1.72313E+12,-5967,-4328,5162,-300,297,-59,1,7,11
1.72313E+12,-5762,-4311,5206,-257,320,-99,1,7,11
1.72313E+12,-5777,-4274,5194,64,316,-120,1,7,11
1.72313E+12,-6005,-4228,5138,113,302,109,1,7,11
1.72313E+12,-5944,-4450,4796,120,280,61,1,7,11
1.72313E+12,-5614,-4476,4951,71,-10,-269,1,7,11
1.72313E+12,-5553,-4289,4601,-259,-31,-357,1,7,11
1.72313E+12,-5549,-4629,4558,-322,-8,-172,1,7,11
1.72313E+12,-5575,-4689,4555,-339,304,-173,1,7,11
1.72313E+12,-5620,-4488,4595,-295,138,-365,1,7,11
1.72313E+12,-5935,-4491,4879,76,233,0,1,7,11
1.72313E+12,-5978,-4713,4903,-66,585,109,1,7,11
1.72313E+12,-5784,-4644,4955,300,422,-63,1,7,11
1.72313E+12,-5835,-4319,4989,365,483,265,1,7,11
1.72313E+12,-5879,-4268,4853,154,510,290,1,7,11
1.72313E+12,-6165,-4464,5171,191,482,264,1,7,11
1.72313E+12,-6198,-4411,5213,194,405,-72,1,7,11
1.72313E+12,-6213,-4039,5191,171,536,79,1,7,11
1.72313E+12,-6170,-3989,5165,352,371,-333,1,7,11
1.72313E+12,-6165,-3973,5126,-36,-43,-372,1,7,11
1.72313E+12,-5868,-3969,4823,64,51,-149,1,7,11
1.72313E+12,-5788,-4068,4748,-354,-363,-130,1,7,11
1.72313E+12,-5918,-4444,4923,-252,-246,-332,1,7,11
1.72313E+12,-5564,-4308,4867,-637,-560,-273,1,7,11
1.72313E+12,-5519,-4652,4592,-448,-519,85,1,7,11
1.72313E+12,-5546,-4714,4866,-436,-148,346,1,7,11
1.72313E+12,-5577,-4736,4880,-609,-261,553,1,7,11
1.72313E+12,-5626,-4708,4882,-225,-67,470,1,7,11
1.72313E+12,-5941,-4637,4899,-359,285,849,1,7,11
1.72313E+12,-6002,-4298,4907,-295,350,647,1,7,11
1.72313E+12,-5816,-4449,4926,-270,136,891,1,7,11
1.72313E+12,-6164,-4361,4976,-294,176,825,1,7,11
1.72313E+12,-6238,-4050,4794,-349,195,487,1,7,11
1.72313E+12,-6267,-4023,5136,-150,190,638,1,7,11
1.72313E+12,-6271,-3969,5188,-134,172,239,1,7,11
1.72313E+12,-6272,-4170,5182,-133,141,334,1,7,11
1.72313E+12,-6267,-4114,5143,-179,342,-74,1,7,11
1.72313E+12,-6233,-3829,4837,-539,281,60,1,7,11
1.72313E+12,-6196,-3833,4770,-421,-33,-278,1,7,11
1.72313E+12,-5766,-4088,4867,-1109,91,19,1,7,11
1.72313E+12,-5959,-4436,4558,-948,85,98,1,7,11
1.72313E+12,-5916,-4238,4507,-1016,113,-62,1,7,11
1.72313E+12,-5901,-4279,4735,-1324,-90,314,1,7,11
1.72313E+12,-5916,-4612,4730,-1365,-39,194,1,7,11
1.72313E+12,-5941,-4667,4718,-1364,-8,573,1,7,11
1.72313E+12,-5976,-4699,4701,-1363,276,413,1,7,11
1.72313E+12,-5795,-4723,4696,-1349,315,482,1,7,11
1.72313E+12,-6159,-4705,4700,-1293,365,808,1,7,11
1.72313E+12,-6025,-4645,4710,-939,165,891,1,7,11
1.72313E+12,-6110,-4319,4715,-1077,211,724,1,7,11
1.72313E+12,-6131,-4274,4700,-686,216,1040,1,7,11
1.72313E+12,-6105,-4243,4670,-812,185,754,1,7,11
1.72313E+12,-6085,-4472,4637,-451,133,878,1,7,11
1.72313E+12,-6102,-4436,4608,-629,331,437,1,7,11
1.72313E+12,-6144,-4389,4334,-569,272,522,1,7,11
1.72313E+12,-6430,-4357,4323,-526,-41,148,1,7,11
1.72313E+12,-6438,-4094,4319,-237,-92,338,1,7,11
1.72313E+12,-6436,-4353,4326,-203,-123,305,1,7,11
1.72313E+12,-6431,-4368,4345,-161,115,292,1,7,11
1.72313E+12,-6419,-4370,4612,-373,109,291,1,7,11
1.72313E+12,-6415,-4378,4643,-329,110,289,1,7,11
1.72313E+12,-6423,-4382,4686,-279,101,286,1,7,11
1.72313E+12,-6423,-4375,4731,31,66,287,1,7,11
1.72313E+12,-6402,-4359,4491,81,7,287,1,7,11
1.72313E+12,-6118,-4078,4494,109,-306,282,1,7,11
1.72313E+12,-6083,-4058,4510,106,-354,281,1,7,11
1.72313E+12,-6030,-4052,4528,74,-139,281,1,7,11
1.72313E+12,-6228,-4054,4547,43,-165,272,1,7,11
1.72313E+12,-6177,-4052,4549,17,-173,-3,1,7,11
1.72313E+12,-6172,-4050,4558,-273,-155,-29,1,7,11
1.72313E+12,-6180,-4040,4536,-304,-142,-37,1,7,11
1.72313E+12,-6193,-4021,4506,-347,-132,-22,1,7,11
1.72313E+12,-6232,-4017,4507,-155,-365,266,1,7,11
1.72313E+12,-6268,-4023,4512,-213,-342,326,1,7,11
1.72313E+12,-6033,-4060,4530,-515,-322,139,1,7,11
1.72313E+12,-6037,-4088,4550,-537,-300,188,1,7,11
1.72313E+12,-6038,-4092,4551,-529,-266,204,1,7,11
1.72313E+12,-6043,-4072,4544,-244,28,182,1,7,11
1.72313E+12,-6052,-4035,4535,-213,69,365,1,7,11
1.72313E+12,-6067,-4009,4516,-192,96,337,1,7,11
1.72313E+12,-6082,-4003,4519,-191,111,251,1,7,11
1.72313E+12,-6103,-4027,4544,-184,102,-52,1,7,11
1.72313E+12,-6114,-4062,4556,-146,76,-83,1,7,11
1.72313E+12,-6099,-4363,4525,-328,3,-113,1,7,11
1.72313E+12,-6091,-4388,4735,25,-275,124,1,7,11
1.72313E+12,-6058,-4403,4664,119,-301,89,1,7,11
1.72313E+12,-6053,-4385,4338,-50,-299,66,1,7,11
1.72313E+12,-6066,-4355,4295,269,-262,57,1,7,11
1.72313E+12,-6090,-4069,4298,301,48,83,1,7,11
1.72313E+12,-6102,-4028,4312,326,95,119,1,7,11
1.72313E+12,-6118,-3997,4339,340,-127,-104,1,7,11
1.72313E+12,-6127,-4214,4635,361,-117,-77,1,7,11
1.72313E+12,-6401,-4198,4703,369,-116,-62,1,7,11
1.72313E+12,-6412,-4187,4514,376,121,-54,1,7,11
1.72313E+12,-6407,-4157,4566,140,105,-73,1,7,11
1.72313E+12,-6407,-4105,4601,151,95,-104,1,7,11
1.72313E+12,-6409,-3806,4895,381,94,121,1,7,11
1.72313E+12,-6136,-3784,4931,333,88,96,1,7,11
1.72313E+12,-6108,-3781,4965,288,94,56,1,7,11
1.72313E+12,-6099,-3781,4985,-8,113,2,1,7,11
1.72313E+12,-6095,-3780,4989,-37,-119,-305,1,7,11
1.72313E+12,-6105,-3768,4957,-61,-101,-347,1,7,11
1.72313E+12,-6098,-3775,4905,-103,-95,-376,1,7,11
1.72313E+12,-6096,-3818,4606,105,-97,-147,1,7,11
1.72313E+12,-6084,-4122,4543,72,-116,-170,1,7,11
1.72313E+12,-6065,-4183,4734,46,126,-188,1,7,11
1.72313E+12,-6040,-3982,4683,47,124,-190,1,7,11
1.72313E+12,-6026,-4038,4654,71,-106,-179,1,7,11
1.72313E+12,-6032,-4082,4649,113,-66,-159,1,7,11
1.72313E+12,-6061,-4363,4667,-66,-20,-378,1,7,11
1.72313E+12,-6071,-4358,4688,297,277,-312,1,7,11
1.72313E+12,-6068,-4084,4715,156,318,24,1,7,11
1.72313E+12,-6069,-4035,4503,536,364,95,1,7,11
1.72313E+12,-6094,-4222,4554,632,152,-112,1,7,11
1.72313E+12,-6114,-4131,4605,440,176,-71,1,7,11
1.72313E+12,-6135,-3788,4907,461,195,-45,1,7,11
1.72313E+12,-6424,-3967,4984,441,211,-31,1,7,11
1.72313E+12,-6444,-3912,4816,402,209,-21,1,7,11
1.72313E+12,-6440,-3861,5120,605,179,-30,1,7,11
1.72313E+12,-6440,-3575,5142,532,137,-75,1,7,11
1.72313E+12,-6449,-3550,5167,192,337,125,1,7,11
1.72313E+12,-6455,-3559,5191,359,263,76,1,7,11
1.72313E+12,-6429,-3580,5166,282,-88,41,1,7,11
1.72313E+12,-6125,-3890,4856,-59,72,-261,1,7,11
1.72313E+12,-6059,-3950,4760,116,-274,-305,1,7,11
1.72313E+12,-6246,-3747,4909,33,-317,-351,1,7,11
1.72313E+12,-6210,-3783,4575,-292,-297,-360,1,7,11
1.72313E+12,-6175,-3820,4512,-341,16,-308,1,7,11
1.72313E+12,-6181,-4128,4508,-366,114,21,1,7,11
1.72313E+12,-6189,-4160,4503,-342,-57,121,1,7,11
1.72313E+12,-6231,-4164,4508,-304,295,-55,1,7,11
1.72313E+12,-6047,-4141,4515,-263,376,284,1,7,11
1.72313E+12,-6113,-3824,4518,42,184,376,1,7,11
1.72313E+12,-6436,-3782,4570,65,255,193,1,7,11
1.72313E+12,-6291,-3738,4968,110,562,241,1,7,11
1.72313E+12,-6356,-3720,4807,-41,551,211,1,7,11
1.72313E+12,-6375,-3930,4853,30,210,131,1,7,11
1.72313E+12,-6364,-3886,5126,322,339,258,1,7,11
1.72313E+12,-6338,-3573,4858,305,-68,107,1,7,11
1.72313E+12,-6304,-3530,4850,-12,48,-279,1,7,11
1.72313E+12,-6522,-3509,4836,-85,-327,-354,1,7,11
1.72313E+12,-6450,-3521,4804,85,-170,-375,1,7,11
1.72313E+12,-6108,-3544,4756,6,-233,-371,1,7,11
1.72313E+12,-6040,-3580,4974,-338,-242,-360,1,7,11
1.72313E+12,-6017,-3896,4979,-163,-203,-341,1,7,11
1.72313E+12,-6245,-3954,4974,-211,-155,-295,1,7,11
1.72313E+12,-6221,-3747,4965,-231,-350,19,1,7,11
1.72313E+12,-6206,-3760,4912,-231,-276,81,1,7,11
1.72313E+12,-6235,-3759,4879,-250,87,124,1,7,11
1.72313E+12,-6040,-3764,4873,-518,-62,-80,1,7,11
1.72313E+12,-6114,-3752,4913,-246,276,-17,1,7,11
1.72313E+12,-6444,-3741,4935,-202,329,299,1,7,11
1.72313E+12,-6499,-3760,4984,-164,346,336,1,7,11
1.72313E+12,-6500,-3761,4780,-358,335,325,1,7,11
1.72313E+12,-6505,-3755,4862,14,305,-46,1,7,11
1.72313E+12,-6479,-3723,5164,121,259,99,1,7,11
1.72313E+12,-6452,-3915,5156,-47,-51,-282,1,7,11
1.72313E+12,-6401,-3848,4852,-28,-110,-133,1,7,11
1.72313E+12,-6095,-3559,4784,-84,93,-222,1,7,11
1.72313E+12,-6067,-3562,4973,77,51,-534,1,7,11
1.72313E+12,-6039,-3865,4914,-294,20,-534,1,7,11
1.72313E+12,-6267,-3935,4582,-380,10,-233,1,7,11
1.72313E+12,-6238,-3756,4531,-187,37,-156,1,7,11
1.72313E+12,-6256,-4107,4539,-217,103,-323,1,7,11
1.72313E+12,-6025,-4166,4567,-174,-86,37,1,7,11
1.72313E+12,-6049,-4207,4873,-335,-31,-116,1,7,11
1.72313E+12,-6053,-4208,4890,47,-3,-29,1,7,11
1.72313E+12,-6060,-4168,4901,-93,289,264,1,7,11
1.72313E+12,-6089,-4101,4910,-7,331,266,1,7,11
1.72313E+12,-6137,-3769,4971,296,376,-11,1,7,11
1.72313E+12,-6452,-3713,4786,314,156,-40,1,7,11
1.72313E+12,-6483,-3929,5121,322,166,-72,1,7,11
1.72313E+12,-6495,-3844,5135,345,151,-120,1,7,11
1.72313E+12,-6494,-3511,5123,361,374,69,1,7,11
1.72313E+12,-6490,-3461,4838,320,340,-263,1,7,11
1.72313E+12,-6495,-3697,4818,-20,293,-331,1,7,11
1.72313E+12,-6477,-3465,4786,-120,-21,-136,1,7,11
1.72313E+12,-6383,-3880,4915,-303,71,-215,1,7,11
1.72313E+12,-6110,-3968,4604,-378,24,-250,1,7,11
1.72313E+12,-6105,-3780,4575,-154,21,-251,1,7,11
1.72313E+12,-6091,-4100,4558,-142,61,-162,1,7,11
1.72313E+12,-6077,-4144,4552,-349,105,-345,1,7,11
1.72313E+12,-6067,-4184,4562,-277,-89,-285,1,7,11
1.72313E+12,-6077,-4180,4588,-124,-23,15,1,7,11
1.72313E+12,-6106,-4135,4871,-6,293,48,1,7,11
1.72313E+12,-6140,-3818,4929,355,346,76,1,7,11
1.72313E+12,-6421,-3730,4971,181,369,99,1,7,11
1.72313E+12,-6437,-3890,4748,220,374,104,1,7,11
1.72313E+12,-6457,-3546,4778,204,372,96,1,7,11
1.72313E+12,-6485,-3493,4841,140,371,81,1,7,11
1.72313E+12,-6528,-3706,5165,327,356,68,1,7,11
1.72313E+12,-6297,-3672,5199,257,313,65,1,7,11
1.72313E+12,-6313,-3662,5224,-89,-7,60,1,7,11
1.72313E+12,-6299,-3664,5246,78,-92,50,1,7,11
1.72313E+12,-6489,-3685,5214,2,63,25,1,7,11
1.72313E+12,-6135,-3481,5158,-336,-282,-285,1,7,11
1.72313E+12,-6253,-3576,4827,-150,-352,-358,1,7,11
1.72313E+12,-5871,-3942,4740,-196,-366,-201,1,7,11
1.72313E+12,-5782,-3755,4892,-221,-309,-556,1,7,11
1.72313E+12,-5786,-3815,4605,-251,82,-619,1,7,11
1.72313E+12,-5874,-4100,4602,-234,-17,-599,1,7,11
1.72313E+12,-6253,-3818,4591,-177,128,-239,1,7,11
1.72313E+12,-6130,-3776,4873,-143,249,-325,1,7,11
1.72313E+12,-6505,-3768,4935,-380,575,118,1,7,11
1.72313E+12,-6331,-3748,4742,-341,574,269,1,7,11
1.72313E+12,-6364,-3725,4801,-301,252,354,1,7,11
1.72313E+12,-6365,-3950,4823,-268,133,366,1,7,11
1.72313E+12,-6344,-3904,4807,3,-17,307,1,7,11
1.72313E+12,-6309,-3843,4792,-279,96,-44,1,7,11
1.72313E+12,-6525,-3552,4782,-333,-275,117,1,7,11
1.72313E+12,-6455,-3569,4792,-129,-373,54,1,7,11
1.72313E+12,-6111,-3875,4773,-160,-181,0,1,7,11
1.72313E+12,-6025,-3924,4740,-181,-198,-309,1,7,11
1.72313E+12,-6236,-3716,4963,-213,-164,-353,1,7,11
1.72313E+12,-6221,-3762,4942,-244,-362,-374,1,7,11
1.72313E+12,-6221,-3789,4932,-247,-290,-364,1,7,11
1.72313E+12,-6250,-3790,4913,-242,51,-331,1,7,11
1.72313E+12,-6050,-3794,4914,-243,-123,16,1,7,11
1.72313E+12,-6086,-3817,4940,-234,-47,68,1,7,11
1.72313E+12,-6116,-3828,4959,-199,-34,102,1,7,11
1.72313E+12,-6141,-3822,4972,-147,-48,119,1,7,11
1.72313E+12,-6415,-3805,4985,-351,-75,123,1,7,11
1.72313E+12,-6413,-3780,4991,-300,-113,125,1,7,11
1.72313E+12,-6404,-3756,4747,-257,110,115,1,7,11
1.72313E+12,-6124,-3738,4771,31,86,107,1,7,11
1.72313E+12,-6106,-3962,4769,56,68,102,1,7,11
1.72313E+12,-6048,-3933,4769,13,36,79,1,7,11
1.72313E+12,-6269,-3941,4749,-300,28,53,1,7,11
1.72313E+12,-6248,-3944,4989,-373,37,28,1,7,11
1.72313E+12,-6255,-3961,4745,-186,59,17,1,7,11
1.72313E+12,-6265,-3716,4747,-232,78,39,1,7,11
1.72313E+12,-6029,-3736,4746,-522,100,85,1,7,11
1.72313E+12,-6047,-3744,4740,-542,115,-113,1,7,11
1.72313E+12,-6053,-3752,4745,-568,126,-72,1,7,11
1.72313E+12,-6063,-3758,4768,-593,-122,-61,1,7,11
1.72313E+12,-6409,-3932,4747,-639,-55,-126,1,7,11
1.72313E+12,-6425,-3908,4988,-417,-15,114,1,7,11
1.72313E+12,-6403,-3916,4961,-452,-17,86,1,7,11
1.72313E+12,-6095,-3943,4903,-499,-40,33,1,7,11
1.72313E+12,-6052,-3732,4577,-820,-56,-296,1,7,11
1.72313E+12,-6041,-3778,4517,-885,-50,-353,1,7,11
1.72313E+12,-6033,-4117,4730,-685,-30,-356,1,7,11
1.72313E+12,-6043,-4177,4727,-719,267,-320,1,7,11
1.72313E+12,-6062,-4202,4701,-683,307,36,1,7,11
1.72313E+12,-6115,-4212,4710,-645,377,101,1,7,11
1.72313E+12,-6428,-3973,4496,-853,188,-91,1,7,11
1.72313E+12,-6493,-3997,4563,-784,259,-46,1,7,11
1.72313E+12,-6292,-4001,4878,-416,535,-14,1,7,11
1.72313E+12,-6325,-3972,4914,-519,521,-8,1,7,11
1.72313E+12,-6315,-4166,4903,-274,219,-30,1,7,11
1.72313E+12,-6279,-3840,4868,87,142,-87,1,7,11
1.72313E+12,-6489,-3804,4562,125,295,75,1,7,11
1.72313E+12,-6429,-3792,4497,108,-80,-287,1,7,11
1.72313E+12,-6127,-3806,4703,45,76,-132,1,7,11
1.72313E+12,-6088,-4105,4663,-290,-261,-184,1,7,11
1.72313E+12,-6040,-4175,4636,-360,-312,-194,1,7,11
1.72313E+12,-6023,-3983,4635,-138,-318,-167,1,7,11
1.72313E+12,-6030,-4018,4649,-132,-274,-359,1,7,11
1.72313E+12,-6063,-4032,4679,-348,58,-261,1,7,11
1.72313E+12,-6101,-4011,4712,-273,-109,106,1,7,11
1.72313E+12,-6407,-3976,4491,58,-16,-60,1,7,11
1.72313E+12,-6467,-4204,4545,126,304,258,1,7,11
1.72313E+12,-6503,-4172,4583,-65,322,276,1,7,11
1.72313E+12,-6275,-4129,4896,-18,314,-12,1,7,11
1.72313E+12,-6306,-3811,4924,286,281,-78,1,7,11
1.72313E+12,-6319,-3733,4936,319,-32,98,1,7,11
1.72313E+12,-6279,-3895,4883,320,-107,17,1,7,11
1.72313E+12,-6494,-3899,4585,-20,20,-373,1,7,11
1.72313E+12,-6439,-3924,4529,-109,-320,-205,1,7,11
1.72313E+12,-6121,-3960,4724,45,-369,-528,1,7,11
1.72313E+12,-6088,-3751,4690,-308,-348,-545,1,7,11
1.72313E+12,-6075,-3814,4680,-359,-275,-242,1,7,11
1.72313E+12,-6084,-4139,4706,-367,92,-153,1,7,11
1.72313E+12,-6107,-4168,4722,-309,-60,-312,1,7,11
1.72313E+12,-6121,-4161,4481,-259,290,23,1,7,11
1.72313E+12,-6424,-4170,4539,32,359,61,1,7,11
1.72313E+12,-6470,-4155,4595,73,379,68,1,7,11
1.72313E+12,-6278,-4149,4929,113,376,49,1,7,11
1.72313E+12,-6296,-4127,4988,-89,318,34,1,7,11
1.72313E+12,-6275,-4121,4769,-43,-34,-277,1,7,11
1.72313E+12,-6479,-3840,4754,-9,84,-363,1,7,11
1.72313E+12,-6141,-3806,4938,-20,-331,-214,1,7,11
1.72313E+12,-6073,-3796,4876,-96,-211,-564,1,7,11
1.72313E+12,-6019,-3825,4590,60,-566,-603,1,7,11
1.72313E+12,-6205,-4132,4582,-273,-625,-577,1,7,11
1.72313E+12,-6148,-4181,4574,-306,-621,-252,1,7,11
1.72313E+12,-5863,-4220,4582,-313,-547,-164,1,7,11
1.72313E+12,-5867,-3996,4878,-302,-178,-329,1,7,11
1.72313E+12,-6167,-3999,4919,-258,-316,-261,1,7,11
1.72313E+12,-6216,-4219,4955,41,36,39,1,7,11
1.72313E+12,-6071,-4186,4802,68,108,57,1,7,11
1.72313E+12,-6123,-4150,4861,125,127,48,1,7,11
1.72313E+12,-6143,-4099,5130,-71,104,23,1,7,11
1.72313E+12,-6086,-3803,4821,-15,21,-272,1,7,11
1.72313E+12,-6248,-3796,4986,-21,-148,-354,1,7,11
1.72313E+12,-6150,-4120,4923,-85,-247,-203,1,7,11
1.72313E+12,-5823,-4002,4887,52,-564,-556,1,7,11
1.72313E+12,-5786,-4045,4899,15,-561,-608,1,7,11
1.72313E+12,-5770,-4369,4943,37,-250,-581,1,7,11
1.72313E+12,-5768,-4389,4970,104,-158,-515,1,7,11
1.72313E+12,-5792,-4380,4749,-71,-289,-182,1,7,11
1.72313E+12,-5843,-4059,4791,274,102,-362,1,7,11
1.72313E+12,-6158,-3979,4831,361,-37,-287,1,7,11
1.72313E+12,-6225,-4160,5144,182,311,45,1,7,11
1.72313E+12,-6055,-4102,5219,245,367,117,1,7,11
1.72313E+12,-6076,-3789,5011,548,375,-91,1,7,11
1.72313E+12,-6061,-3734,5027,565,329,-101,1,7,11
1.72313E+12,-6032,-3954,5026,532,-63,95,1,7,11
1.72313E+12,-6254,-3944,5023,199,82,22,1,7,11
1.72313E+12,-6189,-3956,5236,358,-286,-298,1,7,11
1.72313E+12,-5882,-3763,5215,-13,-359,-352,1,7,11
1.72313E+12,-5840,-3823,5194,116,-135,-371,1,7,11
1.72313E+12,-5825,-4131,5188,79,-369,-356,1,7,11
1.72313E+12,-5809,-4156,5170,75,-312,-299,1,7,11
1.72313E+12,-5815,-4154,5166,91,35,28,1,7,11
1.72313E+12,-5834,-4140,5177,107,-125,94,1,7,11
1.72313E+12,-5865,-4124,5188,117,-40,-120,1,7,11
1.72313E+12,-6164,-3839,5219,117,285,-112,1,7,11
1.72313E+12,-6206,-3795,5238,114,321,-119,1,7,11
1.72313E+12,-6220,-3749,5234,87,321,121,1,7,11
1.72313E+12,-6213,-3733,5221,35,296,88,1,7,11
1.72313E+12,-6194,-3751,5204,-295,-7,41,1,7,11
1.72313E+12,-6168,-3808,5198,-366,-56,-266,1,7,11
1.72313E+12,-5881,-4125,5176,-144,-97,-312,1,7,11
1.72313E+12,-5878,-4156,5150,-144,-107,-336,1,7,11
1.72313E+12,-5863,-4182,5138,-137,-92,-323,1,7,11
1.72313E+12,-5849,-4209,5144,-362,-49,-289,1,7,11
1.72313E+12,-5832,-4221,5134,-304,256,2,1,7,11
1.72313E+12,-5848,-4207,5137,8,311,18,1,7,11
1.72313E+12,-5867,-4182,5142,41,349,21,1,7,11
1.72313E+12,-6163,-4132,5152,53,372,-4,1,7,11
1.72313E+12,-6206,-4105,5153,47,378,-283,1,7,11
1.72313E+12,-6243,-3824,5151,36,356,-288,1,7,11
1.72313E+12,-6271,-3828,5160,14,323,-289,1,7,11
1.72313E+12,-6037,-4101,5173,7,282,-296,1,7,11
1.72313E+12,-6020,-3837,5156,31,-26,-299,1,7,11
1.72313E+12,-6242,-4102,5132,36,-66,-314,1,7,11
1.72313E+12,-6197,-4123,4850,47,-106,-343,1,7,11
1.72313E+12,-6177,-4155,4838,48,126,-135,1,7,11
1.72313E+12,-6173,-4180,4833,54,108,-174,1,7,11
1.72313E+12,-6162,-4185,4810,62,90,-195,1,7,11
1.72313E+12,-6153,-4198,4793,64,94,-189,1,7,11
1.72313E+12,-6160,-4208,4789,84,121,-154,1,7,11
1.72313E+12,-6164,-4219,4794,105,-100,-368,1,7,11
1.72313E+12,-6183,-3981,4816,-119,-69,-339,1,7,11
1.72313E+12,-6181,-3998,4827,-77,-58,-315,1,7,11
1.72313E+12,-6165,-4007,4832,-28,-68,-311,1,7,11
1.72313E+12,-5885,-4001,4840,268,-81,-325,1,7,11
1.72313E+12,-5835,-4145,5156,369,-42,-324,1,7,11
1.72313E+12,-5867,-4116,5189,362,-4,-301,1,7,11
1.72313E+12,-6161,-3832,5235,346,272,-276,1,7,11
1.72313E+12,-6206,-3813,5016,323,274,6,1,7,11
1.72313E+12,-6243,-3804,5061,296,259,29,1,7,11
1.72313E+12,-6266,-3801,5099,277,-26,41,1,7,11
1.72313E+12,-6263,-3794,5376,269,-71,40,1,7,11
1.72313E+12,-6239,-3789,5107,260,-127,14,1,7,11
1.72313E+12,-6198,-3781,5074,-19,53,-282,1,7,11
1.72313E+12,-5884,-3789,5019,-70,-287,-337,1,7,11
1.72313E+12,-5791,-3804,5178,120,-380,-132,1,7,11
1.72313E+12,-5977,-4121,5122,11,-174,-182,1,7,11
1.72313E+12,-5946,-4191,4824,-318,-178,-192,1,7,11
1.72313E+12,-5940,-3992,4816,-345,-384,-160,1,7,11
1.72313E+12,-5979,-4028,4829,-310,-286,-340,1,7,11
1.72313E+12,-5773,-4030,4855,36,91,19,1,7,11
1.72313E+12,-5840,-4007,5145,-111,-37,108,1,7,11
1.72313E+12,-6167,-3989,5198,-12,320,-105,1,7,11
1.72313E+12,-6216,-4203,5246,347,379,-114,1,7,11
1.72313E+12,-6270,-4153,5059,169,155,68,1,7,11
1.72313E+12,-6067,-3838,5388,236,136,-283,1,7,11
1.72313E+12,-6089,-3767,5432,550,331,-131,1,7,11
1.72313E+12,-6070,-3939,5431,571,-12,-235,1,7,11
1.72313E+12,-6022,-3887,5423,535,-109,-596,1,7,11
1.72313E+12,-6202,-3878,5388,201,28,-437,1,7,11
1.72313E+12,-5857,-3932,5091,349,-353,-784,1,7,11
1.72313E+12,-5776,-3754,5050,-13,-218,-853,1,7,11
1.72313E+12,-5952,-3834,5009,-113,-563,-874,1,7,11
1.72313E+12,-5890,-4168,5229,61,-612,-835,1,7,11
1.72313E+12,-5582,-3982,5217,6,-613,-502,1,7,11
1.72313E+12,-5573,-4059,4996,-267,-571,-399,1,7,11
1.72313E+12,-5571,-4079,5015,27,-250,-526,1,7,11
1.72313E+12,-5593,-4083,5049,67,-159,-148,1,7,11
1.72313E+12,-5610,-4067,5106,114,-324,-286,1,7,11
1.72313E+12,-5899,-4049,5439,-94,16,51,1,7,11
1.72313E+12,-5939,-3997,5249,-31,76,101,1,7,11
1.72313E+12,-5987,-4191,5311,276,110,123,1,7,11
1.72313E+12,-6015,-4121,5355,314,107,120,1,7,11
1.72313E+12,-5772,-3790,5366,316,70,84,1,7,11
1.72313E+12,-5787,-3721,5362,282,13,30,1,7,11
1.72313E+12,-5765,-3937,5354,-42,-333,-264,1,7,11
1.72313E+12,-5957,-3951,5310,118,-188,-301,1,7,11
1.72313E+12,-5631,-3773,5264,1,-550,-344,1,7,11
1.72313E+12,-5569,-4107,5473,-349,-626,-371,1,7,11
1.72313E+12,-5759,-4176,5414,-163,-398,-360,1,7,11
1.72313E+12,-5726,-3981,5395,-205,-617,-311,1,7,11
1.72313E+12,-5716,-4041,5414,-205,-528,25,1,7,11
1.72313E+12,-5726,-4078,5452,-157,-155,122,1,7,11
1.72313E+12,-5740,-4084,5503,-336,-287,-39,1,7,11
1.72313E+12,-5528,-4083,5298,-261,91,280,1,7,11
1.72313E+12,-5593,-3995,5348,83,-65,307,1,7,11
1.72313E+12,-5929,-4213,5388,-99,257,308,1,7,11
1.72313E+12,-5988,-4113,5673,-47,281,295,1,7,11
1.72313E+12,-5771,-3774,5693,-31,269,262,1,7,11
1.72313E+12,-5785,-3933,5710,-44,-29,-49,1,7,11
1.72313E+12,-5778,-3897,5706,-88,-95,-122,1,7,11
1.72313E+12,-5999,-3889,5665,98,67,49,1,7,11
1.72313E+12,-5616,-3940,5350,-260,-300,-337,1,7,11
1.72313E+12,-5522,-3772,5303,-184,-163,-161,1,7,11
1.72313E+12,-5707,-4127,5503,-522,-187,-204,1,7,11
1.72313E+12,-5643,-4189,5429,-564,-170,-193,1,7,11
1.72313E+12,-5369,-4009,5396,-610,-344,-151,1,7,11
1.72313E+12,-5662,-4042,5387,-614,28,-328,1,7,11
1.72313E+12,-5753,-4048,5427,-607,-106,37,1,7,11
1.72313E+12,-5603,-4030,5480,-566,-20,-89,1,7,11
1.72313E+12,-5949,-4221,5261,-254,278,295,1,7,11
1.72313E+12,-5783,-4153,5312,-218,309,141,1,7,11
1.72313E+12,-5839,-3817,5345,-186,309,221,1,7,11
1.72313E+12,-5867,-3741,5641,-178,312,250,1,7,11
1.72313E+12,-6145,-3955,5691,-183,317,238,1,7,11
1.72313E+12,-6147,-3934,5744,-182,306,184,1,7,11
1.72313E+12,-6170,-3926,5531,-185,268,331,1,7,11
1.72313E+12,-6155,-3887,5534,-188,-86,-52,1,7,11
1.72313E+12,-5867,-3871,5517,-248,36,49,1,7,11
1.72313E+12,-5787,-3856,5703,-589,-153,-344,1,7,11
1.72313E+12,-5944,-3884,5334,-481,-598,-208,1,7,11
1.72313E+12,-5583,-3935,5428,-654,-506,-523,1,7,11
1.72313E+12,-5744,-3747,5045,-1130,-843,-528,1,7,11
1.72313E+12,-5731,-4110,5007,-1349,-841,-218,1,7,11
1.72313E+12,-5755,-3976,5025,-1243,-831,-348,1,7,11
1.72313E+12,-5522,-4046,5035,-1573,-830,69,1,7,11
1.72313E+12,-5562,-4096,5073,-1629,-832,-33,1,7,11
1.72313E+12,-5581,-4374,5388,-1650,-844,360,1,7,11
1.72313E+12,-5605,-4354,5451,-1643,-848,204,1,7,11
1.72313E+12,-5910,-4051,5499,-1635,-850,516,1,7,11
1.72313E+12,-5979,-3980,5296,-1656,-875,536,1,7,11
1.72313E+12,-5788,-4205,5364,-1470,-695,531,1,7,11
1.72313E+12,-5827,-4183,5685,-1813,-1077,518,1,7,11
1.72313E+12,-5819,-4157,5697,-1900,-976,244,1,7,11
1.72313E+12,-5777,-4140,5692,-1756,-1385,222,1,7,11
1.72313E+12,-5942,-4164,5677,-2128,-1280,195,1,7,11
1.72313E+12,-5579,-4205,5639,-1958,-1653,136,1,7,11
1.72313E+12,-5730,-4026,5344,-2044,-1492,316,1,7,11
1.72313E+12,-5339,-4381,5262,-2370,-1837,-24,1,7,11
1.72313E+12,-5476,-4257,5425,-2190,-1894,123,1,7,11
1.72313E+12,-5392,-4648,5056,-2265,-1907,15,1,7,11
1.72313E+12,-5097,-4554,5031,-2566,-1868,-334,1,7,11
1.72313E+12,-5097,-4901,5041,-2578,-1529,-383,1,7,11
1.72313E+12,-5109,-4967,5043,-2260,-1436,-382,1,7,11
1.72313E+12,-5116,-4740,5036,-2317,-1259,-336,1,7,11
1.72313E+12,-5427,-4737,5031,-2167,-1364,-300,1,7,11
1.72313E+12,-5253,-4984,5057,-1763,-966,18,1,7,11
1.72313E+12,-5351,-4980,5417,-1862,-1093,105,1,7,11
1.72313E+12,-5653,-4762,5289,-1410,-1032,-25,1,7,11
1.72313E+12,-5330,-4801,5367,-1401,-1032,348,1,7,11
1.72313E+12,-5442,-4817,5660,-1144,-1026,134,1,7,11
1.72313E+12,-5055,-4864,5717,-667,-731,342,1,7,11
1.72313E+12,-5189,-4864,5752,-440,-699,-23,1,7,11
1.72313E+12,-4807,-4851,5735,-536,-694,77,1,7,11
1.72313E+12,-4936,-4861,5687,-232,-701,-384,1,7,11
1.72313E+12,-4871,-4862,5638,-515,-687,-616,1,7,11
1.72313E+12,-4865,-4811,5339,-573,-891,-790,1,7,11
1.72313E+12,-4924,-4777,5346,-404,-510,-857,1,7,11
1.72313E+12,-4757,-4782,5672,-442,-597,-802,1,7,11
1.72313E+12,-4814,-4761,5745,-632,-156,-407,1,7,11
1.72313E+12,-4851,-4969,5522,-253,32,-235,1,7,11
1.72313E+12,-4851,-4892,5739,-377,-67,-326,1,7,11
1.72313E+12,-4855,-4585,5707,-337,332,36,1,7,11
1.72313E+12,-5150,-4556,5732,-343,190,86,1,7,11
1.72313E+12,-5195,-4557,5529,-374,255,118,1,7,11
1.72313E+12,-5227,-4579,5588,-131,536,-109,1,7,11
1.72313E+12,-5191,-4587,5602,-370,252,-72,1,7,11
1.72313E+12,-5130,-4868,5599,-131,216,-74,1,7,11
1.72313E+12,-4798,-4939,5612,-169,181,-116,1,7,11
1.72313E+12,-4954,-4750,5609,-187,159,66,1,7,11
1.72313E+12,-4576,-4864,5891,-182,204,-351,1,7,11
1.72313E+12,-4497,-5205,5922,-312,525,-207,1,7,11
1.72313E+12,-4675,-5026,5935,105,595,-583,1,7,11
1.72313E+12,-4333,-5034,5899,293,400,-479,1,7,11
1.72313E+12,-4245,-5044,5592,175,451,-678,1,7,11
1.72313E+12,-4433,-5044,5534,532,491,-919,1,7,11
1.72313E+12,-4364,-5033,5734,593,781,-1158,1,7,11
1.72313E+12,-4095,-5038,5505,624,866,-1636,1,7,11
1.72313E+12,-4447,-5044,5630,463,719,-1526,1,7,11
1.72313E+12,-4242,-5000,5959,889,1038,-1799,1,7,11
1.72313E+12,-4275,-5023,5777,1038,1110,-1497,1,7,11
1.72313E+12,-4264,-5096,5854,920,910,-1415,1,7,11
1.72313E+12,-4456,-5435,6169,1319,965,-1605,1,7,11
1.72313E+12,-4399,-5292,6216,1201,1293,-1581,1,7,11
1.72313E+12,-4388,-5684,6262,1586,1397,-1597,1,7,11
1.72313E+12,-4450,-5575,6074,1470,1274,-1634,1,7,11
1.72313E+12,-4233,-5914,6088,1919,1641,-1634,1,7,11
1.72313E+12,-4255,-5967,6047,2125,1512,-1611,1,7,11
1.72313E+12,-4271,-5944,6224,2339,1899,-1546,1,7,11
1.72313E+12,-4442,-5549,5815,2280,1748,-1173,1,7,11
1.72313E+12,-4063,-5639,5904,2641,2130,-1307,1,7,11
1.72313E+12,-4201,-5453,5744,2670,1987,-921,1,7,11
1.72313E+12,-4099,-5029,5341,2616,2344,-1051,1,7,11
1.72313E+12,-3831,-5146,5471,2237,2194,-666,1,7,11
1.72313E+12,-4173,-4817,5118,2319,2301,-483,1,7,11
1.72313E+12,-4048,-4772,5016,2132,2652,-212,1,7,11
1.72313E+12,-4466,-4780,5220,1673,2513,-118,1,7,11
1.72313E+12,-4616,-4780,5176,1794,2882,564,1,7,11
1.72313E+12,-4734,-4782,4852,1456,2735,759,1,7,11
1.72313E+12,-4585,-4791,4776,1649,3074,1177,1,7,11
1.72313E+12,-4953,-4814,4951,1594,3106,1505,1,7,11
1.72313E+12,-4863,-4785,4606,1562,3094,1712,1,7,11
1.72313E+12,-5382,-4964,4556,1547,2804,2091,1,7,11
1.72313E+12,-5711,-4733,4516,1587,2738,1953,1,7,11
1.72313E+12,-6162,-4281,4722,1464,2544,2179,1,7,11
1.72313E+12,-6062,-4373,4645,1522,2594,2297,1,7,11
1.72313E+12,-6141,-4022,4335,1514,2362,2285,1,7,11
1.72313E+12,-6456,-4213,4308,1502,2129,2388,1,7,11
1.72313E+12,-6459,-4107,4247,1504,1918,2140,1,7,11
1.72313E+12,-6458,-3774,4474,1500,1802,1840,1,7,11
1.72313E+12,-6480,-3966,4473,1533,1521,1540,1,7,11
1.72313E+12,-6273,-3883,4428,1867,1839,992,1,7,11
1.72313E+12,-6393,-3548,4408,1916,1731,710,1,7,11
1.72313E+12,-6542,-3460,4381,1681,2135,445,1,7,11
1.72313E+12,-6974,-3643,4394,1894,1984,161,1,7,11
1.72313E+12,-6884,-3609,4449,1829,2016,-123,1,7,11
1.72313E+12,-7272,-3318,4226,1817,1967,-143,1,7,11
1.72313E+12,-7497,-3443,4438,1832,1717,-895,1,7,11
1.72313E+12,-7312,-3358,4363,1534,1812,-1112,1,7,11
1.72313E+12,-7403,-3039,4055,1426,1644,-1300,1,7,11
1.72313E+12,-7703,-3033,4045,1270,1194,-1161,1,7,11
1.72313E+12,-7704,-3038,4019,1402,1003,-1233,1,7,11
1.72313E+12,-7700,-3039,4195,1298,1078,-1545,1,7,11
1.72313E+12,-7741,-3017,4161,931,659,-1575,1,7,11
1.72313E+12,-7787,-3001,3799,1034,483,-1541,1,7,11
1.72313E+12,-7756,-3065,3771,443,176,-1370,1,7,11
1.72313E+12,-7424,-3425,3772,203,-31,-981,1,7,11
1.72313E+12,-7315,-3280,3756,259,27,-1122,1,7,11
1.72313E+12,-7468,-3642,3749,78,-133,-1028,1,7,11
1.72313E+12,-7153,-3689,3759,-305,-522,-681,1,7,11
1.72313E+12,-7055,-3474,3769,-155,-403,-819,1,7,11
1.72313E+12,-7175,-3568,3800,-518,-789,-465,1,7,11
1.72313E+12,-6820,-3909,3837,-597,-649,-435,1,7,11
1.72313E+12,-6972,-3720,4108,-415,-761,-444,1,7,11
1.72313E+12,-6922,-3727,4129,-487,-1086,-467,1,7,11
1.72313E+12,-6615,-3923,4187,-833,-1118,-444,1,7,11
1.72313E+12,-6569,-3898,4063,-700,-1116,-621,1,7,11
1.72313E+12,-6725,-3909,4470,-1058,-1141,-248,1,7,11
1.72313E+12,-6314,-3958,4619,-922,-951,-160,1,7,11
1.72313E+12,-6089,-3801,4522,-1361,-1333,-131,1,7,11
1.72313E+12,-5819,-3984,4955,-1584,-1247,-196,1,7,11
1.72313E+12,-5583,-4408,4827,-1511,-1437,-620,1,7,11
1.72313E+12,-5638,-4448,4802,-1895,-1847,-804,1,7,11
1.72313E+12,-5492,-4425,4927,-1786,-1882,-683,1,7,11
1.72313E+12,-5488,-4397,4536,-1969,-1530,-733,1,7,11
1.72313E+12,-5264,-4080,4619,-2414,-1650,-665,1,7,11
1.72313E+12,-5678,-4091,4236,-2650,-1171,-792,1,7,11
1.72313E+12,-5988,-4225,4456,-2837,-939,-588,1,7,11
1.72313E+12,-6032,-4295,4380,-2864,-742,113,1,7,11
1.72313E+12,-6525,-4581,4087,-2569,-785,225,1,7,11
1.72313E+12,-6286,-4935,4081,-2009,-488,230,1,7,11
1.72313E+12,-6480,-4791,4410,-1917,-439,362,1,7,11
1.72313E+12,-6105,-5207,4331,-1215,-638,-123,1,7,11
1.72313E+12,-6155,-5413,4511,-852,-578,-184,1,7,11
1.72313E+12,-5608,-5306,4580,-56,-196,-856,1,7,11
1.72313E+12,-5292,-5667,4580,1041,89,-1366,1,7,11
1.72313E+12,-5002,-5580,4891,1874,530,-1670,1,7,11
1.72313E+12,-4929,-6011,4884,2553,1068,-2253,1,7,11
1.72313E+12,-4711,-5823,4548,3567,1503,-3192,1,7,11
1.72313E+12,-4654,-5981,4685,4571,2278,-3879,1,7,11
1.72313E+12,-4698,-5591,4628,5698,3071,-4474,1,7,11
1.72313E+12,-4590,-5562,4671,6445,3812,-4948,1,7,11
1.72313E+12,-4763,-5738,4623,7213,4702,-5039,1,7,11
1.72313E+12,-5239,-5483,4451,7621,5047,-5285,1,7,11
1.72313E+12,-5269,-5170,4039,8271,5623,-5639,1,7,11
1.72313E+12,-5518,-4899,3980,8134,6092,-5317,1,7,11
1.72313E+12,-5935,-4698,3983,8072,6677,-5421,1,7,11
1.72313E+12,-5835,-4300,3982,7929,6621,-5001,1,7,11
1.72313E+12,-6206,-4427,4180,7976,6935,-4843,1,7,11
1.72313E+12,-6090,-4401,4188,7398,6914,-4968,1,7,11
1.72313E+12,-6474,-4442,4216,7076,6764,-4567,1,7,11
1.72313E+12,-6515,-4267,4222,6795,6510,-4658,1,7,11
1.72313E+12,-6519,-4676,4000,6554,6234,-4242,1,7,11
1.72313E+12,-6469,-4525,3998,6734,5951,-4071,1,7,11
1.72313E+12,-6112,-4542,4213,6772,5726,-4161,1,7,11
1.72313E+12,-6252,-4503,4168,6606,5315,-3746,1,7,11
1.72313E+12,-6176,-4702,4170,6957,5496,-3871,1,7,11
1.72313E+12,-6166,-4289,4164,6792,5464,-3699,1,7,11
1.72313E+12,-6203,-4417,4139,6815,5489,-3310,1,7,11
1.72313E+12,-6234,-4020,4143,6978,5274,-3417,1,7,11
1.72313E+12,-6023,-4166,4204,6555,5308,-3014,1,7,11
1.72313E+12,-6038,-3819,4049,6371,5285,-3126,1,7,11
1.72313E+12,-6022,-3730,4372,6446,5460,-2743,1,7,11
1.72313E+12,-6241,-3884,4382,6022,5092,-2886,1,7,11
1.72313E+12,-6253,-3576,4421,5842,5025,-2528,1,7,11
1.72313E+12,-6063,-3497,4470,5944,5240,-2650,1,7,11
1.72313E+12,-6141,-3673,4257,5528,5194,-2217,1,7,11
1.72313E+12,-6501,-3588,4293,5369,5142,-2004,1,7,11
1.72313E+12,-6367,-3242,4317,5458,4834,-1744,1,7,11
1.72313E+12,-6770,-3406,4332,5018,4784,-1431,1,7,11
1.72313E+12,-6638,-3346,4611,4822,4980,-1329,1,7,11
1.72313E+12,-6986,-2997,4613,4911,4894,-729,1,7,11
1.72313E+12,-6804,-3157,4327,4492,4541,-419,1,7,11
1.72313E+12,-6894,-2801,4473,4340,4689,-152,1,7,11
1.72313E+12,-7127,-2691,4433,4363,4318,-69,1,7,11
1.72313E+12,-7501,-2884,4085,3997,4472,160,1,7,11
1.72313E+12,-7331,-2536,4217,4170,4404,579,1,7,11
1.72313E+12,-7736,-2657,3821,4126,4398,438,1,7,11
1.72313E+12,-7625,-2232,3926,3835,4390,814,1,7,11
1.72313E+12,-8014,-2306,3534,3762,4363,640,1,7,11
1.72313E+12,-7906,-2131,3658,3919,4033,678,1,7,11
1.72313E+12,-8223,-1725,3208,3511,4124,691,1,7,11
1.72313E+12,-8262,-1859,3036,3308,3931,652,1,7,11
1.72313E+12,-8293,-1815,3157,3352,3708,852,1,7,11
1.72313E+12,-8306,-1807,2770,3186,3446,783,1,7,11
1.72313E+12,-8312,-1839,2910,2790,3168,449,1,7,11
1.72313E+12,-8276,-1915,2538,2937,2897,603,1,7,11
1.72313E+12,-8280,-1767,2485,2894,2432,186,1,7,11
1.72313E+12,-8302,-2074,2671,2943,2261,270,1,7,11
1.72313E+12,-8316,-2072,2590,2759,2371,111,1,7,11
1.72313E+12,-8136,-2106,2595,2795,2004,-303,1,7,11
1.72313E+12,-8457,-2088,2613,3137,2100,-150,1,7,11
1.72313E+12,-8466,-2064,2665,3195,1911,-225,1,7,11
1.72313E+12,-8186,-1784,2483,3030,1453,-549,1,7,11
1.72313E+12,-8180,-1762,2545,3417,1551,-627,1,7,11
1.72313E+12,-8151,-1903,2549,3613,1154,-408,1,7,11
1.72313E+12,-8127,-1880,2867,3706,1370,-452,1,7,11
1.72313E+12,-8085,-1512,2897,3856,1320,-487,1,7,11
1.72313E+12,-8264,-1664,2916,3898,1296,-836,1,7,11
1.72313E+12,-8209,-1591,2694,3881,999,-699,1,7,11
1.72313E+12,-7884,-1563,2741,3558,942,-1097,1,7,11
1.72313E+12,-7812,-1271,2763,3506,1112,-985,1,7,11
1.72313E+12,-7657,-1202,2696,3709,742,-1374,1,7,11
1.72313E+12,-7796,-1234,2715,3318,686,-1275,1,7,11
1.72313E+12,-7685,-1550,2758,3218,648,-1637,1,7,11
1.72313E+12,-7546,-1618,2742,3402,653,-1448,1,7,11
1.72313E+12,-7343,-1532,3100,3059,1045,-1500,1,7,11
1.72313E+12,-7520,-2109,3040,3020,996,-1489,1,7,11
1.72313E+12,-7861,-2180,3309,3069,1277,-1501,1,7,11
1.72313E+12,-8314,-2606,3457,3619,1441,-1427,1,7,11
1.72313E+12,-8184,-2672,3859,3907,1820,-1414,1,7,11
1.72313E+12,-8279,-2607,3854,4018,1529,-1427,1,7,11
1.72313E+12,-8057,-2296,3842,4303,1595,-1834,1,7,11
1.72313E+12,-7782,-2259,3577,4328,1247,-1788,1,7,11
1.72313E+12,-7540,-2249,3900,4248,1274,-1999,1,7,11
1.72313E+12,-7218,-2278,3947,4381,1094,-2399,1,7,11
1.72313E+12,-6945,-2619,3756,4166,693,-2294,1,7,11
1.72313E+12,-6704,-2444,3779,3814,843,-2665,1,7,11
1.72313E+12,-6289,-2528,3822,3545,833,-2473,1,7,11
1.72313E+12,-6505,-2882,4107,3027,660,-2440,1,7,11
1.72313E+12,-6337,-2744,4144,2759,1059,-2292,1,7,11
1.72313E+12,-6729,-3139,4178,2494,954,-2008,1,7,11
1.72313E+12,-6629,-3056,3975,2247,1327,-1908,1,7,11
1.72313E+12,-7021,-3427,3970,2319,1394,-1268,1,7,11
1.72313E+12,-6831,-3238,4178,2143,1397,-1143,1,7,11
1.72313E+12,-6823,-3290,3820,1701,1363,-811,1,7,11
1.72313E+12,-7028,-3601,3724,1513,1326,-561,1,7,11
1.72313E+12,-6973,-3705,3889,1621,1312,-383,1,7,11
1.72313E+12,-6964,-3536,3543,1552,1325,-259,1,7,11
1.72313E+12,-6984,-3559,3695,1270,1343,113,1,7,11
1.72313E+12,-7036,-3545,3635,1252,1363,-12,1,7,11
1.72313E+12,-6851,-3473,3315,1275,1348,154,1,7,11
1.72313E+12,-7190,-3611,3234,1547,1310,606,1,7,11
1.72313E+12,-7065,-3241,3427,1256,1011,828,1,7,11
1.72313E+12,-7466,-3354,3381,1165,924,1081,1,7,11
1.72313E+12,-7551,-3189,3352,1003,750,1338,1,7,11
1.72313E+12,-7354,-2813,3352,1046,771,1274,1,7,11
1.72313E+12,-7381,-2714,3381,841,244,1662,1,7,11
1.72313E+12,-7330,-2837,3383,429,-25,1496,1,7,11
1.72313E+12,-7154,-2438,3231,157,-151,1528,1,7,11
1.72313E+12,-7060,-2603,3302,314,-254,1435,1,7,11
1.72313E+12,-7286,-2201,3645,-43,-585,1571,1,7,11
1.72313E+12,-7083,-2029,3517,44,-636,1180,1,7,11
1.72313E+12,-7337,-1921,3775,-517,-610,1307,1,7,11
1.72313E+12,-8023,-1735,4031,-806,-622,1327,1,7,11
1.72313E+12,-7857,-1301,4108,-1061,-834,1619,1,7,11
1.72313E+12,-8036,-238,3567,-1628,-1041,1888,1,7,11
1.72313E+12,-8267,351,3695,-2420,-913,2088,1,7,11
1.72313E+12,-8985,876,3658,-3033,-1344,2424,1,7,11
1.72313E+12,-9778,1547,3455,-4370,-1822,3079,1,7,11
1.72313E+12,-10504,2155,2955,-5919,-2266,3910,1,7,11
1.72313E+12,-10742,2585,2725,-7775,-3213,4955,1,7,11
1.72313E+12,-10930,2680,2524,-9836,-4307,5844,1,7,11
1.72313E+12,-10914,2256,2621,-11811,-5676,7242,1,7,11
1.72313E+12,-10673,1926,2246,-13588,-6746,8311,1,7,11
1.72313E+12,-10548,1811,2429,-15106,-7388,8943,1,7,11
1.72313E+12,-10088,1192,2180,-16099,-8097,9638,1,7,11
1.72313E+12,-9349,1079,2279,-17060,-8625,10130,1,7,11
1.72313E+12,-9075,796,2643,-17933,-9270,10468,1,7,11
1.72313E+12,-8525,234,2530,-18163,-9506,10874,1,7,11
1.72313E+12,-8023,271,2927,-18431,-9373,10842,1,7,11
1.72313E+12,-7533,41,3107,-18622,-9389,10430,1,7,11
1.72313E+12,-6901,-231,3383,-18949,-9507,10197,1,7,11
1.72313E+12,-6645,-853,3545,-18652,-9288,9913,1,7,11
1.72313E+12,-6698,-1011,4033,-18362,-9072,9851,1,7,11
1.72313E+12,-6497,-1610,4718,-17803,-8643,9480,1,7,11
1.72313E+12,-6260,-1904,5066,-17085,-8740,9043,1,7,11
1.72313E+12,-5936,-2139,5634,-16510,-8535,8542,1,7,11
1.72313E+12,-5687,-1999,5922,-15723,-8280,8020,1,7,11
1.72313E+12,-5403,-2361,6153,-14948,-7966,7503,1,7,11
1.72313E+12,-4856,-2230,6099,-14195,-7330,6981,1,7,11
1.72313E+12,-4602,-2602,6485,-13143,-6610,6150,1,7,11
1.72313E+12,-4628,-2453,6310,-12265,-6095,5333,1,7,11
1.72313E+12,-4462,-2554,6355,-11698,-5571,4780,1,7,11
1.72313E+12,-4388,-2922,6382,-11173,-5053,4281,1,7,11
1.72313E+12,-4385,-2767,6701,-10661,-4582,4118,1,7,11
1.72313E+12,-4389,-3134,6759,-10161,-4436,3537,1,7,11
1.72313E+12,-4411,-2980,6566,-9670,-4101,3261,1,7,11
1.72313E+12,-4412,-3391,6597,-9201,-3574,3011,1,7,11
1.72313E+12,-4304,-3469,6964,-9072,-3259,2750,1,7,11
1.72313E+12,-4517,-3739,6823,-8339,-3017,2537,1,7,11
1.72313E+12,-4526,-3834,6999,-7862,-3136,2636,1,7,11
1.72313E+12,-4639,-3794,6556,-7700,-2756,2228,1,7,11
1.72313E+12,-4357,-3924,6460,-7127,-2875,2310,1,7,11
1.72313E+12,-4014,-3745,6263,-7261,-2590,2062,1,7,11
1.72313E+12,-4400,-4036,6221,-6905,-2010,1830,1,7,11
1.72313E+12,-4492,-4493,6506,-6995,-1894,1612,1,7,11
1.72313E+12,-5056,-4946,6284,-6522,-1607,1173,1,7,11
1.72313E+12,-5277,-4551,6126,-5892,-1311,1176,1,7,11
1.72313E+12,-5738,-4690,6162,-5056,-1086,1233,1,7,11
1.72313E+12,-5763,-4730,5775,-4734,-829,1563,1,7,11
1.72313E+12,-6271,-4601,5971,-4434,-629,1409,1,7,11
1.72313E+12,-6035,-4887,5545,-4099,-568,1522,1,7,11
1.72313E+12,-6197,-4592,5272,-3856,-522,1534,1,7,11
1.72313E+12,-5887,-4888,5036,-3508,-196,1465,1,7,11
1.72313E+12,-5814,-4932,4836,-3457,-164,1629,1,7,11
1.72313E+12,-5933,-4934,4874,-3678,-171,1249,1,7,11
1.72313E+12,-5542,-4965,4728,-3689,-168,1355,1,7,11
1.72313E+12,-5665,-4816,4639,-3663,-188,958,1,7,11
1.72313E+12,-5278,-5173,4270,-3279,-217,1071,1,7,11
1.72313E+12,-5050,-5234,3817,-3182,-180,784,1,7,11
1.72313E+12,-5248,-5243,3879,-3099,-348,398,1,7,11
1.72313E+12,-5225,-5025,3505,-3101,11,538,1,7,11
1.72313E+12,-5228,-5396,3476,-3140,99,164,1,7,11
1.72313E+12,-5032,-5488,3465,-3126,-90,286,1,7,11
1.72313E+12,-5423,-5313,3472,-3081,-60,-97,1,7,11
1.72313E+12,-5340,-5634,3491,-2770,-66,88,1,7,11
1.72313E+12,-5726,-5684,3559,-2696,-124,88,1,7,11
1.72313E+12,-5554,-5735,3896,-2836,46,-114,1,7,11
1.72313E+12,-5607,-5737,3919,-2654,-330,-34,1,7,11
1.72313E+12,-5605,-5683,3865,-2241,-221,315,1,7,11
1.72313E+12,-5569,-5678,3521,-2191,-625,141,1,7,11
1.72313E+12,-5570,-5750,3695,-2223,-490,191,1,7,11
1.72313E+12,-5569,-5569,3610,-2282,-867,231,1,7,11
1.72313E+12,-5533,-5948,3289,-2629,-727,528,1,7,11
1.72313E+12,-5718,-5821,3253,-2674,-1101,560,1,7,11
1.72313E+12,-5346,-6161,3447,-2653,-972,564,1,7,11
1.72313E+12,-5470,-6268,3446,-2615,-1325,528,1,7,11
1.72313E+12,-5107,-6087,3220,-2252,-1374,195,1,7,11
1.72313E+12,-5089,-6135,3306,-2353,-1371,337,1,7,11
1.72313E+12,-5105,-6110,3675,-2132,-1363,-6,1,7,11
1.72313E+12,-5086,-6044,3492,-1901,-1353,-60,1,7,11
1.72313E+12,-5117,-6243,3883,-1438,-1291,-91,1,7,11
1.72313E+12,-5115,-6161,3962,-1207,-1004,-75,1,7,11
1.72313E+12,-5399,-6158,3745,-1293,-965,-61,1,7,11
1.72313E+12,-5470,-6236,3740,-934,-934,-38,1,7,11
1.72313E+12,-5261,-6066,3938,-1135,-950,-3,1,7,11
1.72313E+12,-5435,-6133,3948,-917,-1290,316,1,7,11
1.72313E+12,-5106,-6127,3773,-1149,-1341,329,1,7,11
1.72313E+12,-5039,-6072,3827,-1028,-1392,358,1,7,11
1.72313E+12,-5206,-6151,4121,-839,-1407,149,1,7,11
1.72313E+12,-5136,-5761,4193,-640,-1360,194,1,7,11
1.72313E+12,-4809,-5632,4040,-362,-977,227,1,7,11
1.72313E+12,-4792,-5511,4442,63,-1146,227,1,7,11
1.72313E+12,-4796,-5693,4347,-53,-1083,222,1,7,11
1.72313E+12,-4802,-5310,4707,349,-1047,226,1,7,11
1.72313E+12,-4841,-5444,4562,145,-729,222,1,7,11
1.72313E+12,-5233,-5088,4826,378,-659,256,1,7,11
1.72313E+12,-5054,-5039,5045,327,-853,597,1,7,11
1.72313E+12,-5074,-4998,5496,344,-850,467,1,7,11
1.72313E+12,-5035,-5161,5297,166,-888,842,1,7,11
1.72313E+12,-5203,-4789,5456,172,-690,672,1,7,11
1.72313E+12,-4849,-4967,5065,291,-727,710,1,7,11
1.72313E+12,-4766,-4975,5233,57,-737,703,1,7,11
1.72313E+12,-4958,-4842,5212,-201,-722,674,1,7,11
1.72313E+12,-4905,-5018,5235,-629,-684,890,1,7,11
1.72313E+12,-4602,-5449,5002,-438,-873,822,1,7,11
1.72313E+12,-4601,-5337,5039,-411,-796,472,1,7,11
1.72313E+12,-4586,-5667,5055,-589,-482,627,1,7,11
1.72313E+12,-4603,-5715,5103,-242,-423,513,1,7,11
1.72313E+12,-4875,-5732,5411,-135,-389,171,1,7,11
1.72313E+12,-4893,-5696,5453,-271,-628,132,1,7,11
1.72313E+12,-4921,-5375,5309,78,-602,153,1,7,11
1.72313E+12,-4955,-5637,5707,-74,-552,530,1,7,11
1.72313E+12,-4923,-5327,5519,323,-566,396,1,7,11
1.72313E+12,-4602,-5464,5751,209,-573,507,1,7,11
1.72313E+12,-4549,-5111,5697,525,-548,869,1,7,11
1.72313E+12,-4501,-5047,5652,542,-248,718,1,7,11
1.72313E+12,-4732,-5053,5657,520,-184,1073,1,7,11
1.72313E+12,-4697,-5078,5698,534,-384,913,1,7,11
1.72313E+12,-4690,-5392,5511,604,-329,970,1,7,11
1.72313E+12,-4674,-5386,5521,769,-298,1282,1,7,11
1.72313E+12,-4678,-5382,5534,655,6,1303,1,7,11
1.72313E+12,-4712,-5063,5512,1068,58,1302,1,7,11
1.72313E+12,-4501,-5160,5708,923,105,1282,1,7,11
1.72313E+12,-4542,-4991,5312,940,-122,1008,1,7,11
1.72313E+12,-4588,-4898,5279,1095,-70,983,1,7,11
1.72313E+12,-4882,-4591,5487,704,272,960,1,7,11
1.72313E+12,-4915,-4581,5459,834,154,932,1,7,11
1.72313E+12,-4749,-4581,5475,481,604,1141,1,7,11
1.72313E+12,-5159,-4585,5274,420,807,1104,1,7,11
1.72313E+12,-5031,-4867,5335,634,697,1096,1,7,11
1.72313E+12,-5055,-4876,5346,621,743,1090,1,7,11
1.72313E+12,-5081,-4904,5374,562,1028,699,1,7,11
1.72313E+12,-5402,-4883,5671,512,1050,852,1,7,11
1.72313E+12,-5431,-4572,5708,213,1056,800,1,7,11
1.72313E+12,-5412,-4499,5729,240,1073,784,1,7,11
1.72313E+12,-5387,-4718,5751,545,1119,502,1,7,11
1.72313E+12,-5378,-4678,5730,441,918,458,1,7,11
1.72313E+12,-5387,-4288,5638,576,976,391,1,7,11
1.72313E+12,-5461,-4425,5342,886,1311,592,1,7,11
1.72313E+12,-5296,-4382,5635,677,1366,585,1,7,11
1.72313E+12,-5331,-4388,5673,767,1385,597,1,7,11
1.72313E+12,-5312,-4406,5684,900,1389,575,1,7,11
1.72313E+12,-5287,-4410,5645,1286,1152,222,1,7,11
1.72313E+12,-5318,-4392,5358,1386,1189,313,1,7,11
1.72313E+12,-5657,-4381,5348,1188,1240,-117,1,7,11
1.72313E+12,-5737,-4355,5353,1250,1274,5,1,7,11
1.72313E+12,-5518,-4018,5301,1567,1558,-350,1,7,11
1.72313E+12,-5557,-4165,5257,1589,1605,-175,1,7,11
1.72313E+12,-5624,-4111,5254,1562,1645,-227,1,7,11
1.72313E+12,-5949,-3830,5501,1273,1643,-254,1,7,11
1.72313E+12,-5775,-3809,5469,1225,1625,-520,1,7,11
1.72313E+12,-5856,-3745,5395,1156,1601,-246,1,7,11
1.72313E+12,-6186,-3926,5042,1283,1601,-205,1,7,11
1.72313E+12,-6260,-3855,5193,1118,1622,-138,1,7,11
1.72313E+12,-6085,-3548,5132,647,1654,-310,1,7,11
1.72313E+12,-6136,-3541,4830,419,1421,43,1,7,11
1.72313E+12,-6410,-3554,4789,214,1431,-124,1,7,11
1.72313E+12,-6421,-3851,4975,291,1423,-65,1,7,11
1.72313E+12,-6138,-3863,4565,-127,1661,-46,1,7,11
1.72313E+12,-6404,-3905,4662,-338,1425,-78,1,7,11
1.72313E+12,-6452,-3713,4260,-561,1463,-112,1,7,11
1.72313E+12,-6508,-3776,4380,-773,1511,-118,1,7,11
1.72313E+12,-6295,-3824,3995,-699,1822,-85,1,7,11
1.72313E+12,-6314,-4128,4111,-1112,1881,-24,1,7,11
1.72313E+12,-6357,-4189,3716,-997,1694,290,1,7,11
1.72313E+12,-6689,-4013,3866,-1368,1751,350,1,7,11
1.72313E+12,-6767,-4078,3476,-1176,1766,166,1,7,11
1.72313E+12,-6590,-4361,3301,-1216,1748,232,1,7,11
1.72313E+12,-6952,-4388,3414,-1266,1721,553,1,7,11
1.72313E+12,-6812,-4417,3039,-1552,1664,625,1,7,11
1.72313E+12,-7172,-4443,2959,-1541,1833,441,1,7,11
1.72313E+12,-7236,-4452,3143,-1219,1461,772,1,7,11
1.72313E+12,-7269,-4465,3106,-1383,1589,842,1,7,11
1.72313E+12,-7261,-4435,2792,-986,1203,663,1,7,11
1.72313E+12,-7238,-4403,2735,-1119,1366,751,1,7,11
1.72313E+12,-7238,-4401,2724,-758,1321,1139,1,7,11
1.72313E+12,-7205,-4394,2920,-884,1292,1349,1,7,11
1.72313E+12,-6893,-4367,2834,-783,1300,1614,1,7,11
1.72313E+12,-6835,-4082,2500,-490,1334,1666,1,7,11
1.72313E+12,-6811,-4088,2446,-788,1383,2391,1,7,11
1.72313E+12,-6816,-4071,2669,-814,1358,2683,1,7,11
1.72313E+12,-6848,-4052,2615,-843,1295,2913,1,7,11
1.72313E+12,-6905,-4029,2298,-866,953,3080,1,7,11
1.72313E+12,-7227,-4012,2223,-879,1111,3196,1,7,11
1.72313E+12,-7286,-4205,2379,-856,762,3025,1,7,11
1.72313E+12,-7110,-4165,2343,-840,708,3358,1,7,11
1.72313E+12,-7439,-4115,2358,-489,648,3450,1,7,11
1.72313E+12,-7441,-3773,2345,-589,821,3277,1,7,11
1.72313E+12,-7454,-3885,2311,-167,500,3271,1,7,11
1.72313E+12,-7483,-3708,2023,-297,439,3436,1,7,11
1.72313E+12,-7538,-3271,1990,20,628,3013,1,7,11
1.72313E+12,-7332,-3369,1965,13,548,2815,1,7,11
1.72313E+12,-7405,-2995,1979,-313,220,2867,1,7,11
1.72313E+12,-7724,-3105,1969,-384,139,2452,1,7,11
1.72313E+12,-7755,-2711,1949,-224,321,2602,1,7,11
1.72313E+12,-7618,-2724,2392,-429,318,2235,1,7,11
1.72313E+12,-7852,-3134,2574,-882,-28,2321,1,7,11
1.72313E+12,-7870,-3189,2455,-730,86,2148,1,7,11
1.72313E+12,-7893,-3163,2858,-1111,-330,1677,1,7,11
1.72313E+12,-7817,-2755,2927,-1122,-539,1511,1,7,11
1.72313E+12,-7997,-2847,2740,-897,-463,1639,1,7,11
1.72313E+12,-7653,-2484,3095,-932,-883,1585,1,7,11
1.72313E+12,-7585,-2660,2948,-929,-1026,1566,1,7,11
1.72313E+12,-7783,-2584,3047,-898,-901,1565,1,7,11
1.72313E+12,-7723,-2260,3397,-1110,-1023,1567,1,7,11
1.72313E+12,-7371,-2182,3224,-1047,-1396,1556,1,7,11
1.72313E+12,-7538,-2369,3323,-713,-1234,1256,1,7,11
1.72313E+12,-7501,-2306,3698,-860,-1547,1206,1,7,11
1.72313E+12,-7473,-1969,3552,-456,-1589,1182,1,7,11
1.72313E+12,-7426,-2153,3904,-580,-1596,1178,1,7,11
1.72313E+12,-7096,-2139,3774,-230,-1575,1183,1,7,11
1.72313E+12,-7278,-2167,4201,-156,-1264,1163,1,7,11
1.72313E+12,-7243,-1949,4411,-307,-1190,1389,1,7,11
1.72313E+12,-7206,-1943,4618,112,-1380,1387,1,7,11
1.72313E+12,-6882,-2149,4511,309,-1322,1162,1,7,11
1.72313E+12,-6852,-2127,4932,223,-990,1193,1,7,11
1.72313E+12,-6797,-1777,4766,427,-976,1246,1,7,11
1.72313E+12,-7001,-1919,4822,794,-950,1536,1,7,11
1.72313E+12,-7028,-1524,5166,858,-909,1610,1,7,11
1.72313E+12,-6988,-1571,5183,643,-906,1514,1,7,11
1.72313E+12,-6972,-1345,5200,859,-1119,1705,1,7,11
1.72313E+12,-7003,-1107,5224,783,-1065,1958,1,7,11
1.72313E+12,-6844,-868,5243,420,-1025,2268,1,7,11
1.72313E+12,-7210,-616,4995,538,-1026,2899,1,7,11
1.72313E+12,-7044,-383,4999,368,-1055,3053,1,7,11
1.72313E+12,-7105,58,5016,-79,-1103,3703,1,7,11
1.72313E+12,-7120,-58,5028,-260,-1137,3769,1,7,11
1.72313E+12,-7119,308,5045,-156,-1127,4203,1,7,11
1.72313E+12,-7145,530,5036,-514,-1060,4205,1,7,11
1.72313E+12,-7467,611,5042,-605,-682,3784,1,7,11
1.72313E+12,-7544,547,5050,-441,-807,3507,1,7,11
1.72313E+12,-7332,894,5025,-509,-444,3410,1,7,11
1.72313E+12,-7312,702,5237,-805,-607,2741,1,7,11
1.72313E+12,-7493,751,5165,-820,-250,2288,1,7,11
1.72313E+12,-7469,1060,4822,-823,-135,2076,1,7,11
1.72313E+12,-7477,1081,4744,-834,3,1620,1,7,11
1.72313E+12,-7509,1105,4942,-846,-110,979,1,7,11
1.72313E+12,-7546,1075,4892,-836,283,684,1,7,11
1.72313E+12,-7299,1021,4582,-794,138,466,1,7,11
1.72313E+12,-7322,666,4579,-503,512,544,1,7,11
1.72313E+12,-7342,875,4531,-411,601,355,1,7,11
1.72313E+12,-7376,830,4519,-552,422,-18,1,7,11
1.72313E+12,-7392,831,4482,-152,511,-109,1,7,11
1.72313E+12,-7386,845,4677,-257,810,39,1,7,11
1.72313E+12,-7374,871,4343,127,846,-338,1,7,11
1.72313E+12,-7349,889,4278,11,893,-215,1,7,11
1.72313E+12,-7385,863,4273,321,709,-608,1,7,11
1.72313E+12,-7682,826,4253,141,749,-458,1,7,11
1.72313E+12,-7706,824,4451,231,765,-810,1,7,11
1.72313E+12,-7717,790,4377,516,1047,-896,1,7,11
1.72313E+12,-7737,444,4374,525,1087,-723,1,7,11
1.72313E+12,-7733,588,4390,567,1112,-1075,1,7,11
1.72313E+12,-7736,247,4377,413,1142,-931,1,7,11
1.72313E+12,-7776,183,4363,783,919,-1300,1,7,11
1.72313E+12,-7568,374,4083,647,932,-1379,1,7,11
1.72313E+12,-7577,291,4041,755,916,-1174,1,7,11
1.72313E+12,-7563,-50,3969,1101,1151,-1229,1,7,11
1.72313E+12,-7571,106,4189,1146,1141,-1561,1,7,11
1.72313E+12,-7604,11,4155,923,1124,-1642,1,7,11
1.72313E+12,-7605,-306,3831,958,1091,-1462,1,7,11
1.72313E+12,-7587,-361,3765,966,1069,-1802,1,7,11
1.72313E+12,-7789,-170,3960,953,1055,-1882,1,7,11
1.72313E+12,-7723,-248,3920,944,1041,-1712,1,7,11
1.72313E+12,-7686,-584,3870,955,1040,-1789,1,7,11
1.72313E+12,-7419,-632,3540,992,1050,-2077,1,7,11
1.72313E+12,-7682,-409,3694,1008,1079,-1787,1,7,11
1.72313E+12,-7703,-443,3594,995,1134,-1694,1,7,11
1.72313E+12,-7718,-487,3262,971,954,-1812,1,7,11
1.72313E+12,-7727,-792,3455,954,1298,-1657,1,7,11
1.72313E+12,-7714,-836,3407,958,1384,-1247,1,7,11
1.72313E+12,-7717,-653,3375,976,1223,-1386,1,7,11
1.72313E+12,-7741,-688,3346,1307,1554,-1295,1,7,11
1.72313E+12,-7782,-685,3029,1172,1626,-959,1,7,11
1.72313E+12,-7586,-664,3193,1554,1454,-1118,1,7,11
1.72313E+12,-7625,-881,3084,1419,1798,-743,1,7,11
1.72313E+12,-7962,-852,2738,1504,1908,-881,1,7,11
1.72313E+12,-8020,-791,2892,1840,1735,-494,1,7,11
1.72313E+12,-7824,-498,2546,1883,2058,-635,1,7,11
1.72313E+12,-7892,-486,2449,1890,2093,-549,1,7,11
1.72313E+12,-8223,-783,2579,1864,2090,-239,1,7,11
1.72313E+12,-8235,-818,2265,1534,1766,-253,1,7,11
1.72313E+12,-8233,-834,2221,1475,1698,-567,1,7,11
1.72313E+12,-8255,-839,2192,1429,1883,-630,1,7,11
1.72313E+12,-8252,-819,2394,1661,1534,-410,1,7,11
1.72313E+12,-8228,-804,2348,1603,1448,-449,1,7,11
1.72313E+12,-8208,-798,2029,1264,1639,-496,1,7,11
1.72313E+12,-8207,-784,1968,1173,1594,-799,1,7,11
1.72313E+12,-8222,-786,2154,1335,1575,-818,1,7,11
1.72313E+12,-8238,-795,2095,980,1574,-796,1,7,11
1.72313E+12,-8247,-822,2056,1123,1584,-771,1,7,11
1.72313E+12,-8263,-864,1763,760,1584,-510,1,7,11
1.72313E+12,-8272,-642,1731,660,1566,-784,1,7,11
1.72313E+12,-8291,-669,1693,817,1278,-820,1,7,11
1.72313E+12,-8311,-700,1915,479,1235,-850,1,7,11
1.72313E+12,-8076,-729,1891,423,1184,-856,1,7,11
1.72313E+12,-8091,-762,1855,391,1385,-835,1,7,11
1.72313E+12,-8069,-1057,1821,616,1320,-790,1,7,11
1.72313E+12,-8313,-1112,1836,584,1001,-492,1,7,11
1.72313E+12,-8302,-916,1876,578,920,-440,1,7,11
1.72313E+12,-8287,-956,1883,596,1079,-390,1,7,11
1.72313E+12,-8270,-966,1859,610,724,-595,1,7,11
1.72313E+12,-8252,-959,1792,588,640,-534,1,7,11
1.72313E+12,-8216,-940,1447,512,820,-199,1,7,11
1.72313E+12,-8194,-933,1610,376,778,-374,1,7,11
1.72313E+12,-8215,-935,1587,-26,773,-288,1,7,11
1.72313E+12,-8269,-933,1608,-125,778,85,1,7,11
1.72313E+12,-8320,-936,1663,107,785,-24,1,7,11
1.72313E+12,-8069,-915,1426,-85,509,138,1,7,11
1.72313E+12,-8280,-907,1418,-12,478,522,1,7,11
1.72313E+12,-8243,-919,1417,293,450,586,1,7,11
1.72313E+12,-8204,-940,1431,320,409,600,1,7,11
1.72313E+12,-7903,-926,1431,339,610,574,1,7,11
1.72313E+12,-7874,-1128,1432,341,575,546,1,7,11
1.72313E+12,-7868,-1044,1663,343,559,545,1,7,11
1.72313E+12,-7886,-661,1640,321,572,618,1,7,11
1.72313E+12,-7867,-866,1606,277,614,456,1,7,11
1.72313E+12,-7841,-854,1621,-33,407,802,1,7,11
1.72313E+12,-7815,-850,1408,-50,441,887,1,7,11
1.72313E+12,-7818,-755,1641,-20,456,702,1,7,11
1.72313E+12,-7890,-411,1572,272,489,1053,1,7,11
1.72313E+12,-8274,-615,1251,-54,783,1310,1,7,11
1.72313E+12,-8315,-619,1271,73,803,1193,1,7,11
1.72313E+12,-8070,-624,1575,-279,782,1249,1,7,11
1.72313E+12,-8317,-617,1552,-316,475,1217,1,7,11
1.72313E+12,-8287,-534,1215,-326,444,1385,1,7,11
1.72313E+12,-8309,-181,1155,-345,464,1282,1,7,11
1.72313E+12,-8076,-352,1383,-340,498,929,1,7,11
1.72313E+12,-8144,0,1356,-293,786,1053,1,7,11
1.72313E+12,-8480,-122,1013,32,781,676,1,7,11
1.72313E+12,-8548,287,907,51,497,836,1,7,11
1.72313E+12,-8399,163,901,4,473,769,1,7,11
1.72313E+12,-8769,562,1151,-279,400,778,1,7,11
1.72313E+12,-8676,503,1113,-329,529,865,1,7,11
1.72313E+12,-8839,725,1036,-207,307,1067,1,7,11
1.72313E+12,-9236,928,720,-489,5,1389,1,7,11
1.72313E+12,-9301,1304,695,-1146,-633,1819,1,7,11
1.72313E+12,-9254,1343,709,-1606,-768,2042,1,7,11
1.72313E+12,-8884,1282,1072,-1771,-1360,2518,1,7,11
1.72313E+12,-8673,1130,965,-2307,-1625,3199,1,7,11
1.72313E+12,-8383,737,1306,-2401,-1800,3216,1,7,11
1.72313E+12,-8127,697,1330,-2406,-1867,3238,1,7,11
1.72313E+12,-8209,740,1345,-2407,-1836,3048,1,7,11
1.72313E+12,-7876,1089,1404,-2422,-1460,2714,1,7,11
1.72313E+12,-7871,1148,1539,-2193,-1552,2585,1,7,11
1.72313E+12,-7883,915,1416,-2421,-1403,1962,1,7,11
1.72313E+12,-7883,1149,1792,-2331,-1020,1888,1,7,11
1.72313E+12,-7857,896,1857,-1927,-906,1589,1,7,11
1.72313E+12,-7813,935,1874,-1784,-1048,1325,1,7,11
1.72313E+12,-8015,982,1898,-1696,-674,1085,1,7,11
1.72313E+12,-8018,1004,1714,-1909,-794,854,1,7,11
1.72313E+12,-8033,976,2085,-1857,-420,403,1,7,11
1.72313E+12,-8033,938,2160,-1487,-591,243,1,7,11
1.72313E+12,-8018,936,1926,-1606,-520,353,1,7,11
1.72313E+12,-8000,962,1955,-1246,-191,-20,1,7,11
1.72313E+12,-8005,996,1990,-1161,-375,-90,1,7,11
1.72313E+12,-8022,989,2043,-1356,-302,-122,1,7,11
1.72313E+12,-8043,964,2365,-1020,12,-126,1,7,11
1.72313E+12,-8051,949,2398,-906,48,-117,1,7,11
1.72313E+12,-8049,983,2381,-1047,86,-103,1,7,11
1.72313E+12,-7815,1297,2351,-732,-125,-75,1,7,11
1.72313E+12,-7817,1331,2347,-742,-96,-24,1,7,11
1.72313E+12,-8063,1327,2383,-1038,-81,285,1,7,11
1.72313E+12,-7809,1313,2423,-1041,-88,342,1,7,11
1.72313E+12,-8050,1307,2178,-736,-112,141,1,7,11
1.72313E+12,-8031,1320,2429,-669,-118,188,1,7,11
1.72313E+12,-8010,1331,2408,-865,-93,240,1,7,11
1.72313E+12,-8009,1355,2376,-783,-31,541,1,7,11
1.72313E+12,-7999,1398,2304,-424,289,588,1,7,11
1.72313E+12,-7977,1164,2317,-638,361,607,1,7,11
1.72313E+12,-7995,1392,2376,-625,174,576,1,7,11
1.72313E+12,-8020,1354,2203,-575,211,246,1,7,11
1.72313E+12,-8053,1344,2250,-192,218,148,1,7,11
1.72313E+12,-8062,1378,2265,-280,199,249,1,7,11
1.72313E+12,-8050,1154,2253,-123,160,-99,1,7,11
1.72313E+12,-8047,1192,2229,-16,356,69,1,7,11
1.72313E+12,-8042,1247,2192,316,322,15,1,7,11
1.72313E+12,-8060,1543,2193,278,293,2,1,7,11
1.72313E+12,-7812,1544,2229,-58,-16,37,1,7,11
1.72313E+12,-8044,1266,2263,118,-95,94,1,7,11
1.72313E+12,-8013,1237,2293,67,85,-103,1,7,11
1.72313E+12,-7992,1241,2563,61,22,-34,1,7,11
1.72313E+12,-7974,1541,2289,86,-272,305,1,7,11
1.72313E+12,-7976,1584,2276,91,-280,146,1,7,11
1.72313E+12,-7966,1614,2279,95,-274,249,1,7,11
1.72313E+12,-7975,1619,2293,98,2,579,1,7,11
1.72313E+12,-7994,1621,2571,114,21,629,1,7,11
1.72313E+12,-8009,1608,2589,109,33,384,1,7,11
1.72313E+12,-8001,1598,2615,95,24,607,1,7,11
1.72313E+12,-7992,1600,2635,79,2,531,1,7,11
1.72313E+12,-7996,1637,2644,77,-280,196,1,7,11
1.72313E+12,-7992,1448,2619,91,-295,157,1,7,11
1.72313E+12,-7971,1494,2583,91,-277,166,1,7,11
1.72313E+12,-7938,1495,2568,73,28,196,1,7,11
1.72313E+12,-7644,1469,2577,62,98,202,1,7,11
1.72313E+12,-7643,1444,2582,86,-88,172,1,7,11
1.72313E+12,-7655,1448,2564,120,-23,136,1,7,11
1.72313E+12,-7665,1515,2235,-105,293,365,1,7,11
1.72313E+12,-7985,1840,2431,117,356,356,1,7,11
1.72313E+12,-8053,1880,2405,41,135,139,1,7,11
1.72313E+12,-7839,1866,2407,-307,371,204,1,7,11
1.72313E+12,-7812,1829,2403,-373,304,245,1,7,11
1.72313E+12,-8035,1490,2424,-157,-17,227,1,7,11
1.72313E+12,-8009,1438,2417,-129,-64,151,1,7,11
1.72313E+12,-7954,1443,2044,-315,-75,264,1,7,11
1.72313E+12,-7940,1455,1952,44,310,-68,1,7,11
1.72313E+12,-7640,1447,2142,95,190,114,1,7,11
1.72313E+12,-7955,1416,2157,121,597,-309,1,7,11
1.72313E+12,-8054,1420,1974,-70,397,-242,1,7,11
1.72313E+12,-7884,1497,2000,293,625,-420,1,7,11
1.72313E+12,-8212,1847,2010,131,562,-785,1,7,11
1.72313E+12,-8243,1881,2016,164,240,-809,1,7,11
1.72313E+12,-8255,1879,2034,179,172,-801,1,7,11
1.72313E+12,-8242,1872,2033,191,359,-796,1,7,11
1.72313E+12,-8196,1891,1959,207,285,-805,1,7,11
1.72313E+12,-7889,1909,2103,164,-19,-843,1,7,11
1.72313E+12,-7880,1868,1765,315,-29,-656,1,7,11
1.72313E+12,-7868,1505,1726,-62,-54,-729,1,7,11
1.72313E+12,-7849,1621,1749,79,-80,-1092,1,7,11
1.72313E+12,-7890,1224,2104,17,-104,-944,1,7,11
1.72313E+12,-8201,1390,1942,47,92,-1015,1,7,11
1.72313E+12,-8227,1363,1994,-128,15,-1292,1,7,11
1.72313E+12,-8212,1389,1970,-49,-313,-999,1,7,11
1.72313E+12,-7903,1405,1955,-33,-361,-927,1,7,11
1.72313E+12,-7854,1404,1965,-58,-130,-1114,1,7,11
1.72313E+12,-7818,1153,1978,-84,-148,-1052,1,7,11
1.72313E+12,-7814,1181,1989,-90,-160,-737,1,7,11
1.72313E+12,-7844,1193,2012,-116,-167,-660,1,7,11
1.72313E+12,-7839,1181,2007,108,-201,-817,1,7,11
1.72313E+12,-7826,1406,1994,42,-230,-490,1,7,11
1.72313E+12,-7829,1400,1970,-308,-247,-439,1,7,11
1.72313E+12,-7850,1404,1971,-175,-243,-389,1,7,11
1.72313E+12,-7871,1373,2024,-573,-217,-591,1,7,11
1.72313E+12,-7894,1294,2370,-418,-195,-552,1,7,11
1.72313E+12,-7895,955,2202,-448,-206,-553,1,7,11
1.72313E+12,-7877,904,2265,-429,-241,-591,1,7,11
1.72313E+12,-7869,1142,2277,-410,-540,-624,1,7,11
1.72313E+12,-7846,1102,2565,-414,-563,-634,1,7,11
1.72313E+12,-7822,1058,2597,-447,-562,-625,1,7,11
1.72313E+12,-8013,1037,2605,-456,-558,-603,1,7,11
1.72313E+12,-7958,1044,2588,-464,-545,-583,1,7,11
1.72313E+12,-7670,1073,2589,-480,-256,-565,1,7,11
1.72313E+12,-7679,1094,2593,-788,-205,-543,1,7,11
1.72313E+12,-7986,1114,2631,-837,-138,-497,1,7,11
1.72313E+12,-8053,1132,2663,-867,-330,-197,1,7,11
1.72313E+12,-7827,903,2657,-874,-289,-136,1,7,11
1.72313E+12,-7822,935,2654,-881,-253,-332,1,7,11
1.72313E+12,-7831,945,2662,-685,25,-275,1,7,11
1.72313E+12,-7857,936,2450,-733,43,41,1,7,11
1.72313E+12,-7875,920,2500,-750,41,95,1,7,11
1.72313E+12,-7897,917,2521,-745,40,111,1,7,11
1.72313E+12,-7896,971,2523,-736,45,86,1,7,11
1.72313E+12,-7885,1010,2518,-746,67,85,1,7,11
1.72313E+12,-7888,1292,2522,-752,103,102,1,7,11
1.72313E+12,-7874,1312,2515,-738,-118,-117,1,7,11
1.72313E+12,-7860,1335,2503,-725,-78,-86,1,7,11
1.72313E+12,-7863,1338,2502,-731,-28,-66,1,7,11
1.72313E+12,-7868,1326,2518,-737,281,-50,1,7,11
1.72313E+12,-7882,1320,2511,-741,332,-42,1,7,11
1.72313E+12,-7891,1312,2506,-746,382,-31,1,7,11
1.72313E+12,-7919,1307,2514,-762,178,-30,1,7,11
1.72313E+12,-8194,1289,2538,-1034,218,-20,1,7,11
1.72313E+12,-8202,1007,2544,-765,234,-14,1,7,11
1.72313E+12,-7930,1009,2500,-741,231,-36,1,7,11
1.72313E+12,-7904,1012,2459,-753,233,-84,1,7,11
1.72313E+12,-7886,999,2664,-1037,243,113,1,7,11
1.72313E+12,-7878,981,2628,-1067,512,46,1,7,11
1.72313E+12,-7899,968,2607,-1078,531,-274,1,7,11
1.72313E+12,-7908,950,2301,-1065,552,-315,1,7,11
1.72313E+12,-7927,937,2249,-1037,588,-342,1,7,11
1.72313E+12,-8193,922,2197,-747,627,-368,1,7,11
1.72313E+12,-8230,899,2425,-711,421,-160,1,7,11
1.72313E+12,-8301,1136,2391,-647,464,-213,1,7,11
1.72313E+12,-8090,1120,2355,-828,482,-256,1,7,11
1.72313E+12,-8116,1084,2336,-498,493,-571,1,7,11
1.72313E+12,-8121,1047,2324,-403,481,-402,1,7,11
1.72313E+12,-8136,1029,2038,-548,457,-793,1,7,11
1.72313E+12,-8156,757,2002,-192,428,-696,1,7,11
1.72313E+12,-8160,752,1948,-354,393,-1106,1,7,11
1.72313E+12,-8157,725,2146,-279,613,-993,1,7,11
1.72313E+12,-8146,661,2124,54,555,-1169,1,7,11
1.72313E+12,-8147,840,2134,-84,523,-1269,1,7,11
1.72313E+12,-8125,493,2128,293,231,-1621,1,7,11
1.72313E+12,-8087,416,2072,181,203,-1488,1,7,11
1.72313E+12,-8311,587,1766,566,206,-1901,1,7,11
1.72313E+12,-8294,234,1739,438,238,-2075,1,7,11
1.72313E+12,-8304,370,1750,841,540,-2003,1,7,11
1.72313E+12,-8284,-44,1725,1029,559,-2187,1,7,11
1.72313E+12,-8272,119,1916,1319,586,-2491,1,7,11
1.72313E+12,-8293,25,1865,1244,626,-2943,1,7,11
1.72313E+12,-8316,-328,1828,1437,416,-3090,1,7,11
1.72313E+12,-8313,-187,1825,1883,476,-3200,1,7,11
1.72313E+12,-8315,-566,1837,2114,792,-3043,1,7,11
1.72313E+12,-8319,-400,1833,2364,836,-3402,1,7,11
1.72313E+12,-8313,-465,1831,2600,865,-3257,1,7,11
1.72313E+12,-8307,-796,1861,2552,892,-3609,1,7,11
1.72313E+12,-8306,-859,1880,2755,652,-3680,1,7,11
1.72313E+12,-8286,-661,1887,3191,657,-3462,1,7,11
1.72313E+12,-8275,-716,1880,3064,676,-3474,1,7,11
1.72313E+12,-8291,-1036,1878,3412,700,-3460,1,7,11
1.72313E+12,-8309,-1108,1883,3202,718,-3675,1,7,11
1.72313E+12,-8316,-923,1900,3216,709,-3613,1,7,11
1.72313E+12,-8286,-1000,1914,3453,658,-3296,1,7,11
1.72313E+12,-8258,-1343,1669,3383,819,-3281,1,7,11
1.72313E+12,-8227,-1192,1704,2992,407,-3315,1,7,11
1.72313E+12,-8210,-1560,1742,2809,186,-3655,1,7,11
1.72313E+12,-8206,-1416,1771,2836,-107,-3512,1,7,11
1.72313E+12,-8221,-1807,2082,2279,-201,-3920,1,7,11
1.72313E+12,-8291,-1694,2167,1953,-862,-3839,1,7,11
1.72313E+12,-8073,-2069,1984,1905,-1311,-4193,1,7,11
1.72313E+12,-8240,-1925,2002,1620,-1493,-4187,1,7,11
1.72313E+12,-7829,-2319,2029,1326,-2075,-4119,1,7,11
1.72313E+12,-7676,-2209,2335,1065,-2018,-3763,1,7,11
1.72313E+12,-7762,-2608,2392,848,-2383,-3877,1,7,11
1.72313E+12,-7356,-2501,2208,399,-2397,-3474,1,7,11
1.72313E+12,-7501,-2899,2281,252,-2342,-3321,1,7,11
1.72313E+12,-7148,-2772,2600,136,-1995,-3421,1,7,11
1.72313E+12,-7083,-3141,2678,298,-2130,-3033,1,7,11
1.72313E+12,-7264,-2976,2492,-16,-1747,-3147,1,7,11
1.72313E+12,-7192,-3059,2558,-48,-1868,-2740,1,7,11
1.72313E+12,-6886,-3382,2875,-54,-1475,-2830,1,7,11
1.72313E+12,-6855,-3431,2910,-53,-1594,-2656,1,7,11
1.72313E+12,-6871,-3211,2935,-73,-1193,-2231,1,7,11
1.72313E+12,-6889,-3245,2940,-124,-1316,-2310,1,7,11
1.72313E+12,-7180,-3275,2689,36,-920,-2160,1,7,11
1.72313E+12,-7237,-3309,2703,-340,-1031,-1763,1,7,11
1.72313E+12,-7043,-3600,2723,-208,-648,-1884,1,7,11
1.72313E+12,-7089,-3625,2771,-582,-812,-1506,1,7,11
1.72313E+12,-7104,-3660,2801,-436,-787,-1663,1,7,11
1.72313E+12,-7100,-3457,2801,-811,-820,-1637,1,7,11
1.72313E+12,-7119,-3493,2779,-686,-649,-1413,1,7,11
1.72313E+12,-7090,-3538,2765,-1090,-1035,-1439,1,7,11
1.72313E+12,-7048,-3878,2802,-1011,-901,-1467,1,7,11
1.72313E+12,-7256,-3789,3103,-1395,-1013,-1465,1,7,11
1.72313E+12,-6888,-4160,3109,-1212,-1372,-1413,1,7,11
1.72313E+12,-6803,-4190,2773,-1213,-1231,-1645,1,7,11
1.72313E+12,-7000,-3977,2937,-1278,-1578,-1604,1,7,11
1.72313E+12,-6945,-4033,2832,-1655,-1610,-1538,1,7,11
1.72313E+12,-6628,-4083,2470,-1835,-1649,-1209,1,7,11
1.72313E+12,-6602,-4410,2679,-2086,-1415,-1405,1,7,11
1.72313E+12,-6605,-4293,2681,-2318,-1432,-1326,1,7,11
1.72313E+12,-6593,-4673,2665,-2212,-1485,-972,1,7,11
1.72313E+12,-6541,-4539,2623,-2573,-1811,-1129,1,7,11
1.72313E+12,-6748,-4898,2290,-2657,-1882,-1043,1,7,11
1.72313E+12,-6719,-4986,2203,-2485,-1697,-729,1,7,11
1.72313E+12,-6724,-4798,2393,-2855,-1765,-687,1,7,11
1.72313E+12,-6758,-5142,2388,-2722,-2117,-879,1,7,11
1.72313E+12,-6711,-5239,2401,-2815,-2000,-778,1,7,11
1.72313E+12,-6659,-5099,2424,-3114,-2395,-440,1,7,11
1.72313E+12,-6351,-5410,2413,-3082,-2299,-628,1,7,11
1.72313E+12,-6300,-5427,2398,-2802,-2437,-573,1,7,11
1.72313E+12,-6499,-5434,2407,-2794,-2553,-238,1,7,11
1.72313E+12,-6408,-5447,2414,-2792,-2910,-149,1,7,11
1.72313E+12,-6060,-5431,2399,-2799,-2740,-339,1,7,11
1.72313E+12,-6248,-5410,2397,-3100,-2804,-306,1,7,11
1.72313E+12,-6213,-5441,2192,-3184,-3095,-281,1,7,11
1.72313E+12,-6154,-5389,2208,-2969,-3168,23,1,7,11
1.72313E+12,-5796,-5389,2266,-3072,-2966,84,1,7,11
1.72313E+12,-6009,-5410,2616,-3394,-2983,-123,1,7,11
1.72313E+12,-6004,-5420,2685,-3425,-3010,-83,1,7,11
1.72313E+12,-6006,-5377,2449,-3455,-3032,-7,1,7,11
1.72313E+12,-5994,-5432,2555,-3322,-3031,360,1,7,11
1.72313E+12,-6012,-5333,2937,-3662,-3042,201,1,7,11
1.72313E+12,-6013,-5642,2809,-3681,-3055,550,1,7,11
1.72313E+12,-5809,-5530,2976,-3678,-3007,441,1,7,11
1.72313E+12,-5975,-5727,3033,-3246,-3024,654,1,7,11
1.72313E+12,-5926,-5746,3359,-3454,-2991,1107,1,7,11
1.72313E+12,-5529,-5545,3431,-3363,-3168,1020,1,7,11
1.72313E+12,-5355,-5911,3307,-3016,-2765,1019,1,7,11
1.72313E+12,-5258,-6007,3507,-3134,-2884,1118,1,7,11
1.72313E+12,-5277,-5995,3931,-2702,-2529,880,1,7,11
1.72313E+12,-5650,-5962,4127,-2558,-2669,494,1,7,11
1.72313E+12,-5366,-5627,4209,-2632,-2601,784,1,7,11
1.72313E+12,-5309,-5678,4212,-2229,-2245,830,1,7,11
1.72313E+12,-5309,-5347,3999,-2407,-2316,662,1,7,11
1.72313E+12,-5289,-5381,4010,-1988,-2151,1026,1,7,11
1.72313E+12,-5542,-5009,4432,-1995,-1697,905,1,7,11
1.72313E+12,-5936,-5210,4473,-1951,-1907,1261,1,7,11
1.72313E+12,-5782,-5218,4228,-1949,-1800,1864,1,7,11
1.72313E+12,-6149,-4995,4262,-2176,-1426,2117,1,7,11
1.72313E+12,-6146,-5067,4315,-1952,-1590,2317,1,7,11
1.72313E+12,-5879,-5090,4321,-1939,-1580,1988,1,7,11
1.72313E+12,-5826,-5024,4279,-1936,-1580,2070,1,7,11
1.72313E+12,-5847,-5009,4257,-1956,-1542,1850,1,7,11
1.72313E+12,-5784,-5189,4396,-2160,-1277,1639,1,7,11
1.72313E+12,-5947,-5203,4038,-2153,-1210,1186,1,7,11
1.72313E+12,-5574,-5210,4217,-2117,-1399,950,1,7,11
1.72313E+12,-5543,-5000,4165,-2053,-1334,651,1,7,11
1.72313E+12,-5574,-5019,4145,-1717,-1315,634,1,7,11
1.72313E+12,-5911,-5029,4173,-1886,-1328,177,1,7,11
1.72313E+12,-6011,-5029,4212,-1497,-1380,321,1,7,11
1.72313E+12,-5780,-5015,3974,-1579,-1216,290,1,7,11
1.72313E+12,-5766,-5054,3996,-1394,-1261,286,1,7,11
1.72313E+12,-5761,-5102,4031,-903,-1252,-3,1,7,11
1.72313E+12,-6015,-5401,4042,-888,-1210,-55,1,7,11
1.72313E+12,-6003,-5422,4063,-619,-1398,122,1,7,11
1.72313E+12,-5983,-5429,4358,-378,-1322,-267,1,7,11
1.72313E+12,-5964,-5397,4372,127,-1013,-190,1,7,11
1.72313E+12,-5933,-5109,4383,332,-984,-394,1,7,11
1.72313E+12,-5959,-5078,4416,237,-965,-871,1,7,11
1.72313E+12,-5961,-4997,4417,615,-992,-1035,1,7,11
1.72313E+12,-5619,-5076,4259,386,-1009,-1140,1,7,11
1.72313E+12,-5526,-5379,4304,433,-1013,-1293,1,7,11
1.72313E+12,-5652,-5400,4316,780,-1022,-1163,1,7,11
1.72313E+12,-5266,-5437,4337,841,-1281,-1585,1,7,11
1.72313E+12,-5434,-5461,4613,886,-1022,-1501,1,7,11
1.72313E+12,-5115,-5470,4637,680,-1014,-1885,1,7,11
1.72313E+12,-5062,-5490,4659,689,-998,-1707,1,7,11
1.72313E+12,-5045,-5330,4486,660,-953,-1731,1,7,11
1.72313E+12,-5242,-5327,4501,669,-934,-1709,1,7,11
1.72313E+12,-5156,-5249,4499,895,-1146,-1693,1,7,11
1.72313E+12,-4852,-5427,4524,835,-1105,-1916,1,7,11
1.72313E+12,-4741,-5067,4728,785,-1112,-1854,1,7,11
1.72313E+12,-4890,-5006,4660,418,-1092,-1799,1,7,11
1.72313E+12,-4548,-5002,4621,537,-1046,-1472,1,7,11
1.72313E+12,-4505,-5066,4642,145,-707,-1646,1,7,11
1.72313E+12,-4533,-5458,4725,314,-831,-1550,1,7,11
1.72313E+12,-4565,-5348,4539,328,-424,-1181,1,7,11
1.72313E+12,-4593,-5739,4571,157,-244,-1329,1,7,11
1.72313E+12,-4912,-5568,4590,526,-258,-989,1,7,11
1.72313E+12,-4988,-5596,4606,410,261,-1149,1,7,11
1.72313E+12,-4827,-5753,4885,807,521,-1057,1,7,11
1.72313E+12,-4856,-5721,4969,887,499,-700,1,7,11
1.72313E+12,-5142,-5704,4803,766,704,-721,1,7,11
1.72313E+12,-5162,-5356,4783,1136,674,-1070,1,7,11
1.72313E+12,-5226,-5249,4742,1137,824,-943,1,7,11
1.72313E+12,-5102,-5457,4987,764,409,-1024,1,7,11
1.72313E+12,-5453,-5087,4911,867,189,-1014,1,7,11
1.72313E+12,-5345,-5176,4596,612,-24,-927,1,7,11
1.72313E+12,-5520,-4991,4586,-6,-280,-734,1,7,11
1.72313E+12,-5945,-4551,4590,-226,-619,-442,1,7,11
1.72313E+12,-6152,-4260,4511,-1105,-1102,-317,1,7,11
1.72313E+12,-6455,-4152,4719,-1776,-1811,155,1,7,11
1.72313E+12,-6768,-3756,4902,-3059,-2827,1029,1,7,11
1.72313E+12,-6937,-3749,4826,-4346,-4210,1517,1,7,11
1.72313E+12,-6581,-4176,5120,-5536,-5560,2587,1,7,11
1.72313E+12,-6351,-4361,4889,-6757,-7125,3378,1,7,11
1.72313E+12,-6415,-4239,4477,-7387,-8755,4135,1,7,11
1.72313E+12,-6025,-4640,3837,-8556,-9654,4923,1,7,11
1.72313E+12,-5808,-4965,3869,-9504,-10633,5752,1,7,11
1.72313E+12,-5540,-5421,3492,-10249,-11413,6505,1,7,11
1.72313E+12,-5265,-5606,3676,-10457,-12008,6849,1,7,11
1.72313E+12,-5035,-6222,3626,-10643,-12670,7323,1,7,11
1.72313E+12,-4813,-6485,3598,-10638,-12673,7669,1,7,11
1.72313E+12,-4601,-6714,3601,-10447,-12771,7904,1,7,11
1.72313E+12,-4639,-6579,3296,-10347,-12735,8286,1,7,11
1.72313E+12,-4434,-6619,3215,-9668,-12811,8295,1,7,11
1.72313E+12,-4042,-6568,3336,-9505,-12248,8204,1,7,11
1.72313E+12,-4077,-6712,3027,-8964,-11824,7970,1,7,11
1.72313E+12,-4418,-6350,3041,-8711,-11000,7588,1,7,11
1.72313E+12,-4339,-6352,3455,-8535,-10370,7733,1,7,11
1.72313E+12,-4578,-6523,3319,-8272,-10055,7378,1,7,11
1.72313E+12,-4785,-6421,3652,-8047,-9555,7535,1,7,11
1.72313E+12,-5005,-6060,3505,-7600,-9081,7425,1,7,11
1.72313E+12,-5465,-6168,3572,-7366,-8420,7071,1,7,11
1.72313E+12,-5325,-5790,3866,-7145,-8318,7242,1,7,11
1.72313E+12,-5657,-5936,3905,-7178,-7970,6876,1,7,11
1.72313E+12,-5719,-5558,3927,-6930,-7364,6984,1,7,11
1.72313E+12,-5756,-5362,3887,-6388,-7265,6566,1,7,11
1.72313E+12,-5553,-5454,3848,-6467,-6618,6398,1,7,11
1.72313E+12,-5910,-5040,3865,-6111,-6457,6466,1,7,11
1.72313E+12,-5762,-5150,3890,-6033,-5806,6041,1,7,11
1.72313E+12,-5851,-4976,3891,-6206,-5709,5866,1,7,11
1.72313E+12,-6226,-4568,3893,-6156,-5385,5952,1,7,11
1.72313E+12,-6106,-4703,3851,-5831,-4857,5553,1,7,11
1.72313E+12,-6415,-4296,3528,-5768,-4929,5663,1,7,11
1.72313E+12,-6488,-4237,3512,-5774,-4508,5495,1,7,11
1.72313E+12,-6359,-4477,3542,-6013,-4670,5098,1,7,11
1.72313E+12,-6709,-4460,3541,-5931,-4647,5234,1,7,11
1.72313E+12,-6560,-4382,3521,-5558,-4652,5122,1,7,11
1.72313E+12,-6618,-4391,3530,-5510,-4691,4821,1,7,11
1.72313E+12,-6634,-4252,3842,-5704,-4729,4780,1,7,11
1.72313E+12,-6595,-4668,3922,-5349,-4514,4955,1,7,11
1.72313E+12,-6587,-4891,3768,-5495,-4523,4560,1,7,11
1.72313E+12,-6544,-4831,3815,-5043,-4534,4627,1,7,11
1.72313E+12,-6657,-5203,3838,-4806,-4483,4375,1,7,11
1.72313E+12,-6490,-5104,3807,-4867,-4334,3783,1,7,11
1.72313E+12,-6414,-5334,4097,-4492,-4357,3645,1,7,11
1.72313E+12,-6055,-5537,4170,-4330,-4132,3002,1,7,11
1.72313E+12,-5835,-5565,4194,-4063,-3935,2888,1,7,11
1.72313E+12,-5589,-5726,4208,-3745,-3474,2266,1,7,11
1.72313E+12,-5661,-5363,4011,-3648,-3272,1936,1,7,11
1.72313E+12,-5342,-5499,4372,-3012,-3369,1675,1,7,11
1.72313E+12,-5313,-5390,4259,-2875,-3048,1792,1,7,11
1.72313E+12,-5487,-5058,4665,-2245,-3032,1473,1,7,11
1.72313E+12,-5424,-5061,4518,-2067,-3000,1455,1,7,11
1.72313E+12,-5408,-5064,4915,-1834,-3163,1435,1,7,11
1.72313E+12,-5401,-5028,4811,-1598,-2768,1429,1,7,11
1.72313E+12,-5448,-5199,5208,-1361,-2831,1427,1,7,11
1.72313E+12,-5500,-4818,5060,-921,-2636,1455,1,7,11
1.72313E+12,-5295,-4967,5422,-1097,-2188,1460,1,7,11
1.72313E+12,-5336,-4930,5272,-1081,-2006,1452,1,7,11
1.72313E+12,-5344,-4903,5339,-1087,-2094,1654,1,7,11
1.72313E+12,-5296,-4877,5346,-1141,-1690,1275,1,7,11
1.72313E+12,-5497,-4560,5287,-1018,-1805,1313,1,7,11
1.72313E+12,-5481,-4493,5455,-1252,-1413,1044,1,7,11
1.72313E+12,-5269,-4538,5254,-1857,-1549,790,1,7,11
1.72313E+12,-5276,-4888,5355,-2109,-1256,614,1,7,11
1.72313E+12,-5498,-4960,5656,-1977,-1272,237,1,7,11
1.72313E+12,-5440,-4748,5639,-2033,-1549,182,1,7,11
1.72313E+12,-5103,-4798,5347,-2335,-1573,158,1,7,11
1.72313E+12,-5022,-4849,5289,-2381,-1597,362,1,7,11
1.72313E+12,-5219,-5179,5254,-2203,-1605,269,1,7,11
1.72313E+12,-5203,-5235,5491,-2250,-1600,-94,1,7,11
1.72313E+12,-5138,-5007,5430,-2283,-1606,72,1,7,11
1.72313E+12,-4775,-5067,5376,-2593,-1570,-274,1,7,11
1.72313E+12,-4958,-5113,5060,-2608,-1244,-381,1,7,11
1.72313E+12,-4581,-5431,5240,-2592,-1156,-210,1,7,11
1.72313E+12,-4712,-5492,5163,-2299,-1287,-559,1,7,11
1.72313E+12,-4618,-5302,4833,-2272,-1131,-408,1,7,11
1.72313E+12,-4325,-5635,4799,-2263,-695,-505,1,7,11
1.72313E+12,-4323,-5715,4788,-2247,-775,-821,1,7,11
1.72313E+12,-4610,-5534,4801,-2200,-609,-832,1,7,11
1.72313E+12,-4631,-5600,4775,-2376,-215,-798,1,7,11
1.72313E+12,-4633,-5631,4984,-2016,-373,-497,1,7,11
1.72313E+12,-4665,-5905,4944,-1933,-287,-468,1,7,11
1.72313E+12,-4689,-5956,4921,-2134,21,-424,1,7,11
1.72313E+12,-4726,-5781,4925,-2067,45,-636,1,7,11
1.72313E+12,-4481,-5837,4923,-1716,32,-600,1,7,11
1.72313E+12,-4714,-6166,4905,-1886,10,-577,1,7,11
1.72313E+12,-4701,-6423,4895,-1834,-258,-569,1,7,11
1.72313E+12,-4549,-6529,4942,-1523,24,-617,1,7,11
1.72313E+12,-4869,-6779,4905,-1278,-265,-399,1,7,11
1.72313E+12,-4520,-6472,4542,-961,-326,-614,1,7,11
1.72313E+12,-4636,-5865,4634,-681,-380,-555,1,7,11
1.72313E+12,-4637,-5913,4321,-795,-139,-555,1,7,11
1.72313E+12,-4731,-5559,4618,-414,-148,-202,1,7,11
1.72313E+12,-4732,-5542,4648,-162,-383,-345,1,7,11
1.72313E+12,-4712,-5548,4630,51,-304,7,1,7,11
1.72313E+12,-4695,-5552,4344,268,107,68,1,7,11
1.72313E+12,-4484,-5590,4311,525,351,102,1,7,11
1.72313E+12,-4540,-5519,4428,850,614,115,1,7,11
1.72313E+12,-4583,-5352,3971,1125,885,116,1,7,11
1.72313E+12,-4886,-5444,4106,1010,1150,109,1,7,11
1.72313E+12,-4802,-5388,4111,1327,1407,73,1,7,11
1.72313E+12,-5259,-5434,4012,1374,1446,-99,1,7,11
1.72313E+12,-5620,-5439,4379,1174,1494,330,1,7,11
1.72313E+12,-5859,-5111,4427,1238,1630,568,1,7,11
1.72313E+12,-6026,-5020,4464,1182,1156,768,1,7,11
1.72313E+12,-6432,-5165,4230,1287,1106,875,1,7,11
1.72313E+12,-6501,-5132,4260,1065,469,719,1,7,11
1.72313E+12,-6132,-5133,4265,837,320,1056,1,7,11
1.72313E+12,-6242,-5182,4302,630,-263,1057,1,7,11
1.72313E+12,-5786,-5161,4298,515,-522,758,1,7,11
1.72313E+12,-5583,-5189,4308,171,-415,713,1,7,11
1.72313E+12,-5681,-5172,4266,160,-463,640,1,7,11
1.72313E+12,-5345,-4821,4471,161,-417,824,1,7,11
1.72313E+12,-5298,-4795,4236,336,-554,814,1,7,11
1.72313E+12,-5301,-4812,4296,294,-160,836,1,7,11
1.72313E+12,-5288,-4842,4312,299,-273,889,1,7,11
1.72313E+12,-5305,-4863,4314,324,-105,695,1,7,11
1.72313E+12,-5360,-5134,4302,354,132,765,1,7,11
1.72313E+12,-5675,-4817,4263,367,228,1035,1,7,11
1.72313E+12,-5524,-4778,4253,299,555,754,1,7,11
1.72313E+12,-5924,-4769,4293,-35,580,734,1,7,11
1.72313E+12,-5781,-4773,4317,-75,570,739,1,7,11
1.72313E+12,-5882,-4767,4294,-83,548,766,1,7,11
1.72313E+12,-6190,-4926,4409,-106,243,1032,1,7,11
1.72313E+12,-6262,-4592,4055,-270,205,758,1,7,11
1.72313E+12,-6044,-4565,4020,-221,156,1038,1,7,11
1.72313E+12,-6028,-4866,4048,-423,360,1032,1,7,11
1.72313E+12,-6268,-4888,4073,-809,320,717,1,7,11
1.72313E+12,-6264,-4887,4068,-645,312,659,1,7,11
1.72313E+12,-6238,-4870,4049,-724,318,877,1,7,11
1.72313E+12,-6192,-4877,3978,-1086,312,813,1,7,11
1.72313E+12,-6173,-4576,3836,-971,275,419,1,7,11
1.72313E+12,-6195,-4603,3779,-1176,-29,239,1,7,11
1.72313E+12,-6221,-4911,3730,-1631,-83,-73,1,7,11
1.72313E+12,-6249,-4942,3936,-1820,35,-281,1,7,11
1.72313E+12,-6238,-4958,3883,-1697,-336,-187,1,7,11
1.72313E+12,-6210,-4756,3569,-2060,-210,-560,1,7,11
1.72313E+12,-6201,-4821,3546,-2096,-603,-628,1,7,11
1.72313E+12,-6162,-5134,3488,-1768,-471,-613,1,7,11
1.72313E+12,-5844,-5151,3664,-1900,-804,-556,1,7,11
1.72313E+12,-5780,-5132,3291,-1501,-834,-195,1,7,11
1.72313E+12,-6007,-5129,3233,-1636,-808,-281,1,7,11
1.72313E+12,-5991,-5165,3239,-1232,-479,-45,1,7,11
1.72313E+12,-5960,-5218,3273,-1004,-619,254,1,7,11
1.72313E+12,-5956,-5211,3294,-693,-203,851,1,7,11
1.72313E+12,-5907,-4849,3263,-582,-267,1003,1,7,11
1.72313E+12,-5610,-4749,3216,-269,-18,1456,1,7,11
1.72313E+12,-5550,-4982,3245,-17,215,1942,1,7,11
1.72313E+12,-5695,-4895,3403,215,531,2265,1,7,11
1.72313E+12,-5621,-4544,3071,239,531,2250,1,7,11
1.72313E+12,-6163,-4644,3049,178,189,2407,1,7,11
1.72313E+12,-6457,-4633,3419,-33,336,2031,1,7,11
1.72313E+12,-6727,-4733,3596,37,-102,2129,1,7,11
1.72313E+12,-7211,-5046,3941,-388,76,1857,1,7,11
1.72313E+12,-7978,-6009,4324,-736,15,1577,1,7,11
1.72313E+12,-8059,-5826,4714,-726,-596,1293,1,7,11
1.72313E+12,-7358,-5954,4558,-730,-891,404,1,7,11
1.72313E+12,-6864,-5673,4508,-651,-1076,113,1,7,11
1.72313E+12,-6658,-5391,4726,-820,-965,-468,1,7,11
1.72313E+12,-6207,-5179,4683,-770,-1366,-938,1,7,11
1.72313E+12,-5592,-4830,4710,-501,-1207,-1545,1,7,11
1.72313E+12,-5304,-4806,4493,-498,-1544,-1475,1,7,11
1.72313E+12,-5044,-4845,4520,-512,-1596,-1535,1,7,11
1.72313E+12,-4786,-4831,4490,-791,-1645,-1532,1,7,11
1.72313E+12,-4528,-4854,4480,-887,-1655,-1486,1,7,11
1.72313E+12,-4313,-5186,4563,-730,-1606,-1417,1,7,11
1.72313E+12,-4382,-5247,4922,-711,-1548,-1576,1,7,11
1.72313E+12,-4017,-5190,4973,-830,-1209,-1190,1,7,11
1.72313E+12,-3990,-4841,4775,-420,-1368,-962,1,7,11
1.72313E+12,-4009,-4967,4836,-521,-1293,-881,1,7,11
1.72313E+12,-4085,-4899,5204,-193,-991,-242,1,7,11
1.72313E+12,-4928,-4875,5647,-193,-1095,537,1,7,11
1.72313E+12,-5073,-4599,5783,-191,-767,681,1,7,11
1.72313E+12,-5506,-4677,5868,-347,-725,1366,1,7,11
1.72313E+12,-5790,-4443,5882,-166,-875,1392,1,7,11
1.72313E+12,-6037,-3981,5844,-609,-782,1016,1,7,11
1.72313E+12,-6421,-3829,5987,-869,-461,1052,1,7,11
1.72313E+12,-6465,-3798,5630,-935,-409,511,1,7,11
1.72313E+12,-6420,-4098,5517,-1211,-404,240,1,7,11
1.72313E+12,-6061,-4191,5686,-1644,-445,281,1,7,11
1.72313E+12,-6181,-4044,5316,-1465,-773,-115,1,7,11
1.72313E+12,-5774,-4437,5473,-1465,-842,111,1,7,11
1.72313E+12,-5609,-4316,5334,-1640,-896,-74,1,7,11
1.72313E+12,-5691,-4692,5048,-1248,-651,355,1,7,11
1.72313E+12,-5289,-4572,5014,-1316,-867,591,1,7,11
1.72313E+12,-5436,-4914,5003,-1043,-812,877,1,7,11
1.72313E+12,-5113,-4742,5049,-476,-493,980,1,7,11
1.72313E+12,-5212,-4857,5389,-366,-445,1413,1,7,11
1.72313E+12,-4827,-4819,5397,380,-573,2053,1,7,11
1.72313E+12,-4808,-4741,5421,869,-327,2212,1,7,11
1.72313E+12,-5180,-4877,5479,1377,-2,2693,1,7,11
1.72313E+12,-5062,-4483,5280,1894,572,3293,1,7,11
1.72313E+12,-5430,-4299,5315,2400,886,4220,1,7,11
1.72313E+12,-5091,-4377,5285,2851,1129,4923,1,7,11
1.72313E+12,-5140,-4172,5429,3188,1334,5091,1,7,11
1.72313E+12,-4830,-3926,5062,3381,1265,5051,1,7,11
1.72313E+12,-5053,-3613,5019,3330,1633,4721,1,7,11
1.72313E+12,-5941,-3331,5457,2767,1598,3594,1,7,11
1.72313E+12,-6370,-2748,5348,2620,966,2148,1,7,11
1.72313E+12,-6849,-2446,5695,1781,560,540,1,7,11
1.72313E+12,-7289,-2190,5680,1009,-548,-1178,1,7,11
1.72313E+12,-7299,-2341,5890,316,-1350,-2953,1,7,11
1.72313E+12,-7683,-2402,5861,-794,-2171,-4725,1,7,11
1.72313E+12,-7346,-2670,6044,-1197,-2820,-5548,1,7,11
1.72313E+12,-7279,-2766,6074,-1863,-2992,-6461,1,7,11
1.72313E+12,-6635,-2987,6236,-2065,-3441,-6734,1,7,11
1.72313E+12,-6035,-3478,6150,-1948,-3065,-6275,1,7,11
1.72313E+12,-5551,-3718,6000,-2134,-2734,-5344,1,7,11
1.72313E+12,-5409,-4161,5897,-1727,-2259,-4513,1,7,11
1.72313E+12,-4864,-4377,5601,-1527,-1851,-3536,1,7,11
1.72313E+12,-4963,-4266,5549,-1229,-661,-2450,1,7,11
1.72313E+12,-4522,-4610,5509,-1071,7,-1542,1,7,11
1.72313E+12,-4658,-4673,5700,-435,397,-180,1,7,11
1.72313E+12,-4637,-4506,5746,-79,1002,856,1,7,11
1.72313E+12,-4664,-4867,5605,585,1515,1834,1,7,11
1.72313E+12,-4302,-4887,5734,1075,2050,2634,1,7,11
1.72313E+12,-4299,-4524,5342,1348,2109,2733,1,7,11
1.72313E+12,-4984,-4565,5728,1360,1753,2873,1,7,11
1.72313E+12,-5683,-4700,5947,1157,1457,2429,1,7,11
1.72313E+12,-6209,-4428,5774,1391,930,1862,1,7,11
1.72313E+12,-6284,-4021,5831,980,611,975,1,7,11
1.72313E+12,-6315,-4139,5781,744,29,229,1,7,11
1.72313E+12,-6488,-3807,5798,431,-785,-545,1,7,11
1.72313E+12,-6233,-3730,5939,378,-1319,-1321,1,7,11
1.72313E+12,-5976,-3770,5576,-287,-1416,-1689,1,7,11
1.72313E+12,-5717,-3806,5733,-459,-1868,-2386,1,7,11
1.72313E+12,-5475,-4149,5664,-1128,-1666,-2624,1,7,11
1.72313E+12,-5235,-4081,5360,-1240,-1872,-2668,1,7,11
1.72313E+12,-4976,-4332,5307,-1516,-1500,-2608,1,7,11
1.72313E+12,-4506,-4541,5481,-1696,-1606,-2289,1,7,11
1.72313E+12,-4334,-4935,5424,-2061,-1161,-2202,1,7,11
1.72313E+12,-4295,-4837,5405,-2097,-920,-2010,1,7,11
1.72313E+12,-4287,-5226,5069,-1759,-663,-1688,1,7,11
1.72313E+12,-4269,-5114,5016,-1868,-605,-1241,1,7,11
1.72313E+12,-4250,-5291,4992,-1411,-283,-735,1,7,11
1.72313E+12,-4285,-5365,5205,-1332,297,-199,1,7,11
1.72313E+12,-4289,-5714,5152,-730,608,174,1,7,11
1.72313E+12,-4278,-5584,5135,-638,666,1090,1,7,11
1.72313E+12,-4380,-5975,4814,14,973,1465,1,7,11
1.72313E+12,-4140,-5876,4775,141,1261,2164,1,7,11
1.72313E+12,-3746,-5878,4951,471,1531,2334,1,7,11
1.72313E+12,-3743,-6002,4871,736,1764,2358,1,7,11
1.72313E+12,-3837,-5557,4553,1119,1938,2039,1,7,11
1.72313E+12,-3991,-5697,4568,1108,2313,2122,1,7,11
1.72313E+12,-4443,-5658,4917,761,2375,1448,1,7,11
1.72313E+12,-4702,-5348,4775,711,2422,721,1,7,11
1.72313E+12,-4775,-5282,4807,739,2248,18,1,7,11
1.72313E+12,-5444,-5387,4789,750,2597,-1333,1,7,11
1.72313E+12,-5537,-5081,4812,695,2661,-2410,1,7,11
1.72313E+12,-5818,-5025,4791,672,2650,-3386,1,7,11
1.72313E+12,-6197,-5182,4990,673,2563,-4104,1,7,11
1.72313E+12,-6202,-5199,4987,849,2420,-4418,1,7,11
1.72313E+12,-5790,-4993,4944,856,1987,-4240,1,7,11
1.72313E+12,-5598,-5233,4901,643,2101,-4379,1,7,11
1.72313E+12,-5679,-5002,4870,682,1730,-4097,1,7,11
1.72313E+12,-5257,-5009,4576,730,1887,-3711,1,7,11
1.72313E+12,-5400,-5016,4577,737,1800,-2963,1,7,11
1.72313E+12,-5072,-5050,4525,756,1451,-2661,1,7,11
1.72313E+12,-5229,-5051,4518,744,1618,-1777,1,7,11
1.72313E+12,-5240,-5047,4514,734,1555,-1164,1,7,11
1.72313E+12,-5200,-5113,4727,725,1214,-819,1,7,11
1.72313E+12,-5184,-5389,4705,718,1398,-342,1,7,11
1.72313E+12,-5154,-5014,4490,705,1339,311,1,7,11
1.72313E+12,-5346,-5142,4727,688,996,444,1,7,11
1.72313E+12,-5902,-5140,4559,812,1089,951,1,7,11
1.72313E+12,-6151,-4787,4591,418,804,1399,1,7,11
1.72313E+12,-6120,-4910,4942,529,-89,1560,1,7,11
1.72313E+12,-6518,-4602,4738,333,-328,1472,1,7,11
1.72313E+12,-6485,-4877,4793,-126,-1084,1887,1,7,11
1.72313E+12,-6216,-4926,4736,-284,-1261,1713,1,7,11
1.72313E+12,-5904,-4949,4916,-238,-1507,1907,1,7,11
1.72313E+12,-5353,-4934,4565,-633,-1809,1487,1,7,11
1.72313E+12,-5430,-4931,4550,-781,-1413,1574,1,7,11
1.72313E+12,-5090,-4927,4553,-885,-1176,1192,1,7,11
1.72313E+12,-5077,-4880,4551,-672,-1148,1167,1,7,11
1.72313E+12,-5098,-4871,4556,-722,-836,1268,1,7,11
1.72313E+12,-5398,-4872,4874,-768,-543,1482,1,7,11
1.72313E+12,-5379,-4947,4971,-1065,-327,1745,1,7,11
1.72313E+12,-5040,-4773,4803,-1027,47,1943,1,7,11
1.72313E+12,-5219,-4785,4789,-674,87,1972,1,7,11
1.72313E+12,-5009,-4979,4980,-854,92,2084,1,7,11
1.72313E+12,-5487,-4890,4956,-853,93,1800,1,7,11
1.72313E+12,-5517,-4541,4973,-692,24,1156,1,7,11
1.72313E+12,-5857,-4726,4815,-1088,-371,668,1,7,11
1.72313E+12,-6130,-4679,5173,-945,-581,180,1,7,11
1.72313E+12,-6289,-4650,4996,-983,-812,-257,1,7,11
1.72313E+12,-6288,-4636,5002,-976,-1035,-599,1,7,11
1.72313E+12,-6445,-4620,5226,-959,-959,-844,1,7,11
1.72313E+12,-6246,-4640,5172,-953,-1350,-730,1,7,11
1.72313E+12,-5783,-4661,4858,-950,-1396,-1058,1,7,11
1.72313E+12,-5591,-4701,4842,-950,-1370,-1026,1,7,11
1.72313E+12,-5692,-4526,5124,-932,-1287,-887,1,7,11
1.72313E+12,-5290,-4914,5150,-1126,-924,-392,1,7,11
1.72313E+12,-5403,-4991,5143,-743,-1048,-365,1,7,11
1.72313E+12,-5008,-4779,4856,-869,-889,-37,1,7,11
1.72313E+12,-5160,-4830,4849,-491,-450,553,1,7,11
1.72313E+12,-4839,-5122,4851,-611,-537,855,1,7,11
1.72313E+12,-4831,-5133,4863,-226,-130,1090,1,7,11
1.72313E+12,-4847,-5133,5122,-379,-280,985,1,7,11
1.72313E+12,-5150,-5133,5133,-318,30,1006,1,7,11
1.72313E+12,-5215,-4854,5149,-313,28,1114,1,7,11
1.72313E+12,-5117,-4759,5148,-323,9,817,1,7,11
1.72313E+12,-5279,-4930,5163,-381,-292,255,1,7,11
1.72313E+12,-5695,-4603,5183,-215,-362,-74,1,7,11
1.72313E+12,-5598,-4538,5198,-574,-190,-138,1,7,11
1.72313E+12,-5938,-4500,5201,-422,-549,-638,1,7,11
1.72313E+12,-5922,-4501,5205,-787,-638,-805,1,7,11
1.72313E+12,-5610,-4526,5208,-867,-433,-644,1,7,11
1.72313E+12,-5512,-4583,5208,-650,-469,-648,1,7,11
1.72313E+12,-5654,-4897,5206,-651,-474,-840,1,7,11
1.72313E+12,-5314,-4969,5207,-874,-449,-456,1,7,11
1.72313E+12,-5453,-4763,5197,-803,-416,-255,1,7,11
1.72313E+12,-5110,-4797,5177,-470,-602,-293,1,7,11
1.72313E+12,-5037,-4841,5177,-401,-524,-58,1,7,11
1.72313E+12,-4993,-4864,5179,-587,-201,134,1,7,11
1.72313E+12,-5234,-4861,5173,-524,-146,534,1,7,11
1.72313E+12,-4998,-4842,5162,-230,-337,629,1,7,11
1.72313E+12,-5045,-4830,5166,-203,-266,449,1,7,11
1.72313E+12,-5102,-4820,5170,-170,51,510,1,7,11
1.72313E+12,-5387,-4818,5185,-141,97,787,1,7,11
1.72313E+12,-5453,-4814,5236,-370,-111,467,1,7,11
1.72313E+12,-5271,-4804,5028,-326,-86,595,1,7,11
1.72313E+12,-5321,-4781,5047,0,-85,202,1,7,11
1.72313E+12,-5322,-4777,5047,66,-77,336,1,7,11
1.72313E+12,-5258,-4750,5001,-106,-28,-51,1,7,11
1.72313E+12,-5462,-4985,5238,-17,363,58,1,7,11
1.72313E+12,-5434,-4964,5219,346,552,-276,1,7,11
1.72313E+12,-5085,-4925,5189,158,483,-370,1,7,11
1.72313E+12,-5100,-4916,5210,188,647,-167,1,7,11
1.72313E+12,-5426,-4887,4996,207,758,-238,1,7,11
1.72313E+12,-5501,-4894,5024,241,1054,-530,1,7,11
1.72313E+12,-5315,-4883,5007,566,1057,-244,1,7,11
1.72313E+12,-5388,-4565,5210,428,1051,-138,1,7,11
1.72313E+12,-5701,-4522,5182,495,1077,54,1,7,11
1.72313E+12,-5713,-4507,5184,801,920,-36,1,7,11
1.72313E+12,-5292,-4580,5150,850,910,369,1,7,11
1.72313E+12,-5500,-4586,5126,862,904,-17,1,7,11
1.72313E+12,-5359,-4531,5162,850,1136,-280,1,7,11
1.72313E+12,-5521,-4719,5218,817,1085,-514,1,7,11
1.72313E+12,-5901,-4635,5229,804,1044,-402,1,7,11
1.72313E+12,-5942,-4334,5211,777,685,-452,1,7,11
1.72313E+12,-5929,-4328,5200,471,858,-444,1,7,11
1.72313E+12,-5615,-4644,5213,430,812,-391,1,7,11
1.72313E+12,-5528,-4726,5232,433,824,-576,1,7,11
1.72313E+12,-5671,-4535,5238,795,879,-245,1,7,11
1.72313E+12,-5288,-4874,4999,678,752,-164,1,7,11
1.72313E+12,-5404,-4947,4992,1143,950,-352,1,7,11
1.72313E+12,-5033,-4968,5217,1400,1218,-325,1,7,11
1.72313E+12,-5196,-4745,5186,1663,1812,-331,1,7,11
1.72313E+12,-4808,-4781,4817,1678,2112,-150,1,7,11
1.72313E+12,-4863,-4770,4761,2116,2402,-465,1,7,11
1.72313E+12,-5423,-4930,4784,1995,2604,-1133,1,7,11
1.72313E+12,-5740,-4522,4799,2327,2647,-1198,1,7,11
1.72313E+12,-6012,-4640,4816,2343,2585,-1640,1,7,11
1.72313E+12,-6198,-4269,4818,2307,2188,-1426,1,7,11
1.72313E+12,-6025,-4452,4833,1982,2010,-1607,1,7,11
1.72313E+12,-6262,-4438,4860,2154,2064,-1208,1,7,11
1.72313E+12,-6166,-4451,5124,2104,1869,-1303,1,7,11
1.72313E+12,-5780,-4477,5137,2070,1467,-923,1,7,11
1.72313E+12,-5935,-4465,5123,2057,1641,-1102,1,7,11
1.72313E+12,-5631,-4461,5120,1767,1622,-1026,1,7,11
1.72313E+12,-5597,-4447,5131,1739,1627,-665,1,7,11
1.72313E+12,-5567,-4469,5162,1680,1635,-814,1,7,11
1.72313E+12,-5552,-4241,5209,1872,1620,-491,1,7,11
1.72313E+12,-5589,-4260,5016,1819,1580,-471,1,7,11
1.72313E+12,-5619,-4287,5068,1523,1250,-445,1,7,11
1.72313E+12,-5521,-4296,5044,1516,1307,-623,1,7,11
1.72313E+12,-5694,-4479,5198,1800,974,-597,1,7,11
1.72313E+12,-5365,-4058,4954,1798,957,-551,1,7,11
1.72313E+12,-5642,-4217,4529,1456,1302,-141,1,7,11
1.72313E+12,-5725,-4167,4642,1611,1392,23,1,7,11
1.72313E+12,-5603,-4131,4226,1250,1195,-45,1,7,11
1.72313E+12,-5790,-3824,4043,1362,1200,135,1,7,11
1.72313E+12,-6042,-4122,4156,1113,1165,564,1,7,11
1.72313E+12,-6386,-4027,4103,792,1325,473,1,7,11
1.72313E+12,-6978,-4395,3721,224,1118,648,1,7,11
1.72313E+12,-7199,-4363,3708,94,841,1083,1,7,11
1.72313E+12,-7434,-4448,3441,-489,616,1361,1,7,11
1.72313E+12,-7548,-4632,3409,-1375,309,1257,1,7,11
1.72313E+12,-7312,-4504,3340,-1845,77,1609,1,7,11
1.72313E+12,-7498,-4549,2972,-2130,-144,1418,1,7,11
1.72313E+12,-7106,-4577,3165,-2089,-586,1442,1,7,11
1.72313E+12,-7261,-4931,2983,-2395,-485,1417,1,7,11
1.72313E+12,-6887,-4768,3360,-2312,-673,1620,1,7,11
1.72313E+12,-6978,-5151,3260,-2164,-1117,1543,1,7,11
1.72313E+12,-6631,-5380,3520,-1699,-986,1178,1,7,11
1.72313E+12,-6520,-4857,3658,-1196,-1264,1309,1,7,11
1.72313E+12,-5869,-4741,3327,-1017,-1595,1110,1,7,11
1.72313E+12,-5789,-4812,3504,-1008,-1271,864,1,7,11
1.72313E+12,-5922,-4926,3558,-1098,-1570,603,1,7,11
1.72313E+12,-5949,-4961,3740,-916,-1189,362,1,7,11
1.72313E+12,-5999,-4900,4127,-925,-1339,-28,1,7,11
1.72313E+12,-5877,-5199,4422,-1162,-1089,-114,1,7,11
1.72313E+12,-6455,-5273,4600,-1210,-799,119,1,7,11
1.72313E+12,-6483,-5296,4767,-991,-422,-36,1,7,11
1.72313E+12,-6407,-5447,5166,-680,-514,339,1,7,11
1.72313E+12,-6050,-5032,5083,-517,-156,200,1,7,11
1.72313E+12,-6218,-4832,5265,332,-170,527,1,7,11
1.72313E+12,-5793,-4518,5317,1033,-565,565,1,7,11
1.72313E+12,-5606,-4411,5498,1427,-455,545,1,7,11
1.72313E+12,-5744,-3746,5401,1964,-512,526,1,7,11
1.72313E+12,-5673,-3629,5098,2602,-482,585,1,7,11
1.72313E+12,-5375,-3352,5104,2888,-387,479,1,7,11
1.72313E+12,-5332,-2802,5086,3138,-217,895,1,7,11
1.72313E+12,-5677,-2852,5431,3056,94,1076,1,7,11
1.72313E+12,-5532,-2659,5256,3263,163,1282,1,7,11
1.72313E+12,-5628,-2565,5642,3684,492,1211,1,7,11
1.72313E+12,-5827,-2653,5941,3868,1112,1616,1,7,11
1.72313E+12,-6061,-2437,6210,4029,1403,1497,1,7,11
1.72313E+12,-6131,-2234,6246,4877,1581,1902,1,7,11
1.72313E+12,-6130,-1981,6070,5067,1472,1733,1,7,11
1.72313E+12,-6142,-1717,6480,5694,1532,1874,1,7,11
1.72313E+12,-6405,-1656,6371,5801,1482,1596,1,7,11
1.72313E+12,-6129,-1015,6704,6086,1636,962,1,7,11
1.72313E+12,-6084,-833,6739,6456,1259,776,1,7,11
1.72313E+12,-6091,-376,6609,6115,1177,322,1,7,11
1.72313E+12,-6071,332,7012,6156,1333,-336,1,7,11
1.72313E+12,-6035,413,6910,5525,976,-469,1,7,11
1.72313E+12,-6230,694,7255,5094,1109,-1069,1,7,11
1.72313E+12,-5873,900,7054,4544,1035,-1394,1,7,11
1.72313E+12,-5999,997,7095,3968,1024,-1421,1,7,11
1.72313E+12,-5550,1291,7058,3648,1077,-1708,1,7,11
1.72313E+12,-5692,953,7079,3084,1006,-2004,1,7,11
1.72313E+12,-5665,1112,7077,2657,1234,-2279,1,7,11
1.72313E+12,-5684,732,7295,2027,1475,-2526,1,7,11
1.72313E+12,-5603,409,7443,1868,1752,-2728,1,7,11
1.72313E+12,-5862,-37,7411,1601,2172,-3132,1,7,11
1.72313E+12,-5815,81,7090,1228,2120,-3067,1,7,11
1.72313E+12,-5810,78,6748,961,2169,-3234,1,7,11
1.72313E+12,-5954,-85,5577,629,1976,-3312,1,7,11
1.72313E+12,-5771,-305,5155,-590,2256,-3280,1,7,11
1.72313E+12,-6217,-829,4723,-1655,2831,-3394,1,7,11
1.72313E+12,-6132,-1577,4341,-2584,2782,-3197,1,7,11
1.72313E+12,-6426,-2042,4158,-3187,2781,-2750,1,7,11
1.72313E+12,-6514,-2929,3542,-3303,2693,-2908,1,7,11
1.72313E+12,-6725,-3289,3071,-3477,2548,-2540,1,7,11
1.72313E+12,-7032,-3507,2774,-3531,2223,-2182,1,7,11
1.72313E+12,-7230,-3540,2459,-3482,1997,-2060,1,7,11
1.72313E+12,-7437,-3954,2580,-3541,2082,-1556,1,7,11
1.72313E+12,-7725,-4193,2639,-3545,1665,-1028,1,7,11
1.72313E+12,-7621,-4005,2568,-3656,1654,-554,1,7,11
1.72313E+12,-8055,-4080,2617,-3239,1229,-103,1,7,11
1.72313E+12,-8208,-4413,2481,-3030,1292,569,1,7,11
1.72313E+12,-8260,-4399,2510,-2801,750,832,1,7,11
1.72313E+12,-8213,-4374,2515,-2923,403,681,1,7,11
1.72313E+12,-8030,-4386,2436,-2884,270,892,1,7,11
1.72313E+12,-7581,-4323,2685,-2696,-290,471,1,7,11
1.72313E+12,-7687,-4551,2684,-2730,-243,248,1,7,11
1.72313E+12,-7456,-4920,2238,-2941,-585,266,1,7,11
1.72313E+12,-7510,-4848,2237,-2922,-376,75,1,7,11
1.72313E+12,-7549,-5222,2372,-2507,37,-283,1,7,11
1.72313E+12,-7397,-5120,2025,-2577,-85,-338,1,7,11
1.72313E+12,-7692,-5473,2158,-2368,-95,-359,1,7,11
1.72313E+12,-7407,-5301,1774,-1927,20,-373,1,7,11
1.72313E+12,-7386,-5672,1672,-1775,-196,-135,1,7,11
1.72313E+12,-7705,-5548,1902,-1883,-635,-130,1,7,11
1.72313E+12,-7606,-5919,1741,-1421,-493,-307,1,7,11
1.72313E+12,-7811,-5971,2135,-1352,-839,86,1,7,11
1.72313E+12,-8253,-5604,1952,-647,-667,-4,1,7,11
1.72313E+12,-8152,-5634,1994,-202,-736,207,1,7,11
1.72313E+12,-8506,-5073,2314,-127,-1092,432,1,7,11
1.72313E+12,-8547,-4795,2185,354,-975,665,1,7,11
1.72313E+12,-8557,-4524,2613,232,-1183,1070,1,7,11
1.72313E+12,-8523,-4316,2832,564,-1469,1143,1,7,11
1.72313E+12,-8111,-4369,2839,391,-2078,1139,1,7,11
1.72313E+12,-7856,-4203,3181,416,-2204,727,1,7,11
1.72313E+12,-7802,-3748,3021,396,-2548,489,1,7,11
1.72313E+12,-7545,-3463,3358,567,-2799,244,1,7,11
1.72313E+12,-7193,-3228,3396,154,-3343,297,1,7,11
1.72313E+12,-7040,-2954,3420,-26,-3205,273,1,7,11
1.72313E+12,-6915,-2734,3449,-332,-3594,318,1,7,11
1.72313E+12,-6772,-2549,3219,-494,-3466,150,1,7,11
1.72313E+12,-6664,-2452,3327,-1014,-3556,554,1,7,11
1.72313E+12,-6316,-2464,3496,-1822,-3875,505,1,7,11
1.72313E+12,-6478,-2524,3939,-2318,-3945,753,1,7,11
1.72313E+12,-6096,-2868,4109,-2486,-3753,989,1,7,11
1.72313E+12,-6249,-2746,4019,-3098,-3786,1174,1,7,11
1.72313E+12,-6206,-3151,4439,-3393,-3779,1558,1,7,11
1.72313E+12,-6197,-3069,4619,-3696,-3770,1644,1,7,11
1.72313E+12,-5884,-3260,4529,-3726,-3769,1458,1,7,11
1.72313E+12,-5805,-3462,4743,-3978,-3740,1521,1,7,11
1.72313E+12,-5596,-3714,5457,-4359,-3872,1878,1,7,11
1.72313E+12,-5539,-3773,5729,-3981,-3485,1678,1,7,11
1.72313E+12,-5557,-3832,5846,-3718,-3297,1743,1,7,11
1.72313E+12,-5578,-3753,6125,-3264,-3340,1767,1,7,11
1.72313E+12,-5628,-3858,6351,-2756,-2810,1789,1,7,11
1.72313E+12,-5896,-3635,6711,-2276,-2541,2064,1,7,11
1.72313E+12,-5610,-3373,6744,-2154,-2282,1773,1,7,11
1.72313E+12,-5595,-2969,6581,-1678,-2028,1680,1,7,11
1.72313E+12,-5528,-3153,6954,-1810,-2120,1492,1,7,11
1.72313E+12,-5681,-2806,7024,-1445,-2055,1163,1,7,11
1.72313E+12,-5276,-2905,6992,-1606,-2060,734,1,7,11
1.72313E+12,-5380,-2550,6950,-1582,-2071,548,1,7,11
1.72313E+12,-5226,-2513,6918,-1600,-2093,97,1,7,11
1.72313E+12,-4761,-2535,6621,-1627,-2129,-592,1,7,11
1.72313E+12,-4533,-2538,6553,-1612,-2127,-759,1,7,11
1.72313E+12,-4349,-2837,6740,-1615,-2061,-1395,1,7,11
1.72313E+12,-4459,-2692,6731,-1411,-1689,-1476,1,7,11
1.72313E+12,-4072,-3164,6766,-1500,-1801,-2053,1,7,11
1.72313E+12,-4013,-3408,6628,-1413,-1603,-2033,1,7,11
1.72313E+12,-4206,-3305,6631,-1191,-1387,-2221,1,7,11
1.72313E+12,-3989,-3495,6938,-1021,-1107,-2650,1,7,11
1.72313E+12,-4072,-3857,6977,-1128,-842,-2552,1,7,11
1.72313E+12,-4244,-3740,6813,-1067,-589,-2899,1,7,11
1.72313E+12,-4638,-3798,6856,-657,-212,-2846,1,7,11
1.72313E+12,-4722,-3790,6817,-849,-172,-2515,1,7,11
1.72313E+12,-4874,-3760,7004,-862,-177,-2293,1,7,11
1.72313E+12,-4870,-3810,6938,-762,-567,-2313,1,7,11
1.72313E+12,-4575,-4132,6598,-915,-439,-2087,1,7,11
1.72313E+12,-4577,-4021,6597,-1380,-817,-1859,1,7,11
1.72313E+12,-4886,-4256,6590,-1546,-775,-1189,1,7,11
1.72313E+12,-4515,-4660,6533,-1418,-924,-1112,1,7,11
1.72313E+12,-4637,-4490,6675,-1447,-992,-814,1,7,11
1.72313E+12,-4240,-4724,6467,-1458,-995,-568,1,7,11
1.72313E+12,-4461,-4709,6073,-1525,-1136,-350,1,7,11
1.72313E+12,-4235,-4609,6181,-1808,-722,-120,1,7,11
1.72313E+12,-4306,-4235,5780,-1837,-789,156,1,7,11
1.72313E+12,-4680,-4468,5997,-1667,-590,503,1,7,11
1.72313E+12,-4535,-4344,5779,-1736,-160,1129,1,7,11
1.72313E+12,-4875,-4731,5785,-1702,-289,1170,1,7,11
1.72313E+12,-4949,-4578,6015,-1886,64,1608,1,7,11
1.72313E+12,-4756,-4898,5948,-1805,-115,1439,1,7,11
1.72313E+12,-4835,-4926,5895,-1465,-46,1463,1,7,11
1.72313E+12,-5166,-4910,5572,-1644,259,1442,1,7,11
1.72313E+12,-5201,-4603,5736,-1580,290,1663,1,7,11
1.72313E+12,-5189,-4567,5667,-1276,303,1653,1,7,11
1.72313E+12,-4835,-4538,5325,-1222,296,1614,1,7,11
1.72313E+12,-4739,-4526,5499,-1170,294,1258,1,7,11
1.72313E+12,-4946,-4511,5414,-1385,300,1366,1,7,11
1.72313E+12,-4979,-4511,5104,-1363,323,973,1,7,11
1.72313E+12,-4803,-4509,5075,-1347,347,911,1,7,11
1.72313E+12,-4845,-4501,5008,-1312,355,962,1,7,11
1.72313E+12,-5157,-4498,5182,-1297,147,1314,1,7,11
1.72313E+12,-5237,-4514,4857,-1303,241,1227,1,7,11
1.72313E+12,-5087,-4560,4799,-1312,386,1439,1,7,11
1.72313E+12,-5455,-4891,4990,-1339,820,1673,1,7,11
1.72313E+12,-5275,-4777,4942,-1165,754,2159,1,7,11
1.72313E+12,-5354,-5150,4901,-1268,960,2034,1,7,11
1.72313E+12,-5711,-5029,4898,-1647,1177,2319,1,7,11
1.72313E+12,-5631,-5384,4883,-1494,1606,1964,1,7,11
1.72313E+12,-5805,-5383,4519,-1799,1412,1772,1,7,11
1.72313E+12,-6184,-5034,4274,-1838,1647,1800,1,7,11
1.72313E+12,-6072,-5239,4089,-1692,1590,1542,1,7,11
1.72313E+12,-6441,-5049,4061,-2068,1195,1318,1,7,11
1.72313E+12,-6420,-5428,4039,-2078,941,1067,1,7,11
1.72313E+12,-6106,-5432,4002,-1710,890,468,1,7,11
1.72313E+12,-6045,-5403,4193,-1800,586,133,1,7,11
1.72313E+12,-6195,-5114,4128,-1639,300,73,1,7,11
1.72313E+12,-6122,-5077,3833,-1246,56,-185,1,7,11
1.72313E+12,-6015,-5223,3731,-1373,-164,-464,1,7,11
1.72313E+12,-5945,-5150,3855,-1285,-621,-790,1,7,11
1.72313E+12,-5589,-4815,3562,-1305,-499,-872,1,7,11
1.72313E+12,-5523,-4796,3504,-1348,-851,-646,1,7,11
1.72313E+12,-5519,-4816,3459,-1354,-676,-890,1,7,11
1.72313E+12,-5552,-5167,3456,-1381,-700,-854,1,7,11
1.72313E+12,-5902,-5426,3844,-1190,-689,-495,1,7,11
1.72313E+12,-5820,-5358,3960,-1257,-663,-638,1,7,11
1.72313E+12,-5867,-5755,3793,-1212,-708,-572,1,7,11
1.72313E+12,-5878,-5731,3834,-1109,-1142,-165,1,7,11
1.72313E+12,-5843,-5710,4160,-644,-931,-305,1,7,11
1.72313E+12,-5858,-5754,4066,-400,-932,88,1,7,11
1.72313E+12,-5864,-5527,4472,-345,-931,-40,1,7,11
1.72313E+12,-5848,-5748,4321,-25,-923,317,1,7,11
1.72313E+12,-5772,-5687,4669,249,-915,138,1,7,11
1.72313E+12,-5916,-5324,4493,470,-924,377,1,7,11
1.72313E+12,-5528,-5452,4572,881,-957,267,1,7,11
1.72313E+12,-5647,-5035,4910,712,-1018,75,1,7,11
1.72313E+12,-5501,-4826,4953,754,-1360,-163,1,7,11
1.72313E+12,-5111,-4907,4976,721,-1184,-633,1,7,11
1.72313E+12,-5247,-4553,4765,866,-1247,-787,1,7,11
1.72313E+12,-5170,-4574,5133,458,-1547,-875,1,7,11
1.72313E+12,-5129,-4939,5041,585,-1582,-647,1,7,11
1.72313E+12,-5130,-4752,5437,524,-1613,-880,1,7,11
1.72313E+12,-5154,-4762,5276,525,-1625,-772,1,7,11
1.72313E+12,-5162,-4970,5330,572,-1598,-572,1,7,11
1.72313E+12,-5163,-4886,5352,389,-1263,-289,1,7,11
1.72313E+12,-5147,-4533,5375,469,-1392,321,1,7,11
1.72313E+12,-5150,-4687,5663,827,-950,450,1,7,11
1.72313E+12,-5154,-4614,5704,668,-718,1105,1,7,11
1.72313E+12,-5203,-4282,5510,764,-445,1196,1,7,11
1.72313E+12,-5039,-4413,5565,1109,-160,1458,1,7,11
1.72313E+12,-5416,-4008,5891,910,123,1905,1,7,11
1.72313E+12,-5309,-4115,5951,939,374,1763,1,7,11
1.72313E+12,-5713,-3715,5995,945,585,2059,1,7,11
1.72313E+12,-5605,-3842,5760,927,499,1790,1,7,11
1.72313E+12,-5934,-3459,5974,900,862,1741,1,7,11
1.72313E+12,-5910,-3650,5930,759,642,1881,1,7,11
1.72313E+12,-5631,-3652,5997,770,821,1561,1,7,11
1.72313E+12,-5947,-3697,6149,545,608,759,1,7,11
1.72313E+12,-6013,-3467,6246,177,292,354,1,7,11
1.72313E+12,-5783,-3692,6210,155,-286,-546,1,7,11
1.72313E+12,-5972,-3611,5822,382,-431,-1391,1,7,11
1.72313E+12,-5625,-3649,5830,352,-770,-1550,1,7,11
1.72313E+12,-5583,-3925,6021,273,-508,-1594,1,7,11
1.72313E+12,-5624,-4032,6292,279,-500,-1613,1,7,11
1.72313E+12,-5646,-4109,6070,209,-886,-1489,1,7,11
1.72313E+12,-5496,-4133,6089,356,-833,-1419,1,7,11
1.72313E+12,-5389,-4217,6065,-16,-824,-1568,1,7,11
1.72313E+12,-5145,-3809,5825,-61,-643,-1540,1,7,11
1.72313E+12,-4970,-3963,5920,-257,-871,-1168,1,7,11
1.72313E+12,-4887,-3732,5608,-250,-806,-980,1,7,11
1.72313E+12,-4876,-3777,5584,-426,-476,-1043,1,7,11
1.72313E+12,-4910,-4144,5600,-840,-617,-775,1,7,11
1.72313E+12,-4948,-4042,5631,-692,-212,-213,1,7,11
1.72313E+12,-4940,-4447,5907,-735,-285,84,1,7,11
1.72313E+12,-4920,-4342,5914,-717,-50,351,1,7,11
1.72313E+12,-4887,-4718,5589,-866,221,567,1,7,11
1.72313E+12,-4563,-4636,5675,-442,795,551,1,7,11
1.72313E+12,-4509,-4252,5476,-577,942,752,1,7,11
1.72313E+12,-4713,-4476,5449,-562,2082,1296,1,7,11
1.72313E+12,-4685,-4278,5265,-219,2556,1602,1,7,11
1.72313E+12,-4512,-4270,5258,47,3325,1861,1,7,11
1.72313E+12,-4965,-4427,5117,140,4092,2107,1,7,11
1.72313E+12,-5163,-4019,4863,391,4765,2333,1,7,11
1.72313E+12,-5460,-4076,4810,547,5423,2046,1,7,11
1.72313E+12,-5810,-4357,4850,320,5060,1492,1,7,11
1.72313E+12,-6581,-4059,5242,34,4701,645,1,7,11
1.72313E+12,-7473,-3969,5037,-165,3708,75,1,7,11
1.72313E+12,-7782,-4146,5190,-554,2275,-791,1,7,11
1.72313E+12,-7798,-3838,4988,-409,1400,-909,1,7,11
1.72313E+12,-7352,-4145,4587,-806,202,-1313,1,7,11
1.72313E+12,-7042,-4015,4500,-660,-514,-1342,1,7,11
1.72313E+12,-6917,-4427,4721,-709,-748,-1326,1,7,11
1.72313E+12,-6285,-4319,4717,-697,-1024,-1326,1,7,11
1.72313E+12,-6238,-4702,4497,-882,-1382,-1366,1,7,11
1.72313E+12,-6004,-4502,4518,-493,-1379,-1205,1,7,11
1.72313E+12,-5607,-4549,4566,-620,-1313,-1572,1,7,11
1.72313E+12,-5534,-4546,4579,-253,-996,-1429,1,7,11
1.72313E+12,-5533,-4502,4606,-177,-942,-1492,1,7,11
1.72313E+12,-5556,-4687,4597,-143,-897,-1455,1,7,11
1.72313E+12,-5588,-4628,4867,-379,-1084,-1540,1,7,11
1.72313E+12,-5536,-4621,4597,-352,-732,-1014,1,7,11
1.72313E+12,-5731,-4679,4600,-348,-856,-749,1,7,11
1.72313E+12,-5668,-4726,4875,-319,-466,-797,1,7,11
1.72313E+12,-5671,-4507,4913,-296,-581,-629,1,7,11
1.72313E+12,-5702,-4520,4947,-257,-207,-229,1,7,11
1.72313E+12,-5526,-4530,4743,34,-357,-331,1,7,11
1.72313E+12,-5579,-4530,4776,80,-291,87,1,7,11
1.72313E+12,-5611,-4518,4793,124,6,-33,1,7,11
1.72313E+12,-5604,-4511,4799,-85,21,308,1,7,11
1.72313E+12,-5579,-4513,4801,-42,30,335,1,7,11
1.72313E+12,-5544,-4511,4788,-4,35,283,1,7,11
1.72313E+12,-5520,-4504,4794,278,45,-73,1,7,11
1.72313E+12,-5757,-4523,4828,299,53,75,1,7,11
1.72313E+12,-5749,-4537,4853,343,65,-276,1,7,11
1.72313E+12,-5739,-4527,4862,146,82,-343,1,7,11
1.72313E+12,-5720,-4511,4852,185,105,-371,1,7,11
1.72313E+12,-5709,-4502,5125,190,-121,-381,1,7,11
1.72313E+12,-5717,-4484,5152,185,-107,-146,1,7,11
1.72313E+12,-5726,-4733,5179,174,-111,-153,1,7,11
1.72313E+12,-5730,-4728,5194,162,-127,-137,1,7,11
1.72313E+12,-5712,-4727,5197,144,91,-328,1,7,11
1.72313E+12,-5695,-4720,5208,368,70,-279,1,7,11
1.72313E+12,-5687,-4714,5222,322,52,29,1,7,11
1.72313E+12,-5691,-4697,5240,315,46,81,1,7,11
1.72313E+12,-5709,-4702,5015,304,44,-104,1,7,11
1.72313E+12,-5715,-4713,5041,305,58,-16,1,7,11
1.72313E+12,-5705,-4720,5056,366,79,331,1,7,11
1.72313E+12,-5677,-4716,5042,178,117,160,1,7,11
1.72313E+12,-5679,-4696,5039,255,-77,232,1,7,11
1.72313E+12,-5708,-4660,5043,591,-2,562,1,7,11
1.72313E+12,-5674,-4662,5034,392,309,402,1,7,11
1.72313E+12,-5638,-4683,5034,428,362,428,1,7,11
1.72313E+12,-5635,-4662,5048,471,143,638,1,7,11
1.72313E+12,-5656,-4347,5065,504,169,548,1,7,11
1.72313E+12,-5696,-4277,5076,772,185,185,1,7,11
1.72313E+12,-5752,-4459,5076,507,198,355,1,7,11
1.72313E+12,-5540,-4404,5090,479,209,308,1,7,11
1.72313E+12,-5546,-4360,5070,453,203,270,1,7,11
1.72313E+12,-5519,-4361,5077,409,203,-39,1,7,11
1.72313E+12,-5528,-4355,5095,408,208,103,1,7,11
1.72313E+12,-5559,-4066,5109,398,211,-267,1,7,11
1.72313E+12,-5580,-4064,5382,591,196,-313,1,7,11
1.72313E+12,-5581,-4092,5429,537,153,-337,1,7,11
1.72313E+12,-5577,-4361,5443,527,344,-132,1,7,11
1.72313E+12,-5588,-4363,5449,528,265,-216,1,7,11
1.72313E+12,-5602,-4361,5448,514,-73,-553,1,7,11
1.72313E+12,-5577,-4089,5427,217,86,-606,1,7,11
1.72313E+12,-5543,-4361,5413,362,-291,-455,1,7,11
1.72313E+12,-5549,-4397,5435,-43,-177,-642,1,7,11
1.72313E+12,-5519,-4448,5460,65,-591,-1113,1,7,11
1.72313E+12,-5634,-4267,5434,-342,-495,-1365,1,7,11
1.72313E+12,-5445,-4618,5401,-531,-650,-1473,1,7,11
1.72313E+12,-5114,-4681,5432,-462,-1028,-1982,1,7,11
1.72313E+12,-5017,-4527,5484,-879,-1131,-2480,1,7,11
1.72313E+12,-4821,-4974,5498,-752,-938,-2990,1,7,11
1.72313E+12,-4898,-4820,5398,-1080,-937,-3852,1,7,11
1.72313E+12,-4916,-4830,5415,-1149,-1036,-4450,1,7,11
1.72313E+12,-4833,-4838,5418,-904,-509,-4558,1,7,11
1.72313E+12,-4814,-5132,5111,-1133,-196,-4595,1,7,11
1.72313E+12,-4987,-5230,5089,-1118,86,-4687,1,7,11
1.72313E+12,-4785,-5076,5381,-1120,352,-4358,1,7,11
1.72313E+12,-4856,-5421,5390,-1060,540,-3801,1,7,11
1.72313E+12,-4835,-5275,5386,-742,408,-3648,1,7,11
1.72313E+12,-4765,-5647,5099,-692,441,-2962,1,7,11
1.72313E+12,-4957,-5731,5056,-856,486,-2542,1,7,11
1.72313E+12,-4905,-5524,4998,-418,798,-2377,1,7,11
1.72313E+12,-4595,-5546,5181,-544,867,-1698,1,7,11
1.72313E+12,-4545,-5569,4849,-172,687,-1270,1,7,11
1.72313E+12,-4489,-5611,4809,-336,754,-1100,1,7,11
1.72313E+12,-4714,-5920,4822,14,1058,-477,1,7,11
1.72313E+12,-4727,-5958,4852,-121,1078,-181,1,7,11
1.72313E+12,-4484,-5977,4852,273,1074,66,1,7,11
1.72313E+12,-4734,-5959,4833,350,1063,277,1,7,11
1.72313E+12,-4713,-5950,4825,306,1069,181,1,7,11
1.72313E+12,-4673,-5953,4842,426,1093,554,1,7,11
1.72313E+12,-4633,-5938,4856,808,913,597,1,7,11
1.72313E+12,-4615,-5632,4849,675,1290,600,1,7,11
1.72313E+12,-4631,-5552,4848,765,1184,593,1,7,11
1.72313E+12,-4702,-5694,4859,1077,1579,586,1,7,11
1.72313E+12,-4531,-5336,5156,1076,1423,626,1,7,11
1.72313E+12,-4566,-5307,5230,1037,1451,442,1,7,11
1.72313E+12,-4569,-5312,5088,1025,1662,480,1,7,11
1.72313E+12,-4869,-5300,5441,1071,1553,451,1,7,11
1.72313E+12,-4937,-5502,5459,1149,1394,405,1,7,11
1.72313E+12,-4776,-5406,5462,923,956,616,1,7,11
1.72313E+12,-5148,-4999,5442,1141,736,612,1,7,11
1.72313E+12,-5016,-5128,5453,733,495,434,1,7,11
1.72313E+12,-5381,-4748,5451,774,209,830,1,7,11
1.72313E+12,-5450,-4950,5490,234,-99,1026,1,7,11
1.72313E+12,-5264,-4884,5271,-69,-178,962,1,7,11
1.72313E+12,-5484,-4938,5339,-209,-857,1158,1,7,11
1.72313E+12,-5386,-4987,5644,-868,-1373,1198,1,7,11
1.72313E+12,-5243,-4805,5679,-1004,-1916,1386,1,7,11
1.72313E+12,-4839,-5123,5635,-1615,-2429,999,1,7,11
1.72313E+12,-4921,-5199,5274,-1710,-2878,1140,1,7,11
1.72313E+12,-4715,-5038,5379,-2316,-2958,1035,1,7,11
1.72313E+12,-4629,-5075,5054,-2623,-3397,685,1,7,11
1.72313E+12,-4317,-5390,5029,-2874,-3224,673,1,7,11
1.72313E+12,-4312,-5446,5049,-2771,-3234,700,1,7,11
1.72313E+12,-4343,-5501,5078,-2800,-3201,1034,1,7,11
1.72313E+12,-4659,-5459,5056,-2729,-3349,914,1,7,11
1.72313E+12,-4551,-5431,5082,-2899,-3140,1190,1,7,11
1.72313E+12,-4586,-5464,5063,-2463,-2893,1479,1,7,11
1.72313E+12,-4588,-5438,5049,-2292,-2625,1707,1,7,11
1.72313E+12,-4906,-5424,5084,-2404,-2386,2171,1,7,11
1.72313E+12,-4893,-5451,5098,-1995,-1925,2335,1,7,11
1.72313E+12,-4572,-5486,5105,-2078,-1710,2402,1,7,11
1.72313E+12,-4529,-5499,5065,-1892,-1475,2328,1,7,11
1.72313E+12,-4528,-5473,5040,-1473,-1232,2158,1,7,11
1.72313E+12,-4604,-5432,5026,-1620,-984,1685,1,7,11
1.72313E+12,-4739,-5097,5046,-1267,-764,1484,1,7,11
1.72313E+12,-4813,-5064,5017,-1179,-833,1616,1,7,11
1.72313E+12,-4825,-5083,5033,-1385,-424,1251,1,7,11
1.72313E+12,-5123,-5072,5035,-1341,-578,1318,1,7,11
1.72313E+12,-5171,-5061,5083,-1293,-522,1151,1,7,11
1.72313E+12,-5182,-5096,5399,-962,-224,752,1,7,11
