timestamp,ax,ay,az,gx,gy,gz,Label1,Label2,Label3
1.72313E+12,-4765,-6089,4001,-976,-298,320,1,7,11
1.72313E+12,-4991,-6039,3980,-917,-365,169,1,7,11
1.72313E+12,-4941,-6186,4145,-1107,-171,554,1,7,11
1.72313E+12,-4872,-5808,3786,-1083,-213,440,1,7,11
1.72313E+12,-4550,-5938,3961,-1110,-520,785,1,7,11
1.72313E+12,-4503,-5631,3935,-935,-578,817,1,7,11
1.72313E+12,-4482,-5910,3723,-1291,-385,794,1,7,11
1.72313E+12,-4507,-5977,3777,-1381,-455,473,1,7,11
1.72313E+12,-4594,-5987,3760,-1202,-787,391,1,7,11
1.72313E+12,-4737,-5778,3722,-1604,-838,629,1,7,11
1.72313E+12,-5126,-6011,3945,-1521,-859,432,1,7,11
1.72313E+12,-5034,-5989,3738,-1679,-834,882,1,7,11
1.72313E+12,-5112,-5786,4099,-1774,-834,922,1,7,11
1.72313E+12,-5105,-5790,4152,-1742,-862,1195,1,7,11
1.72313E+12,-5084,-5989,4151,-1892,-884,1430,1,7,11
1.72313E+12,-5027,-5899,3793,-1516,-648,1870,1,7,11
1.72313E+12,-5234,-5546,3896,-1467,-671,1672,1,7,11
1.72313E+12,-5013,-5707,3531,-1514,-677,1879,1,7,11
1.72313E+12,-5383,-5695,3496,-1902,-700,1799,1,7,11
1.72313E+12,-5273,-5656,3460,-1784,-767,1437,1,7,11
1.72313E+12,-5708,-5365,3649,-1923,-1086,1649,1,7,11
1.72313E+12,-5561,-5374,3320,-2344,-1140,1448,1,7,11
1.72313E+12,-5553,-5636,3212,-2243,-934,1523,1,7,11
1.72313E+12,-5508,-5663,3395,-2631,-952,1870,1,7,11
1.72313E+12,-5707,-5704,3341,-2447,-935,1704,1,7,11
1.72313E+12,-5727,-5522,3341,-2467,-1139,2048,1,7,11
1.72313E+12,-5515,-5543,3038,-2437,-1127,2108,1,7,11
1.72313E+12,-5549,-5521,3186,-2663,-1147,2144,1,7,11
1.72313E+12,-5528,-5742,2789,-2669,-934,2153,1,7,11
1.72313E+12,-5743,-5750,2863,-2467,-985,2129,1,7,11
1.72313E+12,-5517,-5562,2549,-2542,-1314,1730,1,7,11
1.72313E+12,-5898,-5617,2856,-2861,-1333,1896,1,7,11
1.72313E+12,-5947,-5901,2878,-2528,-1388,1824,1,7,11
1.72313E+12,-5922,-5891,2855,-2635,-1185,1487,1,7,11
1.72313E+12,-5614,-5891,2826,-2197,-1178,1414,1,7,11
1.72313E+12,-5570,-5617,2547,-1992,-1372,1598,1,7,11
1.72313E+12,-5540,-5579,2556,-1770,-1014,1559,1,7,11
1.72313E+12,-5541,-5538,2835,-1805,-1150,1544,1,7,11
1.72313E+12,-5594,-5706,2821,-1565,-1044,1255,1,7,11
1.72313E+12,-5908,-5350,2553,-1356,-708,1244,1,7,11
1.72313E+12,-5913,-5304,2826,-938,-663,1244,1,7,11
1.72313E+12,-5943,-5276,2850,-1039,-886,1218,1,7,11
1.72313E+12,-5996,-5249,2884,-885,-847,1190,1,7,11
1.72313E+12,-6012,-5477,2911,-468,-796,1186,1,7,11
1.72313E+12,-6000,-5486,2940,-562,-447,1203,1,7,11
1.72313E+12,-5788,-5260,2727,-144,-555,1221,1,7,11
1.72313E+12,-5867,-5299,2785,3,-361,1254,1,7,11
1.72313E+12,-6234,-5331,2811,-124,118,1546,1,7,11
1.72313E+12,-6087,-5646,3080,-40,132,1593,1,7,11
1.72313E+12,-6433,-5634,2791,256,449,1637,1,7,11
1.72313E+12,-6445,-5322,2717,-25,1062,1430,1,7,11
1.72313E+12,-6418,-5260,2877,-116,1194,1457,1,7,11
1.72313E+12,-6416,-5419,2482,3,1852,1434,1,7,11
1.72313E+12,-6449,-5046,2571,-190,1990,1659,1,7,11
1.72313E+12,-6435,-5196,2348,-463,2611,1647,1,7,11
1.72313E+12,-6122,-5174,2152,-1042,2689,1617,1,7,11
1.72313E+12,-6269,-5224,1670,-1345,2968,1231,1,7,11
1.72313E+12,-6179,-5050,1425,-1631,3440,962,1,7,11
1.72313E+12,-5885,-5093,1160,-1907,3590,821,1,7,11
1.72313E+12,-6171,-5434,1001,-1938,3678,374,1,7,11
1.72313E+12,-6246,-5356,965,-2414,3659,-333,1,7,11
1.72313E+12,-6135,-5510,902,-2225,3248,-811,1,7,11
1.72313E+12,-6527,-5594,751,-2202,3000,-969,1,7,11
1.72313E+12,-6364,-5947,866,-2432,2732,-1280,1,7,11
1.72313E+12,-6674,-5844,810,-2380,2447,-1516,1,7,11
1.72313E+12,-6702,-6249,781,-1987,2390,-1719,1,7,11
1.72313E+12,-6687,-6138,775,-1784,1784,-2132,1,7,11
1.72313E+12,-6360,-6519,496,-1801,1659,-2027,1,7,11
1.72313E+12,-6526,-6339,483,-1554,1285,-2180,1,7,11
1.72313E+12,-6437,-6374,448,-1312,674,-2575,1,7,11
1.72313E+12,-6106,-6363,427,-1092,627,-2657,1,7,11
1.72313E+12,-6032,-6315,412,-644,374,-2663,1,7,11
1.72313E+12,-6206,-6520,442,-484,-83,-2585,1,7,11
1.72313E+12,-5855,-6486,497,-590,11,-2183,1,7,11
1.72313E+12,-5993,-6480,846,-175,-137,-2024,1,7,11
1.72313E+12,-5606,-6484,653,-284,-525,-2129,1,7,11
1.72313E+12,-5682,-6483,674,103,-630,-1738,1,7,11
1.72313E+12,-5336,-6483,706,-23,-449,-1822,1,7,11
1.72313E+12,-5251,-6467,711,298,-448,-1436,1,7,11
1.72313E+12,-5438,-6465,705,350,-423,-1574,1,7,11
1.72313E+12,-5107,-6493,699,138,-388,-1215,1,7,11
1.72313E+12,-5041,-6295,672,172,-597,-1162,1,7,11
1.72313E+12,-5004,-6392,665,194,-548,-1161,1,7,11
1.72313E+12,-5248,-6737,679,228,-233,-1178,1,7,11
1.72313E+12,-5004,-6552,715,543,-188,-1214,1,7,11
1.72313E+12,-5049,-6608,762,389,-156,-1247,1,7,11
1.72313E+12,-5074,-6619,1046,780,-132,-1243,1,7,11
1.72313E+12,-5074,-6615,1081,668,-378,-1195,1,7,11
1.72313E+12,-5064,-6614,1137,1072,-371,-1376,1,7,11
1.72313E+12,-5021,-6707,1250,1907,81,-200,1,7,11
1.72313E+12,-5044,-6683,1279,1716,-122,-294,1,7,11
1.72313E+12,-5086,-6378,1589,1740,-78,117,1,7,11
1.72313E+12,-5377,-6327,1661,1734,-56,272,1,7,11
1.72313E+12,-5404,-6504,1470,1736,-42,187,1,7,11
1.72313E+12,-5426,-6476,1807,1746,-32,630,1,7,11
1.72313E+12,-5435,-6482,1897,1778,-15,804,1,7,11
1.72313E+12,-5446,-6486,1733,2086,-21,668,1,7,11
1.72313E+12,-5470,-6444,2058,2153,-43,751,1,7,11
1.72313E+12,-5252,-6130,2112,1960,-81,1084,1,7,11
1.72313E+12,-5325,-6077,1923,2011,-108,927,1,7,11
1.72313E+12,-5683,-6025,2011,2311,122,1295,1,7,11
1.72313E+12,-5554,-6184,2381,2403,92,1236,1,7,11
1.72313E+12,-5571,-5860,2182,2214,74,1636,1,7,11
1.72313E+12,-5555,-5813,2236,2262,58,1475,1,7,11
1.72313E+12,-5561,-6002,2278,2288,39,1502,1,7,11
1.72313E+12,-5612,-5924,2584,2287,23,1473,1,7,11
1.72313E+12,-5944,-5583,2639,2271,20,1438,1,7,11
1.72313E+12,-5761,-5753,2458,2250,21,1408,1,7,11
1.72313E+12,-5817,-5670,2526,2237,11,1631,1,7,11
1.72313E+12,-5856,-5348,2842,2232,4,1591,1,7,11
1.72313E+12,-5892,-5489,2918,2232,-274,1262,1,7,11
1.72313E+12,-6158,-5401,2700,2232,-308,1375,1,7,11
1.72313E+12,-6181,-5053,2743,2224,-329,1001,1,7,11
1.72313E+12,-6222,-5244,2800,2204,-345,1137,1,7,11
1.72313E+12,-6031,-5188,3114,2182,-349,1026,1,7,11
1.72313E+12,-6091,-5133,3163,2409,-372,660,1,7,11
1.72313E+12,-6122,-4861,2979,2361,-147,818,1,7,11
1.72313E+12,-6411,-5138,3336,2316,-199,438,1,7,11
1.72313E+12,-6437,-5164,3442,2047,-515,563,1,7,11
1.72313E+12,-6435,-5161,3291,2327,-584,178,1,7,11
1.72313E+12,-6144,-5139,3611,2377,-395,309,1,7,11
1.72313E+12,-6111,-4844,3675,2177,-432,-58,1,7,11
1.72313E+12,-6064,-4801,3470,2228,-446,116,1,7,11
1.72313E+12,-6028,-4765,3521,2262,-434,45,1,7,11
1.72313E+12,-6026,-4990,3866,2284,-414,-278,1,7,11
1.72313E+12,-6272,-4947,3712,2569,-407,-329,1,7,11
1.72313E+12,-6243,-4919,3816,2617,-423,-380,1,7,11
1.72313E+12,-6215,-4885,4167,2680,-465,-205,1,7,11
1.72313E+12,-6196,-4589,3981,2487,-497,-541,1,7,11
1.72313E+12,-6186,-4559,4031,2535,-784,-611,1,7,11
1.72313E+12,-6174,-4546,4356,2552,-813,-414,1,7,11
1.72313E+12,-6171,-4545,4470,2553,-849,-480,1,7,11
1.72313E+12,-6162,-4517,4307,2543,-650,-808,1,7,11
1.72313E+12,-6181,-4505,4660,2536,-715,-870,1,7,11
1.72313E+12,-6189,-4734,4499,2538,-1049,-661,1,7,11
1.72313E+12,-6165,-4693,4575,2537,-900,-750,1,7,11
1.72313E+12,-6153,-4665,4951,2487,-1306,-1103,1,7,11
1.72313E+12,-5837,-4644,4838,2644,-1241,-944,1,7,11
1.72313E+12,-5985,-4631,4995,2270,-1559,-1303,1,7,11
1.72313E+12,-5585,-4613,5409,2429,-1744,-1399,1,7,11
1.72313E+12,-5690,-4341,5325,2371,-2143,-1232,1,7,11
1.72313E+12,-5319,-4302,5692,2408,-1972,-1567,1,7,11
1.72313E+12,-5502,-4254,5508,2228,-1982,-1598,1,7,11
1.72313E+12,-5432,-4434,5533,2301,-2159,-1562,1,7,11
1.72313E+12,-5186,-4044,5548,2298,-1866,-1375,1,7,11
1.72313E+12,-4813,-4027,5617,2211,-1436,-1296,1,7,11
1.72313E+12,-4759,-4133,6187,1741,-1079,-703,1,7,11
1.72313E+12,-4987,-3828,6222,1852,-693,-813,1,7,11
1.72313E+12,-4950,-3815,6017,1427,-824,-419,1,7,11
1.72313E+12,-4922,-3818,6065,1256,-467,-583,1,7,11
1.72313E+12,-4880,-3832,6099,1341,-388,-534,1,7,11
1.72313E+12,-4591,-3836,6133,930,-551,-513,1,7,11
1.72313E+12,-4556,-3830,6404,1045,-214,-248,1,7,11
1.72313E+12,-4523,-3835,6139,650,-129,-255,1,7,11
1.72313E+12,-4505,-4109,6130,770,-301,-532,1,7,11
1.72313E+12,-4514,-4130,6131,388,42,-558,1,7,11
1.72313E+12,-4538,-4140,6115,533,115,-567,1,7,11
1.72313E+12,-4548,-4154,6113,178,-78,-551,1,7,11
1.72313E+12,-4566,-4194,6134,364,-22,-255,1,7,11
1.72313E+12,-4580,-3979,6400,332,275,-201,1,7,11
1.72313E+12,-4591,-4025,6136,323,302,-146,1,7,11
1.72313E+12,-4898,-4053,6134,329,338,-358,1,7,11
1.72313E+12,-4956,-4080,6405,344,374,-308,1,7,11
1.72313E+12,-4979,-4094,6423,368,143,-260,1,7,11
1.72313E+12,-4987,-4373,6456,148,177,29,1,7,11
1.72313E+12,-4742,-4400,6486,213,208,23,1,7,11
1.72313E+12,-4749,-4386,6512,563,235,-267,1,7,11
1.72313E+12,-4750,-4083,6497,405,519,-296,1,7,11
1.72313E+12,-4747,-4017,6446,488,552,-326,1,7,11
1.72313E+12,-4742,-4216,6409,788,585,-351,1,7,11
1.72313E+12,-5035,-3523,6336,695,383,384,1,7,11
1.72313E+12,-5060,-3695,6328,894,359,425,1,7,11
1.72313E+12,-5077,-3621,6314,807,334,446,1,7,11
1.72313E+12,-5067,-3302,6283,466,304,478,1,7,11
1.72313E+12,-5059,-3260,6515,626,276,480,1,7,11
1.72313E+12,-5045,-3261,6276,514,-23,474,1,7,11
1.72313E+12,-5028,-3273,6313,158,-33,469,1,7,11
1.72313E+12,-5008,-3289,6327,339,-65,448,1,7,11
1.72313E+12,-5244,-3292,6327,286,-104,412,1,7,11
1.72313E+12,-5237,-3315,6335,-18,121,390,1,7,11
1.72313E+12,-5032,-3326,6344,-63,113,630,1,7,11
1.72313E+12,-5068,-3319,6351,-103,120,393,1,7,11
1.72313E+12,-5093,-3603,6374,98,119,424,1,7,11
1.72313E+12,-5090,-3616,6389,50,103,433,1,7,11
1.72313E+12,-5083,-3596,6373,34,85,412,1,7,11
1.72313E+12,-5076,-3314,6368,17,74,385,1,7,11
1.72313E+12,-5093,-3275,6363,-259,56,591,1,7,11
1.72313E+12,-5112,-3238,6358,-285,30,526,1,7,11
1.72313E+12,-5109,-3223,6349,-327,-265,190,1,7,11
1.72313E+12,-5087,-3435,6303,-132,-320,318,1,7,11
1.72313E+12,-5070,-3419,6298,-228,-359,-57,1,7,11
1.72313E+12,-5057,-3408,6315,-571,-132,88,1,7,11
1.72313E+12,-5031,-3387,6300,-633,-165,-264,1,7,11
1.72313E+12,-5045,-3377,6319,-437,-166,-313,1,7,11
1.72313E+12,-5078,-3386,6358,-466,-148,-298,1,7,11
1.72313E+12,-5405,-3377,6388,-471,-380,9,1,7,11
1.72313E+12,-5474,-3362,6674,-469,-349,126,1,7,11
1.72313E+12,-5283,-3382,6691,-465,-302,299,1,7,11
1.72313E+12,-5329,-3383,6669,-452,-265,225,1,7,11
1.72313E+12,-5334,-3425,6660,-426,23,411,1,7,11
1.72313E+12,-5270,-3428,6347,-637,32,814,1,7,11
1.72313E+12,-5321,-3303,6743,-633,65,679,1,7,11
1.72313E+12,-5305,-3602,6735,-618,47,712,1,7,11
1.72313E+12,-5444,-3274,6383,-217,-349,894,1,7,11
1.72313E+12,-5311,-3589,6753,-199,-327,822,1,7,11
1.72313E+12,-5489,-3291,6676,-370,-171,438,1,7,11
1.72313E+12,-5488,-3239,6374,-383,-166,545,1,7,11
1.72313E+12,-5264,-3437,6357,-130,-193,149,1,7,11
1.72313E+12,-5300,-3376,6348,-182,-191,282,1,7,11
1.72313E+12,-5363,-3066,6385,-546,-237,-87,1,7,11
1.72313E+12,-5641,-2984,6379,-414,-591,69,1,7,11
1.72313E+12,-5362,-3189,6371,-824,-447,16,1,7,11
1.72313E+12,-5340,-2945,6679,-723,-782,3,1,7,11
1.72313E+12,-5295,-2967,6708,-1063,-844,29,1,7,11
1.72313E+12,-5447,-2952,6675,-1098,-874,93,1,7,11
1.72313E+12,-5393,-3198,6669,-931,-848,-112,1,7,11
1.72313E+12,-5094,-2965,6676,-978,-799,-63,1,7,11
1.72313E+12,-5035,-3040,6686,-1005,-476,-33,1,7,11
1.72313E+12,-5196,-3364,6660,-1015,-409,-54,1,7,11
1.72313E+12,-5121,-3431,6378,-1288,-585,125,1,7,11
1.72313E+12,-4844,-3261,6374,-1315,-242,31,1,7,11
1.72313E+12,-4862,-3602,6688,-1321,-147,-291,1,7,11
1.72313E+12,-5128,-3670,6735,-1024,-336,-329,1,7,11
1.72313E+12,-5165,-3711,6758,-956,-291,-334,1,7,11
1.72313E+12,-5185,-3492,6757,-1124,-263,-300,1,7,11
1.72313E+12,-5176,-3471,6700,-1035,9,-260,1,7,11
1.72313E+12,-5146,-3666,6366,-752,20,0,1,7,11
1.72313E+12,-4860,-3640,6343,-1062,4,-334,1,7,11
1.72313E+12,-4856,-3642,6335,-920,-279,-217,1,7,11
1.72313E+12,-4825,-3634,6308,-1156,-303,-416,1,7,11
1.72313E+12,-4914,-3597,6417,-1849,-351,-1357,1,7,11
1.72313E+12,-4494,-3625,6050,-2023,-375,-1868,1,7,11
1.72313E+12,-4229,-3462,6184,-2914,-369,-2255,1,7,11
1.72313E+12,-4237,-4912,6989,-6072,-333,-6517,1,7,11
1.72313E+12,-4561,-5074,6908,-6216,-625,-6844,1,7,11
1.72313E+12,-5204,-5411,6937,-5677,-654,-7228,1,7,11
1.72313E+12,-5215,-5368,6278,-5125,-1059,-6366,1,7,11
1.72313E+12,-5143,-5964,6261,-4267,-704,-5271,1,7,11
1.72313E+12,-4977,-6138,5871,-3702,-474,-3799,1,7,11
1.72313E+12,-4280,-6734,5568,-2673,-184,-2409,1,7,11
1.72313E+12,-4108,-6644,5252,-1646,-85,-845,1,7,11
1.72313E+12,-3521,-6950,5028,-470,551,826,1,7,11
1.72313E+12,-3272,-7030,5218,275,849,2054,1,7,11
1.72313E+12,-3227,-6981,5215,726,735,2708,1,7,11
1.72313E+12,-3281,-6564,5214,1630,748,3700,1,7,11
1.72313E+12,-3688,-6327,5000,1941,729,4362,1,7,11
1.72313E+12,-3328,-6111,5194,2662,850,4935,1,7,11
1.72313E+12,-3272,-5772,4835,2925,437,4807,1,7,11
1.72313E+12,-3473,-5672,5145,2939,588,4864,1,7,11
1.72313E+12,-3799,-5402,5099,2557,513,4254,1,7,11
1.72313E+12,-4371,-5195,5303,2445,164,4106,1,7,11
1.72313E+12,-4319,-4759,5716,2594,319,3709,1,7,11
1.72313E+12,-4642,-4884,5569,2178,-45,3040,1,7,11
1.72313E+12,-4496,-4498,5981,1979,-115,2822,1,7,11
1.72313E+12,-4590,-4648,5844,1777,90,2362,1,7,11
1.72313E+12,-4890,-4289,6166,1826,57,1669,1,7,11
1.72313E+12,-4949,-4473,6034,1613,69,1569,1,7,11
1.72313E+12,-4966,-4431,6090,1157,93,1304,1,7,11
1.72313E+12,-4935,-4410,6082,957,109,1074,1,7,11
1.72313E+12,-4607,-4090,6022,724,98,785,1,7,11
1.72313E+12,-4908,-4009,6021,423,87,-13,1,7,11
1.72313E+12,-4936,-4029,6062,319,75,96,1,7,11
1.72313E+12,-4888,-4083,6052,-294,-333,-386,1,7,11
1.72313E+12,-4974,-4093,6090,-406,-234,-1076,1,7,11
1.72313E+12,-4802,-4379,6104,-1069,-458,-1243,1,7,11
1.72313E+12,-5126,-4444,6139,-1381,-691,-1851,1,7,11
1.72313E+12,-4782,-4274,6093,-1913,-921,-2096,1,7,11
1.72313E+12,-4968,-4623,6077,-2120,-1309,-2014,1,7,11
1.72313E+12,-4495,-4543,6038,-2000,-1163,-2329,1,7,11
1.72313E+12,-4323,-4914,6240,-2315,-1211,-2188,1,7,11
1.72313E+12,-4423,-5203,6269,-1954,-1347,-2211,1,7,11
1.72313E+12,-3977,-5104,6211,-1789,-955,-2360,1,7,11
1.72313E+12,-3808,-5457,5886,-1866,-750,-2005,1,7,11
1.72313E+12,-3892,-5277,5795,-1452,-769,-2157,1,7,11
1.72313E+12,-3522,-5301,5929,-1579,-220,-2093,1,7,11
1.72313E+12,-3509,-5326,5592,-1241,-115,-1740,1,7,11
1.72313E+12,-3518,-5352,5756,-1156,553,-1818,1,7,11
1.72313E+12,-3511,-5356,5668,-1333,763,-1595,1,7,11
1.72313E+12,-3545,-5340,5323,-992,1537,-1354,1,7,11
1.72313E+12,-4209,-5511,5283,-1120,3062,-572,1,7,11
1.72313E+12,-4394,-5579,5652,-729,3263,-242,1,7,11
1.72313E+12,-4286,-5576,5639,-774,3593,-215,1,7,11
1.72313E+12,-4659,-5560,5323,-597,3309,-211,1,7,11
1.72313E+12,-4532,-5755,5486,-218,3444,-253,1,7,11
1.72313E+12,-4770,-5678,5422,-129,3111,-612,1,7,11
1.72313E+12,-5139,-5370,5112,-333,2840,-621,1,7,11
1.72313E+12,-5177,-5338,5053,-263,2291,-611,1,7,11
1.72313E+12,-5138,-5368,5005,0,1986,-598,1,7,11
1.72313E+12,-4850,-5663,5224,-258,1673,-411,1,7,11
1.72313E+12,-5130,-5671,5206,-270,1611,-788,1,7,11
1.72313E+12,-5169,-5635,5175,-299,1287,-851,1,7,11
1.72313E+12,-5205,-5694,5162,-382,750,-807,1,7,11
1.72313E+12,-5147,-5721,5152,-159,484,-486,1,7,11
1.72313E+12,-4748,-5708,4806,-195,515,-481,1,7,11
1.72313E+12,-4939,-5734,4797,-254,138,-483,1,7,11
1.72313E+12,-4905,-5532,4845,-551,320,-483,1,7,11
1.72313E+12,-4871,-5548,4843,-529,-22,-494,1,7,11
1.72313E+12,-4573,-5541,4802,-528,-93,-501,1,7,11
1.72313E+12,-4602,-5760,4798,-562,122,-484,1,7,11
1.72313E+12,-4887,-5516,4816,-600,71,-393,1,7,11
1.72313E+12,-4906,-5545,4839,-604,12,-533,1,7,11
1.72313E+12,-4902,-5540,4814,-566,-323,-147,1,7,11
1.72313E+12,-4879,-5529,4755,-550,-165,28,1,7,11
1.72313E+12,-4568,-5545,4958,-583,-527,-39,1,7,11
1.72313E+12,-4530,-5556,4929,-640,-634,130,1,7,11
1.72313E+12,-4489,-5586,4898,-448,-464,575,1,7,11
1.72313E+12,-4695,-5628,4866,-769,-510,478,1,7,11
1.72313E+12,-4656,-5925,4865,-821,-779,844,1,7,11
1.72313E+12,-4669,-5933,4875,-859,-507,650,1,7,11
1.72313E+12,-4715,-5964,4908,-884,-490,699,1,7,11
1.72313E+12,-4526,-5992,4945,-879,-496,737,1,7,11
1.72313E+12,-4574,-6008,4967,-862,-797,1038,1,7,11
1.72313E+12,-4558,-5994,4944,-845,-894,1066,1,7,11
1.72313E+12,-4585,-5956,4935,-854,-757,1033,1,7,11
1.72313E+12,-4905,-5940,4953,-895,-898,725,1,7,11
1.72313E+12,-4912,-5960,4976,-678,-1324,678,1,7,11
1.72313E+12,-4918,-5948,4962,-710,-1246,877,1,7,11
1.72313E+12,-4919,-5920,4953,-755,-1430,857,1,7,11
1.72313E+12,-4914,-5933,4970,-1074,-1864,648,1,7,11
1.72313E+12,-4893,-5962,4989,-1102,-2057,702,1,7,11
1.72313E+12,-4563,-5762,4745,-1108,-2012,753,1,7,11
1.72313E+12,-4507,-5813,4747,-1095,-2228,1025,1,7,11
1.72313E+12,-4558,-5792,4751,-741,-2661,1072,1,7,11
1.72313E+12,-4513,-5858,4960,-642,-2554,1014,1,7,11
1.72313E+12,-4481,-6148,4940,-507,-2898,1213,1,7,11
1.72313E+12,-4510,-5872,4933,-580,-2940,1447,1,7,11
1.72313E+12,-4548,-5841,4935,-139,-2940,1763,1,7,11
1.72313E+12,-4526,-5855,4960,33,-2943,2370,1,7,11
1.72313E+12,-4655,-5831,4743,-41,-2710,2645,1,7,11
1.72313E+12,-4301,-5813,4787,149,-2722,2840,1,7,11
1.72313E+12,-4241,-5793,4871,596,-2929,2722,1,7,11
1.72313E+12,-4074,-6008,4858,805,-2828,2777,1,7,11
1.72313E+12,-3808,-5932,5131,710,-2642,2927,1,7,11
1.72313E+12,-3857,-5542,5225,1053,-2040,2653,1,7,11
1.72313E+12,-3480,-5707,5416,1107,-1794,1984,1,7,11
1.72313E+12,-3492,-5658,5320,956,-938,1502,1,7,11
1.72313E+12,-3514,-5373,5677,1361,-583,712,1,7,11
1.72313E+12,-3529,-5324,5696,1267,308,177,1,7,11
1.72313E+12,-3869,-5257,5713,1663,864,-375,1,7,11
1.72313E+12,-3780,-5441,5756,1527,1639,-869,1,7,11
1.72313E+12,-3994,-5417,5598,1722,2101,-998,1,7,11
1.72313E+12,-4423,-5471,5939,2166,2194,-1538,1,7,11
1.72313E+12,-4675,-5412,5945,2413,2645,-1806,1,7,11
1.72313E+12,-4739,-5238,5908,2613,2632,-1712,1,7,11
1.72313E+12,-5045,-4788,5629,2686,2416,-1705,1,7,11
1.72313E+12,-5281,-4868,5956,2649,1771,-1517,1,7,11
1.72313E+12,-5646,-4503,5805,2292,1256,-1198,1,7,11
1.72313E+12,-5355,-4687,5854,2179,691,-1105,1,7,11
1.72313E+12,-5478,-4622,5884,2035,167,-806,1,7,11
1.72313E+12,-5061,-4307,6159,2115,-273,-569,1,7,11
1.72313E+12,-4859,-4266,6189,1905,-620,-150,1,7,11
1.72313E+12,-4914,-4268,6202,1426,-857,-305,1,7,11
1.72313E+12,-4735,-4227,6206,1226,-724,-279,1,7,11
1.72313E+12,-4620,-4473,6226,1007,-733,-280,1,7,11
1.72313E+12,-4298,-4453,6262,1070,-670,-293,1,7,11
1.72313E+12,-4277,-4426,6043,642,-806,-310,1,7,11
1.72313E+12,-4263,-4405,6083,494,-409,-313,1,7,11
1.72313E+12,-4277,-4400,6407,630,-521,-319,1,7,11
1.72313E+12,-4325,-4417,6507,564,-373,-316,1,7,11
1.72313E+12,-4342,-4455,6340,574,10,-301,1,7,11
1.72313E+12,-4610,-4437,6380,633,117,-324,1,7,11
1.72313E+12,-4642,-4385,6669,429,-45,-344,1,7,11
1.72313E+12,-4682,-4079,6688,474,287,-376,1,7,11
1.72313E+12,-4725,-4014,6678,504,341,-146,1,7,11
1.72313E+12,-4543,-4187,6674,500,381,-174,1,7,11
1.72313E+12,-4866,-4153,6711,453,135,-171,1,7,11
1.72313E+12,-4910,-4130,6754,411,367,-147,1,7,11
1.72313E+12,-4903,-4121,6775,389,306,-364,1,7,11
1.72313E+12,-4584,-4124,6783,612,-33,-340,1,7,11
1.72313E+12,-4544,-4126,6537,572,-108,-339,1,7,11
1.72313E+12,-4524,-4131,6553,544,86,-325,1,7,11
1.72313E+12,-4510,-4123,6562,534,31,-307,1,7,11
1.72313E+12,-4487,-4116,6547,525,-278,-281,1,7,11
1.72313E+12,-4482,-3827,6766,512,-317,1,1,7,11
1.72313E+12,-4708,-3789,6736,218,-355,32,1,7,11
1.72313E+12,-4724,-3759,6733,151,-357,85,1,7,11
1.72313E+12,-4550,-3792,6559,364,-351,-61,1,7,11
1.72313E+12,-4562,-3795,6612,374,-371,293,1,7,11
1.72313E+12,-4562,-3774,6621,145,-147,374,1,7,11
1.72313E+12,-4547,-3748,6634,154,-174,168,1,7,11
1.72313E+12,-4525,-3739,6926,140,-200,185,1,7,11
1.72313E+12,-4511,-3747,6966,128,-207,166,1,7,11
1.72313E+12,-4724,-3739,6974,142,-193,371,1,7,11
1.72313E+12,-4677,-3714,6981,153,-144,297,1,7,11
1.72313E+12,-4662,-3950,6996,148,-325,-46,1,7,11
1.72313E+12,-4675,-3952,7023,129,16,-114,1,7,11
1.72313E+12,-4682,-3953,6809,357,101,88,1,7,11
1.72313E+12,-4628,-3960,6803,350,-55,53,1,7,11
1.72313E+12,-4327,-3940,7028,315,269,-284,1,7,11
1.72313E+12,-4335,-3921,7013,-5,354,-368,1,7,11
1.72313E+12,-4347,-3930,7009,-66,214,-136,1,7,11
1.72313E+12,-4631,-3923,7024,-62,610,-354,1,7,11
1.72313E+12,-4635,-3885,6990,-1,495,-298,1,7,11
1.72313E+12,-4639,-3555,6651,305,884,13,1,7,11
1.72313E+12,-4638,-3504,6566,276,764,31,1,7,11
1.72313E+12,-4660,-3505,6781,-82,910,3,1,7,11
1.72313E+12,-4643,-3577,6783,19,1290,-336,1,7,11
1.72313E+12,-4676,-3924,6558,-140,1362,-523,1,7,11
1.72313E+12,-4523,-3740,6581,-521,1364,-772,1,7,11
1.72313E+12,-4529,-3812,6559,-639,1288,-745,1,7,11
1.72313E+12,-4580,-3798,6759,-510,932,-1292,1,7,11
1.72313E+12,-4876,-3810,6716,-663,1084,-1548,1,7,11
1.72313E+12,-4880,-3826,6395,-1084,744,-1805,1,7,11
1.72313E+12,-4869,-4128,6375,-1013,700,-1782,1,7,11
1.72313E+12,-4503,-4183,6312,-1186,690,-2009,1,7,11
1.72313E+12,-4632,-4208,6465,-1650,705,-2583,1,7,11
1.72313E+12,-4333,-4012,6439,-1700,749,-2726,1,7,11
1.72313E+12,-4621,-4369,6482,-2017,1039,-3423,1,7,11
1.72313E+12,-4728,-4478,6286,-2273,1047,-3846,1,7,11
1.72313E+12,-4564,-4325,6524,-2476,755,-4166,1,7,11
1.72313E+12,-4558,-4657,6417,-2893,690,-4086,1,7,11
1.72313E+12,-4679,-4503,6249,-3100,874,-4448,1,7,11
1.72313E+12,-4696,-4906,6200,-3338,833,-4290,1,7,11
1.72313E+12,-4709,-5154,5854,-3233,501,-4259,1,7,11
1.72313E+12,-4619,-5076,5958,-3292,420,-4070,1,7,11
1.72313E+12,-4363,-5501,5602,-3610,614,-3790,1,7,11
1.72313E+12,-3979,-5375,5754,-3642,565,-3561,1,7,11
1.72313E+12,-3840,-5506,5366,-3645,250,-3499,1,7,11
1.72313E+12,-3960,-5899,5490,-3651,150,-3065,1,7,11
1.72313E+12,-3874,-5788,5391,-3673,383,-3168,1,7,11
1.72313E+12,-3538,-6212,5052,-3680,352,-2743,1,7,11
1.72313E+12,-3690,-6132,5209,-3649,369,-2550,1,7,11
1.72313E+12,-3592,-6315,5133,-3319,162,-2581,1,7,11
1.72313E+12,-3274,-6721,4796,-3378,204,-2340,1,7,11
1.72313E+12,-3260,-6587,4976,-2945,231,-2060,1,7,11
1.72313E+12,-3239,-6967,4927,-2752,232,-1486,1,7,11
1.72313E+12,-3205,-6830,4884,-2534,194,-1193,1,7,11
1.72313E+12,-3242,-6830,4590,-2264,129,-937,1,7,11
1.72313E+12,-3247,-6828,4493,-1976,327,-886,1,7,11
1.72313E+12,-3442,-6797,4649,-1696,287,-599,1,7,11
1.72313E+12,-3218,-6885,4632,-1456,312,-335,1,7,11
1.72313E+12,-3290,-7180,4617,-1168,349,121,1,7,11
1.72313E+12,-3596,-6876,4320,-1146,141,328,1,7,11
1.72313E+12,-3613,-6820,4335,-650,193,566,1,7,11
1.72313E+12,-3310,-6807,4314,-413,196,774,1,7,11
1.72313E+12,-3450,-7002,4442,-197,158,883,1,7,11
1.72313E+12,-3415,-6965,4353,-352,173,676,1,7,11
1.72313E+12,-3385,-6959,4028,-319,228,708,1,7,11
1.72313E+12,-3385,-6979,4017,-345,578,711,1,7,11
1.72313E+12,-3043,-7037,4037,-130,402,697,1,7,11
1.72313E+12,-2956,-6862,4095,-177,451,840,1,7,11
1.72313E+12,-2986,-6899,4373,-216,406,239,1,7,11
1.72313E+12,-3379,-6829,4087,-237,571,257,1,7,11
1.72313E+12,-3248,-7031,4076,-541,222,117,1,7,11
1.72313E+12,-3259,-7016,4010,-597,378,30,1,7,11
1.72313E+12,-3324,-6812,4038,-414,331,2,1,7,11
1.72313E+12,-3654,-6863,4367,-433,297,28,1,7,11
1.72313E+12,-3619,-6822,4080,-389,-19,82,1,7,11
1.72313E+12,-3275,-6785,4029,-622,-74,-103,1,7,11
1.72313E+12,-3206,-6999,3978,-635,-100,-57,1,7,11
1.72313E+12,-3444,-6939,4222,-425,-112,-39,1,7,11
1.72313E+12,-3438,-6919,3972,-502,-127,257,1,7,11
1.72313E+12,-3454,-6941,3991,-832,103,285,1,7,11
1.72313E+12,-3202,-6965,4205,-643,48,292,1,7,11
1.72313E+12,-3256,-6647,4117,-721,-261,275,1,7,11
1.72313E+12,-3297,-6582,3776,-1090,-313,310,1,7,11
1.72313E+12,-3652,-6948,3807,-994,-330,153,1,7,11
1.72313E+12,-3699,-7034,4109,-1321,-361,252,1,7,11
1.72313E+12,-3460,-6816,4141,-1312,-382,619,1,7,11
1.72313E+12,-3659,-6891,4139,-1016,-159,480,1,7,11
1.72313E+12,-3606,-6894,3811,-941,-206,506,1,7,11
1.72313E+12,-3585,-6829,3949,-1130,-242,497,1,7,11
1.72313E+12,-3294,-7029,3545,-1118,-244,505,1,7,11
1.72313E+12,-3303,-6995,3470,-906,-210,506,1,7,11
1.72313E+12,-3326,-7027,3711,-961,-163,505,1,7,11
1.72313E+12,-3655,-6856,3487,-980,-380,477,1,7,11
1.72313E+12,-3693,-7219,3702,-972,-134,412,1,7,11
1.72313E+12,-3555,-7231,3637,-956,-159,525,1,7,11
1.72313E+12,-3717,-7275,3633,-971,-377,525,1,7,11
1.72313E+12,-4097,-7093,3686,-953,-325,609,1,7,11
1.72313E+12,-4116,-7111,3467,-1105,-291,446,1,7,11
1.72313E+12,-3788,-7089,3466,-698,-281,776,1,7,11
1.72313E+12,-3900,-7283,3683,-800,-301,510,1,7,11
1.72313E+12,-3552,-7183,3609,-419,-317,408,1,7,11
1.72313E+12,-3521,-6826,3324,-601,-296,547,1,7,11
1.72313E+12,-3526,-7032,3326,-564,13,215,1,7,11
1.72313E+12,-3533,-7027,3590,-535,64,145,1,7,11
1.72313E+12,-3545,-6795,3602,-252,113,320,1,7,11
1.72313E+12,-3852,-6841,3594,-220,-100,-14,1,7,11
1.72313E+12,-3934,-6885,3311,-209,-61,-80,1,7,11
1.72313E+12,-3816,-7226,3320,-225,-6,-82,1,7,11
1.72313E+12,-4138,-7271,3619,-202,273,-39,1,7,11
1.72313E+12,-4153,-7273,3689,-368,271,256,1,7,11
1.72313E+12,-4115,-7258,3460,35,-26,-2,1,7,11
1.72313E+12,-3819,-7189,3704,-59,-76,-64,1,7,11
1.72313E+12,-3784,-6809,3655,334,-116,126,1,7,11
1.72313E+12,-3733,-6954,3604,164,-125,96,1,7,11
1.72313E+12,-3935,-6646,3312,201,-123,73,1,7,11
1.72313E+12,-3877,-6634,3291,201,-116,39,1,7,11
1.72313E+12,-3857,-6917,3290,165,-96,10,1,7,11
1.72313E+12,-3920,-6986,3597,376,-72,-257,1,7,11
1.72313E+12,-3717,-6799,3636,327,-33,74,1,7,11
1.72313E+12,-3795,-6867,3701,329,-5,-95,1,7,11
1.72313E+12,-4102,-7177,3494,377,263,278,1,7,11
1.72313E+12,-4146,-7204,3511,200,260,134,1,7,11
1.72313E+12,-4176,-7207,3485,547,-5,234,1,7,11
1.72313E+12,-3992,-7215,3501,402,267,613,1,7,11
1.72313E+12,-4012,-7209,3533,506,276,416,1,7,11
1.72313E+12,-4050,-7170,3846,887,268,436,1,7,11
1.72313E+12,-4075,-6856,3864,1035,-41,438,1,7,11
1.72313E+12,-4442,-6553,4130,1627,-753,334,1,7,11
1.72313E+12,-4426,-6529,4137,1494,-1147,134,1,7,11
1.72313E+12,-4441,-6781,4171,1848,-1004,240,1,7,11
1.72313E+12,-4456,-6538,3988,1739,-1354,413,1,7,11
1.72313E+12,-4272,-6557,4088,1969,-1181,875,1,7,11
1.72313E+12,-4613,-6570,4409,2269,-1554,1127,1,7,11
1.72313E+12,-4524,-6567,4258,2849,-1486,1375,1,7,11
1.72313E+12,-4920,-6576,4651,3192,-2060,1661,1,7,11
1.72313E+12,-4742,-6554,4510,3323,-2216,1710,1,7,11
1.72313E+12,-4770,-6766,4885,3954,-2929,2042,1,7,11
1.72313E+12,-4955,-6691,4978,4059,-3417,2617,1,7,11
1.72313E+12,-4540,-6363,4839,4662,-3847,2890,1,7,11
1.72313E+12,-4632,-6308,5245,4805,-4153,3104,1,7,11
1.72313E+12,-4480,-6322,5457,5256,-4366,3017,1,7,11
1.72313E+12,-4001,-6461,5482,5843,-4289,3066,1,7,11
1.72313E+12,-3457,-5920,5193,6683,-4626,2792,1,7,11
1.72313E+12,-3412,-5469,5179,6356,-4457,2580,1,7,11
1.72313E+12,-3043,-4955,5029,6065,-4141,1711,1,7,11
1.72313E+12,-3038,-4258,5334,5566,-3707,1383,1,7,11
1.72313E+12,-3190,-4179,5895,5028,-2970,679,1,7,11
1.72313E+12,-3190,-3907,6231,4571,-2476,587,1,7,11
1.72313E+12,-3126,-3641,6471,4435,-2025,362,1,7,11
1.72313E+12,-3096,-3273,6534,3750,-1850,-46,1,7,11
1.72313E+12,-3125,-3251,7173,3680,-1218,91,1,7,11
1.72313E+12,-3197,-3294,7504,3272,-903,42,1,7,11
1.72313E+12,-2995,-3247,7416,3216,-686,-291,1,7,11
1.72313E+12,-3038,-3425,7757,3406,-800,-363,1,7,11
1.72313E+12,-3062,-3336,7592,3050,-442,-165,1,7,11
1.72313E+12,-3336,-2991,7943,2969,-616,-191,1,7,11
1.72313E+12,-3396,-3101,8039,3190,-544,-189,1,7,11
1.72313E+12,-3396,-2942,7886,3147,-246,-374,1,7,11
1.72313E+12,-3379,-2491,8273,3082,-213,-279,1,7,11
1.72313E+12,-3344,-2596,8184,2723,-180,88,1,7,11
1.72313E+12,-3019,-2391,8513,2872,-140,-116,1,7,11
1.72313E+12,-3027,-1979,8353,2666,-306,-70,1,7,11
1.72313E+12,-3009,-2088,8391,2423,19,-63,1,7,11
1.72313E+12,-3044,-1727,8732,2111,104,-92,1,7,11
1.72313E+12,-3352,-1897,8766,1807,-105,106,1,7,11
1.72313E+12,-3409,-1827,8740,1258,-81,54,1,7,11
1.72313E+12,-3209,-1805,8440,954,-51,33,1,7,11
1.72313E+12,-3247,-1797,8386,670,-23,47,1,7,11
1.72313E+12,-3238,-1877,8409,639,262,102,1,7,11
1.72313E+12,-3216,-1755,8707,207,263,-111,1,7,11
1.72313E+12,-3440,-2096,8428,132,-38,-114,1,7,11
1.72313E+12,-3436,-1928,8393,331,-102,-122,1,7,11
1.72313E+12,-3436,-1937,8351,303,80,-111,1,7,11
1.72313E+12,-3423,-1982,8356,281,25,-63,1,7,11
1.72313E+12,-3426,-1987,8348,328,-303,-46,1,7,11
1.72313E+12,-3428,-1924,8560,358,-378,-37,1,7,11
1.72313E+12,-3435,-2157,8322,323,-176,259,1,7,11
1.72313E+12,-3437,-1943,8389,316,-226,312,1,7,11
1.72313E+12,-3387,-2170,8368,359,-540,310,1,7,11
1.72313E+12,-3358,-2139,8351,369,-584,278,1,7,11
1.72313E+12,-3348,-2136,8361,370,-606,-7,1,7,11
1.72313E+12,-3356,-2105,8346,140,-607,-24,1,7,11
1.72313E+12,-3356,-2108,8392,162,-581,257,1,7,11
1.72313E+12,-3063,-2102,8412,197,-558,306,1,7,11
1.72313E+12,-3026,-2054,8400,249,-530,355,1,7,11
1.72313E+12,-2985,-1740,8421,555,-210,163,1,7,11
1.72313E+12,-2988,-1675,8417,565,-174,189,1,7,11
1.72313E+12,-2980,-1872,8421,529,-133,220,1,7,11
1.72313E+12,-2970,-1857,8446,208,-351,518,1,7,11
1.72313E+12,-2966,-1835,8733,154,-320,546,1,7,11
1.72313E+12,-3194,-1833,8770,345,-292,587,1,7,11
1.72313E+12,-3151,-1822,8766,288,-258,615,1,7,11
1.72313E+12,-3125,-1795,8764,-24,53,625,1,7,11
1.72313E+12,-3112,-1793,8780,-93,-127,385,1,7,11
1.72313E+12,-3128,-1827,8803,106,-56,615,1,7,11
1.72313E+12,-3198,-1813,8781,72,-6,542,1,7,11
1.72313E+12,-3034,-1506,8740,11,275,244,1,7,11
1.72313E+12,-3355,-1506,8741,-344,278,525,1,7,11
1.72313E+12,-3347,-1514,8729,-204,264,539,1,7,11
1.72313E+12,-3334,-1521,8725,-570,-11,514,1,7,11
1.72313E+12,-3348,-1837,8749,-406,-20,219,1,7,11
1.72313E+12,-3359,-1849,8445,-449,-36,141,1,7,11
1.72313E+12,-3402,-1880,8420,-771,-21,364,1,7,11
1.72313E+12,-3419,-1861,8377,-816,-9,353,1,7,11
1.72313E+12,-3437,-1869,8373,-844,285,163,1,7,11
1.72313E+12,-3438,-1877,8362,-845,130,232,1,7,11
1.72313E+12,-3440,-1894,8354,-870,222,558,1,7,11
1.72313E+12,-3437,-1679,8326,-645,580,622,1,7,11
1.72313E+12,-3210,-1734,8564,-684,434,399,1,7,11
1.72313E+12,-3264,-2065,8525,-711,772,400,1,7,11
1.72313E+12,-3311,-2125,8473,-725,804,616,1,7,11
1.72313E+12,-3643,-2168,8175,-729,791,571,1,7,11
1.72313E+12,-3669,-1983,8129,-723,471,556,1,7,11
1.72313E+12,-3673,-2037,8311,-692,392,530,1,7,11
1.72313E+12,-3652,-2364,8278,-663,572,523,1,7,11
1.72313E+12,-3632,-2184,8069,-868,254,247,1,7,11
1.72313E+12,-3640,-2188,8074,-492,184,180,1,7,11
1.72313E+12,-3660,-2385,8268,-404,378,379,1,7,11
1.72313E+12,-3494,-2404,8079,-631,374,145,1,7,11
1.72313E+12,-3507,-2405,8121,-531,335,188,1,7,11
1.72313E+12,-3493,-2386,8113,-159,308,240,1,7,11
1.72313E+12,-3488,-2410,8145,-292,322,578,1,7,11
1.72313E+12,-3482,-2396,8180,-124,375,417,1,7,11
1.72313E+12,-3490,-2367,8157,330,218,792,1,7,11
1.72313E+12,-3499,-2328,8125,524,404,703,1,7,11
1.72313E+12,-3514,-2364,8155,469,718,998,1,7,11
1.72313E+12,-3493,-2215,8467,749,1381,1632,1,7,11
1.72313E+12,-3711,-2303,8470,1381,1848,1784,1,7,11
1.72313E+12,-3667,-2047,7881,2116,2611,2659,1,7,11
1.72313E+12,-3935,-2102,7853,2383,3152,3185,1,7,11
1.72313E+12,-4102,-1511,7833,2433,3277,3521,1,7,11
1.72313E+12,-3933,-1604,8029,2847,3507,4056,1,7,11
1.72313E+12,-3538,-1329,7562,2528,3546,4063,1,7,11
1.72313E+12,-3769,-875,7395,2397,3675,3538,1,7,11
1.72313E+12,-4258,-223,7377,1619,3398,2745,1,7,11
1.72313E+12,-5147,11,7790,629,2936,2084,1,7,11
1.72313E+12,-5642,82,7637,-590,1986,951,1,7,11
1.72313E+12,-5559,-264,7641,-1171,1156,222,1,7,11
1.72313E+12,-5543,-250,7650,-2091,396,-361,1,7,11
1.72313E+12,-5331,-862,7646,-2259,25,-789,1,7,11
1.72313E+12,-5074,-988,7648,-2442,-406,-1121,1,7,11
1.72313E+12,-4969,-1580,7579,-2654,-679,-1376,1,7,11
1.72313E+12,-4570,-1430,7772,-2193,-740,-1579,1,7,11
1.72313E+12,-4493,-1505,7762,-2328,-893,-1593,1,7,11
1.72313E+12,-4513,-1803,7554,-1931,-465,-1539,1,7,11
1.72313E+12,-4535,-1845,7603,-1741,-571,-1386,1,7,11
1.72313E+12,-4512,-1800,7769,-1535,-204,-949,1,7,11
1.72313E+12,-4501,-1793,7703,-1425,-359,-766,1,7,11
1.72313E+12,-4489,-1829,7388,-1652,-292,-885,1,7,11
1.72313E+12,-4731,-1916,7380,-1644,1,-775,1,7,11
1.72313E+12,-4695,-1757,7351,-1606,9,-472,1,7,11
1.72313E+12,-4680,-2100,7322,-1549,27,-437,1,7,11
1.72313E+12,-4641,-1957,7324,-1229,36,-404,1,7,11
1.72313E+12,-4641,-2314,7348,-1394,48,-398,1,7,11
1.72313E+12,-4626,-2375,7365,-1018,49,-404,1,7,11
1.72313E+12,-4661,-2392,7419,-1135,77,-630,1,7,11
1.72313E+12,-4669,-2431,7751,-717,-126,-542,1,7,11
1.72313E+12,-4680,-2192,7807,-786,-55,-212,1,7,11
1.72313E+12,-4692,-2342,7780,-563,-2,-170,1,7,11
1.72313E+12,-4731,-2039,7794,-147,347,-343,1,7,11
1.72313E+12,-4732,-2004,7557,24,157,-278,1,7,11
1.72313E+12,-4698,-1963,7785,-82,226,-285,1,7,11
1.72313E+12,-4717,-2174,7776,281,541,-363,1,7,11
1.72313E+12,-4533,-2091,7757,343,588,-246,1,7,11
1.72313E+12,-4872,-1752,7754,326,614,-638,1,7,11
1.72313E+12,-4970,-1748,7801,-5,610,-485,1,7,11
1.72313E+12,-4986,-1740,7803,-69,540,-850,1,7,11
1.72313E+12,-4981,-1746,7804,100,190,-690,1,7,11
1.72313E+12,-4949,-1779,7789,18,335,-752,1,7,11
1.72313E+12,-4931,-2068,7782,-308,-22,-1045,1,7,11
1.72313E+12,-4904,-2089,7747,-370,-122,-1047,1,7,11
1.72313E+12,-4888,-2104,7730,-173,39,-750,1,7,11
1.72313E+12,-4606,-2129,7726,-233,-298,-665,1,7,11
1.72313E+12,-4557,-2174,7740,-532,-370,-824,1,7,11
1.72313E+12,-4496,-1997,7794,-549,-169,-483,1,7,11
1.72313E+12,-4698,-2047,7552,-531,-197,-415,1,7,11
1.72313E+12,-4609,-2313,7787,-243,-217,-625,1,7,11
1.72313E+12,-4321,-2314,7774,-235,-195,-619,1,7,11
1.72313E+12,-4257,-2334,7765,-244,-166,-622,1,7,11
1.72313E+12,-4480,-2334,7789,-514,-378,-429,1,7,11
1.72313E+12,-4233,-2334,7565,-529,-315,-485,1,7,11
1.72313E+12,-4241,-2312,7562,-549,1,-793,1,7,11
1.72313E+12,-4477,-2047,7807,-593,56,-833,1,7,11
1.72313E+12,-4461,-2328,7573,-428,-109,-644,1,7,11
1.72313E+12,-4415,-2366,7565,-488,-72,-693,1,7,11
1.72313E+12,-4096,-2205,7599,-807,-31,-753,1,7,11
1.72313E+12,-4038,-2584,7678,-827,281,-1099,1,7,11
1.72313E+12,-4013,-2678,8021,-511,371,-969,1,7,11
1.72313E+12,-3973,-2459,8022,-635,233,-1360,1,7,11
1.72313E+12,-3830,-2447,7672,-251,405,-1236,1,7,11
1.72313E+12,-3941,-2489,7580,-177,699,-1648,1,7,11
1.72313E+12,-3869,-2549,7766,-351,1354,-1852,1,7,11
1.72313E+12,-3960,-2440,7337,10,1805,-2107,1,7,11
1.72313E+12,-4163,-2600,7478,-311,1997,-2004,1,7,11
1.72313E+12,-4425,-2578,7475,-239,2601,-2318,1,7,11
1.72313E+12,-4726,-2623,7326,-449,2517,-2305,1,7,11
1.72313E+12,-4971,-2457,7397,-886,2467,-1987,1,7,11
1.72313E+12,-5158,-2538,7399,-1059,2217,-1923,1,7,11
1.72313E+12,-5070,-2852,7379,-986,2079,-2100,1,7,11
1.72313E+12,-5412,-2759,7337,-1243,1321,-1846,1,7,11
1.72313E+12,-5063,-3160,7505,-1599,802,-1630,1,7,11
1.72313E+12,-5121,-3045,7142,-1411,368,-1178,1,7,11
1.72313E+12,-4880,-3420,7288,-1480,40,-1311,1,7,11
1.72313E+12,-4670,-3307,7242,-1812,-181,-1282,1,7,11
1.72313E+12,-4266,-3634,7173,-1827,-561,-1345,1,7,11
1.72313E+12,-4424,-3672,6879,-1831,-600,-1190,1,7,11
1.72313E+12,-4466,-3696,7174,-1832,-579,-1552,1,7,11
1.72313E+12,-4267,-3703,7186,-1531,-572,-1580,1,7,11
1.72313E+12,-4470,-3711,6892,-1453,-593,-1270,1,7,11
1.72313E+12,-4369,-3503,6839,-1426,-603,-1241,1,7,11
1.72313E+12,-4365,-3583,6879,-1420,-605,-1274,1,7,11
1.72313E+12,-4387,-3940,7182,-1625,-632,-1555,1,7,11
1.72313E+12,-4393,-3808,7211,-1254,-432,-1257,1,7,11
1.72313E+12,-4059,-4164,7174,-1336,-482,-1387,1,7,11
1.72313E+12,-4145,-3983,6858,-915,-487,-994,1,7,11
1.72313E+12,-3767,-4012,6838,-1037,-424,-915,1,7,11
1.72313E+12,-3721,-4040,6857,-674,-575,-1108,1,7,11
1.72313E+12,-3717,-4049,6900,-803,-209,-1043,1,7,11
1.72313E+12,-3713,-4031,7175,-413,-360,-693,1,7,11
1.72313E+12,-3720,-3981,7192,-559,-260,-847,1,7,11
1.72313E+12,-3761,-4185,7214,-216,94,-466,1,7,11
1.72313E+12,-3805,-4119,7226,-169,-52,-585,1,7,11
1.72313E+12,-4102,-3840,7244,-159,337,-179,1,7,11
1.72313E+12,-4133,-4122,7273,-179,200,-286,1,7,11
1.72313E+12,-4121,-4177,7288,-220,543,65,1,7,11
1.72313E+12,-3801,-4133,7232,-526,565,48,1,7,11
1.72313E+12,-3759,-4125,7224,-637,559,-284,1,7,11
1.72313E+12,-3838,-4103,7238,-480,569,-379,1,7,11
1.72313E+12,-4215,-4113,7260,-801,591,-372,1,7,11
1.72313E+12,-4035,-4105,7213,-817,629,-280,1,7,11
1.72313E+12,-3989,-3834,6875,-811,438,118,1,7,11
1.72313E+12,-4211,-3802,6814,-826,805,-37,1,7,11
1.72313E+12,-4192,-3830,7007,-883,692,292,1,7,11
1.72313E+12,-4190,-4128,6965,-724,1098,229,1,7,11
1.72313E+12,-4206,-4183,6933,-1116,984,99,1,7,11
1.72313E+12,-4009,-4007,6938,-993,1356,-327,1,7,11
1.72313E+12,-4069,-4079,6921,-1360,1201,-244,1,7,11
1.72313E+12,-4376,-4382,6618,-1180,1212,-402,1,7,11
1.72313E+12,-4441,-4435,6587,-1263,1197,-774,1,7,11
1.72313E+12,-4264,-4239,6566,-1561,1154,-836,1,7,11
1.72313E+12,-4295,-4305,6550,-1580,1350,-857,1,7,11
1.72313E+12,-4294,-4343,6754,-1581,1297,-882,1,7,11
1.72313E+12,-4291,-4623,6717,-1599,1017,-653,1,7,11
1.72313E+12,-4262,-4659,6668,-1609,1016,-688,1,7,11
1.72313E+12,-4458,-4678,6338,-1622,1293,-756,1,7,11
1.72313E+12,-4425,-4690,6521,-1653,1353,-1104,1,7,11
1.72313E+12,-4401,-4711,6453,-1464,1180,-958,1,7,11
1.72313E+12,-4396,-4735,6100,-1837,1259,-1377,1,7,11
1.72313E+12,-4418,-4495,6019,-1755,1582,-1571,1,7,11
1.72313E+12,-4469,-4542,6227,-1957,1618,-1497,1,7,11
1.72313E+12,-4258,-4876,6171,-2399,1610,-1895,1,7,11
1.72313E+12,-4282,-4983,5870,-2562,1571,-1746,1,7,11
1.72313E+12,-4239,-4840,5791,-2682,1230,-2082,1,7,11
1.72313E+12,-4470,-5183,5943,-2542,1398,-1932,1,7,11
1.72313E+12,-4449,-5049,5622,-2924,1311,-2034,1,7,11
1.72313E+12,-4404,-5430,5550,-2748,951,-2402,1,7,11
1.72313E+12,-4040,-5492,5683,-3080,1074,-2571,1,7,11
1.72313E+12,-4067,-5650,5647,-3195,729,-2463,1,7,11
1.72313E+12,-4089,-5742,5342,-2973,880,-2830,1,7,11
1.72313E+12,-3983,-5599,5477,-2971,498,-2851,1,7,11
1.72313E+12,-4162,-5966,5091,-3178,425,-2825,1,7,11
1.72313E+12,-3757,-5815,5170,-3104,398,-2499,1,7,11
1.72313E+12,-3954,-5852,4800,-2807,446,-2473,1,7,11
1.72313E+12,-3790,-5849,4763,-2792,495,-2663,1,7,11
1.72313E+12,-4169,-5873,4944,-2757,772,-2180,1,7,11
1.72313E+12,-4200,-6211,4595,-2724,782,-1791,1,7,11
1.72313E+12,-4219,-6061,4705,-2698,811,-1390,1,7,11
1.72313E+12,-3987,-6114,4305,-2713,829,-682,1,7,11
1.72313E+12,-4006,-6440,4354,-2744,831,-216,1,7,11
1.72313E+12,-4012,-6499,3985,-2775,822,-17,1,7,11
1.72313E+12,-4030,-6292,4132,-2779,790,627,1,7,11
1.72313E+12,-4055,-6324,3800,-2763,473,700,1,7,11
1.72313E+12,-4096,-6350,3762,-2757,395,976,1,7,11
1.72313E+12,-4396,-6664,3731,-2731,515,1272,1,7,11
1.72313E+12,-4454,-6682,3930,-2936,360,1409,1,7,11
1.72313E+12,-4281,-6710,3895,-2851,-54,1803,1,7,11
1.72313E+12,-4291,-6758,3559,-2481,9,1716,1,7,11
1.72313E+12,-4253,-6556,3710,-2514,-331,2096,1,7,11
1.72313E+12,-4452,-6631,3603,-2342,-353,2175,1,7,11
1.72313E+12,-4418,-6942,3254,-2144,-293,1924,1,7,11
1.72313E+12,-4444,-6948,3427,-1670,72,2125,1,7,11
1.72313E+12,-4480,-6936,3339,-1455,-69,1783,1,7,11
1.72313E+12,-4265,-6927,2985,-1274,294,1669,1,7,11
1.72313E+12,-4611,-6643,3163,-1383,150,1512,1,7,11
1.72313E+12,-4492,-6595,3121,-1011,527,1644,1,7,11
1.72313E+12,-4870,-6558,3102,-904,392,1588,1,7,11
1.72313E+12,-4959,-6529,3090,-1031,479,1554,1,7,11
1.72313E+12,-4787,-6752,2815,-883,789,1250,1,7,11
1.72313E+12,-4860,-6728,2782,-479,802,1199,1,7,11
1.72313E+12,-5127,-6705,2941,-605,501,1385,1,7,11
1.72313E+12,-5144,-6394,2826,-524,422,1008,1,7,11
1.72313E+12,-5176,-6351,2488,-518,590,1137,1,7,11
1.72313E+12,-5227,-6337,2444,-558,249,742,1,7,11
1.72313E+12,-5034,-6341,2464,-579,162,872,1,7,11
1.72313E+12,-5067,-6380,2498,-554,338,790,1,7,11
1.72313E+12,-5101,-6664,2536,-220,264,454,1,7,11
1.72313E+12,-5384,-6666,2545,-369,-66,387,1,7,11
1.72313E+12,-5386,-6371,2505,-274,114,592,1,7,11
1.72313E+12,-5113,-6329,2451,28,51,543,1,7,11
1.72313E+12,-5093,-6307,2434,42,8,239,1,7,11
1.72313E+12,-5062,-6309,2457,38,-275,194,1,7,11
1.72313E+12,-5038,-6325,2480,49,-297,144,1,7,11
1.72313E+12,-5013,-6334,2479,74,-316,335,1,7,11
1.72313E+12,-5247,-6321,2474,92,-324,256,1,7,11
1.72313E+12,-5000,-6318,2500,105,-292,-108,1,7,11
1.72313E+12,-4993,-6333,2513,-127,-261,119,1,7,11
1.72313E+12,-4995,-6348,2535,-94,35,85,1,7,11
1.72313E+12,-4998,-6358,2816,-47,72,50,1,7,11
1.72313E+12,-5000,-6369,2841,272,107,17,1,7,11
1.72313E+12,-5004,-6385,2867,348,-113,-270,1,7,11
1.72313E+12,-5243,-6384,2889,187,-86,-304,1,7,11
1.72313E+12,-5217,-6374,2918,536,-48,-360,1,7,11
1.72313E+12,-5194,-6348,2940,630,-4,-163,1,7,11
1.72313E+12,-5165,-6328,2707,450,298,-218,1,7,11
1.72313E+12,-5156,-6303,2739,508,347,-528,1,7,11
1.72313E+12,-5158,-6282,2769,815,137,-580,1,7,11
1.72313E+12,-5153,-6520,2796,871,183,-620,1,7,11
1.72313E+12,-5142,-6510,3086,668,236,-386,1,7,11
1.72313E+12,-5130,-6502,3112,730,549,-395,1,7,11
1.72313E+12,-5133,-6486,3146,1052,603,-390,1,7,11
1.72313E+12,-5141,-6478,3179,1124,397,-622,1,7,11
1.72313E+12,-5149,-6472,2956,942,440,-592,1,7,11
1.72313E+12,-5164,-6462,2985,1004,469,-557,1,7,11
1.72313E+12,-5181,-6450,3009,1327,475,-256,1,7,11
1.72313E+12,-5201,-6458,3048,1388,465,-206,1,7,11
1.72313E+12,-5207,-6456,3338,1206,424,-167,1,7,11
1.72313E+12,-5208,-6431,3365,1275,615,-149,1,7,11
1.72313E+12,-5226,-6407,3403,1578,534,-138,1,7,11
1.72313E+12,-4993,-6127,3207,1609,181,-365,1,7,11
1.72313E+12,-5026,-6110,3288,1641,332,-328,1,7,11
1.72313E+12,-5056,-6075,3616,1425,-49,-283,1,7,11
1.72313E+12,-5081,-6023,3709,1462,72,26,1,7,11
1.72313E+12,-5100,-6218,3532,1479,-315,93,1,7,11
1.72313E+12,-5099,-5874,3861,1483,-528,-44,1,7,11
1.72313E+12,-5094,-5820,3932,1473,-417,280,1,7,11
1.72313E+12,-5076,-6014,3743,1446,-814,344,1,7,11
1.72313E+12,-5058,-5938,3812,1653,-690,143,1,7,11
1.72313E+12,-5041,-5610,4155,1582,-1069,205,1,7,11
1.72313E+12,-5013,-5559,3997,1230,-924,540,1,7,11
1.72313E+12,-5220,-5517,4092,1382,-1287,616,1,7,11
1.72313E+12,-5168,-5740,4445,1008,-1383,412,1,7,11
1.72313E+12,-5126,-5699,4271,1141,-1207,442,1,7,11
1.72313E+12,-4825,-5656,4332,763,-1270,471,1,7,11
1.72313E+12,-4783,-5364,4654,641,-1567,491,1,7,11
1.72313E+12,-4737,-5343,4728,771,-1585,771,1,7,11
1.72313E+12,-4958,-5319,4556,407,-1590,786,1,7,11
1.72313E+12,-4937,-5302,4888,572,-1584,794,1,7,11
1.72313E+12,-4929,-5279,4954,246,-1567,812,1,7,11
1.72313E+12,-4917,-5252,4737,197,-1537,836,1,7,11
1.72313E+12,-4889,-5477,4758,148,-1239,872,1,7,11
1.72313E+12,-4888,-5448,4791,342,-1182,668,1,7,11
1.72313E+12,-4875,-5434,4833,270,-1378,732,1,7,11
1.72313E+12,-4885,-5429,5142,-50,-1318,1046,1,7,11
1.72313E+12,-4888,-5435,5198,-103,-1018,1097,1,7,11
1.72313E+12,-4911,-5434,5000,112,-974,1128,1,7,11
1.72313E+12,-4936,-5413,5038,93,-946,1149,1,7,11
1.72313E+12,-4971,-5377,5077,74,-927,904,1,7,11
1.72313E+12,-4746,-5089,5111,55,-922,905,1,7,11
1.72313E+12,-4760,-5068,5393,29,-926,1149,1,7,11
1.72313E+12,-4754,-5049,5426,6,-934,1121,1,7,11
1.72313E+12,-4748,-5025,5454,-265,-933,1082,1,7,11
1.72313E+12,-4990,-5018,5460,-270,-934,1044,1,7,11
1.72313E+12,-4979,-5003,5483,-276,-923,744,1,7,11
1.72313E+12,-4974,-5248,5494,-277,-899,708,1,7,11
1.72313E+12,-4968,-4997,5500,-277,-1110,696,1,7,11
1.72313E+12,-4969,-5008,5272,-266,-1040,693,1,7,11
1.72313E+12,-4978,-5247,5285,17,-723,677,1,7,11
1.72313E+12,-4991,-5232,5295,34,-679,658,1,7,11
1.72313E+12,-4754,-5223,5311,38,-896,887,1,7,11
1.72313E+12,-4780,-5232,5335,44,-873,868,1,7,11
1.72313E+12,-4779,-5226,5351,120,-859,875,1,7,11
1.72313E+12,-4745,-5206,5339,-73,-846,874,1,7,11
1.72313E+12,-4986,-5176,5325,-26,-826,859,1,7,11
1.72313E+12,-4971,-5183,5331,-4,-810,829,1,7,11
1.72313E+12,-4978,-5178,5351,277,-807,776,1,7,11
1.72313E+12,-4984,-5163,5632,294,-817,444,1,7,11
1.72313E+12,-4764,-5125,5662,305,-831,617,1,7,11
1.72313E+12,-4793,-4833,5692,312,-861,562,1,7,11
1.72313E+12,-4804,-4798,5719,323,-884,535,1,7,11
1.72313E+12,-4800,-4777,5754,320,-653,514,1,7,11
1.72313E+12,-4784,-4753,5519,324,-676,234,1,7,11
1.72313E+12,-4755,-4984,5536,324,-693,212,1,7,11
1.72313E+12,-4746,-4947,5561,307,-693,193,1,7,11
1.72313E+12,-4986,-4910,5570,280,-681,198,1,7,11
1.72313E+12,-4969,-4893,5593,-18,-646,216,1,7,11
1.72313E+12,-4949,-4872,5616,-49,-858,245,1,7,11
1.72313E+12,-4918,-4602,5624,-93,-814,533,1,7,11
1.72313E+12,-4897,-4596,5895,105,-509,543,1,7,11
1.72313E+12,-4888,-4601,5927,39,-466,543,1,7,11
1.72313E+12,-4878,-4882,5963,-268,-436,524,1,7,11
1.72313E+12,-4887,-4894,5984,-292,-427,228,1,7,11
1.72313E+12,-4889,-4876,5978,-294,-426,186,1,7,11
1.72313E+12,-4900,-4875,5979,-303,-422,157,1,7,11
1.72313E+12,-4915,-4873,5977,-306,-427,136,1,7,11
1.72313E+12,-4926,-4865,5979,-305,-427,383,1,7,11
1.72313E+12,-4931,-4869,5981,-304,-426,129,1,7,11
1.72313E+12,-4934,-4866,5981,-300,-419,378,1,7,11
1.72313E+12,-4924,-4591,5976,-299,-408,369,1,7,11
1.72313E+12,-4917,-4575,5985,-308,-639,361,1,7,11
1.72313E+12,-4927,-4562,6010,-323,-603,360,1,7,11
1.72313E+12,-4942,-4542,5777,-320,-567,370,1,7,11
1.72313E+12,-4956,-4523,5775,-315,-526,132,1,7,11
1.72313E+12,-4946,-4491,6013,-325,-216,160,1,7,11
1.72313E+12,-4927,-4720,6008,-355,-143,180,1,7,11
1.72313E+12,-4921,-4729,5772,-144,-314,180,1,7,11
1.72313E+12,-4926,-4720,5779,-172,17,162,1,7,11
1.72313E+12,-4940,-4704,5769,-201,91,140,1,7,11
1.72313E+12,-4962,-4696,5761,-221,-86,132,1,7,11
1.72313E+12,-4739,-4700,5772,-241,-7,135,1,7,11
1.72313E+12,-4768,-4702,5780,-237,319,155,1,7,11
1.72313E+12,-4787,-4715,5771,-214,131,175,1,7,11
1.72313E+12,-4803,-4733,5775,-175,195,190,1,7,11
1.72313E+12,-4814,-4486,5765,-382,248,191,1,7,11
1.72313E+12,-4842,-4491,5777,-321,546,170,1,7,11
1.72313E+12,-5145,-4502,5784,16,588,143,1,7,11
1.72313E+12,-5152,-4534,5811,120,632,128,1,7,11
1.72313E+12,-4848,-4898,6158,267,455,128,1,7,11
1.72313E+12,-4946,-4803,6227,575,867,365,1,7,11
1.72313E+12,-4525,-5125,6184,1076,940,281,1,7,11
1.72313E+12,-4347,-4992,5922,1409,1417,-86,1,7,11
1.72313E+12,-4661,-4539,5738,2308,2228,-137,1,7,11
1.72313E+12,-4883,-4308,5675,2231,2939,-392,1,7,11
1.72313E+12,-5162,-4388,5727,2261,2984,-859,1,7,11
1.72313E+12,-5428,-4023,5592,2226,3372,-727,1,7,11
1.72313E+12,-5649,-4182,5957,2207,3335,-1028,1,7,11
1.72313E+12,-5575,-3817,5994,2197,3172,-749,1,7,11
1.72313E+12,-5957,-3965,5967,2181,2935,-654,1,7,11
1.72313E+12,-5769,-3917,5942,2367,2677,-480,1,7,11
1.72313E+12,-6000,-3715,5966,2025,2190,-514,1,7,11
1.72313E+12,-5632,-3818,5974,1980,1998,-302,1,7,11
1.72313E+12,-5734,-4158,5931,1986,2114,97,1,7,11
1.72313E+12,-5327,-4214,5590,1981,1779,-68,1,7,11
1.72313E+12,-5437,-4033,5759,1927,1747,-18,1,7,11
1.72313E+12,-5062,-4379,5691,2080,1754,-8,1,7,11
1.72313E+12,-4994,-4261,5683,1672,1786,-6,1,7,11
1.72313E+12,-5166,-4688,5675,1528,2059,-7,1,7,11
1.72313E+12,-4802,-4513,5318,1423,2064,-59,1,7,11
1.72313E+12,-4966,-4549,5439,1545,2090,-99,1,7,11
1.72313E+12,-4885,-4875,5084,1352,2134,-108,1,7,11
1.72313E+12,-4579,-4740,5031,1147,2153,-123,1,7,11
1.72313E+12,-4558,-5126,5232,681,2141,109,1,7,11
1.72313E+12,-4530,-5202,5120,470,2097,79,1,7,11
1.72313E+12,-4523,-5015,4770,240,2049,71,1,7,11
1.72313E+12,-4547,-5095,4982,283,1769,119,1,7,11
1.72313E+12,-4592,-5447,4968,-103,1780,-8,1,7,11
1.72313E+12,-4891,-5285,4955,124,2080,184,1,7,11
1.72313E+12,-4956,-5362,4930,-72,2158,405,1,7,11
1.72313E+12,-4928,-5366,4909,134,2306,1046,1,7,11
1.72313E+12,-4608,-5345,4893,559,2397,1004,1,7,11
1.72313E+12,-4557,-5312,4889,463,2190,1386,1,7,11
1.72313E+12,-4571,-5459,4882,854,2184,1404,1,7,11
1.72313E+12,-4919,-5240,4589,694,2386,1385,1,7,11
1.72313E+12,-4803,-4972,4540,688,2037,1404,1,7,11
1.72313E+12,-5198,-4690,4722,835,2141,1230,1,7,11
1.72313E+12,-5072,-4426,4637,580,1677,1584,1,7,11
1.72313E+12,-5455,-4178,4609,-41,1419,1429,1,7,11
1.72313E+12,-5281,-3729,4628,-212,1376,1529,1,7,11
1.72313E+12,-5694,-3553,4669,-886,1075,1820,1,7,11
1.72313E+12,-5984,-3478,4545,-1300,830,1868,1,7,11
1.72313E+12,-6034,-3602,4594,-1557,395,1706,1,7,11
1.72313E+12,-6346,-3453,4577,-1464,569,2115,1,7,11
1.72313E+12,-6627,-3045,4493,-1875,554,2039,1,7,11
1.72313E+12,-7268,-3200,4499,-2075,596,2393,1,7,11
1.72313E+12,-7804,-3138,4869,-1979,404,2402,1,7,11
1.72313E+12,-8171,-2791,4743,-2318,449,2319,1,7,11
1.72313E+12,-8885,-2898,5130,-2358,469,2125,1,7,11
1.72313E+12,-9712,-2441,5089,-2348,495,1887,1,7,11
1.72313E+12,-10587,-2413,5408,-1982,422,1449,1,7,11
1.72313E+12,-11050,-1930,5468,-2173,614,1604,1,7,11
1.72313E+12,-11314,-2080,5269,-2107,522,1593,1,7,11
1.72313E+12,-11169,-1784,5323,-1766,166,1590,1,7,11
1.72313E+12,-11158,-1737,5351,-1915,309,1550,1,7,11
1.72313E+12,-11279,-1920,5325,-1820,-82,1179,1,7,11
1.72313E+12,-10897,-1804,5268,-1499,54,985,1,7,11
1.72313E+12,-10726,-1434,5462,-1486,-309,1082,1,7,11
1.72313E+12,-10796,-1456,5503,-1523,-357,723,1,7,11
1.72313E+12,-10623,-1829,5324,-1496,-380,869,1,7,11
1.72313E+12,-10204,-1877,5287,-1643,-169,416,1,7,11
1.72313E+12,-10262,-1828,5416,-1589,-230,152,1,7,11
1.72313E+12,-10048,-1822,5097,-1655,-544,-118,1,7,11
1.72313E+12,-9805,-1869,5090,-1471,-628,-142,1,7,11
1.72313E+12,-9379,-1729,5413,-1501,-449,-430,1,7,11
1.72313E+12,-9527,-2080,5473,-1459,-778,-689,1,7,11
1.72313E+12,-9319,-2059,5100,-1625,-855,-928,1,7,11
1.72313E+12,-8865,-1772,5005,-1629,-680,-1233,1,7,11
1.72313E+12,-8639,-1772,5189,-1448,-726,-1454,1,7,11
1.72313E+12,-8394,-2099,5126,-1534,-1032,-1710,1,7,11
1.72313E+12,-8183,-1924,4831,-1839,-1058,-1985,1,7,11
1.72313E+12,-8289,-1994,4831,-1812,-1047,-2210,1,7,11
1.72313E+12,-7878,-2037,4787,-1432,-1032,-2628,1,7,11
1.72313E+12,-7639,-2030,4846,-1265,-1057,-2514,1,7,11
1.72313E+12,-7350,-1988,4677,-1369,-1108,-2711,1,7,11
1.72313E+12,-7124,-2007,4336,-1005,-907,-2949,1,7,11
1.72313E+12,-7221,-2194,4313,-897,-961,-3407,1,7,11
1.72313E+12,-6986,-2580,4278,-833,-1300,-3656,1,7,11
1.72313E+12,-6535,-2641,4410,-239,-1344,-3539,1,7,11
1.72313E+12,-6314,-2618,4188,-125,-1331,-3888,1,7,11
1.72313E+12,-6044,-2267,3914,200,-991,-3877,1,7,11
1.72313E+12,-5990,-2210,3671,426,-1074,-3469,1,7,11
1.72313E+12,-5360,-2593,3310,802,-845,-3419,1,7,11
1.72313E+12,-5177,-2551,3238,672,-623,-3110,1,7,11
1.72313E+12,-4505,-2712,3384,1094,-180,-2909,1,7,11
1.72313E+12,-4421,-2803,3182,995,-287,-2538,1,7,11
1.72313E+12,-4172,-3142,2727,1294,86,-2451,1,7,11
1.72313E+12,-3730,-2981,2840,949,-116,-2631,1,7,11
1.72313E+12,-3904,-3266,2870,714,-121,-2296,1,7,11
1.72313E+12,-3540,-3502,2729,452,37,-2213,1,7,11
1.72313E+12,-3673,-3839,3157,194,-359,-2409,1,7,11
1.72313E+12,-3633,-4415,3011,277,-518,-2394,1,7,11
1.72313E+12,-3622,-4631,3053,-86,-424,-2243,1,7,11
1.72313E+12,-3620,-4573,3356,-58,-841,-2561,1,7,11
1.72313E+12,-3648,-4755,3448,-256,-648,-2604,1,7,11
1.72313E+12,-3502,-5145,3296,-415,-701,-2681,1,7,11
1.72313E+12,-3959,-5016,3544,-825,-734,-2662,1,7,11
1.72313E+12,-3775,-5304,3756,-661,-1058,-2295,1,7,11
1.72313E+12,-3912,-5921,4195,-674,-1134,-2254,1,7,11
1.72313E+12,-3930,-5962,3976,-855,-1120,-2660,1,7,11
1.72313E+12,-3801,-5778,4003,-498,-1030,-2823,1,7,11
1.72313E+12,-3984,-5789,4064,-420,-661,-2872,1,7,11
1.72313E+12,-4370,-5793,4405,-620,-820,-2508,1,7,11
1.72313E+12,-4444,-5781,4468,-557,-511,-2295,1,7,11
1.72313E+12,-4408,-5795,4240,-528,-769,-1998,1,7,11
1.72313E+12,-3996,-5800,4230,-516,-827,-1716,1,7,11
1.72313E+12,-3806,-5769,4433,-246,-893,-1525,1,7,11
1.72313E+12,-3901,-5965,4077,-251,-680,-1415,1,7,11
1.72313E+12,-3461,-5901,4206,-591,-712,-1596,1,7,11
1.72313E+12,-3444,-5607,3800,-772,-763,-1586,1,7,11
1.72313E+12,-3366,-5928,3816,-1030,-754,-1473,1,7,11
1.72313E+12,-3246,-5762,4163,-953,-760,-1920,1,7,11
1.72313E+12,-3473,-6233,4077,-1172,-755,-1777,1,7,11
1.72313E+12,-3755,-6298,4312,-1582,-759,-1754,1,7,11
1.72313E+12,-3725,-6258,4389,-1542,-940,-1784,1,7,11
1.72313E+12,-4206,-6462,4495,-1477,-971,-1499,1,7,11
1.72313E+12,-4223,-6231,4509,-1572,-1261,-1199,1,7,11
1.72313E+12,-3832,-5562,4669,-1391,-1856,-760,1,7,11
1.72313E+12,-4133,-5360,4875,-1309,-2167,-182,1,7,11
1.72313E+12,-4427,-5677,5378,-932,-2255,242,1,7,11
1.72313E+12,-4907,-5646,5590,-659,-2901,994,1,7,11
1.72313E+12,-5106,-5382,5844,-494,-3059,1949,1,7,11
1.72313E+12,-5659,-4744,6177,-710,-3531,3057,1,7,11
1.72313E+12,-6004,-4460,6056,-1632,-4371,4400,1,7,11
1.72313E+12,-6468,-3829,6718,-2439,-5234,5489,1,7,11
1.72313E+12,-6780,-3528,6944,-3520,-6476,6498,1,7,11
1.72313E+12,-6973,-3611,6621,-4549,-7610,7529,1,7,11
1.72313E+12,-7038,-3423,6434,-5542,-8947,8390,1,7,11
1.72313E+12,-6951,-3445,5917,-7005,-10141,9807,1,7,11
1.72313E+12,-6601,-3631,5437,-8258,-11369,10708,1,7,11
1.72313E+12,-6679,-3930,4972,-9198,-11912,12151,1,7,11
1.72313E+12,-6449,-4046,4620,-10576,-12826,12977,1,7,11
1.72313E+12,-6241,-4587,4467,-11547,-13369,13955,1,7,11
1.72313E+12,-5579,-5378,4216,-11933,-13698,14772,1,7,11
1.72313E+12,-5042,-5659,3723,-12539,-14293,15073,1,7,11
1.72313E+12,-5144,-5515,3725,-13370,-14793,14842,1,7,11
1.72313E+12,-4848,-5973,4153,-13546,-15482,14531,1,7,11
1.72313E+12,-4762,-6174,4043,-13908,-15578,14381,1,7,11
1.72313E+12,-4867,-6088,4446,-13493,-15796,13942,1,7,11
1.72313E+12,-4615,-6510,4335,-13355,-15815,13359,1,7,11
1.72313E+12,-4069,-6372,4493,-12538,-15916,12440,1,7,11
1.72313E+12,-3760,-6367,4551,-11727,-15234,11898,1,7,11
1.72313E+12,-3874,-6569,4788,-10897,-14621,10986,1,7,11
1.72313E+12,-3543,-6537,5006,-10056,-13365,10386,1,7,11
1.72313E+12,-3593,-6671,5062,-8617,-11847,9910,1,7,11
1.72313E+12,-3257,-6584,5748,-7631,-10026,9754,1,7,11
1.72313E+12,-3241,-6298,5539,-6536,-8295,8881,1,7,11
1.72313E+12,-3627,-6170,5594,-5910,-6662,8502,1,7,11
1.72313E+12,-4462,-5720,5986,-5007,-5135,7602,1,7,11
1.72313E+12,-4541,-5004,5870,-4512,-3923,7151,1,7,11
1.72313E+12,-5045,-4891,6264,-4393,-3180,6896,1,7,11
1.72313E+12,-5655,-4678,6119,-4185,-2505,6816,1,7,11
1.72313E+12,-5435,-4249,6270,-3903,-2486,6968,1,7,11
1.72313E+12,-4862,-4382,5825,-3586,-2861,6389,1,7,11
1.72313E+12,-4757,-4034,5630,-3053,-2719,5519,1,7,11
1.72313E+12,-4899,-4210,5532,-3096,-2921,5461,1,7,11
1.72313E+12,-5177,-4145,5579,-2933,-2468,4913,1,7,11
1.72313E+12,-5756,-4159,6014,-2553,-2424,4240,1,7,11
1.72313E+12,-5954,-4199,6216,-2658,-2129,4180,1,7,11
1.72313E+12,-5789,-4214,6134,-2416,-1888,3745,1,7,11
1.72313E+12,-5814,-4161,6512,-1942,-1624,3545,1,7,11
1.72313E+12,-6012,-3773,6465,-1584,-1268,3323,1,7,11
1.72313E+12,-5927,-3561,6239,-1016,-1174,3339,1,7,11
1.72313E+12,-5596,-3595,5946,-928,-1344,3085,1,7,11
1.72313E+12,-5553,-3261,5506,-1357,-1006,2848,1,7,11
1.72313E+12,-5551,-3231,5655,-1642,-948,2590,1,7,11
1.72313E+12,-5534,-3281,5340,-1707,-902,2335,1,7,11
1.72313E+12,-5741,-3325,5500,-1985,-1107,2081,1,7,11
1.72313E+12,-5720,-3668,5434,-2279,-1044,1829,1,7,11
1.72313E+12,-5736,-3538,5417,-2523,-729,1616,1,7,11
1.72313E+12,-5521,-3727,5456,-2928,-693,1214,1,7,11
1.72313E+12,-5543,-3840,5435,-2700,-725,1319,1,7,11
1.72313E+12,-5584,-4003,5485,-2723,-756,942,1,7,11
1.72313E+12,-5531,-4030,5424,-2850,-1117,1082,1,7,11
1.72313E+12,-5709,-3977,5012,-2686,-960,706,1,7,11
1.72313E+12,-5346,-4099,4807,-2280,-1329,865,1,7,11
1.72313E+12,-5297,-3759,4946,-2230,-1185,792,1,7,11
1.72313E+12,-5292,-3960,4917,-2422,-1573,489,1,7,11
1.72313E+12,-5272,-3946,4969,-2309,-1469,498,1,7,11
1.72313E+12,-5305,-3794,4830,-1923,-1843,796,1,7,11
1.72313E+12,-5590,-4446,5468,-2116,-1830,884,1,7,11
1.72313E+12,-5855,-4499,5623,-1856,-1892,736,1,7,11
1.72313E+12,-5827,-4736,5817,-1377,-2089,1108,1,7,11
1.72313E+12,-5917,-4709,6198,-1053,-1950,938,1,7,11
1.72313E+12,-5659,-4481,6137,-644,-2008,944,1,7,11
1.72313E+12,-5066,-4907,6701,-879,-2025,1048,1,7,11
1.72313E+12,-4838,-5135,7200,-811,-1988,483,1,7,11
1.72313E+12,-4540,-4847,7411,-222,-2047,139,1,7,11
1.72313E+12,-4285,-4547,7673,331,-2413,95,1,7,11
1.72313E+12,-4048,-4031,7672,894,-2285,-328,1,7,11
1.72313E+12,-3974,-3568,7947,932,-2298,-139,1,7,11
1.72313E+12,-4040,-3445,8036,1310,-2233,-282,1,7,11
1.72313E+12,-4385,-3090,7883,1341,-2389,-37,1,7,11
1.72313E+12,-4416,-2490,7921,999,-1974,567,1,7,11
1.72313E+12,-4411,-2230,7919,1067,-1735,701,1,7,11
1.72313E+12,-4043,-1944,7823,835,-1602,1178,1,7,11
1.72313E+12,-3978,-2130,7983,364,-1301,1609,1,7,11
1.72313E+12,-4165,-2104,7600,29,-766,1650,1,7,11
1.72313E+12,-4131,-2176,7806,-602,-499,1274,1,7,11
1.72313E+12,-4122,-2015,7768,-891,-558,1297,1,7,11
1.72313E+12,-4109,-2375,7702,-1101,-163,744,1,7,11
1.72313E+12,-4142,-2275,7416,-955,-324,451,1,7,11
1.72313E+12,-4098,-2443,7367,-985,-280,188,1,7,11
1.72313E+12,-3798,-2689,7389,-1010,11,-102,1,7,11
1.72313E+12,-3736,-3186,7700,-950,-264,-134,1,7,11
1.72313E+12,-3919,-3360,7736,-1081,-294,-426,1,7,11
1.72313E+12,-3846,-3455,7712,-659,-335,-687,1,7,11
1.72313E+12,-3504,-3249,7369,-789,-343,-1136,1,7,11
1.72313E+12,-3699,-3603,7366,-488,-287,-1003,1,7,11
1.72313E+12,-3628,-3704,7396,-414,27,-1346,1,7,11
1.72313E+12,-3290,-3531,7401,-591,85,-1187,1,7,11
1.72313E+12,-3223,-3861,7419,-249,-105,-1553,1,7,11
1.72313E+12,-3425,-3886,7684,-147,-47,-1662,1,7,11
1.72313E+12,-3378,-3896,7708,-308,265,-1512,1,7,11
1.72313E+12,-3063,-3937,7774,26,304,-1875,1,7,11
1.72313E+12,-2996,-3968,7597,-107,331,-1740,1,7,11
1.72313E+12,-2947,-3735,7950,279,369,-2141,1,7,11
1.72313E+12,-3184,-3753,8030,154,153,-2029,1,7,11
1.72313E+12,-3142,-3729,8048,535,179,-2427,1,7,11
1.72313E+12,-3094,-3950,8032,622,228,-2561,1,7,11
1.72313E+12,-2790,-3918,8010,430,549,-2673,1,7,11
1.72313E+12,-2732,-3896,7949,472,615,-2530,1,7,11
1.72313E+12,-3043,-4263,8095,191,894,-2853,1,7,11
1.72313E+12,-3487,-5405,8993,211,762,-2900,1,7,11
1.72313E+12,-3219,-5443,8407,763,394,-2952,1,7,11
1.72313E+12,-3020,-5049,7933,1313,529,-3621,1,7,11
1.72313E+12,-3087,-4521,7091,1265,202,-3937,1,7,11
1.72313E+12,-3359,-4340,6529,1315,502,-3794,1,7,11
1.72313E+12,-3763,-4550,6368,672,1004,-3554,1,7,11
1.72313E+12,-4655,-5186,6682,584,1486,-3026,1,7,11
1.72313E+12,-4959,-5252,6393,196,2094,-2654,1,7,11
1.72313E+12,-4950,-5657,6427,176,2362,-2141,1,7,11
1.72313E+12,-4873,-5693,6170,182,2585,-1839,1,7,11
1.72313E+12,-4878,-5367,5946,231,2493,-1480,1,7,11
1.72313E+12,-4986,-5463,5511,630,2857,-1438,1,7,11
1.72313E+12,-5130,-5018,5661,838,2921,-1594,1,7,11
1.72313E+12,-5062,-4864,5650,1103,2698,-1155,1,7,11
1.72313E+12,-5453,-4954,5317,1399,2858,-1130,1,7,11
1.72313E+12,-5468,-4723,5430,1700,2536,-720,1,7,11
1.72313E+12,-5468,-4673,5382,2126,2487,-864,1,7,11
1.72313E+12,-5252,-4676,5378,1958,2679,-840,1,7,11
1.72313E+12,-5311,-4669,5388,1971,2609,-896,1,7,11
1.72313E+12,-5325,-4335,5074,1972,2199,-728,1,7,11
1.72313E+12,-5367,-4247,5239,1927,2381,-1068,1,7,11
1.72313E+12,-5697,-4469,5156,1785,2343,-1100,1,7,11
1.72313E+12,-5563,-4476,4831,1710,2334,-1069,1,7,11
1.72313E+12,-5915,-4479,4743,1465,2306,-719,1,7,11
1.72313E+12,-6010,-4281,4970,910,2027,-848,1,7,11
1.72313E+12,-5844,-4663,4747,871,1975,-464,1,7,11
1.72313E+12,-5887,-4487,4769,410,2114,-391,1,7,11
1.72313E+12,-6178,-4513,4772,536,1728,-626,1,7,11
1.72313E+12,-6247,-4501,4787,224,1863,-621,1,7,11
1.72313E+12,-6022,-4716,4860,228,1477,-605,1,7,11
1.72313E+12,-6060,-4655,5246,583,1609,-578,1,7,11
1.72313E+12,-6083,-4299,5430,509,1197,-542,1,7,11
1.72313E+12,-6139,-4076,5340,1028,1009,-246,1,7,11
1.72313E+12,-6027,-3881,5687,1092,837,-278,1,7,11
1.72313E+12,-5927,-3562,5679,1336,520,-125,1,7,11
1.72313E+12,-5326,-3945,5509,1305,292,120,1,7,11
1.72313E+12,-5005,-3801,5586,1349,-92,-302,1,7,11
1.72313E+12,-5165,-4124,5970,1214,-37,-551,1,7,11
1.72313E+12,-5159,-3806,5781,1411,309,-465,1,7,11
1.72313E+12,-5248,-3717,5869,1847,196,-795,1,7,11
1.72313E+12,-5103,-3866,6247,1765,588,-511,1,7,11
1.72313E+12,-5483,-3492,6409,1931,440,-443,1,7,11
1.72313E+12,-5633,-3608,6511,2363,463,-592,1,7,11
1.72313E+12,-5516,-3433,6513,2193,634,-190,1,7,11
1.72313E+12,-5617,-3011,6489,2375,249,-274,1,7,11
1.72313E+12,-5993,-3044,6302,2119,137,-92,1,7,11
1.72313E+12,-6003,-3014,6524,1669,-37,332,1,7,11
1.72313E+12,-6008,-3402,6293,1441,100,517,1,7,11
1.72313E+12,-5975,-3246,6300,1559,-282,401,1,7,11
1.72313E+12,-5902,-3305,6306,1250,-146,504,1,7,11
1.72313E+12,-5525,-3615,6369,1263,-244,848,1,7,11
1.72313E+12,-5367,-3642,6688,1627,-606,849,1,7,11
1.72313E+12,-5469,-3636,6702,1513,-435,478,1,7,11
1.72313E+12,-5109,-3587,6698,1899,-491,545,1,7,11
1.72313E+12,-5008,-3270,6670,1727,-772,346,1,7,11
1.72313E+12,-5234,-3229,6682,1750,-471,-108,1,7,11
1.72313E+12,-5206,-3414,6685,1755,-432,6,1,7,11
1.72313E+12,-5179,-3367,6710,1713,-395,-344,1,7,11
1.72313E+12,-5133,-3068,6750,1882,-387,-170,1,7,11
1.72313E+12,-4846,-3026,6772,1495,-395,-534,1,7,11
1.72313E+12,-4828,-2994,6539,1587,-410,-612,1,7,11
1.72313E+12,-4795,-3029,6588,1166,-417,-393,1,7,11
1.72313E+12,-4987,-3067,6631,1301,-405,-408,1,7,11
1.72313E+12,-4956,-3376,6970,973,-617,-429,1,7,11
1.72313E+12,-4884,-3365,7002,1004,-586,-430,1,7,11
1.72313E+12,-4566,-3329,7022,1313,-518,-450,1,7,11
1.72313E+12,-4543,-2971,7032,1400,-175,-477,1,7,11
1.72313E+12,-4540,-3087,7017,1217,-328,-488,1,7,11
1.72313E+12,-4521,-2720,6999,1218,25,-477,1,7,11
1.72313E+12,-4517,-2942,6813,1152,119,-469,1,7,11
1.72313E+12,-4553,-2904,6906,1399,-71,-459,1,7,11
1.72313E+12,-4865,-2826,7273,1163,-23,-430,1,7,11
1.72313E+12,-4946,-2438,7145,1233,265,-585,1,7,11
1.72313E+12,-4985,-2282,7478,1548,-9,-161,1,7,11
1.72313E+12,-4977,-2333,7321,1559,-50,-123,1,7,11
1.72313E+12,-4920,-1971,7348,1231,65,332,1,7,11
1.72313E+12,-4562,-2147,7356,1383,-323,526,1,7,11
1.72313E+12,-4506,-2135,7419,972,-154,446,1,7,11
1.72313E+12,-4503,-2076,7774,1134,-201,882,1,7,11
1.72313E+12,-4501,-1697,7576,1077,-201,1070,1,7,11
1.72313E+12,-4532,-1802,7649,1028,-140,997,1,7,11
1.72313E+12,-4548,-1417,7679,729,-323,1171,1,7,11
1.72313E+12,-4547,-1591,7666,652,7,1547,1,7,11
1.72313E+12,-4569,-1539,7652,790,81,1594,1,7,11
1.72313E+12,-4593,-1236,7596,390,-116,1576,1,7,11
1.72313E+12,-4879,-1200,7774,229,-71,1275,1,7,11
1.72313E+12,-4933,-1202,7682,322,-33,1232,1,7,11
1.72313E+12,-4976,-1252,7329,-102,-6,1212,1,7,11
1.72313E+12,-4743,-1603,7521,-257,269,1202,1,7,11
1.72313E+12,-4799,-1448,7499,-341,305,1187,1,7,11
1.72313E+12,-4833,-1506,7487,-370,327,1168,1,7,11
1.72313E+12,-5134,-1819,7513,-362,343,1393,1,7,11
1.72313E+12,-5172,-1883,7532,-306,340,1365,1,7,11
1.72313E+12,-5198,-1907,7532,52,332,1313,1,7,11
1.72313E+12,-5243,-1888,7532,-83,328,1003,1,7,11
1.72313E+12,-5024,-1855,7537,270,319,961,1,7,11
1.72313E+12,-5051,-1812,7545,335,304,898,1,7,11
1.72313E+12,-5092,-1803,7312,129,285,1089,1,7,11
1.72313E+12,-5099,-1795,7540,221,-62,1064,1,7,11
1.72313E+12,-5020,-1806,7467,239,115,1037,1,7,11
1.72313E+12,-5226,-1846,7437,199,76,667,1,7,11
1.72313E+12,-5182,-1866,7157,165,61,771,1,7,11
1.72313E+12,-5188,-1901,7432,148,82,590,1,7,11
1.72313E+12,-5186,-1888,7440,190,107,175,1,7,11
1.72313E+12,-5179,-1842,7149,243,-109,-2,1,7,11
1.72313E+12,-5243,-1798,7140,542,-47,76,1,7,11
1.72313E+12,-4999,-1493,7147,564,265,-315,1,7,11
1.72313E+12,-5228,-1472,7429,587,272,-162,1,7,11
1.72313E+12,-5193,-1448,7463,617,248,-581,1,7,11
1.72313E+12,-5145,-1658,7426,489,-29,-454,1,7,11
1.72313E+12,-5131,-1592,7159,803,-8,-855,1,7,11
1.72313E+12,-5159,-1261,7435,868,278,-703,1,7,11
1.72313E+12,-5143,-1380,7476,704,293,-724,1,7,11
1.72313E+12,-5142,-985,7323,1027,298,-708,1,7,11
1.72313E+12,-4851,-1129,7717,1060,-4,-662,1,7,11
1.72313E+12,-4797,-1039,7602,1081,-92,-890,1,7,11
1.72313E+12,-4738,-694,7993,1095,44,-849,1,7,11
1.72313E+12,-4914,-817,7832,1104,-345,-502,1,7,11
1.72313E+12,-4579,-429,7898,1073,-196,-408,1,7,11
1.72313E+12,-4533,-556,8197,734,-519,-569,1,7,11
1.72313E+12,-4493,-204,8209,846,-562,-190,1,7,11
1.72313E+12,-4693,-140,7931,639,-557,-328,1,7,11
1.72313E+12,-4683,-360,7912,133,-240,18,1,7,11
1.72313E+12,-4685,-144,7923,119,-167,-123,1,7,11
1.72313E+12,-4705,-217,8216,-360,-363,-10,1,7,11
1.72313E+12,-4706,-541,8213,-256,-356,328,1,7,11
1.72313E+12,-4703,-620,7879,-388,-372,361,1,7,11
1.72313E+12,-4724,-455,8025,-783,-131,374,1,7,11
1.72313E+12,-4526,-797,7638,-657,-381,132,1,7,11
1.72313E+12,-4904,-890,7555,-760,-351,216,1,7,11
1.72313E+12,-4782,-755,7792,-1090,-352,615,1,7,11
1.72313E+12,-5121,-1119,7785,-1092,-154,509,1,7,11
1.72313E+12,-5142,-946,7743,-1042,-235,865,1,7,11
1.72313E+12,-5158,-994,7685,-701,-521,878,1,7,11
1.72313E+12,-5043,-953,7337,-866,-192,792,1,7,11
1.72313E+12,-5380,-924,7317,-842,1,389,1,7,11
1.72313E+12,-5390,-930,7305,-648,79,525,1,7,11
1.72313E+12,-5394,-967,7539,-736,112,330,1,7,11
1.72313E+12,-5109,-1307,7512,-1116,126,97,1,7,11
1.72313E+12,-5409,-1374,7520,-972,-121,-138,1,7,11
1.72313E+12,-5408,-1187,7529,-1338,86,-580,1,7,11
1.72313E+12,-5399,-1252,7527,-1169,16,-484,1,7,11
1.72313E+12,-5107,-1579,7493,-1244,-346,-859,1,7,11
1.72313E+12,-5065,-1661,7455,-1578,-188,-692,1,7,11
1.72313E+12,-5023,-1512,7455,-1627,-514,-745,1,7,11
1.72313E+12,-5230,-1838,7472,-1605,-564,-1053,1,7,11
1.72313E+12,-5152,-1891,7475,-1548,-602,-1128,1,7,11
1.72313E+12,-4850,-1914,7513,-1211,-624,-992,1,7,11
1.72313E+12,-4777,-1730,7369,-1384,-423,-1375,1,7,11
1.72313E+12,-4951,-2063,7745,-951,-785,-1540,1,7,11
1.72313E+12,-4884,-2071,7772,-687,-694,-1493,1,7,11
1.72313E+12,-4608,-1729,7754,-438,-1114,-1710,1,7,11
1.72313E+12,-4569,-1671,7802,-536,-1021,-2061,1,7,11
1.72313E+12,-4689,-1665,7622,-177,-1182,-2075,1,7,11
1.72313E+12,-4474,-1913,7950,-348,-1559,-2077,1,7,11
1.72313E+12,-4214,-1905,8019,-327,-1605,-2091,1,7,11
1.72313E+12,-3744,-1912,7916,-363,-1558,-2088,1,7,11
1.72313E+12,-3855,-1695,8107,-167,-1203,-1779,1,7,11
1.72313E+12,-3514,-1696,8538,-200,-1352,-1884,1,7,11
1.72313E+12,-3692,-1695,8385,-249,-998,-1654,1,7,11
1.72313E+12,-3635,-1681,8440,-567,-906,-1381,1,7,11
1.72313E+12,-3314,-1723,8723,-418,-1068,-1110,1,7,11
1.72313E+12,-3259,-1746,8435,-502,-727,-641,1,7,11
1.72313E+12,-3227,-1764,8378,-847,-876,-485,1,7,11
1.72313E+12,-3246,-1787,8568,-664,-500,-605,1,7,11
1.72313E+12,-3247,-2099,8484,-741,-395,-524,1,7,11
1.72313E+12,-3586,-2169,8164,-1048,-526,-246,1,7,11
1.72313E+12,-3663,-1946,8315,-1085,-157,-217,1,7,11
1.72313E+12,-3508,-1982,8260,-905,-288,-155,1,7,11
1.72313E+12,-3536,-2023,8198,-969,37,-323,1,7,11
1.72313E+12,-3554,-2353,7879,-1294,75,-301,1,7,11
1.72313E+12,-3582,-2250,8013,-1363,74,-317,1,7,11
1.72313E+12,-3916,-2606,7978,-1232,80,-130,1,7,11
1.72313E+12,-3960,-2440,7960,-1268,77,-153,1,7,11
1.72313E+12,-3737,-2539,7967,-1255,89,-155,1,7,11
1.72313E+12,-3781,-2907,8008,-1187,108,-370,1,7,11
1.72313E+12,-3788,-2763,8028,-1323,107,-308,1,7,11
1.72313E+12,-3787,-3100,8052,-917,103,-262,1,7,11
1.72313E+12,-3771,-3140,7813,-751,96,16,1,7,11
1.72313E+12,-3713,-3120,8026,-843,85,19,1,7,11
1.72313E+12,-3915,-2816,7970,-452,101,-257,1,7,11
1.72313E+12,-3874,-2739,7611,-602,-120,-285,1,7,11
1.72313E+12,-3881,-2698,7807,-537,-64,-309,1,7,11
1.72313E+12,-3949,-2901,7778,-513,274,-299,1,7,11
1.72313E+12,-3768,-2846,7735,-237,148,13,1,7,11
1.72313E+12,-4106,-2840,7718,-531,230,93,1,7,11
1.72313E+12,-4169,-2870,7721,-575,557,-97,1,7,11
1.72313E+12,-3975,-2943,7752,-619,605,-49,1,7,11
1.72313E+12,-3981,-2749,7754,-607,610,-15,1,7,11
1.72313E+12,-3976,-2810,7778,-550,595,-27,1,7,11
1.72313E+12,-4217,-3115,7553,-201,553,-98,1,7,11
1.72313E+12,-4212,-3135,7578,-325,246,42,1,7,11
1.72313E+12,-4199,-3126,7584,83,192,-341,1,7,11
1.72313E+12,-3970,-3106,7615,-19,154,-194,1,7,11
1.72313E+12,-3974,-2800,7616,134,367,-251,1,7,11
1.72313E+12,-3993,-2702,7605,523,347,-517,1,7,11
1.72313E+12,-4018,-2880,7608,588,340,-228,1,7,11
1.72313E+12,-4019,-2560,7629,616,326,-168,1,7,11
1.72313E+12,-4007,-2522,7636,608,319,-384,1,7,11
1.72313E+12,-3970,-2498,7623,573,311,-365,1,7,11
1.72313E+12,-4211,-2484,7627,518,309,-134,1,7,11
1.72313E+12,-3974,-2463,7635,220,303,-158,1,7,11
1.72313E+12,-3995,-2434,7650,177,284,-159,1,7,11
1.72313E+12,-4006,-2671,7659,135,-8,-141,1,7,11
1.72313E+12,-4001,-2649,7660,347,-64,-131,1,7,11
1.72313E+12,-3991,-2663,7944,280,-123,-376,1,7,11
1.72313E+12,-3991,-2677,7979,-29,73,-384,1,7,11
1.72313E+12,-3980,-2433,8000,-66,10,-383,1,7,11
1.72313E+12,-4193,-2448,8000,-97,-292,-365,1,7,11
1.72313E+12,-4144,-2477,8009,115,-310,-375,1,7,11
1.72313E+12,-4113,-2504,8013,98,-312,-143,1,7,11
1.72313E+12,-3827,-2508,7999,95,-300,-180,1,7,11
1.72313E+12,-3827,-2509,7985,92,-283,-213,1,7,11
1.72313E+12,-3799,-2524,7961,83,-272,-226,1,7,11
1.72313E+12,-3776,-2540,7951,74,4,-515,1,7,11
1.72313E+12,-3767,-2536,7679,79,18,-525,1,7,11
1.72313E+12,-3751,-2544,7672,98,29,-256,1,7,11
1.72313E+12,-3950,-2837,7939,113,35,-213,1,7,11
1.72313E+12,-3884,-2901,7970,126,20,-181,1,7,11
1.72313E+12,-3578,-2934,7987,-68,3,-230,1,7,11
1.72313E+12,-3544,-2943,8014,-15,34,-533,1,7,11
1.72313E+12,-3536,-2934,8041,310,104,-575,1,7,11
1.72313E+12,-3537,-2907,7820,149,-56,-583,1,7,11
1.72313E+12,-3543,-2861,7829,248,310,-588,1,7,11
1.72313E+12,-3554,-2539,8062,584,154,-598,1,7,11
1.72313E+12,-3563,-2476,8036,608,242,-596,1,7,11
1.72313E+12,-3573,-2676,8013,586,566,-591,1,7,11
1.72313E+12,-3882,-2647,8052,539,624,-597,1,7,11
1.72313E+12,-3947,-2602,7840,254,389,-582,1,7,11
1.72313E+12,-3736,-2274,7861,228,632,-551,1,7,11
1.72313E+12,-3769,-2207,7881,197,604,-253,1,7,11
1.72313E+12,-3757,-2419,7880,156,558,-221,1,7,11
1.72313E+12,-3742,-2387,7893,334,519,-221,1,7,11
1.72313E+12,-3738,-2360,7923,-5,225,-228,1,7,11
1.72313E+12,-3728,-2323,8192,-98,190,-237,1,7,11
1.72313E+12,-3749,-2037,8215,52,157,-242,1,7,11
1.72313E+12,-3769,-2009,8215,-303,375,-221,1,7,11
1.72313E+12,-3828,-1961,8218,-139,342,-179,1,7,11
1.72313E+12,-4154,-2172,7935,-228,301,-347,1,7,11
1.72313E+12,-4218,-2138,7872,-582,256,26,1,7,11
1.72313E+12,-4017,-2165,7812,-462,-48,-90,1,7,11
1.72313E+12,-4083,-1988,8040,-869,-101,306,1,7,11
1.72313E+12,-4387,-2343,7993,-735,86,170,1,7,11
1.72313E+12,-4427,-2425,7660,-1100,23,522,1,7,11
1.72313E+12,-4471,-2265,7597,-947,-281,610,1,7,11
1.72313E+12,-4259,-2642,7576,-1287,-317,423,1,7,11
1.72313E+12,-4298,-2511,7578,-1321,-358,482,1,7,11
1.72313E+12,-4308,-2871,7595,-1307,-160,789,1,7,11
1.72313E+12,-4259,-2725,7582,-1287,-241,790,1,7,11
1.72313E+12,-4436,-2806,7766,-1011,-577,461,1,7,11
1.72313E+12,-4083,-3104,7384,-1288,-626,605,1,7,11
1.72313E+12,-4004,-3152,7518,-1360,-627,235,1,7,11
1.72313E+12,-4219,-2989,7443,-1192,-583,382,1,7,11
1.72313E+12,-4212,-3366,7112,-1256,-251,298,1,7,11
1.72313E+12,-4205,-3226,7291,-1542,-166,-17,1,7,11
1.72313E+12,-4188,-3600,7263,-1553,-334,-53,1,7,11
1.72313E+12,-4196,-3490,7132,-1268,0,-83,1,7,11
1.72313E+12,-4197,-3890,7323,-1380,13,119,1,7,11
1.72313E+12,-4169,-3925,7700,-1103,-306,-264,1,7,11
1.72313E+12,-3838,-3857,7681,-787,-137,-168,1,7,11
1.72313E+12,-3717,-3682,7346,-544,-208,-615,1,7,11
1.72313E+12,-3961,-3293,7686,-338,-246,-679,1,7,11
1.72313E+12,-3942,-3219,7566,67,-518,-1113,1,7,11
1.72313E+12,-3870,-3425,7659,-18,-567,-1302,1,7,11
1.72313E+12,-3572,-3340,8029,134,-623,-1275,1,7,11
1.72313E+12,-3578,-3157,7839,527,-428,-1510,1,7,11
1.72313E+12,-3851,-2747,8192,571,-495,-1918,1,7,11
1.72313E+12,-3519,-2930,8306,550,-871,-1750,1,7,11
1.72313E+12,-3614,-2891,8135,233,-1047,-2133,1,7,11
1.72313E+12,-3432,-2552,8474,155,-989,-2046,1,7,11
1.72313E+12,-3031,-2524,8341,310,-1170,-2226,1,7,11
1.72313E+12,-3135,-2501,8412,-44,-1642,-2450,1,7,11
1.72313E+12,-2734,-2670,8444,71,-1855,-2718,1,7,11
1.72313E+12,-2716,-2281,8381,-145,-1746,-3162,1,7,11
1.72313E+12,-2889,-2245,8338,-445,-2063,-3128,1,7,11
1.72313E+12,-2551,-2263,8527,-1028,-1791,-2934,1,7,11
1.72313E+12,-2493,-2588,8177,-1371,-1731,-2620,1,7,11
1.72313E+12,-2501,-2534,8153,-1467,-1880,-1944,1,7,11
1.72313E+12,-2441,-2868,8308,-1714,-1526,-1465,1,7,11
1.72313E+12,-2836,-3003,8476,-2173,-1604,-1100,1,7,11
1.72313E+12,-2489,-3067,8292,-2142,-1254,-587,1,7,11
1.72313E+12,-2536,-3316,7920,-2168,-1312,-36,1,7,11
1.72313E+12,-2455,-3712,7959,-2117,-930,623,1,7,11
1.72313E+12,-2446,-3880,7585,-1947,-768,686,1,7,11
1.72313E+12,-2491,-3785,7552,-2026,-876,1131,1,7,11
1.72313E+12,-2705,-4197,7574,-2340,-463,1280,1,7,11
1.72313E+12,-2810,-3971,7751,-1978,-568,1178,1,7,11
1.72313E+12,-3158,-3991,7688,-2164,-225,1279,1,7,11
1.72313E+12,-2986,-4019,7404,-2096,-171,1622,1,7,11
1.72313E+12,-3029,-4058,7349,-1756,-150,1436,1,7,11
1.72313E+12,-2971,-4361,7479,-1699,-152,1485,1,7,11
1.72313E+12,-2815,-4416,7049,-1687,-164,1442,1,7,11
1.72313E+12,-2891,-4292,6896,-1722,-174,1211,1,7,11
1.72313E+12,-2871,-4703,6895,-1767,-159,999,1,7,11
1.72313E+12,-2916,-4520,6904,-1697,-136,1041,1,7,11
1.72313E+12,-2728,-4560,6910,-1833,-345,645,1,7,11
1.72313E+12,-2719,-4563,6899,-1425,-305,801,1,7,11
1.72313E+12,-2758,-4909,7065,-1276,26,468,1,7,11
1.72313E+12,-2816,-4766,7543,-988,88,396,1,7,11
1.72313E+12,-3088,-4803,7795,-843,-104,587,1,7,11
1.72313E+12,-2785,-4859,8031,-349,-52,536,1,7,11
1.72313E+12,-2917,-4834,7911,199,-5,163,1,7,11
1.72313E+12,-2823,-4926,8214,704,318,-51,1,7,11
1.72313E+12,-2528,-4624,8197,1344,171,-298,1,7,11
1.72313E+12,-2515,-4356,7933,1575,573,-216,1,7,11
1.72313E+12,-2475,-4129,7879,1465,491,-592,1,7,11
1.72313E+12,-2637,-3945,8034,1531,703,-410,1,7,11
1.72313E+12,-2562,-3557,7995,1503,960,-453,1,7,11
1.72313E+12,-2242,-3495,7980,1437,1210,-501,1,7,11
1.72313E+12,-2267,-3695,8053,1590,1444,-849,1,7,11
1.72313E+12,-2600,-3639,7921,1245,1893,-677,1,7,11
1.72313E+12,-2675,-3318,8278,1211,2055,-748,1,7,11
1.72313E+12,-2520,-3456,8095,1219,1925,-1060,1,7,11
1.72313E+12,-2863,-3032,8165,1236,2008,-1124,1,7,11
1.72313E+12,-2901,-3117,8502,1217,2022,-976,1,7,11
1.72313E+12,-2700,-2762,8570,1157,1963,-1406,1,7,11
1.72313E+12,-3076,-2727,8436,1319,2082,-1616,1,7,11
1.72313E+12,-3127,-2910,8426,963,1832,-1807,1,7,11
1.72313E+12,-3120,-2525,8525,1036,1264,-1698,1,7,11
1.72313E+12,-3082,-2461,8120,448,980,-1764,1,7,11
1.72313E+12,-3077,-2528,8097,294,763,-1770,1,7,11
1.72313E+12,-2948,-3132,8545,-336,872,-1681,1,7,11
1.72313E+12,-3025,-3335,8329,-516,441,-1851,1,7,11
1.72313E+12,-3001,-3425,8186,-408,568,-1460,1,7,11
1.72313E+12,-3168,-3281,8275,-865,247,-1568,1,7,11
1.72313E+12,-3087,-3588,8041,-1046,204,-1237,1,7,11
1.72313E+12,-3098,-3637,7727,-981,220,-1397,1,7,11
1.72313E+12,-3163,-3669,7481,-1160,547,-982,1,7,11
1.72313E+12,-3010,-3697,7253,-1592,445,-746,1,7,11
1.72313E+12,-3344,-3594,6838,-1805,678,-459,1,7,11
1.72313E+12,-3432,-3785,6970,-1773,952,-188,1,7,11
1.72313E+12,-3265,-4223,6629,-1985,1239,56,1,7,11
1.72313E+12,-3313,-4364,6775,-2425,1505,112,1,7,11
1.72313E+12,-3585,-4255,6682,-2594,1837,93,1,7,11
1.72313E+12,-3641,-4637,6695,-2547,2022,7,1,7,11
1.72313E+12,-3700,-4505,6756,-2558,2408,-136,1,7,11
1.72313E+12,-3689,-4930,6591,-2448,2210,-603,1,7,11
1.72313E+12,-3667,-4835,6614,-2257,2180,-689,1,7,11
1.72313E+12,-3526,-5205,6937,-2305,2389,-1333,1,7,11
1.72313E+12,-3911,-4998,6650,-2054,2306,-1414,1,7,11
1.72313E+12,-3775,-5175,6531,-1823,1969,-1686,1,7,11
1.72313E+12,-4141,-5170,6747,-1440,2161,-2067,1,7,11
1.72313E+12,-3986,-5236,6748,-1601,2085,-2120,1,7,11
1.72313E+12,-4022,-5019,6707,-1225,1719,-2145,1,7,11
1.72313E+12,-4013,-5053,6665,-1367,1866,-2158,1,7,11
1.72313E+12,-3977,-5073,6333,-1010,1498,-1926,1,7,11
1.72313E+12,-3976,-5391,6511,-949,1650,-1961,1,7,11
1.72313E+12,-3974,-5419,6474,-910,1558,-1992,1,7,11
1.72313E+12,-4191,-5442,6437,-1125,1197,-2019,1,7,11
1.72313E+12,-4163,-5488,6131,-1073,1328,-2042,1,7,11
1.72313E+12,-4102,-5261,6073,-752,939,-2317,1,7,11
1.72313E+12,-3782,-5278,6238,-701,1069,-2331,1,7,11
1.72313E+12,-3945,-5290,5858,-666,718,-2327,1,7,11
1.72313E+12,-3580,-5315,5997,-672,659,-2313,1,7,11
1.72313E+12,-3497,-5354,5922,-714,875,-2313,1,7,11
1.72313E+12,-3472,-5671,5591,-1028,817,-2037,1,7,11
1.72313E+12,-3671,-5696,5513,-1105,485,-1990,1,7,11
1.72313E+12,-3630,-5740,5688,-949,403,-2168,1,7,11
1.72313E+12,-3288,-5560,5361,-1311,579,-2074,1,7,11
1.72313E+12,-3396,-5981,5337,-1175,224,-1721,1,7,11
1.72313E+12,-3014,-5824,5300,-1243,366,-1724,1,7,11
1.72313E+12,-3141,-6198,5496,-1553,-4,-1746,1,7,11
1.72313E+12,-2788,-6049,5434,-1596,-78,-2063,1,7,11
1.72313E+12,-2705,-6062,5343,-1610,111,-2152,1,7,11
1.72313E+12,-2941,-6245,5031,-1608,92,-2160,1,7,11
1.72313E+12,-2852,-6520,5005,-1636,-105,-1727,1,7,11
1.72313E+12,-2643,-6520,5028,-1643,-43,-1853,1,7,11
1.72313E+12,-2229,-6808,5072,-1649,273,-1833,1,7,11
1.72313E+12,-2337,-7249,5118,-1623,299,-1912,1,7,11
1.72313E+12,-2030,-7133,5097,-1552,294,-2101,1,7,11
1.72313E+12,-1971,-7147,5081,-1198,281,-2166,1,7,11
1.72313E+12,-2161,-7150,5044,-1344,275,-2036,1,7,11
1.72313E+12,-2170,-7514,5076,-987,310,-2364,1,7,11
1.72313E+12,-1929,-7330,5433,-1128,377,-2350,1,7,11
1.72313E+12,-2134,-7703,5496,-694,172,-2007,1,7,11
1.72313E+12,-1791,-7784,5277,-476,191,-2116,1,7,11
1.72313E+12,-1712,-7556,5281,-521,173,-1775,1,7,11
1.72313E+12,-1671,-7748,5317,-333,150,-1672,1,7,11
1.72313E+12,-1898,-7719,5641,99,362,-1520,1,7,11
1.72313E+12,-1846,-7698,5742,-90,278,-1586,1,7,11
1.72313E+12,-1472,-7380,5512,-38,-92,-1170,1,7,11
1.72313E+12,-1616,-7367,5580,-40,73,-966,1,7,11
1.72313E+12,-1241,-7341,5621,-52,-267,-762,1,7,11
1.72313E+12,-1175,-7318,5916,-87,-316,-817,1,7,11
1.72313E+12,-1365,-7317,5986,127,-351,-608,1,7,11
1.72313E+12,-1337,-7497,5963,123,-363,-193,1,7,11
1.72313E+12,-1347,-7063,5626,99,-345,-278,1,7,11
1.72313E+12,-1174,-7173,5563,12,-280,-40,1,7,11
1.72313E+12,-1274,-6827,5546,-331,42,513,1,7,11
1.72313E+12,-1634,-7019,5732,-132,88,810,1,7,11
1.72313E+12,-1473,-6994,5310,-175,116,1088,1,7,11
1.72313E+12,-1666,-6834,5487,-225,-108,1194,1,7,11
1.72313E+12,-2290,-6886,5216,564,38,2156,1,7,11
1.72313E+12,-2583,-7022,5144,707,-1,1938,1,7,11
1.72313E+12,-2646,-6941,5125,973,29,1996,1,7,11
1.72313E+12,-2503,-6650,5183,1203,118,2336,1,7,11
1.72313E+12,-2888,-6586,4993,1604,-4,2179,1,7,11
1.72313E+12,-2714,-6739,4996,2139,171,2564,1,7,11
1.72313E+12,-2779,-6661,5001,2365,639,2440,1,7,11
1.72313E+12,-3119,-6348,5032,2275,844,2552,1,7,11
1.72313E+12,-3181,-6288,5058,2638,740,2864,1,7,11
1.72313E+12,-2978,-6498,5104,2674,1074,2856,1,7,11
1.72313E+12,-3006,-6441,5394,2668,1072,2516,1,7,11
1.72313E+12,-3043,-6119,5416,2629,1030,2639,1,7,11
1.72313E+12,-3070,-6066,5422,2292,711,2219,1,7,11
1.72313E+12,-3351,-6017,5441,2186,654,2038,1,7,11
1.72313E+12,-3370,-6205,5488,2349,871,2111,1,7,11
1.72313E+12,-3405,-6151,5323,2033,849,1682,1,7,11
1.72313E+12,-3202,-5854,5667,2041,835,1520,1,7,11
1.72313E+12,-3255,-5815,5720,2354,829,1626,1,7,11
1.72313E+12,-3588,-5971,5741,2179,844,1232,1,7,11
1.72313E+12,-3685,-5575,5758,2254,894,1162,1,7,11
1.72313E+12,-3541,-5654,5560,2572,716,1168,1,7,11
1.72313E+12,-3935,-5487,5980,2638,1082,1258,1,7,11
1.72313E+12,-3838,-5110,6251,2493,925,1662,1,7,11
1.72313E+12,-3974,-5203,6461,2943,946,1801,1,7,11
1.72313E+12,-4354,-4984,6315,3117,910,1912,1,7,11
1.72313E+12,-4449,-4666,6327,3174,1084,1724,1,7,11
1.72313E+12,-4309,-4075,6368,2814,755,1764,1,7,11
1.72313E+12,-4706,-3743,6713,2882,694,2052,1,7,11
1.72313E+12,-4582,-3695,6596,2666,887,2099,1,7,11
1.72313E+12,-4939,-3445,6995,2182,789,1922,1,7,11
1.72313E+12,-4748,-2998,6832,1939,629,1993,1,7,11
1.72313E+12,-4752,-3111,6852,1916,156,2027,1,7,11
1.72313E+12,-4788,-2739,6849,1580,-55,2026,1,7,11
1.72313E+12,-5123,-2901,6821,948,23,2308,1,7,11
1.72313E+12,-5208,-2845,6831,829,-365,2387,1,7,11
1.72313E+12,-5000,-2824,6857,233,-224,2264,1,7,11
1.72313E+12,-5018,-2857,6885,-42,-600,2673,1,7,11
1.72313E+12,-4999,-2882,6847,16,-481,2537,1,7,11
1.72313E+12,-4994,-2912,6795,-158,-848,2900,1,7,11
1.72313E+12,-5237,-2729,6988,-548,-663,2765,1,7,11
1.72313E+12,-5226,-2781,6978,-617,-703,3127,1,7,11
1.72313E+12,-5179,-3088,7012,-394,-710,2976,1,7,11
1.72313E+12,-5180,-3098,6809,-624,-712,2997,1,7,11
1.72313E+12,-5212,-3091,6905,-556,-706,3174,1,7,11
1.72313E+12,-5209,-3087,7247,-207,-718,3066,1,7,11
1.72313E+12,-5159,-3079,7071,-377,-766,2895,1,7,11
1.72313E+12,-4820,-2788,7133,-315,-1129,2659,1,7,11
1.72313E+12,-4959,-2756,7147,-280,-958,2389,1,7,11
1.72313E+12,-4589,-2742,7155,-274,-1283,2085,1,7,11
1.72313E+12,-4507,-2719,7141,-294,-1324,1509,1,7,11
1.72313E+12,-4701,-2934,7096,-306,-1299,1223,1,7,11
1.72313E+12,-4677,-2857,7276,-303,-933,979,1,7,11
1.72313E+12,-4655,-2519,7199,-309,-760,1059,1,7,11
1.72313E+12,-4660,-2505,7180,-338,-822,665,1,7,11
1.72313E+12,-4707,-2540,7214,-363,-409,789,1,7,11
1.72313E+12,-4533,-2847,7294,-359,-557,405,1,7,11
1.72313E+12,-4921,-2552,7100,-292,-233,563,1,7,11
1.72313E+12,-4786,-2436,7147,51,-186,561,1,7,11
1.72313E+12,-5135,-2284,7485,-115,-156,385,1,7,11
1.72313E+12,-5148,-2392,7309,-48,-177,775,1,7,11
1.72313E+12,-4804,-2043,7412,-30,-248,641,1,7,11
1.72313E+12,-4947,-1991,7560,-33,-601,698,1,7,11
1.72313E+12,-4528,-2105,7984,-5,-796,648,1,7,11
1.72313E+12,-4699,-1714,8061,303,-671,838,1,7,11
1.72313E+12,-4614,-1840,7855,328,-1058,775,1,7,11
1.72313E+12,-4229,-1508,7866,320,-948,462,1,7,11
1.72313E+12,-4367,-1491,7879,259,-1321,407,1,7,11
1.72313E+12,-4003,-1536,7920,-92,-1404,630,1,7,11
1.72313E+12,-4166,-1847,8234,91,-1199,627,1,7,11
1.72313E+12,-3795,-1903,8245,64,-1225,411,1,7,11
1.72313E+12,-3953,-1688,8222,63,-1207,482,1,7,11
1.72313E+12,-3897,-1710,8193,62,-1393,842,1,7,11
1.72313E+12,-3876,-1742,8195,53,-1023,724,1,7,11
1.72313E+12,-3904,-1755,8233,62,-1144,1131,1,7,11
1.72313E+12,-3967,-1724,8288,100,-739,1291,1,7,11
1.72313E+12,-3787,-1670,8317,-99,-853,1198,1,7,11
1.72313E+12,-4129,-1866,8287,-53,-459,1604,1,7,11
1.72313E+12,-4211,-1826,8213,-76,-593,1460,1,7,11
1.72313E+12,-4027,-1813,7845,87,-219,1525,1,7,11
1.72313E+12,-4354,-1820,8001,-324,-354,1530,1,7,11
1.72313E+12,-4415,-1857,7650,-233,14,1495,1,7,11
1.72313E+12,-4451,-1673,7592,-395,108,1409,1,7,11
1.72313E+12,-4241,-1736,7801,-781,-79,1262,1,7,11
1.72313E+12,-4292,-2071,7799,-878,-30,1340,1,7,11
1.72313E+12,-4333,-2156,7562,-665,-11,897,1,7,11
1.72313E+12,-4332,-2013,7574,-665,-31,693,1,7,11
1.72313E+12,-4311,-2393,7579,-886,-73,464,1,7,11
1.72313E+12,-4266,-2232,7800,-830,-128,212,1,7,11
1.72313E+12,-4467,-2576,7786,-786,76,-44,1,7,11
1.72313E+12,-4428,-2645,7800,-463,32,-279,1,7,11
1.72313E+12,-4388,-2669,7801,-607,1,-235,1,7,11
1.72313E+12,-4382,-2653,7803,-213,0,-403,1,7,11
1.72313E+12,-4377,-2616,7795,-333,30,-770,1,7,11
1.72313E+12,-4412,-2564,7564,47,90,-844,1,7,11
1.72313E+12,-4435,-2218,7627,-87,-105,-883,1,7,11
1.72313E+12,-4443,-2365,7993,288,-64,-649,1,7,11
1.72313E+12,-4420,-2035,8011,138,-61,-665,1,7,11
1.72313E+12,-4382,-1980,8021,196,-96,-720,1,7,11
1.72313E+12,-4395,-2152,8009,192,125,-1052,1,7,11
1.72313E+12,-4431,-2080,7987,145,89,-1100,1,7,11
1.72313E+12,-4440,-2069,7962,314,86,-765,1,7,11
1.72313E+12,-4414,-2119,7662,-53,110,-663,1,7,11
1.72313E+12,-4401,-1945,7618,98,-103,-815,1,7,11
1.72313E+12,-4427,-2313,7632,-296,-50,-436,1,7,11
1.72313E+12,-4446,-2179,7672,-338,-12,-551,1,7,11
1.72313E+12,-4452,-2257,7948,-312,271,-145,1,7,11
1.72313E+12,-4414,-2298,7942,13,283,25,1,7,11
1.72313E+12,-4390,-2581,7967,109,286,-53,1,7,11
1.72313E+12,-4365,-2595,8018,-10,282,157,1,7,11
1.72313E+12,-4067,-2295,8026,170,270,389,1,7,11
1.72313E+12,-4018,-2178,7964,597,279,645,1,7,11
1.72313E+12,-3969,-2036,7620,422,330,930,1,7,11
1.72313E+12,-4180,-2116,7582,400,147,1222,1,7,11
1.72313E+12,-4132,-1999,7580,532,240,1468,1,7,11
1.72313E+12,-4158,-1862,7936,371,629,1892,1,7,11
1.72313E+12,-4109,-1467,7848,-2,802,1760,1,7,11
1.72313E+12,-4257,-1571,8250,-33,689,2114,1,7,11
1.72313E+12,-4616,-1182,8304,-9,762,2171,1,7,11
1.72313E+12,-4695,-1308,8264,273,734,2125,1,7,11
1.72313E+12,-4517,-956,7932,-69,651,1781,1,7,11
1.72313E+12,-4564,-934,7823,-263,502,1914,1,7,11
1.72313E+12,-4577,-995,7970,-534,567,1515,1,7,11
1.72313E+12,-4585,-1375,7604,-832,366,1640,1,7,11
1.72313E+12,-4572,-1561,7765,-1105,-84,1278,1,7,11
1.72313E+12,-4574,-1519,7718,-1295,15,1210,1,7,11
1.72313E+12,-4586,-1739,7702,-1354,-355,1187,1,7,11
1.72313E+12,-4578,-1936,7406,-1021,-177,1198,1,7,11
1.72313E+12,-4556,-2378,7376,-1101,-195,1234,1,7,11
1.72313E+12,-4548,-2255,7331,-844,-161,1267,1,7,11
1.72313E+12,-4561,-2599,7312,-541,-338,1567,1,7,11
1.72313E+12,-4600,-2626,7379,55,34,1608,1,7,11
1.72313E+12,-4934,-2567,7767,203,-104,1645,1,7,11
1.72313E+12,-4932,-2194,7606,649,-37,1658,1,7,11
1.72313E+12,-4881,-2009,7624,1318,260,1569,1,7,11
1.72313E+12,-4573,-1786,7573,1628,303,1357,1,7,11
1.72313E+12,-4559,-1516,7772,1803,375,1049,1,7,11
1.72313E+12,-4564,-1259,7720,1848,221,460,1,7,11
1.72313E+12,-4600,-1285,7696,1819,608,137,1,7,11
1.72313E+12,-4602,-1091,7420,1506,481,111,1,7,11
1.72313E+12,-4876,-727,7422,1440,865,-152,1,7,11
1.72313E+12,-4896,-895,7411,1651,701,-404,1,7,11
1.72313E+12,-4939,-809,7408,1611,1031,-885,1,7,11
1.72313E+12,-4970,-449,7414,1563,1072,-1051,1,7,11
1.72313E+12,-4763,-615,7781,1252,1098,-1145,1,7,11
1.72313E+12,-4807,-534,7665,1255,1059,-907,1,7,11
1.72313E+12,-4766,-151,7867,1559,852,-1084,1,7,11
1.72313E+12,-4924,-367,7915,1541,625,-766,1,7,11
1.72313E+12,-4568,-315,7886,1195,375,-746,1,7,11
1.72313E+12,-4499,-284,7864,986,-97,-713,1,7,11
1.72313E+12,-4735,-282,7883,718,-273,-876,1,7,11
1.72313E+12,-4732,-289,7897,457,-150,-437,1,7,11
1.72313E+12,-4721,-310,7878,219,-221,-163,1,7,11
1.72313E+12,-4725,-350,7862,265,-222,-103,1,7,11
1.72313E+12,-4724,-141,7822,99,-179,216,1,7,11
1.72313E+12,-4487,-186,8026,-291,-361,496,1,7,11
1.72313E+12,-4529,-230,7966,-142,-284,744,1,7,11
1.72313E+12,-4564,-547,7617,-244,32,944,1,7,11
1.72313E+12,-4895,-628,7797,-607,91,1347,1,7,11
1.72313E+12,-4968,-419,7711,-444,-122,1203,1,7,11
1.72313E+12,-4802,-443,7363,-772,-83,1264,1,7,11
1.72313E+12,-5135,-472,7522,-849,-62,1560,1,7,11
1.72313E+12,-5186,-786,7435,-683,-49,1570,1,7,11
1.72313E+12,-5205,-859,7119,-1029,-36,1541,1,7,11
1.72313E+12,-5248,-712,7147,-1075,-3,1195,1,7,11
1.72313E+12,-5023,-1066,7479,-1042,292,1380,1,7,11
1.72313E+12,-5059,-899,7314,-676,294,1285,1,7,11
1.72313E+12,-5050,-976,7355,-505,267,906,1,7,11
1.72313E+12,-5022,-1285,7361,-575,-20,743,1,7,11
1.72313E+12,-4994,-1281,7351,-373,-34,804,1,7,11
1.72313E+12,-5000,-1003,7362,82,-18,597,1,7,11
1.72313E+12,-5011,-958,7357,304,264,154,1,7,11
1.72313E+12,-5003,-1149,7319,538,295,-30,1,7,11
1.72313E+12,-5247,-1078,7541,503,336,57,1,7,11
1.72313E+12,-5004,-761,7542,726,380,-365,1,7,11
1.72313E+12,-5024,-686,7532,949,155,-538,1,7,11
1.72313E+12,-5055,-867,7536,1168,188,-436,1,7,11
1.72313E+12,-5053,-823,7306,1656,219,-812,1,7,11
1.72313E+12,-5031,-804,7366,1672,526,-679,1,7,11
1.72313E+12,-4998,-774,7404,1999,586,-1094,1,7,11
1.72313E+12,-5214,-452,7397,2591,414,-1288,1,7,11
1.72313E+12,-5205,-610,7362,2909,793,-1231,1,7,11
1.72313E+12,-5205,-195,7529,3188,682,-1414,1,7,11
1.72313E+12,-5227,-280,7461,3381,1111,-1801,1,7,11
1.72313E+12,-5242,104,7439,3242,1012,-1872,1,7,11
1.72313E+12,-5214,-35,7144,3324,1371,-1902,1,7,11
1.72313E+12,-5194,328,7120,3598,1167,-1910,1,7,11
1.72313E+12,-5202,382,7157,3310,1153,-1884,1,7,11
1.72313E+12,-5198,181,7161,3255,1314,-1846,1,7,11
1.72313E+12,-5194,220,7432,3417,930,-1518,1,7,11
1.72313E+12,-5159,223,7472,3036,1029,-1417,1,7,11
1.72313E+12,-4859,152,7385,3166,871,-1490,1,7,11
1.72313E+12,-4797,148,7704,2800,607,-1370,1,7,11
1.72313E+12,-4755,184,7710,2750,200,-995,1,7,11
1.72313E+12,-4965,521,7379,2691,350,-1107,1,7,11
1.72313E+12,-4935,627,7521,2843,297,-678,1,7,11
1.72313E+12,-4930,467,7157,2680,298,-474,1,7,11
1.72313E+12,-4970,824,7084,2249,347,-243,1,7,11
1.72313E+12,-4745,653,7258,2349,149,11,1,7,11
1.72313E+12,-4812,750,7178,1934,230,266,1,7,11
1.72313E+12,-4859,1068,6865,1751,587,531,1,7,11
1.72313E+12,-5156,1098,6834,1859,467,777,1,7,11
1.72313E+12,-5240,918,6787,1520,642,712,1,7,11
1.72313E+12,-5418,1336,6970,1476,1099,898,1,7,11
1.72313E+12,-5349,1563,6610,1426,1310,1369,1,7,11
1.72313E+12,-5578,1811,6528,1604,1279,1615,1,7,11
1.72313E+12,-5763,1766,6728,1231,1477,1870,1,7,11
1.72313E+12,-6179,2175,6687,1343,1876,2056,1,7,11
1.72313E+12,-6092,2026,6681,941,1695,2130,1,7,11
1.72313E+12,-6458,2362,6671,1062,1675,2117,1,7,11
1.72313E+12,-6288,2378,6709,692,1859,1767,1,7,11
1.72313E+12,-6278,2342,6726,644,1460,1881,1,7,11
1.72313E+12,-6445,2003,6721,648,1546,1658,1,7,11
1.72313E+12,-6076,2151,6701,695,1383,1378,1,7,11
1.72313E+12,-6202,1764,6686,1026,986,1058,1,7,11
1.72313E+12,-5839,1869,6679,1107,1133,440,1,7,11
1.72313E+12,-5806,1524,6671,959,1088,317,1,7,11
1.72313E+12,-5850,1847,6344,1360,1107,-277,1,7,11
1.72313E+12,-6181,1753,6487,1229,926,-244,1,7,11
1.72313E+12,-6260,2161,6423,1568,1011,-585,1,7,11
1.72313E+12,-6058,1996,6410,1625,1300,-608,1,7,11
1.72313E+12,-6120,2038,6413,1428,1015,-620,1,7,11
1.72313E+12,-6143,2333,6097,1473,920,-626,1,7,11
1.72313E+12,-6403,2388,6233,1468,1088,-605,1,7,11
1.72313E+12,-6405,2202,6147,1411,1030,-539,1,7,11
1.72313E+12,-6131,2240,5863,1588,741,-159,1,7,11
1.72313E+12,-6072,2225,6167,1227,684,-287,1,7,11
1.72313E+12,-6221,2406,6156,1406,836,51,1,7,11
1.72313E+12,-5841,2327,6304,1402,420,48,1,7,11
1.72313E+12,-5918,2363,6342,1216,210,-285,1,7,11
1.72313E+12,-5613,2225,6305,1276,266,-139,1,7,11
1.72313E+12,-5547,2623,6471,1542,113,-215,1,7,11
1.72313E+12,-5750,2497,6133,1213,17,-209,1,7,11
1.72313E+12,-5735,2842,6060,1321,-278,-364,1,7,11
1.72313E+12,-5740,2896,6020,1131,-266,-115,1,7,11
1.72313E+12,-5509,2928,6238,684,37,-11,1,7,11
1.72313E+12,-5572,2935,6189,770,93,217,1,7,11
1.72313E+12,-5932,2913,5886,619,-117,445,1,7,11
1.72313E+12,-5985,2894,5817,241,-81,662,1,7,11
1.72313E+12,-5993,2853,5996,168,-61,922,1,7,11
1.72313E+12,-5975,2837,5923,332,-40,1009,1,7,11
1.72313E+12,-5970,2886,5898,-16,264,1302,1,7,11
1.72313E+12,-6003,2759,5895,-94,196,1317,1,7,11
1.72313E+12,-5814,3184,5628,-120,616,1328,1,7,11
1.72313E+12,-5882,3070,5611,-117,779,1343,1,7,11
1.72313E+12,-6201,3416,5616,99,648,1308,1,7,11
1.72313E+12,-6243,3443,5904,38,706,954,1,7,11
1.72313E+12,-6028,3449,5923,-270,692,1024,1,7,11
1.72313E+12,-6091,3446,5941,-311,879,786,1,7,11
1.72313E+12,-6412,3212,5933,-340,776,523,1,7,11
1.72313E+12,-6471,3246,5912,-360,409,306,1,7,11
1.72313E+12,-6487,3281,5621,-381,557,-108,1,7,11
1.72313E+12,-6468,3285,5630,-141,203,56,1,7,11
1.72313E+12,-6136,3260,5615,-130,349,-271,1,7,11
1.72313E+12,-6066,3243,5602,-360,-6,-348,1,7,11
1.72313E+12,-6271,3230,5589,-336,-93,-142,1,7,11
1.72313E+12,-6200,3231,5537,-340,82,-161,1,7,11
1.72313E+12,-6149,3226,5738,-135,33,-162,1,7,11
1.72313E+12,-5883,3212,5701,-226,22,-373,1,7,11
1.72313E+12,-6178,3454,5714,-589,46,-275,1,7,11
1.72313E+12,-6228,3452,5728,-431,86,-126,1,7,11
1.72313E+12,-6262,3218,5736,-502,-111,305,1,7,11
1.72313E+12,-6028,3250,5729,-815,-37,211,1,7,11
1.72313E+12,-6039,3258,5750,-882,286,588,1,7,11
1.72313E+12,-6066,3252,5533,-703,304,631,1,7,11
1.72313E+12,-6122,3258,5566,-1061,259,603,1,7,11
1.72313E+12,-6469,3308,5589,-946,-98,530,1,7,11
1.72313E+12,-6316,3648,5585,-1399,10,213,1,7,11
1.72313E+12,-6672,3457,5606,-1660,-175,182,1,7,11
1.72313E+12,-6694,3707,5613,-1734,-429,173,1,7,11
1.72313E+12,-6720,3686,5904,-2384,-728,134,1,7,11
1.72313E+12,-6782,3684,5931,-2835,-1345,367,1,7,11
1.72313E+12,-6782,3616,5940,-3371,-1499,171,1,7,11
1.72313E+12,-6667,3402,5977,-3720,-2153,562,1,7,11
1.72313E+12,-6404,2756,5810,-4306,-2244,449,1,7,11
1.72313E+12,-5831,2294,6204,-4765,-2511,770,1,7,11
1.72313E+12,-5551,2144,6059,-5036,-2944,458,1,7,11
1.72313E+12,-5369,1845,6418,-5401,-2754,618,1,7,11
1.72313E+12,-5251,1413,6504,-5098,-2729,550,1,7,11
1.72313E+12,-5393,1259,6363,-5212,-2894,538,1,7,11
1.72313E+12,-5031,1340,6538,-4980,-2519,528,1,7,11
1.72313E+12,-5220,941,7001,-4635,-2657,219,1,7,11
1.72313E+12,-5200,1136,7221,-4203,-2300,373,1,7,11
1.72313E+12,-5230,972,7156,-3698,-2211,259,1,7,11
1.72313E+12,-5244,1161,7524,-3197,-2381,-75,1,7,11
1.72313E+12,-5194,1590,7356,-2521,-2048,-124,1,7,11
1.72313E+12,-4803,1421,7684,-2242,-1990,40,1,7,11
1.72313E+12,-4604,1440,7721,-2375,-1953,-162,1,7,11
1.72313E+12,-4674,1659,7741,-2377,-2168,-466,1,7,11
1.72313E+12,-4303,1564,7756,-2196,-2111,-1049,1,7,11
1.72313E+12,-4234,1402,7759,-2304,-2066,-1344,1,7,11
1.72313E+12,-4478,1292,7554,-2444,-1774,-1566,1,7,11
1.72313E+12,-4421,931,7613,-2833,-1787,-1452,1,7,11
1.72313E+12,-4388,1091,7956,-2938,-2077,-1444,1,7,11
1.72313E+12,-4057,704,8051,-2742,-2117,-1605,1,7,11
1.72313E+12,-4194,791,7906,-2790,-2146,-1221,1,7,11
1.72313E+12,-3768,623,8292,-2806,-2140,-1385,1,7,11
1.72313E+12,-3873,214,8482,-2786,-2100,-1352,1,7,11
1.72313E+12,-3473,308,8738,-2900,-2057,-1358,1,7,11
1.72313E+12,-3645,-45,8680,-2454,-1766,-1163,1,7,11
1.72313E+12,-3302,-3,8676,-2255,-1760,-1256,1,7,11
1.72313E+12,-3253,298,8739,-2427,-1686,-1537,1,7,11
1.72313E+12,-3254,-14,8512,-2277,-1503,-1214,1,7,11
1.72313E+12,-3631,126,8153,-2475,-1218,-1354,1,7,11
1.72313E+12,-3529,-262,8112,-2876,-924,-930,1,7,11
1.72313E+12,-3913,-348,8084,-2690,-665,-735,1,7,11
1.72313E+12,-3756,-197,8261,-2715,-474,-782,1,7,11
1.72313E+12,-3828,-570,7874,-2740,-589,-636,1,7,11
1.72313E+12,-4185,-470,8010,-2783,-199,-551,1,7,11
1.72313E+12,-3992,-890,7660,-3103,-345,-244,1,7,11
1.72313E+12,-4050,-1090,7639,-3159,-258,-228,1,7,11
1.72313E+12,-4093,-1311,7659,-3167,51,-236,1,7,11
1.72313E+12,-4363,-1261,7962,-3126,82,-256,1,7,11
1.72313E+12,-4375,-1816,7839,-2710,92,-535,1,7,11
1.72313E+12,-4083,-1695,7904,-2530,73,-586,1,7,11
1.72313E+12,-4023,-1751,7895,-2579,50,-421,1,7,11
1.72313E+12,-4224,-1788,7875,-2411,38,-773,1,7,11
1.72313E+12,-4194,-2089,7862,-2010,41,-855,1,7,11
1.72313E+12,-4164,-2119,7811,-2129,39,-659,1,7,11
1.72313E+12,-4113,-2158,8006,-1774,53,-706,1,7,11
1.72313E+12,-3798,-1941,7996,-1685,96,-759,1,7,11
1.72313E+12,-3739,-1957,8019,-1849,-108,-1084,1,7,11
1.72313E+12,-3714,-1964,7817,-1490,-66,-897,1,7,11
1.72313E+12,-3941,-1975,7851,-1640,-46,-962,1,7,11
1.72313E+12,-3935,-1982,7850,-1544,-32,-1017,1,7,11
1.72313E+12,-3927,-1984,7826,-1219,-3,-1292,1,7,11
1.72313E+12,-3903,-1988,7814,-1164,294,-1016,1,7,11
1.72313E+12,-3849,-2014,7831,-1361,342,-970,1,7,11
1.72313E+12,-3530,-2315,7898,-1286,130,-925,1,7,11
1.72313E+12,-3473,-2366,8269,-911,143,-1138,1,7,11
1.72313E+12,-3657,-2401,8128,-747,363,-1100,1,7,11
1.72313E+12,-3588,-2201,8142,-858,292,-1046,1,7,11
1.72313E+12,-3250,-2252,8131,-494,-45,-729,1,7,11
1.72313E+12,-3289,-2564,8471,-443,-109,-885,1,7,11
1.72313E+12,-3645,-2272,8568,-615,102,-508,1,7,11
1.72313E+12,-3693,-2180,8382,-526,30,-581,1,7,11
1.72313E+12,-3689,-2345,8429,-171,-307,-368,1,7,11
1.72313E+12,-3673,-2009,8717,-325,-133,78,1,7,11
1.72313E+12,-3657,-1948,8713,22,-222,-30,1,7,11
1.72313E+12,-3705,-2113,8724,96,-551,341,1,7,11
1.72313E+12,-3558,-1735,8751,-84,-622,215,1,7,11
1.72313E+12,-3904,-1871,8721,265,-467,395,1,7,11
1.72313E+12,-3938,-1803,8566,358,-835,852,1,7,11
1.72313E+12,-3904,-1532,8260,357,-652,1045,1,7,11
1.72313E+12,-3932,-1521,8010,-53,-865,917,1,7,11
1.72313E+12,-3795,-1820,7992,-296,-486,1305,1,7,11
1.72313E+12,-4160,-1909,7832,-203,-385,1183,1,7,11
1.72313E+12,-3977,-1740,7860,-233,-588,1276,1,7,11
1.72313E+12,-3999,-2060,8012,-225,-514,1575,1,7,11
1.72313E+12,-4209,-2119,7582,-536,-132,1542,1,7,11
1.72313E+12,-4116,-2024,7783,-427,41,1160,1,7,11
1.72313E+12,-3778,-2253,7576,-814,-54,898,1,7,11
1.72313E+12,-3714,-2684,7564,-843,310,780,1,7,11
1.72313E+12,-3968,-2525,7753,-813,153,379,1,7,11
1.72313E+12,-3749,-2826,7681,-493,513,52,1,7,11
1.72313E+12,-3755,-2850,7408,-388,587,-174,1,7,11
1.72313E+12,-3750,-2891,7764,-224,620,-580,1,7,11
1.72313E+12,-3958,-2909,7661,40,560,-442,1,7,11
1.72313E+12,-3872,-2885,7813,365,165,-814,1,7,11
1.72313E+12,-3487,-2822,7935,420,-35,-685,1,7,11
1.72313E+12,-3320,-2460,8269,670,7,-1098,1,7,11
1.72313E+12,-3220,-2571,8134,1097,-150,-1007,1,7,11
1.72313E+12,-3445,-2020,8533,967,-210,-1348,1,7,11
1.72313E+12,-3419,-1765,8422,1365,-169,-1266,1,7,11
1.72313E+12,-3071,-1833,8594,1257,-318,-1121,1,7,11
1.72313E+12,-3195,-1427,8995,1659,60,-1034,1,7,11
1.72313E+12,-3097,-1276,8846,1518,-77,-1055,1,7,11
1.72313E+12,-2813,-1390,8938,1808,-45,-1122,1,7,11
1.72313E+12,-3101,-1008,9268,1479,-58,-897,1,7,11
1.72313E+12,-3168,-1110,9269,1219,-106,-1120,1,7,11
1.72313E+12,-2980,-737,8955,922,85,-716,1,7,11
1.72313E+12,-3040,-677,8867,810,42,-468,1,7,11
1.72313E+12,-3345,-686,9040,167,20,-149,1,7,11
1.72313E+12,-3398,-1033,8991,71,19,-58,1,7,11
1.72313E+12,-3208,-1148,8994,-182,32,538,1,7,11
1.72313E+12,-3259,-965,8686,-570,35,843,1,7,11
1.72313E+12,-3251,-1012,8764,-406,35,1068,1,7,11
1.72313E+12,-3272,-1327,8495,-787,102,923,1,7,11
1.72313E+12,-3629,-1157,8279,-700,257,947,1,7,11
1.72313E+12,-3540,-1553,8192,-1127,204,941,1,7,11
1.72313E+12,-3729,-1453,8192,-953,398,914,1,7,11
1.72313E+12,-4117,-1865,8278,-936,798,1099,1,7,11
1.72313E+12,-4140,-1728,8316,-1066,847,670,1,7,11
1.72313E+12,-3796,-2083,8259,-661,808,613,1,7,11
1.72313E+12,-3941,-1937,8192,-829,478,-77,1,7,11
1.72313E+12,-3567,-2352,7915,-787,388,-548,1,7,11
1.72313E+12,-3472,-2271,8195,-481,565,-767,1,7,11
1.72313E+12,-3626,-2605,7900,-622,238,-1208,1,7,11
1.72313E+12,-3265,-2592,7814,-240,226,-1829,1,7,11
1.72313E+12,-3231,-2275,7819,-359,544,-2081,1,7,11
1.72313E+12,-3276,-2215,7900,69,632,-1938,1,7,11
1.72313E+12,-3317,-2383,7900,269,437,-1936,1,7,11
1.72313E+12,-3645,-2318,7910,141,509,-2107,1,7,11
1.72313E+12,-3696,-2025,8203,207,826,-1706,1,7,11
1.72313E+12,-3475,-2022,8275,246,852,-1810,1,7,11
1.72313E+12,-3476,-2033,8302,538,824,-1424,1,7,11
1.72313E+12,-3524,-2016,8282,565,798,-1589,1,7,11
1.72313E+12,-3568,-1972,8253,567,793,-1231,1,7,11
1.72313E+12,-3874,-1951,8297,577,819,-1339,1,7,11
1.72313E+12,-3875,-1953,8118,393,830,-909,1,7,11
1.72313E+12,-3843,-1949,8190,782,820,-760,1,7,11
1.72313E+12,-3545,-2172,8449,671,795,-641,1,7,11
1.72313E+12,-3501,-2117,8154,760,507,-810,1,7,11
1.72313E+12,-3457,-1781,8094,754,500,-495,1,7,11
1.72313E+12,-3463,-1696,8080,661,799,-445,1,7,11
1.72313E+12,-3493,-1841,8078,802,866,-626,1,7,11
1.72313E+12,-3548,-1490,8147,427,701,-518,1,7,11
1.72313E+12,-3877,-1413,8487,607,1027,-152,1,7,11
1.72313E+12,-3916,-1596,8549,561,1046,-328,1,7,11
1.72313E+12,-3713,-1547,8347,245,1024,-284,1,7,11
1.72313E+12,-3761,-1254,8335,158,704,-278,1,7,11
1.72313E+12,-3798,-1212,8529,263,887,-295,1,7,11
1.72313E+12,-3819,-1193,8453,64,846,-314,1,7,11
1.72313E+12,-4099,-1211,8113,-140,834,-351,1,7,11
1.72313E+12,-3824,-1243,8247,-548,809,-138,1,7,11
1.72313E+12,-3803,-1600,7927,-457,788,-188,1,7,11
1.72313E+12,-3808,-1817,7834,-883,778,-238,1,7,11
1.72313E+12,-4131,-2059,8027,-743,782,-569,1,7,11
1.72313E+12,-3999,-1954,7937,-1033,793,-627,1,7,11
1.72313E+12,-4366,-2329,7567,-752,803,-605,1,7,11
1.72313E+12,-4409,-2291,7706,-721,803,-522,1,7,11
1.72313E+12,-4441,-2673,7374,-679,821,-197,1,7,11
1.72313E+12,-4259,-2493,7371,-863,855,-140,1,7,11
1.72313E+12,-4306,-2505,7412,-635,889,-272,1,7,11
1.72313E+12,-4323,-2489,7759,-142,881,-126,1,7,11
1.72313E+12,-4324,-2682,7602,-98,850,274,1,7,11
1.72313E+12,-4308,-2265,7619,207,794,154,1,7,11
1.72313E+12,-4258,-2330,7588,408,476,528,1,7,11
1.72313E+12,-4462,-2159,7559,469,411,603,1,7,11
1.72313E+12,-4241,-1724,7572,437,624,392,1,7,11
1.72313E+12,-4312,-1809,7611,584,595,471,1,7,11
1.72313E+12,-4677,-1653,7951,192,597,833,1,7,11
1.72313E+12,-4512,-1256,8037,315,600,700,1,7,11
1.72313E+12,-4582,-1403,7889,-66,592,1070,1,7,11
1.72313E+12,-4910,-1006,8254,89,560,1125,1,7,11
1.72313E+12,-4989,-1107,8127,-269,229,1147,1,7,11
1.72313E+12,-4747,-712,8456,-384,354,1130,1,7,11
1.72313E+12,-4964,-882,8189,-533,-63,1061,1,7,11
1.72313E+12,-4899,-809,8082,-465,49,688,1,7,11
1.72313E+12,-4586,-774,8210,-724,-311,837,1,7,11
1.72313E+12,-4554,-820,7840,-1020,-137,770,1,7,11
1.72313E+12,-4556,-661,7979,-1572,-222,494,1,7,11
1.72313E+12,-4580,-1079,7623,-1896,-571,787,1,7,11
1.72313E+12,-4599,-1304,7800,-1961,-411,875,1,7,11
1.72313E+12,-4592,-1560,7705,-2222,-769,739,1,7,11
1.72313E+12,-4586,-1515,7304,-2668,-859,1137,1,7,11
1.72313E+12,-4925,-1692,7136,-2558,-652,1338,1,7,11
1.72313E+12,-4848,-2146,7078,-2719,-705,1644,1,7,11
1.72313E+12,-5234,-2192,7500,-3105,-1095,2057,1,7,11
1.72313E+12,-5174,-2527,7756,-2815,-1366,2206,1,7,11
1.72313E+12,-4602,-3079,7639,-2544,-1434,2488,1,7,11
1.72313E+12,-4442,-3192,7567,-2341,-1899,2820,1,7,11
1.72313E+12,-4113,-3108,7408,-1904,-1899,2479,1,7,11
1.72313E+12,-3947,-2924,7546,-1609,-1463,2570,1,7,11
1.72313E+12,-3936,-2485,7532,-1222,-1184,2408,1,7,11
1.72313E+12,-3781,-2578,7355,-1165,-1139,2037,1,7,11
1.72313E+12,-4184,-2192,7802,-1383,-848,1976,1,7,11
1.72313E+12,-4432,-2344,7568,-1292,-585,2154,1,7,11
1.72313E+12,-4288,-1979,7734,-927,-355,2071,1,7,11
1.72313E+12,-4351,-1970,7705,-1145,114,1705,1,7,11
1.72313E+12,-4352,-2339,7558,-914,302,1535,1,7,11
1.72313E+12,-4339,-2249,7672,-1098,163,1256,1,7,11
1.72313E+12,-4257,-2575,7611,-838,136,897,1,7,11
1.72313E+12,-4439,-2600,7579,-398,381,479,1,7,11
1.72313E+12,-4400,-2573,7614,-380,383,277,1,7,11
1.72313E+12,-4407,-2191,7653,167,128,-221,1,7,11
1.72313E+12,-4480,-1946,7665,431,146,-666,1,7,11
1.72313E+12,-4308,-1906,7938,871,188,-983,1,7,11
1.72313E+12,-4628,-1642,8024,699,249,-1401,1,7,11
1.72313E+12,-4633,-1208,8199,718,547,-1176,1,7,11
1.72313E+12,-4302,-1404,8173,720,540,-1162,1,7,11
1.72313E+12,-4450,-1182,8391,731,211,-1164,1,7,11
1.72313E+12,-4005,-1204,8725,722,323,-1233,1,7,11
1.72313E+12,-3806,-1243,8770,863,-66,-1604,1,7,11
1.72313E+12,-3898,-1583,8601,412,77,-1452,1,7,11
1.72313E+12,-3492,-1661,8628,207,-277,-1803,1,7,11
1.72313E+12,-3640,-1449,8786,259,-346,-1858,1,7,11
1.72313E+12,-3630,-1510,8329,42,-355,-1818,1,7,11
1.72313E+12,-3691,-1842,8318,-200,-314,-1654,1,7,11
1.72313E+12,-3555,-1726,7839,-467,34,-1363,1,7,11
1.72313E+12,-3968,-1936,8021,-694,-103,-701,1,7,11
1.72313E+12,-4128,-2380,7977,-763,-24,-239,1,7,11
1.72313E+12,-3978,-2296,7566,-709,267,-8,1,7,11
1.72313E+12,-4062,-2458,7387,-876,332,479,1,7,11
1.72313E+12,-4412,-2845,7313,-492,191,917,1,7,11
1.72313E+12,-4475,-2916,7344,-538,571,1276,1,7,11
1.72313E+12,-4282,-2928,7689,10,416,1528,1,7,11
1.72313E+12,-4340,-2853,7729,357,467,1916,1,7,11
1.72313E+12,-4638,-2462,7716,428,488,1687,1,7,11
1.72313E+12,-4621,-2571,7381,655,501,1866,1,7,11
1.72313E+12,-4327,-2204,7525,707,786,1661,1,7,11
1.72313E+12,-4326,-2374,7151,856,842,1312,1,7,11
1.72313E+12,-4336,-2040,7183,616,689,841,1,7,11
1.72313E+12,-4347,-2019,6643,-20,1127,304,1,7,11
1.72313E+12,-4634,-2410,6763,-227,1383,-241,1,7,11
1.72313E+12,-4736,-2683,6652,-806,1647,-745,1,7,11
1.72313E+12,-4975,-2778,7055,-512,1793,-1174,1,7,11
1.72313E+12,-5129,-3089,7434,-353,1465,-1872,1,7,11
1.72313E+12,-5015,-2942,7161,232,1597,-1746,1,7,11
1.72313E+12,-5382,-2648,7087,995,1230,-1744,1,7,11
1.72313E+12,-5407,-2321,7040,1609,1394,-1858,1,7,11
1.72313E+12,-5198,-1724,7488,1849,972,-1571,1,7,11
1.72313E+12,-4782,-1883,7802,1722,1071,-1223,1,7,11
1.72313E+12,-4912,-1513,7839,2170,828,-1246,1,7,11
1.72313E+12,-4534,-1584,8250,2329,531,-1567,1,7,11
1.72313E+12,-4658,-1405,8115,2325,-15,-1598,1,7,11
1.72313E+12,-4240,-1016,8464,1933,-286,-1600,1,7,11
1.72313E+12,-4367,-1145,8491,1680,-246,-1602,1,7,11
1.72313E+12,-4038,-1047,8484,1587,-635,-1272,1,7,11
1.72313E+12,-4017,-743,8158,934,-431,-1347,1,7,11
1.72313E+12,-4012,-736,8260,768,-435,-1077,1,7,11
1.72313E+12,-4022,-1059,8054,281,-387,-464,1,7,11
1.72313E+12,-4355,-943,7947,-236,-531,-307,1,7,11
1.72313E+12,-4470,-1379,7982,-651,-138,134,1,7,11
1.72313E+12,-4321,-1551,8050,-1125,-271,814,1,7,11
1.72313E+12,-4670,-1639,7996,-1149,68,908,1,7,11
1.72313E+12,-4522,-1651,7781,-1117,-94,1165,1,7,11
1.72313E+12,-4961,-1589,7353,-1129,330,1610,1,7,11
1.72313E+12,-5169,-1571,7494,-921,525,1509,1,7,11
1.72313E+12,-5052,-1607,7477,-979,435,1839,1,7,11
1.72313E+12,-5107,-1480,7520,-1018,496,1515,1,7,11
1.72313E+12,-5396,-1802,7299,-997,446,1261,1,7,11
1.72313E+12,-5418,-1908,7307,-964,589,901,1,7,11
1.72313E+12,-5438,-1758,7302,-922,183,508,1,7,11
1.72313E+12,-5382,-2077,7504,-1131,-2,134,1,7,11
1.72313E+12,-5055,-1941,7462,-1120,98,74,1,7,11
1.72313E+12,-5172,-2366,7445,-1084,-285,-168,1,7,11
1.72313E+12,-4986,-2267,7447,-736,-148,-628,1,7,11
1.72313E+12,-4514,-2643,7165,-880,-541,-818,1,7,11
1.72313E+12,-4640,-2493,7441,-784,-402,-751,1,7,11
1.72313E+12,-4615,-2507,7482,-400,-508,-1111,1,7,11
1.72313E+12,-4642,-2673,7524,-518,-843,-1081,1,7,11
1.72313E+12,-4663,-2215,7330,-139,-882,-660,1,7,11
1.72313E+12,-4623,-2322,7771,-314,-888,-616,1,7,11
1.72313E+12,-4277,-2161,7999,98,-881,-304,1,7,11
1.72313E+12,-4442,-1677,7893,298,-867,-51,1,7,11
1.72313E+12,-4383,-1662,8247,151,-830,171,1,7,11
1.72313E+12,-4036,-1229,8067,307,-817,604,1,7,11
1.72313E+12,-4183,-1398,8118,41,-851,426,1,7,11
1.72313E+12,-3837,-1372,8135,-589,-657,440,1,7,11
1.72313E+12,-3784,-1384,8105,-756,-731,440,1,7,11
1.72313E+12,-4106,-1167,8078,-1180,-1056,500,1,7,11
1.72313E+12,-4189,-1240,8293,-1830,-1145,683,1,7,11
1.72313E+12,-4020,-1595,8253,-2151,-959,974,1,7,11
1.72313E+12,-4066,-1455,7933,-2362,-989,1597,1,7,11
1.72313E+12,-4366,-1851,7852,-2196,-964,1752,1,7,11
1.72313E+12,-4382,-1794,8038,-2407,-1146,2420,1,7,11
1.72313E+12,-4399,-2147,7676,-1994,-757,2518,1,7,11
1.72313E+12,-4448,-1941,7593,-1791,-821,2780,1,7,11
1.72313E+12,-4281,-1950,7567,-1815,-588,3197,1,7,11
1.72313E+12,-4626,-1924,7584,-1582,-346,2989,1,7,11
1.72313E+12,-4728,-2112,7618,-1377,119,3110,1,7,11
1.72313E+12,-4568,-1768,7678,-965,297,2845,1,7,11
1.72313E+12,-4896,-1707,8003,-1130,198,2209,1,7,11
1.72313E+12,-4951,-1913,8029,-1076,228,1745,1,7,11
1.72313E+12,-4943,-1878,7967,-1035,205,1255,1,7,11
1.72313E+12,-4920,-1903,7601,-1076,170,767,1,7,11
1.72313E+12,-4597,-2083,7355,-981,361,-43,1,7,11
1.72313E+12,-4553,-2175,7508,-1313,362,-355,1,7,11
1.72313E+12,-4533,-2305,7501,-1347,376,-593,1,7,11
1.72313E+12,-4528,-2424,7523,-1023,373,-769,1,7,11
1.72313E+12,-4507,-2210,7515,-1115,349,-642,1,7,11
1.72313E+12,-4512,-2219,7525,-688,332,-725,1,7,11
1.72313E+12,-4502,-2202,7541,-789,294,-758,1,7,11
1.72313E+12,-4501,-2192,7331,-398,-3,-1027,1,7,11
1.72313E+12,-4729,-2190,7375,-520,-54,-1046,1,7,11
1.72313E+12,-4697,-2224,7703,-154,-105,-1103,1,7,11
1.72313E+12,-4630,-2273,7798,-281,102,-945,1,7,11
1.72313E+12,-4270,-2581,7641,120,80,-1343,1,7,11
1.72313E+12,-4399,-2593,7968,316,83,-1539,1,7,11
1.72313E+12,-4004,-2568,7985,528,103,-1526,1,7,11
1.72313E+12,-4138,-2303,7979,426,-120,-2066,1,7,11
1.72313E+12,-3814,-2572,7981,778,-103,-2366,1,7,11
1.72313E+12,-3805,-2587,7982,807,-120,-2649,1,7,11
1.72313E+12,-3825,-2304,7671,778,88,-2849,1,7,11
1.72313E+12,-4126,-2233,7591,387,22,-2923,1,7,11
1.72313E+12,-4177,-2211,7804,153,-300,-2829,1,7,11
1.72313E+12,-3974,-2241,7586,-112,-355,-2608,1,7,11
1.72313E+12,-4045,-2285,7663,-306,-150,-2320,1,7,11
1.72313E+12,-4371,-2281,7639,-146,-201,-1728,1,7,11
1.72313E+12,-4452,-2243,7798,-190,-211,-1591,1,7,11
1.72313E+12,-4294,-2198,7682,-209,-154,-1131,1,7,11
1.72313E+12,-4658,-2427,7344,-215,-298,-636,1,7,11
1.72313E+12,-4486,-2233,7328,-212,97,117,1,7,11
1.72313E+12,-4496,-2600,7399,-149,-24,542,1,7,11
1.72313E+12,-4704,-2487,7708,-262,379,833,1,7,11
1.72313E+12,-4620,-2859,7794,-28,526,676,1,7,11
1.72313E+12,-4244,-2936,7565,514,392,813,1,7,11
1.72313E+12,-4398,-2942,7671,800,510,227,1,7,11
1.72313E+12,-4086,-2921,7545,731,886,22,1,7,11
1.72313E+12,-4368,-2693,7504,1064,1030,-488,1,7,11
1.72313E+12,-4389,-2728,7502,1111,909,-981,1,7,11
1.72313E+12,-4415,-2777,7476,950,1013,-1417,1,7,11
1.72313E+12,-4470,-2808,7450,1352,1368,-1754,1,7,11
1.72313E+12,-4281,-2803,7455,1275,1199,-1970,1,7,11
1.72313E+12,-4609,-2745,7438,1479,1270,-2349,1,7,11
1.72313E+12,-4690,-2933,7449,1671,1580,-2409,1,7,11
1.72313E+12,-4493,-2818,7462,2118,1631,-2419,1,7,11
1.72313E+12,-4590,-2673,7527,2038,1439,-2373,1,7,11
1.72313E+12,-4888,-2283,7373,2199,1484,-2020,1,7,11
1.72313E+12,-4598,-2180,7729,2587,1449,-1937,1,7,11
1.72313E+12,-4524,-2355,7802,2511,1630,-1938,1,7,11
1.72313E+12,-4685,-2015,7617,2827,1545,-2305,1,7,11
1.72313E+12,-4646,-1931,7942,2880,1231,-2244,1,7,11
1.72313E+12,-4634,-2086,7997,2942,1187,-2468,1,7,11
1.72313E+12,-4345,-1763,8035,2739,1396,-2920,1,7,11
1.72313E+12,-4245,-2056,7821,2791,1353,-3098,1,7,11
1.72313E+12,-4095,-2176,7842,3151,1324,-3356,1,7,11
1.72313E+12,-4209,-2311,7812,3332,1339,-3498,1,7,11
1.72313E+12,-4149,-2188,7977,3327,1177,-3986,1,7,11
1.72313E+12,-4109,-2679,7662,3855,1592,-4508,1,7,11
1.72313E+12,-4127,-2876,7795,4003,1828,-5399,1,7,11
1.72313E+12,-4194,-2904,7307,4715,2159,-5870,1,7,11
1.72313E+12,-3987,-2883,7070,4828,2599,-6615,1,7,11
1.72313E+12,-4389,-2828,6837,5395,3145,-7692,1,7,11
1.72313E+12,-4703,-2635,6556,5660,3517,-8564,1,7,11
1.72313E+12,-4857,-2414,6394,5743,4450,-9285,1,7,11
1.72313E+12,-5460,-2025,6327,5716,4789,-9783,1,7,11
1.72313E+12,-5691,-2004,6315,5638,5497,-9914,1,7,11
1.72313E+12,-5976,-2017,6346,5308,5547,-10550,1,7,11
1.72313E+12,-6080,-1988,6371,5252,5955,-10864,1,7,11
1.72313E+12,-6680,-2126,6316,5415,5955,-11010,1,7,11
1.72313E+12,-7012,-1738,6325,5189,5610,-10656,1,7,11
1.72313E+12,-7202,-1892,6375,4586,5370,-10582,1,7,11
1.72313E+12,-6910,-1675,6558,4396,5229,-10096,1,7,11
1.72313E+12,-6654,-1923,6653,3967,4647,-9155,1,7,11
1.72313E+12,-6666,-2344,6608,3264,3529,-9043,1,7,11
1.72313E+12,-6428,-2259,6544,3050,3029,-8737,1,7,11
1.72313E+12,-6176,-2652,6694,3191,2934,-8485,1,7,11
1.72313E+12,-5999,-2557,6663,3135,2513,-8280,1,7,11
1.72313E+12,-5612,-2930,6664,3176,2481,-8061,1,7,11
1.72313E+12,-5693,-2812,6718,3032,2521,-7800,1,7,11
1.72313E+12,-5292,-2951,6536,3235,2846,-7310,1,7,11
1.72313E+12,-5492,-3029,6603,3515,2925,-7081,1,7,11
1.72313E+12,-5492,-3332,6939,3820,2750,-6831,1,7,11
1.72313E+12,-5466,-3373,7003,4403,3073,-6547,1,7,11
1.72313E+12,-5379,-3349,6988,4720,3122,-6291,1,7,11
1.72313E+12,-5032,-2995,6941,4964,3181,-6087,1,7,11
1.72313E+12,-5010,-3098,6916,4853,2976,-6157,1,7,11
1.72313E+12,-5053,-2916,6916,5160,2977,-5940,1,7,11
1.72313E+12,-5113,-2509,6959,4844,3146,-5689,1,7,11
1.72313E+12,-5109,-2662,7033,4942,2934,-5400,1,7,11
1.72313E+12,-5114,-2586,6873,4731,2650,-4863,1,7,11
1.72313E+12,-5072,-2271,7203,4477,2324,-4576,1,7,11
1.72313E+12,-4993,-2228,7268,4181,1748,-4312,1,7,11
1.72313E+12,-5152,-2188,7078,3852,1464,-4079,1,7,11
1.72313E+12,-4805,-2423,7121,3261,1214,-4117,1,7,11
1.72313E+12,-4958,-2197,7142,3150,995,-3897,1,7,11
1.72313E+12,-4541,-2562,7159,2502,1059,-3696,1,7,11
1.72313E+12,-4675,-2450,7433,2397,670,-3292,1,7,11
1.72313E+12,-4329,-2825,7436,2107,855,-3409,1,7,11
1.72313E+12,-4230,-2722,7157,1870,821,-3007,1,7,11
1.72313E+12,-4428,-2773,7148,1441,827,-3128,1,7,11
1.72313E+12,-4409,-3126,7116,1574,857,-2721,1,7,11
1.72313E+12,-4375,-2997,7086,1236,669,-2537,1,7,11
1.72313E+12,-4044,-3415,7284,1192,1049,-2608,1,7,11
1.72313E+12,-3981,-3314,7232,1177,949,-2226,1,7,11
1.72313E+12,-4001,-3690,7272,1190,1354,-2412,1,7,11
1.72313E+12,-4085,-3490,7047,1233,1177,-2335,1,7,11
1.72313E+12,-4395,-3480,7054,1542,1182,-1947,1,7,11
1.72313E+12,-4405,-3691,7292,1589,1396,-2065,1,7,11
1.72313E+12,-4368,-3664,7256,1607,1338,-1687,1,7,11
1.72313E+12,-4072,-3629,7214,1585,1286,-1857,1,7,11
1.72313E+12,-4042,-3624,7182,1271,994,-1536,1,7,11
1.72313E+12,-4022,-3643,7202,1158,951,-1500,1,7,11
1.72313E+12,-4005,-3674,7219,1375,915,-1485,1,7,11
1.72313E+12,-4011,-3686,7222,1359,1145,-1458,1,7,11
1.72313E+12,-4027,-3680,7231,1347,1116,-1414,1,7,11
1.72313E+12,-4068,-3644,7259,1342,1079,-1598,1,7,11
1.72313E+12,-4362,-3620,7041,1344,1040,-1223,1,7,11
1.72313E+12,-4381,-3598,7063,1353,759,-1321,1,7,11
1.72313E+12,-4369,-3313,7067,1360,744,-899,1,7,11
1.72313E+12,-4376,-3263,7098,1343,738,-733,1,7,11
1.72313E+12,-4415,-3399,7437,1306,722,-722,1,7,11
1.72313E+12,-4450,-3329,7513,1010,675,-545,1,7,11
1.72313E+12,-4231,-2998,7546,965,860,-384,1,7,11
1.72313E+12,-4265,-3179,7541,911,754,28,1,7,11
1.72313E+12,-4295,-3088,7527,1070,460,-77,1,7,11
1.72313E+12,-4643,-2766,7302,853,454,340,1,7,11
1.72313E+12,-4505,-2745,7695,711,424,549,1,7,11
1.72313E+12,-4605,-2940,7806,630,589,511,1,7,11
1.72313E+12,-4917,-2555,7590,543,197,715,1,7,11
1.72313E+12,-4923,-2656,7575,377,288,1132,1,7,11
1.72313E+12,-4930,-2240,7558,103,-124,998,1,7,11
1.72313E+12,-4979,-2357,7576,-241,0,1397,1,7,11
1.72313E+12,-4817,-2019,7601,-866,-369,1606,1,7,11
1.72313E+12,-5154,-1982,7574,-983,-210,1896,1,7,11
1.72313E+12,-5141,-2025,7738,-1646,-552,1941,1,7,11
1.72313E+12,-4858,-2405,7699,-1792,-616,2181,1,7,11
1.72313E+12,-5185,-2246,7396,-2368,-421,2580,1,7,11
1.72313E+12,-5052,-2246,7317,-2635,-786,2454,1,7,11
1.72313E+12,-5418,-2266,7507,-2910,-700,2868,1,7,11
1.72313E+12,-5261,-2285,7432,-3187,-950,2762,1,7,11
1.72313E+12,-5642,-2588,7133,-3233,-1258,3170,1,7,11
1.72313E+12,-5536,-2579,7063,-3538,-1891,3059,1,7,11
1.72313E+12,-5966,-2290,7190,-4165,-2311,3249,1,7,11
1.72313E+12,-6197,-2197,6836,-4619,-2531,3519,1,7,11
1.72313E+12,-6422,-2179,7002,-5174,-3341,4182,1,7,11
1.72313E+12,-6023,-2587,6994,-5565,-3753,4820,1,7,11
1.72313E+12,-5764,-2528,6925,-6405,-4869,5343,1,7,11
1.72313E+12,-5606,-2939,6594,-6534,-5388,5966,1,7,11
1.72313E+12,-5557,-2782,6778,-7458,-5896,6261,1,7,11
1.72313E+12,-5515,-3106,6386,-7656,-6453,6362,1,7,11
1.72313E+12,-5722,-2954,6470,-8457,-6788,6861,1,7,11
1.72313E+12,-5695,-3368,6048,-9078,-7400,7746,1,7,11
1.72313E+12,-5375,-3311,6150,-9467,-8068,8489,1,7,11
1.72313E+12,-5273,-3868,5994,-10349,-9000,9326,1,7,11
1.72313E+12,-5411,-4163,5697,-10632,-9418,9933,1,7,11
1.72313E+12,-5003,-4467,4995,-11154,-10281,11058,1,7,11
1.72313E+12,-5166,-4528,4516,-11741,-10760,11671,1,7,11
1.72313E+12,-4802,-5246,4446,-12671,-11132,12514,1,7,11
1.72313E+12,-4536,-5618,4057,-13014,-11352,13249,1,7,11
1.72313E+12,-4071,-6426,4012,-13278,-11308,13934,1,7,11
1.72313E+12,-3842,-6673,3997,-13437,-10654,13721,1,7,11
1.72313E+12,-3633,-6654,4315,-13102,-9913,13536,1,7,11
1.72313E+12,-3220,-6889,4754,-12191,-9309,13388,1,7,11
1.72313E+12,-3426,-7247,5496,-11203,-8110,12473,1,7,11
1.72313E+12,-3377,-7177,5613,-9958,-7128,11691,1,7,11
1.72313E+12,-3372,-6988,5808,-8583,-6087,11076,1,7,11
1.72313E+12,-3404,-6736,5885,-7458,-4998,9896,1,7,11
1.72313E+12,-3290,-6405,5880,-5862,-4114,8947,1,7,11
1.72313E+12,-3545,-5785,5865,-4912,-2736,8291,1,7,11
1.72313E+12,-4125,-5690,5795,-3864,-1752,7430,1,7,11
1.72313E+12,-4279,-5028,5900,-2771,-969,6362,1,7,11
1.72313E+12,-4981,-4955,5507,-2420,-392,5946,1,7,11
1.72313E+12,-5103,-4536,5721,-1742,-258,5387,1,7,11
1.72313E+12,-5373,-4499,5507,-1641,-14,4915,1,7,11
1.72313E+12,-5531,-4511,5550,-1023,375,4473,1,7,11
1.72313E+12,-5970,-4661,5679,-254,537,3476,1,7,11
1.72313E+12,-5994,-4310,5315,85,389,3233,1,7,11
1.72313E+12,-5944,-4273,5262,363,481,3043,1,7,11
1.72313E+12,-5616,-4275,5252,591,492,2808,1,7,11
1.72313E+12,-5594,-4319,5285,499,402,2459,1,7,11
1.72313E+12,-5577,-4276,5281,889,224,2010,1,7,11
1.72313E+12,-5555,-4431,5452,709,280,1804,1,7,11
1.72313E+12,-5517,-4407,5425,713,95,1369,1,7,11
1.72313E+12,-5747,-4371,5397,696,-269,729,1,7,11
1.72313E+12,-5683,-4096,5397,710,-295,436,1,7,11
1.72313E+12,-5328,-4094,5445,1051,10,219,1,7,11
1.72313E+12,-5263,-4365,5374,976,109,311,1,7,11
1.72313E+12,-5263,-4379,5599,1254,-34,-51,1,7,11
1.72313E+12,-5319,-4069,5849,1896,311,-98,1,7,11
1.72313E+12,-5639,-4204,6066,2391,333,-105,1,7,11
1.72313E+12,-5511,-3785,6335,2927,288,-68,1,7,11
1.72313E+12,-5540,-3500,6533,3247,-70,279,1,7,11
1.72313E+12,-5704,-3348,6629,3822,23,225,1,7,11
1.72313E+12,-5281,-2714,7017,4260,-189,558,1,7,11
1.72313E+12,-5106,-2664,7213,4494,-520,255,1,7,11
1.72313E+12,-5237,-2366,7111,4602,-766,342,1,7,11
1.72313E+12,-5134,-1744,7137,4524,-1013,-122,1,7,11
1.72313E+12,-4792,-1434,7145,4471,-1193,-261,1,7,11
1.72313E+12,-4740,-1241,7443,3757,-1539,-305,1,7,11
1.72313E+12,-4991,-1365,7499,3251,-1542,-272,1,7,11
1.72313E+12,-4759,-1023,7302,2754,-1220,116,1,7,11
1.72313E+12,-4821,-996,7397,2294,-1372,335,1,7,11
1.72313E+12,-4855,-1007,7728,2173,-1292,577,1,7,11
1.72313E+12,-5138,-1009,7764,1880,-987,785,1,7,11
1.72313E+12,-5197,-967,7744,1646,-955,704,1,7,11
1.72313E+12,-5009,-900,7397,1172,-929,1138,1,7,11
1.72313E+12,-5071,-1073,7540,940,-1132,1335,1,7,11
1.72313E+12,-5087,-1028,7150,698,-1056,1564,1,7,11
1.72313E+12,-5035,-1053,7292,429,-683,1534,1,7,11
1.72313E+12,-5201,-933,7267,160,-791,1708,1,7,11
1.72313E+12,-4853,-1159,7090,-29,-633,2065,1,7,11
1.72313E+12,-4775,-1428,7451,-83,-514,2058,1,7,11
1.72313E+12,-4907,-1676,7508,-39,-196,1688,1,7,11
1.72313E+12,-4606,-2148,7336,305,-148,1430,1,7,11
1.72313E+12,-4561,-2038,7326,148,-384,1346,1,7,11
1.72313E+12,-4536,-2360,7510,212,-348,697,1,7,11
1.72313E+12,-4557,-2374,7494,253,-280,586,1,7,11
1.72313E+12,-4916,-2032,7547,625,31,287,1,7,11
1.72313E+12,-4769,-2143,7371,849,9,117,1,7,11
1.72313E+12,-4810,-1792,7417,1127,-369,21,1,7,11
1.72313E+12,-4830,-1709,7721,1170,-553,-319,1,7,11
1.72313E+12,-4785,-1862,7721,1456,-508,-152,1,7,11
1.72313E+12,-4968,-1441,7721,1671,-670,-256,1,7,11
1.72313E+12,-4923,-1236,7557,2109,-760,-635,1,7,11
1.72313E+12,-4608,-1319,8030,2324,-1050,-478,1,7,11
1.72313E+12,-4715,-918,8221,2620,-1093,-852,1,7,11
1.72313E+12,-4301,-722,8068,2918,-1143,-753,1,7,11
1.72313E+12,-4426,-387,8284,2802,-925,-925,1,7,11
1.72313E+12,-4092,6,8287,2907,-938,-1019,1,7,11
1.72313E+12,-4043,334,8127,2267,-956,-961,1,7,11
1.72313E+12,-4222,553,8500,1758,-979,-727,1,7,11
1.72313E+12,-4112,638,8353,1197,-1009,-400,1,7,11
1.72313E+12,-3744,606,8366,878,-1284,-298,1,7,11
1.72313E+12,-3928,241,8345,328,-1009,325,1,7,11
1.72313E+12,-3878,361,8534,-165,-944,449,1,7,11
1.72313E+12,-3899,-74,8490,-833,-1063,1081,1,7,11
1.72313E+12,-3931,-288,8141,-1105,-879,1193,1,7,11
1.72313E+12,-3913,-411,8316,-962,-634,1498,1,7,11
1.72313E+12,-3959,-862,8266,-1090,-81,1756,1,7,11
1.72313E+12,-3734,-736,8211,-813,579,2052,1,7,11
1.72313E+12,-3769,-1091,8063,-213,715,1674,1,7,11
1.72313E+12,-4162,-1136,7953,-126,1384,1645,1,7,11
1.72313E+12,-4363,-1101,7662,230,1526,981,1,7,11
1.72313E+12,-4350,-745,7637,640,2100,470,1,7,11
1.72313E+12,-4589,-646,7785,1291,2309,-80,1,7,11
1.72313E+12,-4855,-792,7389,1568,2423,-409,1,7,11
1.72313E+12,-5082,-423,7320,1415,2427,-962,1,7,11
1.72313E+12,-5254,-634,7369,1657,2329,-1422,1,7,11
1.72313E+12,-5311,-385,7684,1636,2106,-1755,1,7,11
1.72313E+12,-5307,-391,7396,1626,1810,-2000,1,7,11
1.72313E+12,-5328,-614,7314,1598,1263,-2398,1,7,11
1.72313E+12,-5654,-533,7506,1258,1005,-2383,1,7,11
1.72313E+12,-5710,-147,7461,1396,1025,-1924,1,7,11
1.72313E+12,-5746,-314,7470,989,808,-1811,1,7,11
1.72313E+12,-5738,-303,7510,1086,600,-1348,1,7,11
1.72313E+12,-5686,-337,7524,689,134,-875,1,7,11
1.72313E+12,-5343,-376,7514,810,-56,-188,1,7,11
1.72313E+12,-5257,-155,7522,413,44,-82,1,7,11
1.72313E+12,-5402,-200,7330,536,-336,571,1,7,11
1.72313E+12,-5104,-194,7387,148,-213,462,1,7,11
1.72313E+12,-5094,-364,7403,348,-543,508,1,7,11
1.72313E+12,-5102,28,7383,261,-605,772,1,7,11
1.72313E+12,-5385,-25,7380,122,-398,770,1,7,11
1.72313E+12,-5401,330,7390,-164,-494,770,1,7,11
1.72313E+12,-5119,382,7693,-633,-816,772,1,7,11
1.72313E+12,-5059,362,7788,-801,-879,781,1,7,11
1.72313E+12,-5194,300,7616,-888,-686,770,1,7,11
1.72313E+12,-4777,-40,7970,-896,-738,462,1,7,11
1.72313E+12,-4884,-104,8055,-826,-1033,608,1,7,11
1.72313E+12,-4539,-121,7895,-454,-1060,195,1,7,11
1.72313E+12,-4726,-89,8233,-573,-1084,319,1,7,11
1.72313E+12,-4678,-25,8270,-185,-1117,-41,1,7,11
1.72313E+12,-4349,315,8212,-375,-899,-98,1,7,11
1.72313E+12,-4294,364,7877,-164,-905,-107,1,7,11
1.72313E+12,-4304,374,7834,-543,-1139,-54,1,7,11
1.72313E+12,-4611,382,7831,-407,-1110,336,1,7,11
1.72313E+12,-4705,131,7863,-490,-1079,560,1,7,11
1.72313E+12,-4552,135,7908,-501,-1036,886,1,7,11
1.72313E+12,-4605,199,7848,-444,-726,1001,1,7,11
1.72313E+12,-4895,562,7980,-419,-875,1612,1,7,11
1.72313E+12,-4961,408,7638,-500,-445,1892,1,7,11
1.72313E+12,-4794,495,7614,-668,-250,2065,1,7,11
1.72313E+12,-4853,768,7624,-1146,-352,2138,1,7,11
1.72313E+12,-5140,446,7682,-1355,-258,2112,1,7,11
1.72313E+12,-5130,563,7665,-1245,21,1760,1,7,11
1.72313E+12,-4811,145,7584,-1583,-277,1881,1,7,11
1.72313E+12,-4939,115,7787,-1410,-360,1464,1,7,11
1.72313E+12,-4888,-376,7601,-1512,-203,1462,1,7,11
1.72313E+12,-4587,-382,7941,-1816,-586,1381,1,7,11
1.72313E+12,-4618,-680,7941,-1506,-507,1120,1,7,11
1.72313E+12,-4400,-943,7557,-1543,-486,877,1,7,11
1.72313E+12,-4205,-1392,7357,-1373,-544,555,1,7,11
1.72313E+12,-4102,-1543,7489,-944,100,-78,1,7,11
1.72313E+12,-3809,-1456,7487,-711,594,-222,1,7,11
1.72313E+12,-4121,-1877,7347,-610,1122,-660,1,7,11
1.72313E+12,-3989,-1917,7722,-64,1607,-1380,1,7,11
1.72313E+12,-4451,-1821,7777,855,1757,-1835,1,7,11
1.72313E+12,-4502,-1599,7758,1269,2324,-1969,1,7,11
1.72313E+12,-4863,-1283,7710,2095,2258,-2237,1,7,11
1.72313E+12,-5424,-660,7377,2242,2571,-2616,1,7,11
1.72313E+12,-5640,-526,7316,2462,2251,-2632,1,7,11
1.72313E+12,-5512,71,7334,2532,2350,-2562,1,7,11
1.72313E+12,-5560,336,7399,2536,2107,-2178,1,7,11
1.72313E+12,-5733,538,7718,2512,1512,-2028,1,7,11
1.72313E+12,-5313,386,7553,2438,1402,-2149,1,7,11
1.72313E+12,-5118,408,7939,2601,764,-2071,1,7,11
1.72313E+12,-5179,428,8014,2236,394,-2059,1,7,11
1.72313E+12,-4782,490,8046,2323,330,-2053,1,7,11
1.72313E+12,-4936,849,8020,2090,97,-1712,1,7,11
1.72313E+12,-4885,690,7991,1529,-292,-1517,1,7,11
1.72313E+12,-4586,758,7937,1168,-346,-1214,1,7,11
1.72313E+12,-4583,1064,7606,1038,-320,-1107,1,7,11
1.72313E+12,-4888,1090,7577,400,23,-445,1,7,11
1.72313E+12,-4740,1097,7595,315,110,-283,1,7,11
1.72313E+12,-4856,1074,7595,54,-94,375,1,7,11
1.72313E+12,-5234,1025,7575,-161,-86,481,1,7,11
1.72313E+12,-5099,705,7743,-625,126,766,1,7,11
1.72313E+12,-5504,877,7420,-859,58,978,1,7,11
1.72313E+12,-5687,818,7395,-1066,-294,1391,1,7,11
1.72313E+12,-5607,800,7537,-939,-193,1249,1,7,11
1.72313E+12,-5918,801,7430,-1283,-411,1579,1,7,11
1.72313E+12,-5920,778,7243,-1166,-837,1573,1,7,11
1.72313E+12,-5589,458,6898,-1620,-706,1220,1,7,11
1.72313E+12,-5717,517,7246,-1832,-1038,1019,1,7,11
1.72313E+12,-5289,260,7150,-1687,-1136,715,1,7,11
1.72313E+12,-5400,7,7327,-1685,-967,600,1,7,11
