timestamp,ax,ay,az,gx,gy,gz,Label1,Label2,Label3
1.72313E+12,-4323,-5104,5644,-557,-230,355,1,7,11
1.72313E+12,-4336,-5395,5634,-633,-190,325,1,7,11
1.72313E+12,-4335,-5458,5668,-448,-154,286,1,7,11
1.72313E+12,-4345,-5256,5720,-478,-133,-41,1,7,11
1.72313E+12,-4339,-5267,5737,-459,-151,-112,1,7,11
1.72313E+12,-4332,-5264,5731,-444,-180,71,1,7,11
1.72313E+12,-4324,-5256,5724,-429,-219,2,1,7,11
1.72313E+12,-4314,-5271,5728,-437,-521,-327,1,7,11
1.72313E+12,-4294,-5275,5728,-422,-572,-148,1,7,11
1.72313E+12,-4268,-5317,5755,-414,-607,-214,1,7,11
1.72313E+12,-4251,-5350,5516,-626,-388,-524,1,7,11
1.72313E+12,-4234,-5642,5541,-563,-421,-562,1,7,11
1.72313E+12,-4464,-5660,5541,-221,-439,-574,1,7,11
1.72313E+12,-4420,-5669,5520,-129,-438,-564,1,7,11
1.72313E+12,-4371,-5681,5505,-305,-412,-540,1,7,11
1.72313E+12,-4060,-5698,5750,31,-626,-521,1,7,11
1.72313E+12,-4014,-5718,5740,110,-563,-253,1,7,11
1.72313E+12,-3991,-5734,5750,-67,-234,-225,1,7,11
1.72313E+12,-4212,-5746,5518,264,-163,-198,1,7,11
1.72313E+12,-4163,-5508,5525,335,-347,-185,1,7,11
1.72313E+12,-4120,-5539,5548,143,-276,-187,1,7,11
1.72313E+12,-3801,-5530,5520,207,40,-220,1,7,11
1.72313E+12,-3791,-5746,5733,512,113,-587,1,7,11
1.72313E+12,-3818,-5692,5723,523,-2,-392,1,7,11
1.72313E+12,-4138,-5656,5738,517,367,-403,1,7,11
1.72313E+12,-4207,-5367,5524,528,224,-624,1,7,11
1.72313E+12,-4024,-5342,5581,575,588,-558,1,7,11
1.72313E+12,-4070,-5299,5618,391,415,-208,1,7,11
1.72313E+12,-4365,-5251,5899,454,483,-373,1,7,11
1.72313E+12,-4405,-5458,5913,502,792,-284,1,7,11
1.72313E+12,-4418,-5406,5906,770,824,55,1,7,11
1.72313E+12,-4451,-5097,5908,487,845,117,1,7,11
1.72313E+12,-4241,-5047,5899,425,851,-86,1,7,11
1.72313E+12,-4296,-5245,5893,605,840,-45,1,7,11
1.72313E+12,-4342,-5186,5627,515,812,260,1,7,11
1.72313E+12,-4642,-5160,5619,170,780,322,1,7,11
1.72313E+12,-4696,-5152,5621,354,482,134,1,7,11
1.72313E+12,-4499,-5133,5593,302,441,194,1,7,11
1.72313E+12,-4560,-4845,5569,-8,405,254,1,7,11
1.72313E+12,-4865,-4816,5537,-65,629,583,1,7,11
1.72313E+12,-4883,-4816,5504,-118,591,405,1,7,11
1.72313E+12,-4878,-4836,5737,80,558,455,1,7,11
1.72313E+12,-4875,-4853,5739,35,531,469,1,7,11
1.72313E+12,-4876,-5125,5756,0,251,459,1,7,11
1.72313E+12,-4900,-5135,5543,-270,229,421,1,7,11
1.72313E+12,-4943,-5135,5577,4,199,387,1,7,11
1.72313E+12,-4952,-4850,5564,35,163,620,1,7,11
1.72313E+12,-4936,-4822,5532,41,139,594,1,7,11
1.72313E+12,-4895,-4828,5508,10,380,557,1,7,11
1.72313E+12,-4596,-4848,5744,-290,375,226,1,7,11
1.72313E+12,-4584,-5129,5504,-336,383,135,1,7,11
1.72313E+12,-4594,-5128,5509,-347,141,315,1,7,11
1.72313E+12,-4868,-5123,5504,-347,159,259,1,7,11
1.72313E+12,-4876,-4840,5740,-337,182,-25,1,7,11
1.72313E+12,-4590,-4835,5714,-344,220,-35,1,7,11
1.72313E+12,-4578,-4854,5712,-355,530,-56,1,7,11
1.72313E+12,-4596,-4857,5716,-353,579,-89,1,7,11
1.72313E+12,-4884,-4850,5708,-356,623,-115,1,7,11
1.72313E+12,-4931,-4840,5702,-366,402,-116,1,7,11
1.72313E+12,-4950,-4832,5668,-136,416,-100,1,7,11
1.72313E+12,-4956,-4850,5648,-201,420,-91,1,7,11
1.72313E+12,-4956,-5151,5635,-541,416,-106,1,7,11
1.72313E+12,-4951,-5228,5657,-609,402,96,1,7,11
1.72313E+12,-4970,-5238,5655,-638,633,27,1,7,11
1.72313E+12,-4992,-5223,5368,-631,597,-287,1,7,11
1.72313E+12,-4744,-5212,5313,-608,569,-323,1,7,11
1.72313E+12,-4741,-5208,5253,-599,568,-339,1,7,11
1.72313E+12,-4958,-5225,5496,-614,595,-333,1,7,11
1.72313E+12,-4901,-5012,5270,-613,625,-354,1,7,11
1.72313E+12,-4896,-5033,5287,-566,394,-170,1,7,11
1.72313E+12,-4951,-5010,5268,-249,427,-233,1,7,11
1.72313E+12,-4768,-5216,5481,-212,476,-235,1,7,11
1.72313E+12,-4828,-5165,5449,-202,785,-164,1,7,11
1.72313E+12,-4823,-5130,5446,-214,827,-327,1,7,11
1.72313E+12,-4821,-5146,5483,-240,870,-273,1,7,11
1.72313E+12,-4841,-5146,5251,-219,877,11,1,7,11
1.72313E+12,-5139,-5135,5279,-191,865,35,1,7,11
1.72313E+12,-5185,-4848,5307,-148,837,80,1,7,11
1.72313E+12,-5219,-4811,5332,-362,800,-110,1,7,11
1.72313E+12,-5014,-4779,5370,-331,496,-41,1,7,11
1.72313E+12,-5064,-4977,5632,-290,415,318,1,7,11
1.72313E+12,-5109,-4906,5287,-291,574,184,1,7,11
1.72313E+12,-5389,-4591,5427,-134,229,577,1,7,11
1.72313E+12,-5114,-4601,5068,-579,160,466,1,7,11
1.72313E+12,-5105,-4935,5056,-777,374,841,1,7,11
1.72313E+12,-5077,-4756,5036,-665,335,649,1,7,11
1.72313E+12,-5045,-4834,5003,-765,314,660,1,7,11
1.72313E+12,-5044,-5173,5247,-1084,312,890,1,7,11
1.72313E+12,-5031,-5240,5238,-1082,318,842,1,7,11
1.72313E+12,-5022,-5066,5208,-1044,335,511,1,7,11
1.72313E+12,-5014,-5078,5191,-717,352,412,1,7,11
1.72313E+12,-5054,-5058,5163,-645,380,546,1,7,11
1.72313E+12,-5140,-5031,5142,-839,151,200,1,7,11
1.72313E+12,-5391,-5024,5128,-782,158,154,1,7,11
1.72313E+12,-5095,-5043,4862,-490,148,370,1,7,11
1.72313E+12,-5068,-5052,4851,-462,140,292,1,7,11
1.72313E+12,-5047,-5076,4852,-443,148,-75,1,7,11
1.72313E+12,-5058,-5069,5128,-416,157,76,1,7,11
1.72313E+12,-5084,-5006,4836,-615,151,6,1,7,11
1.72313E+12,-5078,-5213,4782,-585,383,-280,1,7,11
1.72313E+12,-5099,-5173,4742,-596,373,-258,1,7,11
1.72313E+12,-5377,-5172,4991,-395,378,40,1,7,11
1.72313E+12,-5394,-5166,4991,-450,380,103,1,7,11
1.72313E+12,-5392,-5198,4756,-475,379,-87,1,7,11
1.72313E+12,-5387,-5239,4790,-462,381,-49,1,7,11
1.72313E+12,-5404,-5240,4768,-407,382,-57,1,7,11
1.72313E+12,-5426,-5196,4942,-613,140,-75,1,7,11
1.72313E+12,-5469,-5156,4890,-599,181,-73,1,7,11
1.72313E+12,-5249,-5150,4875,-609,219,-42,1,7,11
1.72313E+12,-5277,-5162,4873,-610,253,-27,1,7,11
1.72313E+12,-5296,-5174,4865,-599,539,-20,1,7,11
1.72313E+12,-5302,-5177,4582,-580,567,-26,1,7,11
1.72313E+12,-5310,-5182,4553,-560,604,-46,1,7,11
1.72313E+12,-5316,-5196,4529,-550,390,-80,1,7,11
1.72313E+12,-5306,-5205,4492,-545,420,116,1,7,11
1.72313E+12,-5303,-5215,4684,-559,453,28,1,7,11
1.72313E+12,-5320,-5225,4616,-602,495,-313,1,7,11
1.72313E+12,-5345,-5237,4300,-404,806,-374,1,7,11
1.72313E+12,-5344,-5023,4288,-485,854,-167,1,7,11
1.72313E+12,-5319,-5095,4303,-795,883,-237,1,7,11
1.72313E+12,-5303,-5443,4325,-812,892,-606,1,7,11
1.72313E+12,-5253,-5288,4342,-784,872,-487,1,7,11
1.72313E+12,-5444,-5361,4338,-448,855,-679,1,7,11
1.72313E+12,-5426,-5637,4311,-612,868,-933,1,7,11
1.72313E+12,-5467,-5376,4300,-516,652,-1172,1,7,11
1.72313E+12,-5474,-5368,4270,-167,675,-1590,1,7,11
1.72313E+12,-5430,-5647,4257,-366,686,-1472,1,7,11
1.72313E+12,-5090,-5706,4289,-326,675,-1885,1,7,11
1.72313E+12,-5037,-5537,4612,-276,664,-2096,1,7,11
1.72313E+12,-5032,-5569,4645,115,886,-2347,1,7,11
1.72313E+12,-4996,-5543,4329,258,842,-2591,1,7,11
1.72313E+12,-5192,-5518,4240,329,825,-2542,1,7,11
1.72313E+12,-4833,-5547,4432,307,824,-2753,1,7,11
1.72313E+12,-4774,-5598,4415,-38,813,-3047,1,7,11
1.72313E+12,-4844,-5897,4233,-115,819,-3615,1,7,11
1.72313E+12,-5134,-5945,4282,98,786,-3563,1,7,11
1.72313E+12,-4781,-6014,4234,94,440,-3962,1,7,11
1.72313E+12,-4956,-5841,4435,40,392,-4143,1,7,11
1.72313E+12,-4938,-5884,4406,-268,613,-4055,1,7,11
1.72313E+12,-4866,-6213,4374,-353,542,-4423,1,7,11
1.72313E+12,-4525,-6243,4093,-183,187,-4254,1,7,11
1.72313E+12,-4346,-6099,4080,-591,283,-4312,1,7,11
1.72313E+12,-4231,-6473,4375,-474,110,-4716,1,7,11
1.72313E+12,-4386,-6323,4406,-856,-338,-4882,1,7,11
1.72313E+12,-4155,-6568,4363,-665,-487,-4857,1,7,11
1.72313E+12,-3729,-6585,4043,-721,-647,-5019,1,7,11
1.72313E+12,-3909,-6632,4038,-1052,-765,-5413,1,7,11
1.72313E+12,-3481,-6960,4019,-1135,-1120,-5420,1,7,11
1.72313E+12,-3423,-6822,4028,-1310,-1355,-5105,1,7,11
1.72313E+12,-2968,-7236,4093,-1395,-1233,-5446,1,7,11
1.72313E+12,-3134,-7074,4091,-1348,-1578,-5254,1,7,11
1.72313E+12,-2787,-7076,3975,-1283,-1627,-5496,1,7,11
1.72313E+12,-2691,-7106,4161,-1330,-1622,-5408,1,7,11
1.72313E+12,-2535,-7449,4195,-1386,-1636,-5233,1,7,11
1.72313E+12,-2289,-7319,3989,-1154,-1469,-4812,1,7,11
1.72313E+12,-2028,-7372,4222,-1362,-1857,-4991,1,7,11
1.72313E+12,-1760,-7400,4110,-1311,-1691,-4937,1,7,11
1.72313E+12,-1517,-7719,3781,-1006,-1920,-4561,1,7,11
1.72313E+12,-1248,-7781,3730,-975,-1845,-4672,1,7,11
1.72313E+12,-1012,-7802,3931,-957,-1496,-4314,1,7,11
1.72313E+12,-1095,-7803,3918,-968,-1421,-4463,1,7,11
1.72313E+12,-722,-7570,3951,-988,-1621,-4031,1,7,11
1.72313E+12,-790,-7584,3945,-958,-1622,-3961,1,7,11
1.72313E+12,-596,-7626,3928,-1150,-1415,-3284,1,7,11
1.72313E+12,-342,-7958,3865,-1080,-1439,-2960,1,7,11
1.72313E+12,93,-8005,3552,-749,-1640,-2676,1,7,11
1.72313E+12,-37,-8042,3518,-708,-1256,-2192,1,7,11
1.72313E+12,277,-8027,3496,-702,-1279,-2041,1,7,11
1.72313E+12,329,-8021,3480,-723,-1136,-2171,1,7,11
1.72313E+12,358,-8042,3483,-710,-741,-1760,1,7,11
1.72313E+12,161,-8017,3711,-835,-649,-1852,1,7,11
1.72313E+12,207,-8004,3692,-791,-842,-1495,1,7,11
1.72313E+12,211,-8026,3705,-769,-799,-1411,1,7,11
1.72313E+12,237,-8034,3696,-477,-795,-1578,1,7,11
1.72313E+12,565,-7824,3679,-477,-817,-1240,1,7,11
1.72313E+12,581,-7845,3697,-420,-821,-1405,1,7,11
1.72313E+12,623,-7842,3670,-602,-836,-1021,1,7,11
1.72313E+12,437,-7836,3649,-549,-850,-913,1,7,11
1.72313E+12,799,-7828,3599,-540,-869,-1119,1,7,11
1.72313E+12,884,-7841,3592,-539,-875,-1132,1,7,11
1.72313E+12,716,-7855,3322,-247,-862,-925,1,7,11
1.72313E+12,756,-7870,3310,-182,-817,-993,1,7,11
1.72313E+12,1074,-7844,3297,-318,-508,-1009,1,7,11
1.72313E+12,1039,-7830,3602,13,-424,-1296,1,7,11
1.72313E+12,1029,-8047,3641,-111,-389,-960,1,7,11
1.72313E+12,1063,-8006,3646,-56,-409,-1140,1,7,11
1.72313E+12,1073,-8010,3666,-15,-427,-1058,1,7,11
1.72313E+12,1120,-7971,3635,273,-432,-712,1,7,11
1.72313E+12,923,-7650,3591,-26,-427,-710,1,7,11
1.72313E+12,990,-7647,3587,-108,-436,-757,1,7,11
1.72313E+12,1377,-7679,3309,77,-447,-1066,1,7,11
1.72313E+12,1183,-7960,3306,40,-393,-901,1,7,11
1.72313E+12,1175,-7957,3596,25,-583,-961,1,7,11
1.72313E+12,1179,-7976,3640,20,-559,-944,1,7,11
1.72313E+12,1226,-7975,3634,60,-586,-1132,1,7,11
1.72313E+12,1609,-7987,3623,52,-591,-1032,1,7,11
1.72313E+12,1448,-7982,3594,71,-525,-644,1,7,11
1.72313E+12,1514,-8002,3586,84,-158,-780,1,7,11
1.72313E+12,1521,-8001,3633,107,4,-419,1,7,11
1.72313E+12,1521,-7976,3643,-108,-103,-385,1,7,11
1.72313E+12,1419,-7679,3677,-82,23,-622,1,7,11
1.72313E+12,1554,-7629,3472,-70,304,-523,1,7,11
1.72313E+12,1249,-7592,3486,-66,277,-371,1,7,11
1.72313E+12,1231,-7563,3496,-59,-13,16,1,7,11
1.72313E+12,1546,-7799,3460,-69,-66,100,1,7,11
1.72313E+12,1595,-7805,3676,-107,-87,88,1,7,11
1.72313E+12,1598,-7579,3676,84,-72,46,1,7,11
1.72313E+12,1554,-7630,3702,53,-27,47,1,7,11
1.72313E+12,1580,-7657,3687,73,266,99,1,7,11
1.72313E+12,1612,-7941,3677,91,297,-120,1,7,11
1.72313E+12,1624,-7665,3673,116,317,-97,1,7,11
1.72313E+12,1649,-7662,3659,120,351,-62,1,7,11
1.72313E+12,1663,-7943,3658,109,170,-30,1,7,11
1.72313E+12,1644,-7958,3677,-68,530,341,1,7,11
1.72313E+12,1639,-7663,3679,-11,622,200,1,7,11
1.72313E+12,1558,-7610,3691,286,445,539,1,7,11
1.72313E+12,1227,-7578,3462,279,474,387,1,7,11
1.72313E+12,1160,-7573,3497,-1,467,492,1,7,11
1.72313E+12,1156,-7563,3497,-23,411,854,1,7,11
1.72313E+12,1328,-7587,3536,-64,615,670,1,7,11
1.72313E+12,1016,-7579,3517,-55,529,1060,1,7,11
1.72313E+12,982,-7607,3530,-50,230,978,1,7,11
1.72313E+12,1007,-7597,3487,-31,207,1398,1,7,11
1.72313E+12,1014,-7606,3479,-41,229,1246,1,7,11
1.72313E+12,964,-7644,3523,-17,534,1604,1,7,11
1.72313E+12,918,-7957,3844,298,575,1470,1,7,11
1.72313E+12,1151,-7993,3857,139,590,1821,1,7,11
1.72313E+12,1110,-7965,3843,240,623,1876,1,7,11
1.72313E+12,1045,-7641,3577,579,407,1705,1,7,11
1.72313E+12,693,-7611,3850,612,462,2085,1,7,11
1.72313E+12,811,-7593,3913,639,504,2001,1,7,11
1.72313E+12,405,-7591,3742,416,488,2212,1,7,11
1.72313E+12,566,-7613,3777,480,390,2460,1,7,11
1.72313E+12,248,-7617,3761,794,541,2695,1,7,11
1.72313E+12,147,-7624,3793,816,246,2967,1,7,11
1.72313E+12,344,-7648,3814,851,250,3278,1,7,11
1.72313E+12,-39,-7946,4148,674,564,3539,1,7,11
1.72313E+12,59,-7981,3986,1066,631,3773,1,7,11
1.72313E+12,-191,-7672,4083,999,434,3970,1,7,11
1.72313E+12,-390,-7593,4353,1169,418,4256,1,7,11
1.72313E+12,-850,-7732,4363,1599,638,4590,1,7,11
1.72313E+12,-747,-7393,4389,1475,601,5166,1,7,11
1.72313E+12,-965,-7383,4225,1853,595,5394,1,7,11
1.72313E+12,-1207,-7367,4342,1776,588,5356,1,7,11
1.72313E+12,-1418,-7305,4692,1984,571,5584,1,7,11
1.72313E+12,-1860,-7451,4519,2206,549,5821,1,7,11
1.72313E+12,-1760,-7276,4547,2686,236,6047,1,7,11
1.72313E+12,-1960,-6785,4548,2541,226,6446,1,7,11
1.72313E+12,-2600,-6585,4938,2517,574,6303,1,7,11
1.72313E+12,-2702,-6744,5154,2439,391,6739,1,7,11
1.72313E+12,-3136,-6389,5016,2433,385,6651,1,7,11
1.72313E+12,-3144,-6488,5247,2672,556,6925,1,7,11
1.72313E+12,-3353,-6077,5073,2281,568,6671,1,7,11
1.72313E+12,-3663,-6193,5475,2354,571,6100,1,7,11
1.72313E+12,-3727,-5866,5667,2168,595,5814,1,7,11
1.72313E+12,-4007,-5992,5546,2100,590,5536,1,7,11
1.72313E+12,-4106,-5528,5325,2066,367,5257,1,7,11
1.72313E+12,-4204,-5365,5312,1517,381,4758,1,7,11
1.72313E+12,-4376,-5316,5717,1180,155,4315,1,7,11
1.72313E+12,-4350,-5293,5624,976,224,4203,1,7,11
1.72313E+12,-4510,-5493,5960,913,520,3713,1,7,11
1.72313E+12,-4592,-5384,5933,903,534,3540,1,7,11
1.72313E+12,-4917,-5007,5629,1077,518,3306,1,7,11
1.72313E+12,-4761,-5180,5890,674,212,3053,1,7,11
1.72313E+12,-4835,-4851,5905,777,132,2793,1,7,11
1.72313E+12,-5140,-4770,5905,636,286,2557,1,7,11
1.72313E+12,-4843,-4961,5607,221,-82,2625,1,7,11
1.72313E+12,-4855,-4922,5606,322,-117,2389,1,7,11
1.72313E+12,-5153,-4889,5901,-53,-99,1927,1,7,11
1.72313E+12,-5155,-4880,5913,-124,-51,1767,1,7,11
1.72313E+12,-5183,-4602,5930,91,274,1853,1,7,11
1.72313E+12,-5185,-4563,5624,51,297,1433,1,7,11
1.72313E+12,-5205,-4511,5560,-268,337,1249,1,7,11
1.72313E+12,-5208,-4731,5515,-381,132,1299,1,7,11
1.72313E+12,-5199,-4511,5516,-513,207,1056,1,7,11
1.72313E+12,-5218,-4525,5528,-579,521,493,1,7,11
1.72313E+12,-5243,-4520,5527,-639,560,177,1,7,11
1.72313E+12,-5081,-4505,5511,-440,579,-76,1,7,11
1.72313E+12,-5101,-4519,5757,-497,558,67,1,7,11
1.72313E+12,-5107,-4511,5737,-493,531,19,1,7,11
1.72313E+12,-5096,-4536,5691,-779,250,-259,1,7,11
1.72313E+12,-5091,-4575,5690,-826,516,-294,1,7,11
1.72313E+12,-5086,-4607,5682,-842,515,-333,1,7,11
1.72313E+12,-5109,-4891,5688,-856,253,-377,1,7,11
1.72313E+12,-5408,-4899,5680,-819,223,-382,1,7,11
1.72313E+12,-5397,-4903,5368,-799,165,-339,1,7,11
1.72313E+12,-5411,-4918,5342,-797,135,-283,1,7,11
1.72313E+12,-5113,-4943,5313,-812,330,31,1,7,11
1.72313E+12,-5081,-4944,5273,-827,281,39,1,7,11
1.72313E+12,-5065,-4968,5503,-865,-5,41,1,7,11
1.72313E+12,-5089,-4986,5258,-866,-11,59,1,7,11
1.72313E+12,-5089,-4990,5494,-840,-30,111,1,7,11
1.72313E+12,-5074,-4738,5485,-814,-54,-75,1,7,11
1.72313E+12,-5057,-4743,5465,-801,-91,-10,1,7,11
1.72313E+12,-5059,-4740,5454,-798,-125,315,1,7,11
1.72313E+12,-5058,-4737,5448,-816,92,144,1,7,11
1.72313E+12,-5078,-4972,5438,-836,65,235,1,7,11
1.72313E+12,-5059,-4988,5429,-869,41,639,1,7,11
1.72313E+12,-5201,-4757,5110,-663,-264,779,1,7,11
1.72313E+12,-5126,-4802,5084,-767,-300,816,1,7,11
1.72313E+12,-4850,-4854,5106,-1133,-343,804,1,7,11
1.72313E+12,-4840,-5161,5402,-959,-142,797,1,7,11
1.72313E+12,-4843,-5166,5415,-966,-185,807,1,7,11
1.72313E+12,-4829,-5153,5381,-950,-207,880,1,7,11
1.72313E+12,-4791,-5147,5085,-946,-189,746,1,7,11
1.72313E+12,-4764,-5159,5084,-960,-148,1117,1,7,11
1.72313E+12,-4755,-5180,5080,-959,-358,984,1,7,11
1.72313E+12,-4765,-5173,5054,-942,-294,1364,1,7,11
1.72313E+12,-4788,-5175,5045,-943,50,1216,1,7,11
1.72313E+12,-4791,-5223,5045,-946,-107,1546,1,7,11
1.72313E+12,-4793,-5237,5234,-1149,274,1277,1,7,11
1.72313E+12,-4803,-5228,5123,-1103,174,1196,1,7,11
1.72313E+12,-5144,-5181,4782,-1094,620,951,1,7,11
1.72313E+12,-5012,-5170,4758,-1122,825,761,1,7,11
1.72313E+12,-5402,-5197,4781,-919,792,845,1,7,11
1.72313E+12,-5344,-5185,4791,-932,1046,614,1,7,11
1.72313E+12,-5550,-5122,4775,-905,650,153,1,7,11
1.72313E+12,-5960,-4801,4966,-1135,465,273,1,7,11
1.72313E+12,-6010,-4769,4929,-902,538,-71,1,7,11
1.72313E+12,-5811,-4753,4902,-1145,362,-110,1,7,11
1.72313E+12,-5994,-4775,4590,-1130,-71,262,1,7,11
1.72313E+12,-5594,-4851,4564,-1114,63,169,1,7,11
1.72313E+12,-5706,-5191,4516,-1044,-257,570,1,7,11
1.72313E+12,-5298,-5233,4689,-671,5,406,1,7,11
1.72313E+12,-5262,-5224,4624,-825,-120,617,1,7,11
1.72313E+12,-5291,-5205,4334,-454,349,550,1,7,11
1.72313E+12,-5263,-5243,4302,-610,571,212,1,7,11
1.72313E+12,-5338,-5010,4284,-240,800,261,1,7,11
1.72313E+12,-5758,-5244,4273,-355,677,34,1,7,11
1.72313E+12,-5894,-5179,4226,14,689,-151,1,7,11
1.72313E+12,-5786,-5140,4473,61,647,-564,1,7,11
1.72313E+12,-6146,-4842,4469,100,779,-405,1,7,11
1.72313E+12,-6162,-4857,4255,109,612,-454,1,7,11
1.72313E+12,-5888,-4861,4294,-115,159,-771,1,7,11
1.72313E+12,-5818,-4857,4311,-101,-75,-839,1,7,11
1.72313E+12,-5976,-5125,4331,-95,-284,-661,1,7,11
1.72313E+12,-5590,-5133,4348,-96,-201,-758,1,7,11
1.72313E+12,-5740,-5172,4657,-112,-540,-1138,1,7,11
1.72313E+12,-5370,-5219,4720,-104,-580,-1001,1,7,11
1.72313E+12,-5300,-5005,4565,-68,-586,-1380,1,7,11
1.72313E+12,-5450,-5027,4569,269,-615,-1205,1,7,11
1.72313E+12,-5383,-5057,4607,311,-591,-1545,1,7,11
1.72313E+12,-5099,-5094,4915,346,-548,-1578,1,7,11
1.72313E+12,-5021,-5120,4976,371,-237,-1589,1,7,11
1.72313E+12,-5224,-5388,4764,381,-214,-1607,1,7,11
1.72313E+12,-5184,-5395,4773,131,-188,-1625,1,7,11
1.72313E+12,-5174,-5394,4772,380,-148,-1626,1,7,11
1.72313E+12,-5163,-5381,4765,352,-356,-1599,1,7,11
1.72313E+12,-5177,-5382,4815,319,-297,-1279,1,7,11
1.72313E+12,-5208,-5082,4848,305,-270,-1195,1,7,11
1.72313E+12,-5229,-5107,5150,294,9,-1349,1,7,11
1.72313E+12,-5200,-5077,5120,285,8,-1014,1,7,11
1.72313E+12,-5183,-5096,5123,-47,50,-966,1,7,11
1.72313E+12,-5175,-5116,5125,-104,51,-963,1,7,11
1.72313E+12,-5137,-5418,4855,94,42,-978,1,7,11
1.72313E+12,-4825,-5440,4821,49,36,-1024,1,7,11
1.72313E+12,-4791,-5272,4827,-273,47,-1346,1,7,11
1.72313E+12,-4980,-5309,4802,-266,39,-1168,1,7,11
1.72313E+12,-4921,-5359,4805,-260,62,-1229,1,7,11
1.72313E+12,-4881,-5658,4816,10,-111,-1552,1,7,11
1.72313E+12,-4541,-5707,4854,125,-27,-1410,1,7,11
1.72313E+12,-4484,-5513,5159,-71,306,-1438,1,7,11
1.72313E+12,-4701,-5520,5149,263,333,-1492,1,7,11
1.72313E+12,-4670,-5755,5137,338,377,-1801,1,7,11
1.72313E+12,-4671,-5726,5122,371,187,-1840,1,7,11
1.72313E+12,-4691,-5706,5139,354,250,-1839,1,7,11
1.72313E+12,-4675,-5706,5152,337,541,-1525,1,7,11
1.72313E+12,-4630,-5757,5190,299,578,-1461,1,7,11
1.72313E+12,-4279,-5594,5228,-11,590,-1422,1,7,11
1.72313E+12,-4435,-5889,5225,-33,605,-1491,1,7,11
1.72313E+12,-4420,-5919,5245,-76,403,-1877,1,7,11
1.72313E+12,-4401,-5935,5004,-90,444,-1732,1,7,11
1.72313E+12,-4399,-5909,5229,-116,451,-2100,1,7,11
1.72313E+12,-4368,-5923,5207,58,425,-2166,1,7,11
1.72313E+12,-4083,-5960,5197,-296,396,-1979,1,7,11
1.72313E+12,-4364,-5983,5229,-129,633,-2037,1,7,11
1.72313E+12,-4074,-5805,5037,-205,588,-2020,1,7,11
1.72313E+12,-4130,-5873,5238,-200,253,-2030,1,7,11
1.72313E+12,-3931,-6213,5181,-519,235,-2201,1,7,11
1.72313E+12,-3861,-6262,5153,-582,535,-2493,1,7,11
1.72313E+12,-3552,-6027,4849,-391,587,-2758,1,7,11
1.72313E+12,-3705,-6067,4987,-452,628,-2974,1,7,11
1.72313E+12,-3319,-6422,4949,-811,439,-3451,1,7,11
1.72313E+12,-3261,-6318,4917,-890,813,-3459,1,7,11
1.72313E+12,-3232,-6380,4890,-675,671,-3935,1,7,11
1.72313E+12,-3206,-6697,4585,-724,1045,-4097,1,7,11
1.72313E+12,-3378,-6756,4500,-1028,1070,-4170,1,7,11
1.72313E+12,-3366,-6966,4339,-1303,683,-4409,1,7,11
1.72313E+12,-3022,-6823,4478,-1155,802,-4441,1,7,11
1.72313E+12,-2946,-6907,4391,-1246,416,-4257,1,7,11
1.72313E+12,-3145,-7259,4386,-1553,544,-4317,1,7,11
1.72313E+12,-2773,-7109,4408,-1556,362,-4337,1,7,11
1.72313E+12,-2690,-7455,4435,-1258,-57,-4670,1,7,11
1.72313E+12,-2885,-7490,4408,-1160,-263,-4687,1,7,11
1.72313E+12,-2492,-7545,4363,-1346,-237,-4610,1,7,11
1.72313E+12,-2632,-7343,4077,-1315,-451,-4290,1,7,11
1.72313E+12,-2281,-7369,4047,-1006,-641,-4435,1,7,11
1.72313E+12,-2402,-7363,3985,-972,-1067,-4017,1,7,11
1.72313E+12,-1943,-7398,4188,-994,-959,-4111,1,7,11
1.72313E+12,-1721,-7692,4148,-1288,-1351,-3755,1,7,11
1.72313E+12,-1824,-7735,4128,-1326,-1167,-3968,1,7,11
1.72313E+12,-1425,-7776,4098,-1316,-1205,-3900,1,7,11
1.72313E+12,-1243,-7616,4098,-1292,-1192,-3550,1,7,11
1.72313E+12,-1302,-7939,3815,-928,-1162,-3485,1,7,11
1.72313E+12,-1120,-7678,3740,-1060,-1405,-3709,1,7,11
1.72313E+12,-1038,-7639,3936,-756,-1371,-3696,1,7,11
1.72313E+12,-727,-7627,3912,-753,-1357,-3600,1,7,11
1.72313E+12,-883,-7621,3889,-758,-1383,-3215,1,7,11
1.72313E+12,-488,-7631,3851,-761,-1163,-3361,1,7,11
1.72313E+12,-609,-7665,3846,-1026,-1402,-3033,1,7,11
1.72313E+12,-375,-7674,3552,-749,-1381,-2969,1,7,11
1.72313E+12,4,-7650,3530,-734,-1339,-3198,1,7,11
1.72313E+12,-102,-7674,3518,-756,-1315,-3122,1,7,11
1.72313E+12,-39,-7679,3524,-1049,-1306,-3082,1,7,11
1.72313E+12,344,-7975,3506,-1066,-1323,-2916,1,7,11
1.72313E+12,520,-7997,3458,-1069,-1342,-2465,1,7,11
1.72313E+12,400,-8002,3674,-1070,-1325,-2281,1,7,11
1.72313E+12,779,-8054,3648,-1083,-994,-2322,1,7,11
1.72313E+12,649,-7836,3636,-1058,-1125,-2121,1,7,11
1.72313E+12,1034,-7896,3623,-745,-699,-1719,1,7,11
1.72313E+12,1116,-7880,3604,-657,-777,-1676,1,7,11
1.72313E+12,1132,-7826,3599,-871,-385,-1682,1,7,11
1.72313E+12,1094,-8036,3638,-875,-556,-1691,1,7,11
1.72313E+12,1061,-8001,3659,-857,-542,-1888,1,7,11
1.72313E+12,1134,-7988,3618,-813,-560,-1495,1,7,11
1.72313E+12,1284,-7991,3303,-778,-562,-1610,1,7,11
1.72313E+12,1390,-8007,3292,-503,-514,-1273,1,7,11
1.72313E+12,1165,-7999,3309,-438,-195,-1193,1,7,11
1.72313E+12,1183,-7999,3325,-624,-169,-1315,1,7,11
1.72313E+12,1192,-8006,3595,-563,-169,-908,1,7,11
1.72313E+12,1206,-8047,3607,-526,-165,-768,1,7,11
1.72313E+12,1205,-8047,3611,-212,-369,-693,1,7,11
1.72313E+12,1248,-8025,3590,-168,-341,-668,1,7,11
1.72313E+12,1260,-7973,3318,-143,-307,-733,1,7,11
1.72313E+12,1234,-7940,3611,-162,-306,-1048,1,7,11
1.72313E+12,1216,-7651,3643,-167,-351,-1078,1,7,11
1.72313E+12,1195,-7640,3683,-178,-173,-1056,1,7,11
1.72313E+12,1568,-7637,3604,-185,-593,-677,1,7,11
1.72313E+12,1633,-7657,3315,-219,-610,-882,1,7,11
1.72313E+12,1465,-7665,3252,-237,-597,-837,1,7,11
1.72313E+12,1531,-7678,3232,-524,-543,-844,1,7,11
1.72313E+12,1794,-7953,3250,-541,-211,-857,1,7,11
1.72313E+12,1800,-7985,3262,-519,-143,-848,1,7,11
1.72313E+12,1797,-7962,3268,-193,-348,-824,1,7,11
1.72313E+12,1820,-7680,3247,-161,-340,-510,1,7,11
1.72313E+12,1805,-7656,3273,-134,-328,-455,1,7,11
1.72313E+12,1861,-7630,3242,-345,-371,-617,1,7,11
1.72313E+12,1914,-7583,3433,-321,-142,-563,1,7,11
1.72313E+12,1711,-7587,3393,-361,-146,-236,1,7,11
1.72313E+12,1734,-7625,3387,-151,-360,-170,1,7,11
1.72313E+12,1736,-7657,3402,-158,-284,-349,1,7,11
1.72313E+12,1759,-7670,3400,-384,51,-260,1,7,11
1.72313E+12,1772,-7679,3383,-352,117,58,1,7,11
1.72313E+12,1707,-7955,3405,-331,-81,86,1,7,11
1.72313E+12,1907,-7989,3436,-285,-27,-96,1,7,11
1.72313E+12,1876,-7984,3432,37,-18,-39,1,7,11
1.72313E+12,1860,-7981,3408,61,-2,263,1,7,11
1.72313E+12,1860,-7959,3384,72,265,275,1,7,11
1.72313E+12,1871,-7951,3375,66,276,258,1,7,11
1.72313E+12,1889,-7973,3364,65,298,-39,1,7,11
1.72313E+12,1871,-7991,3384,82,329,-90,1,7,11
1.72313E+12,1852,-7991,3396,113,347,-107,1,7,11
1.72313E+12,1824,-7984,3429,-112,360,-91,1,7,11
1.72313E+12,1830,-7950,3423,-77,328,-28,1,7,11
1.72313E+12,1858,-7660,3426,-74,290,284,1,7,11
1.72313E+12,1827,-7651,3449,-99,269,344,1,7,11
1.72313E+12,1829,-7655,3206,-105,-19,189,1,7,11
1.72313E+12,1854,-7663,3442,-100,-42,539,1,7,11
1.72313E+12,1878,-7660,3400,-92,-48,613,1,7,11
1.72313E+12,1882,-7937,3384,-106,-27,415,1,7,11
1.72313E+12,1814,-7960,3428,-103,266,476,1,7,11
1.72313E+12,1517,-7966,3432,-59,277,847,1,7,11
1.72313E+12,1515,-7963,3412,-12,278,708,1,7,11
1.72313E+12,1512,-7976,3392,-1,299,1054,1,7,11
1.72313E+12,1502,-8011,3404,258,347,1113,1,7,11
1.72313E+12,1472,-8027,3425,289,168,1137,1,7,11
1.72313E+12,1662,-8022,3201,331,253,1147,1,7,11
1.72313E+12,1583,-8018,3236,376,577,919,1,7,11
1.72313E+12,1265,-7993,3250,167,609,965,1,7,11
1.72313E+12,1254,-7989,3278,193,594,1281,1,7,11
1.72313E+12,1213,-7980,3293,252,564,1343,1,7,11
1.72313E+12,1213,-7963,3270,571,251,1207,1,7,11
1.72313E+12,1198,-7953,3264,604,224,1593,1,7,11
1.72313E+12,1185,-7969,3268,626,206,1502,1,7,11
1.72313E+12,1377,-8017,3300,384,232,1670,1,7,11
1.72313E+12,1002,-8040,3610,443,539,2129,1,7,11
1.72313E+12,1139,-7822,3649,788,596,2370,1,7,11
1.72313E+12,706,-7893,3501,647,417,2626,1,7,11
1.72313E+12,818,-8244,3855,1097,416,2939,1,7,11
1.72313E+12,455,-8231,3906,1343,619,2993,1,7,11
1.72313E+12,533,-8214,3717,1542,575,3306,1,7,11
1.72313E+12,326,-7898,3761,1457,543,3888,1,7,11
1.72313E+12,71,-7841,4096,1841,538,3986,1,7,11
1.72313E+12,-222,-8024,4207,1695,537,4665,1,7,11
1.72313E+12,-469,-7995,4025,2078,245,5183,1,7,11
1.72313E+12,-709,-7648,4079,1990,236,5660,1,7,11
1.72313E+12,-924,-7792,4365,2383,237,5845,1,7,11
1.72313E+12,-1376,-7389,4446,2234,567,6522,1,7,11
1.72313E+12,-1544,-7418,4635,2269,415,6923,1,7,11
1.72313E+12,-1647,-7416,4539,2572,510,7265,1,7,11
1.72313E+12,-1552,-7495,4549,2515,811,7496,1,7,11
1.72313E+12,-1676,-7280,4544,2906,888,7394,1,7,11
1.72313E+12,-2100,-6808,4572,2691,762,7731,1,7,11
1.72313E+12,-2327,-6653,4917,2863,952,7414,1,7,11
1.72313E+12,-2594,-6781,4808,2502,998,7353,1,7,11
1.72313E+12,-2538,-6698,5202,2596,1285,7322,1,7,11
1.72313E+12,-2727,-6304,5026,2251,965,6974,1,7,11
1.72313E+12,-3178,-6420,5074,2178,899,6307,1,7,11
1.72313E+12,-3344,-6026,5059,2384,1039,5870,1,7,11
1.72313E+12,-3265,-5875,5044,2033,746,5665,1,7,11
1.72313E+12,-3458,-5973,5053,2128,749,5223,1,7,11
1.72313E+12,-3920,-5615,5383,1806,1046,4593,1,7,11
1.72313E+12,-3792,-5582,5472,1626,1025,4298,1,7,11
1.72313E+12,-3822,-5572,5501,1207,674,4218,1,7,11
1.72313E+12,-4194,-5528,5313,1310,857,3509,1,7,11
1.72313E+12,-4379,-5726,5655,944,784,3366,1,7,11
1.72313E+12,-4324,-5364,5731,956,446,3081,1,7,11
1.72313E+12,-4518,-5465,5747,1293,603,2698,1,7,11
1.72313E+12,-4566,-5086,5714,1335,196,2704,1,7,11
1.72313E+12,-4596,-5000,5725,1006,353,2877,1,7,11
1.72313E+12,-4970,-5212,5598,987,-1,2552,1,7,11
1.72313E+12,-4974,-4851,5616,986,-122,2490,1,7,11
1.72313E+12,-4761,-4831,5937,900,97,2562,1,7,11
1.72313E+12,-4806,-4783,5975,905,39,2401,1,7,11
1.72313E+12,-4742,-4973,5957,902,-282,2024,1,7,11
1.72313E+12,-4972,-4919,5960,1090,-281,2079,1,7,11
1.72313E+12,-4941,-4596,5957,1025,-274,1872,1,7,11
1.72313E+12,-4976,-4519,5986,718,25,1650,1,7,11
1.72313E+12,-4761,-4709,6001,662,46,1277,1,7,11
1.72313E+12,-4980,-4655,5944,831,45,1170,1,7,11
1.72313E+12,-4982,-4615,5947,450,80,1290,1,7,11
1.72313E+12,-4976,-4343,5957,572,98,1147,1,7,11
1.72313E+12,-4979,-4350,5972,198,-111,733,1,7,11
1.72313E+12,-4960,-4328,5949,379,-61,840,1,7,11
1.72313E+12,-4743,-4325,5951,299,277,441,1,7,11
1.72313E+12,-4836,-4305,5985,-1,341,605,1,7,11
1.72313E+12,-5152,-4274,5990,-29,363,541,1,7,11
1.72313E+12,-5166,-4265,5968,-59,366,246,1,7,11
1.72313E+12,-5038,-4228,6013,108,367,154,1,7,11
1.72313E+12,-5034,-4441,5968,83,312,382,1,7,11
1.72313E+12,-5056,-4452,5980,5,316,314,1,7,11
1.72313E+12,-5072,-4440,5986,-301,273,271,1,7,11
1.72313E+12,-5086,-4450,6007,-350,-19,-44,1,7,11
1.72313E+12,-5109,-4471,5781,-142,-55,-90,1,7,11
1.72313E+12,-5085,-4476,5761,-184,-112,-119,1,7,11
1.72313E+12,-5067,-4478,6002,-231,102,81,1,7,11
1.72313E+12,-5036,-4225,5955,-542,67,20,1,7,11
1.72313E+12,-5014,-4227,5930,-626,52,-352,1,7,11
1.72313E+12,-5021,-4477,5900,-465,56,-247,1,7,11
1.72313E+12,-5039,-4253,5922,-818,59,-552,1,7,11
1.72313E+12,-5002,-4300,5911,-875,47,-544,1,7,11
1.72313E+12,-5186,-4338,5603,-664,33,-572,1,7,11
1.72313E+12,-5139,-4619,5577,-747,50,-628,1,7,11
1.72313E+12,-5189,-4677,5591,-1087,108,-470,1,7,11
1.72313E+12,-5225,-4719,5604,-1057,-124,-484,1,7,11
1.72313E+12,-5205,-4489,5563,-762,-94,-462,1,7,11
1.72313E+12,-5214,-4502,5525,-743,-61,-447,1,7,11
1.72313E+12,-5207,-4555,5531,-709,-28,-633,1,7,11
1.72313E+12,-5182,-4595,5754,-896,-3,-555,1,7,11
1.72313E+12,-5163,-4872,5725,-831,271,-518,1,7,11
1.72313E+12,-5157,-4906,5686,-795,281,-250,1,7,11
1.72313E+12,-5168,-4923,5675,-488,287,-514,1,7,11
1.72313E+12,-5198,-4942,5683,-460,275,-544,1,7,11
1.72313E+12,-5187,-4974,5693,-431,-15,-590,1,7,11
1.72313E+12,-5176,-4740,5702,-410,-48,-449,1,7,11
1.72313E+12,-5226,-4981,5714,-399,-97,-815,1,7,11
1.72313E+12,-5217,-4982,5694,-421,81,-844,1,7,11
1.72313E+12,-5237,-4981,5669,-462,26,-862,1,7,11
1.72313E+12,-5230,-4768,5690,-473,-257,-803,1,7,11
1.72313E+12,-5217,-4829,5737,-418,-275,-468,1,7,11
1.72313E+12,-5183,-5125,5754,-569,-281,-404,1,7,11
1.72313E+12,-5126,-4853,5715,-184,-334,-616,1,7,11
1.72313E+12,-4848,-4827,5699,-137,-359,-596,1,7,11
1.72313E+12,-4842,-4802,5684,-379,-144,-570,1,7,11
1.72313E+12,-4740,-4807,5374,-181,-176,-551,1,7,11
1.72313E+12,-4977,-4840,5662,-545,-384,-626,1,7,11
1.72313E+12,-4755,-5146,5729,-551,-378,-394,1,7,11
1.72313E+12,-4991,-5136,5738,-200,-138,-590,1,7,11
1.72313E+12,-4970,-5140,5710,-383,-379,-517,1,7,11
1.72313E+12,-4914,-5153,5717,-338,-341,-209,1,7,11
1.72313E+12,-4871,-5142,5722,-299,-277,-184,1,7,11
1.72313E+12,-4610,-5138,5741,-282,42,-183,1,7,11
1.72313E+12,-4879,-5132,5739,-270,90,-182,1,7,11
1.72313E+12,-4887,-5136,5747,-267,121,-154,1,7,11
1.72313E+12,-4903,-5125,5744,-283,-111,-364,1,7,11
1.72313E+12,-4912,-4840,5725,-272,-114,-305,1,7,11
1.72313E+12,-4914,-4838,5727,-302,-106,7,1,7,11
1.72313E+12,-4910,-5130,5744,-356,-105,48,1,7,11
1.72313E+12,-4868,-5132,5726,-144,121,52,1,7,11
1.72313E+12,-4597,-5127,5702,-205,105,18,1,7,11
1.72313E+12,-4605,-5124,5708,-518,96,-274,1,7,11
1.72313E+12,-4608,-5135,5704,-589,108,-287,1,7,11
1.72313E+12,-4604,-5152,5692,-385,-127,-282,1,7,11
1.72313E+12,-4570,-5203,5687,-431,-92,-277,1,7,11
1.72313E+12,-4550,-5219,5673,-441,-60,-289,1,7,11
1.72313E+12,-4525,-4996,5668,-478,-27,-332,1,7,11
1.72313E+12,-4529,-5016,5665,-507,-4,-142,1,7,11
1.72313E+12,-4529,-5039,5643,-792,267,-189,1,7,11
1.72313E+12,-4570,-5037,5637,-783,282,-196,1,7,11
1.72313E+12,-4597,-5045,5366,-775,275,-150,1,7,11
1.72313E+12,-4602,-5049,5340,-495,265,-336,1,7,11
1.72313E+12,-4583,-5078,5313,-490,265,-264,1,7,11
1.72313E+12,-4576,-5109,5295,-480,276,57,1,7,11
1.72313E+12,-4558,-5389,5257,-466,307,106,1,7,11
1.72313E+12,-4524,-5405,5477,-456,363,-123,1,7,11
1.72313E+12,-4519,-5443,5460,-453,167,127,1,7,11
1.72313E+12,-4542,-5435,5440,-410,207,118,1,7,11
1.72313E+12,-4556,-5415,5404,-398,229,-128,1,7,11
1.72313E+12,-4579,-5410,5381,-419,254,-106,1,7,11
1.72313E+12,-4602,-5455,5399,-455,534,-62,1,7,11
1.72313E+12,-4575,-5490,5392,-467,515,-37,1,7,11
1.72313E+12,-4578,-5273,5391,-483,226,-45,1,7,11
1.72313E+12,-4608,-5273,5109,-468,177,-59,1,7,11
1.72313E+12,-4911,-5496,5070,-476,139,-69,1,7,11
1.72313E+12,-4963,-5496,5084,-491,349,-54,1,7,11
1.72313E+12,-4984,-5249,5082,-456,296,265,1,7,11
1.72313E+12,-4964,-5503,5044,-409,-5,344,1,7,11
1.72313E+12,-4936,-5261,5014,-640,-32,157,1,7,11
1.72313E+12,-4906,-5264,5023,-621,-28,206,1,7,11
1.72313E+12,-4926,-5271,5066,-597,-1,183,1,7,11
1.72313E+12,-4944,-5253,5075,-537,-2,383,1,7,11
1.72313E+12,-4942,-5459,5037,-234,272,319,1,7,11
1.72313E+12,-4755,-5430,5070,-204,348,-6,1,7,11
1.72313E+12,-4802,-5377,5071,-136,378,-17,1,7,11
1.72313E+12,-4799,-5381,5056,-357,139,278,1,7,11
1.72313E+12,-4777,-5401,5055,-333,158,333,1,7,11
1.72313E+12,-4988,-5420,5054,-304,156,359,1,7,11
1.72313E+12,-4991,-5418,5051,-263,159,312,1,7,11
1.72313E+12,-4763,-5390,5046,31,149,-8,1,7,11
1.72313E+12,-4806,-5092,5043,49,136,-65,1,7,11
1.72313E+12,-4859,-5047,5041,48,363,-89,1,7,11
1.72313E+12,-5133,-5021,5038,25,332,-72,1,7,11
1.72313E+12,-5140,-5027,5047,1,300,-47,1,7,11
1.72313E+12,-5148,-5023,5046,-279,275,-50,1,7,11
1.72313E+12,-5151,-5023,5049,-298,-2,-57,1,7,11
1.72313E+12,-5159,-5023,5038,-327,-19,-74,1,7,11
1.72313E+12,-5174,-5010,5041,-340,-46,-79,1,7,11
1.72313E+12,-5186,-5025,5055,-338,-71,-53,1,7,11
1.72313E+12,-5180,-5024,5057,-318,-91,-21,1,7,11
1.72313E+12,-5163,-5021,5057,-293,-101,-1,1,7,11
1.72313E+12,-5134,-5023,5051,-275,-96,257,1,7,11
1.72313E+12,-5131,-5032,5063,-264,-79,-16,1,7,11
1.72313E+12,-5150,-5025,5073,34,-80,-20,1,7,11
1.72313E+12,-5153,-4999,5064,71,-91,-19,1,7,11
1.72313E+12,-5168,-5234,5068,82,-89,-20,1,7,11
1.72313E+12,-5193,-5206,5075,86,-91,-15,1,7,11
1.72313E+12,-5199,-5173,5070,78,-99,-10,1,7,11
1.72313E+12,-5212,-5169,5086,48,-114,-4,1,7,11
1.72313E+12,-5223,-5167,5087,22,113,266,1,7,11
1.72313E+12,-5234,-5181,5102,-260,79,276,1,7,11
1.72313E+12,-5234,-5175,5104,-260,34,280,1,7,11
1.72313E+12,-5223,-5165,5085,-272,-264,282,1,7,11
1.72313E+12,-5217,-5174,5085,-298,-290,286,1,7,11
1.72313E+12,-5208,-5188,5087,-328,-305,278,1,7,11
1.72313E+12,-5202,-5208,5100,-357,-308,256,1,7,11
1.72313E+12,-5184,-5208,5090,-360,-315,-25,1,7,11
1.72313E+12,-5162,-5205,5064,-369,-305,-67,1,7,11
1.72313E+12,-4860,-5234,5051,-361,12,-128,1,7,11
1.72313E+12,-4839,-5240,5062,-307,-112,3,1,7,11
1.72313E+12,-5122,-5208,5090,-263,-2,-379,1,7,11
1.72313E+12,-5149,-5195,5116,-267,288,-162,1,7,11
1.72313E+12,-5129,-5210,5106,-287,282,-145,1,7,11
1.72313E+12,-4845,-5228,5090,-299,311,-133,1,7,11
1.72313E+12,-4839,-5245,5090,-324,351,-134,1,7,11
1.72313E+12,-4852,-4993,5093,-332,381,-142,1,7,11
1.72313E+12,-5123,-5235,5085,-336,139,-138,1,7,11
1.72313E+12,-5133,-5229,5075,-356,150,-382,1,7,11
1.72313E+12,-5145,-4993,5078,-383,155,-372,1,7,11
1.72313E+12,-5142,-5246,5065,-129,141,-373,1,7,11
1.72313E+12,-5126,-4997,5052,-158,132,-380,1,7,11
1.72313E+12,-4864,-5002,5050,-177,380,-140,1,7,11
1.72313E+12,-5130,-5017,5064,-205,365,-150,1,7,11
1.72313E+12,-5146,-5030,5052,-214,335,-382,1,7,11
1.72313E+12,-5139,-5026,5039,-223,293,-305,1,7,11
1.72313E+12,-5155,-5036,5041,-254,279,9,1,7,11
1.72313E+12,-5151,-5041,5037,-525,257,53,1,7,11
1.72313E+12,-5148,-5043,5021,-537,-17,73,1,7,11
1.72313E+12,-5139,-5069,5025,-553,-16,85,1,7,11
1.72313E+12,-5136,-5083,5019,-552,-11,65,1,7,11
1.72313E+12,-5146,-5092,5010,-537,-2,43,1,7,11
1.72313E+12,-5128,-5091,5227,-526,267,33,1,7,11
1.72313E+12,-4851,-5111,5216,-533,303,7,1,7,11
1.72313E+12,-4848,-5115,5197,-526,338,-302,1,7,11
1.72313E+12,-4852,-5118,5182,-537,365,-353,1,7,11
1.72313E+12,-5132,-5382,5190,-546,139,-132,1,7,11
1.72313E+12,-5148,-5120,5182,-536,150,-139,1,7,11
1.72313E+12,-5156,-5378,5161,-537,158,-135,1,7,11
1.72313E+12,-5169,-5115,5133,-549,166,-382,1,7,11
1.72313E+12,-5162,-5390,4855,-579,172,-360,1,7,11
1.72313E+12,-5152,-5409,4835,-607,190,-373,1,7,11
1.72313E+12,-5165,-5430,4835,-627,206,-145,1,7,11
1.72313E+12,-5144,-5445,4801,-393,179,-181,1,7,11
1.72313E+12,-5148,-5437,4777,-412,170,-253,1,7,11
1.72313E+12,-5170,-5461,4785,-431,146,-537,1,7,11
1.72313E+12,-5160,-5494,4768,-444,350,-525,1,7,11
1.72313E+12,-5153,-5251,4754,-433,301,-535,1,7,11
1.72313E+12,-5154,-5284,4737,-436,-9,-534,1,7,11
1.72313E+12,-5157,-5272,4962,-427,-33,-535,1,7,11
1.72313E+12,-5162,-5268,4947,-438,-36,-530,1,7,11
1.72313E+12,-5180,-5266,4954,-472,-54,-527,1,7,11
1.72313E+12,-5207,-5277,4953,-497,-88,-256,1,7,11
1.72313E+12,-5195,-5300,4944,-503,120,-218,1,7,11
1.72313E+12,-5167,-5305,4923,-507,77,-201,1,7,11
1.72313E+12,-5166,-5312,4926,-784,38,-203,1,7,11
1.72313E+12,-5148,-5328,4909,-806,-260,-201,1,7,11
1.72313E+12,-5125,-5339,4893,-842,-296,-202,1,7,11
1.72313E+12,-5126,-5350,4900,-872,-323,-208,1,7,11
1.72313E+12,-4841,-5374,4899,-879,-357,-176,1,7,11
1.72313E+12,-4800,-5651,4878,-893,-129,-160,1,7,11
1.72313E+12,-4799,-5660,4870,-660,-149,-171,1,7,11
1.72313E+12,-4806,-5671,4871,-680,-171,-174,1,7,11
1.72313E+12,-4781,-5689,4600,-688,-197,-158,1,7,11
1.72313E+12,-4771,-5702,4583,-682,-222,-153,1,7,11
1.72313E+12,-4985,-5728,4575,-684,-234,-149,1,7,11
1.72313E+12,-4954,-5757,4554,-669,-243,-169,1,7,11
1.72313E+12,-4932,-5522,4554,-668,-233,-205,1,7,11
1.72313E+12,-4915,-5544,4541,-679,-214,-252,1,7,11
1.72313E+12,-4907,-5575,4546,-699,-188,-553,1,7,11
1.72313E+12,-4900,-5590,4521,-703,-165,-595,1,7,11
1.72313E+12,-4913,-5605,4509,-686,-377,-624,1,7,11
1.72313E+12,-4922,-5609,4529,-658,-338,-611,1,7,11
1.72313E+12,-4918,-5890,4514,-882,-320,-589,1,7,11
1.72313E+12,-4893,-5945,4514,-845,-289,-573,1,7,11
1.72313E+12,-4605,-5965,4488,-778,-273,-578,1,7,11
1.72313E+12,-4583,-5974,4725,-466,23,-611,1,7,11
1.72313E+12,-4579,-5978,4708,-434,65,-633,1,7,11
1.72313E+12,-4560,-6004,4705,-399,105,-387,1,7,11
1.72313E+12,-4548,-6013,4694,-609,-119,-397,1,7,11
1.72313E+12,-4523,-5781,4694,-572,-99,-392,1,7,11
1.72313E+12,-4498,-5815,4689,-538,-83,-389,1,7,11
1.72313E+12,-4503,-5813,4676,-248,-62,-396,1,7,11
1.72313E+12,-4498,-5800,4666,-237,-55,-638,1,7,11
1.72313E+12,-4499,-5808,4660,-242,-55,-606,1,7,11
1.72313E+12,-4728,-5845,4650,-249,-67,-555,1,7,11
1.72313E+12,-4702,-5876,4635,-247,-64,-527,1,7,11
1.72313E+12,-4696,-6163,4625,-254,-41,-251,1,7,11
1.72313E+12,-4698,-6171,4613,-234,-18,-221,1,7,11
1.72313E+12,-4715,-6165,4347,-222,265,-192,1,7,11
1.72313E+12,-4481,-6159,4348,-193,289,-142,1,7,11
1.72313E+12,-4498,-6173,4624,-146,305,-336,1,7,11
1.72313E+12,-4496,-6209,4629,-346,296,-279,1,7,11
1.72313E+12,-4735,-6210,4621,-271,264,0,1,7,11
1.72313E+12,-4730,-6185,4608,37,-33,-264,1,7,11
1.72313E+12,-4487,-5884,4343,63,-81,-284,1,7,11
1.72313E+12,-4498,-5866,4338,57,-123,-283,1,7,11
1.72313E+12,-4482,-5866,4610,62,98,-271,1,7,11
1.72313E+12,-4730,-5880,4629,83,70,-261,1,7,11
1.72313E+12,-4705,-6145,4618,118,40,15,1,7,11
1.72313E+12,-4689,-6145,4617,-104,25,27,1,7,11
1.72313E+12,-4680,-6146,4633,-86,34,26,1,7,11
1.72313E+12,-4671,-5886,4656,-65,37,24,1,7,11
1.72313E+12,-4663,-5886,4673,-30,44,25,1,7,11
1.72313E+12,-4673,-5861,4680,275,69,46,1,7,11
1.72313E+12,-4684,-5848,4679,328,91,108,1,7,11
1.72313E+12,-4690,-5819,4674,365,112,-65,1,7,11
1.72313E+12,-4697,-5797,4689,380,-118,276,1,7,11
1.72313E+12,-4709,-5764,4685,129,-94,341,1,7,11
1.72313E+12,-4727,-6001,4693,128,-68,130,1,7,11
1.72313E+12,-4492,-5982,4708,383,-43,163,1,7,11
1.72313E+12,-4514,-5980,4733,380,-18,190,1,7,11
1.72313E+12,-4534,-5990,4508,133,266,212,1,7,11
1.72313E+12,-4545,-5980,4527,173,294,222,1,7,11
1.72313E+12,-4557,-5978,4552,177,310,233,1,7,11
1.72313E+12,-4536,-5966,4539,185,319,242,1,7,11
1.72313E+12,-4529,-5951,4524,172,348,218,1,7,11
1.72313E+12,-4508,-5948,4517,163,136,180,1,7,11
1.72313E+12,-4500,-5941,4530,155,191,375,1,7,11
1.72313E+12,-4572,-5899,4563,170,516,257,1,7,11
1.72313E+12,-4865,-5619,4587,181,566,5,1,7,11
1.72313E+12,-4591,-5614,4574,198,596,274,1,7,11
1.72313E+12,-4561,-5610,4562,194,634,-12,1,7,11
1.72313E+12,-4573,-5590,4561,173,417,-74,1,7,11
1.72313E+12,-4868,-5575,4578,130,455,-117,1,7,11
1.72313E+12,-4889,-5572,4594,371,487,-109,1,7,11
1.72313E+12,-4924,-5560,4865,380,795,-88,1,7,11
1.72313E+12,-4949,-5548,4603,157,839,-32,1,7,11
1.72313E+12,-4932,-5552,4586,187,881,291,1,7,11
1.72313E+12,-4951,-5536,4594,213,679,315,1,7,11
1.72313E+12,-4980,-5531,4865,230,699,338,1,7,11
1.72313E+12,-4754,-5518,4880,243,684,347,1,7,11
1.72313E+12,-4789,-5738,4873,521,894,340,1,7,11
1.72313E+12,-4815,-5700,4601,522,833,328,1,7,11
1.72313E+12,-4831,-5670,4580,241,499,300,1,7,11
1.72313E+12,-4853,-5639,4567,188,422,-1,1,7,11
1.72313E+12,-5139,-5362,4563,368,601,-37,1,7,11
1.72313E+12,-5135,-5362,4563,290,512,-50,1,7,11
1.72313E+12,-4861,-5360,4546,-46,179,-69,1,7,11
1.72313E+12,-4855,-5372,4553,-118,128,-104,1,7,11
1.72313E+12,-4843,-5639,4556,78,351,127,1,7,11
1.72313E+12,-4812,-5678,4569,33,346,98,1,7,11
1.72313E+12,-4806,-5697,4574,17,371,55,1,7,11
1.72313E+12,-4777,-5730,4581,11,134,21,1,7,11
1.72313E+12,-4991,-5729,4555,27,154,-298,1,7,11
1.72313E+12,-4989,-5729,4549,37,208,-139,1,7,11
1.72313E+12,-4758,-5706,4541,59,527,-220,1,7,11
1.72313E+12,-4755,-5721,4538,78,586,-256,1,7,11
1.72313E+12,-4987,-5712,4518,115,396,-552,1,7,11
1.72313E+12,-4753,-5735,4524,-125,477,-601,1,7,11
1.72313E+12,-4770,-5744,4509,-106,811,-639,1,7,11
1.72313E+12,-4792,-5738,4494,-79,865,-415,1,7,11
1.72313E+12,-4852,-5733,4517,-79,675,-460,1,7,11
1.72313E+12,-5147,-5740,4536,-71,701,-446,1,7,11
1.72313E+12,-5149,-5724,4526,-32,669,-423,1,7,11
1.72313E+12,-5149,-5723,4513,265,642,-392,1,7,11
1.72313E+12,-5152,-5720,4501,277,857,-626,1,7,11
1.72313E+12,-5133,-5720,4728,282,799,-617,1,7,11
1.72313E+12,-4849,-5733,4703,263,494,-612,1,7,11
1.72313E+12,-4817,-5724,4675,-4,460,-624,1,7,11
1.72313E+12,-4792,-5734,4662,-73,457,-402,1,7,11
1.72313E+12,-4763,-5521,4660,-115,450,-435,1,7,11
1.72313E+12,-4902,-5566,4623,-118,410,-478,1,7,11
1.72313E+12,-4491,-5913,4327,103,387,-883,1,7,11
1.72313E+12,-4680,-6016,4611,-120,389,-963,1,7,11
1.72313E+12,-4315,-6005,4276,-103,605,-1638,1,7,11
1.72313E+12,-4444,-6233,4653,15,515,-2130,1,7,11
1.72313E+12,-4109,-6469,4341,48,104,-2559,1,7,11
1.72313E+12,-3750,-6293,4234,-272,-175,-4180,1,7,11
1.72313E+12,-4521,-6277,4581,-234,-304,-5624,1,7,11
1.72313E+12,-5115,-6116,4961,-155,-542,-6544,1,7,11
1.72313E+12,-5663,-6185,4887,-373,-673,-7231,1,7,11
1.72313E+12,-5590,-5791,4559,-192,-1374,-7296,1,7,11
1.72313E+12,-5719,-5792,4526,-636,-1793,-6935,1,7,11
1.72313E+12,-5421,-6165,4512,-497,-1781,-6267,1,7,11
1.72313E+12,-5155,-6169,4651,-419,-1767,-5069,1,7,11
1.72313E+12,-4512,-6237,4325,-640,-1498,-3861,1,7,11
1.72313E+12,-3803,-6408,4233,-429,-1403,-2075,1,7,11
1.72313E+12,-3382,-6670,4249,-438,-696,-251,1,7,11
1.72313E+12,-2460,-6654,4469,-550,-515,755,1,7,11
1.72313E+12,-1536,-6842,3972,-217,73,1504,1,7,11
1.72313E+12,-1553,-7272,4044,-612,494,1205,1,7,11
1.72313E+12,-1687,-7105,4276,-628,1191,498,1,7,11
1.72313E+12,-2223,-7072,4658,-148,1696,-114,1,7,11
1.72313E+12,-2926,-6878,4341,-87,2015,-573,1,7,11
1.72313E+12,-2970,-6971,4254,339,2234,-706,1,7,11
1.72313E+12,-3367,-6628,4432,356,2569,-1353,1,7,11
1.72313E+12,-3454,-6930,4237,-34,2601,-1668,1,7,11
1.72313E+12,-3474,-7021,4688,125,2589,-2678,1,7,11
1.72313E+12,-3931,-7013,4514,-111,2028,-2950,1,7,11
1.72313E+12,-3880,-6953,4679,112,1528,-3243,1,7,11
1.72313E+12,-3625,-6960,4305,-291,983,-3497,1,7,11
1.72313E+12,-3414,-6798,4315,-581,777,-3984,1,7,11
1.72313E+12,-3456,-6903,4708,-790,355,-4605,1,7,11
1.72313E+12,-3204,-6890,4686,-815,-362,-5005,1,7,11
1.72313E+12,-3411,-6880,4660,-868,-448,-5467,1,7,11
1.72313E+12,-2965,-7176,4325,-880,-685,-5472,1,7,11
1.72313E+12,-2939,-7274,4258,-866,-751,-5387,1,7,11
1.72313E+12,-2609,-7132,4441,-792,-1041,-5007,1,7,11
1.72313E+12,-1998,-7486,4414,-484,-1069,-5176,1,7,11
1.72313E+12,-2067,-7521,4436,-466,-1074,-5188,1,7,11
1.72313E+12,-1679,-7518,4416,-438,-1114,-5056,1,7,11
1.72313E+12,-1851,-7518,4423,-416,-908,-4938,1,7,11
1.72313E+12,-1650,-7302,4427,-392,-974,-4342,1,7,11
1.72313E+12,-942,-7359,4363,-609,-1397,-3998,1,7,11
1.72313E+12,-885,-7358,4046,-584,-1545,-3923,1,7,11
1.72313E+12,-772,-7326,4009,-639,-1557,-3893,1,7,11
1.72313E+12,-442,-7516,4152,-400,-1514,-3506,1,7,11
1.72313E+12,-623,-7544,4152,-502,-1158,-3296,1,7,11
1.72313E+12,-191,-7687,4174,-717,-1340,-3012,1,7,11
1.72313E+12,-266,-7562,4219,-1044,-1304,-3092,1,7,11
1.72313E+12,60,-7658,4021,-1045,-1316,-2724,1,7,11
1.72313E+12,118,-7949,4011,-713,-1360,-2551,1,7,11
1.72313E+12,-32,-7960,4211,-872,-1375,-2593,1,7,11
1.72313E+12,325,-7952,4148,-813,-1319,-2429,1,7,11
1.72313E+12,158,-7947,4118,-799,-965,-2035,1,7,11
1.72313E+12,239,-7965,4128,-819,-1131,-2160,1,7,11
1.72313E+12,588,-7979,4111,-823,-1076,-1784,1,7,11
1.72313E+12,402,-7979,3832,-832,-1033,-1683,1,7,11
1.72313E+12,448,-7973,3814,-833,-746,-1817,1,7,11
1.72313E+12,784,-7993,3798,-837,-731,-1421,1,7,11
1.72313E+12,876,-8024,3781,-804,-705,-1554,1,7,11
1.72313E+12,695,-8003,3714,-457,-650,-1185,1,7,11
1.72313E+12,726,-7972,3934,-626,-804,-1310,1,7,11
1.72313E+12,740,-7651,3887,-540,-418,-1141,1,7,11
1.72313E+12,766,-7634,3888,-518,-540,-722,1,7,11
1.72313E+12,1060,-7650,3919,-241,-166,-861,1,7,11
1.72313E+12,1096,-7649,3937,-218,-348,-807,1,7,11
1.72313E+12,1099,-7619,3928,-197,-310,-792,1,7,11
1.72313E+12,1106,-7610,3912,-216,-292,-495,1,7,11
1.72313E+12,1099,-7619,3908,-237,-264,-420,1,7,11
1.72313E+12,1145,-7668,3909,-246,41,-567,1,7,11
1.72313E+12,979,-7960,3885,-229,109,-229,1,7,11
1.72313E+12,1019,-8017,3902,-228,-57,-197,1,7,11
1.72313E+12,983,-8030,3920,-177,288,-175,1,7,11
1.72313E+12,1149,-7974,3905,-308,369,-310,1,7,11
1.72313E+12,1132,-7678,3887,13,141,52,1,7,11
1.72313E+12,1131,-7653,3894,28,149,-121,1,7,11
1.72313E+12,1106,-7639,3906,44,138,-50,1,7,11
1.72313E+12,1103,-7640,3896,50,350,280,1,7,11
1.72313E+12,1042,-7673,3919,43,328,348,1,7,11
1.72313E+12,765,-7967,3938,61,298,221,1,7,11
1.72313E+12,750,-7951,3931,-123,291,615,1,7,11
1.72313E+12,1025,-7661,3904,-48,316,773,1,7,11
1.72313E+12,1035,-7656,3898,-3,361,890,1,7,11
1.72313E+12,1027,-7674,3918,298,142,720,1,7,11
1.72313E+12,732,-7650,3941,354,159,1044,1,7,11
1.72313E+12,670,-7641,3966,141,145,1151,1,7,11
1.72313E+12,874,-7581,3953,185,368,1305,1,7,11
1.72313E+12,812,-7590,3729,181,360,1235,1,7,11
1.72313E+12,506,-7620,3733,210,358,1471,1,7,11
1.72313E+12,414,-7662,3762,240,130,1713,1,7,11
1.72313E+12,571,-7946,3822,565,151,1988,1,7,11
1.72313E+12,236,-7654,3853,428,140,2255,1,7,11
1.72313E+12,143,-7640,4137,793,352,2517,1,7,11
1.72313E+12,275,-7653,4203,889,287,2774,1,7,11
1.72313E+12,39,-7981,4039,703,-18,3054,1,7,11
1.72313E+12,-222,-8035,4354,1118,-85,3702,1,7,11
1.72313E+12,-570,-7842,4414,1316,112,4178,1,7,11
1.72313E+12,-1030,-7861,4449,1515,51,4745,1,7,11
1.72313E+12,-951,-7844,4468,2106,-278,5326,1,7,11
1.72313E+12,-1353,-7840,4266,2392,-371,6171,1,7,11
1.72313E+12,-1258,-8040,4334,2451,-205,6701,1,7,11
1.72313E+12,-1664,-7937,4621,2775,-242,6900,1,7,11
1.72313E+12,-1886,-7559,4726,3373,-162,7501,1,7,11
1.72313E+12,-1791,-7424,4538,3468,-326,7629,1,7,11
1.72313E+12,-2132,-7311,4596,3729,40,7901,1,7,11
1.72313E+12,-2096,-7471,4604,4165,62,8081,1,7,11
1.72313E+12,-2091,-7189,4558,4043,112,8281,1,7,11
1.72313E+12,-2035,-6630,4926,3989,310,8013,1,7,11
1.72313E+12,-2664,-6373,5201,4154,560,7376,1,7,11
1.72313E+12,-2754,-6078,5429,4117,432,7218,1,7,11
1.72313E+12,-2957,-5793,5327,3723,448,6728,1,7,11
1.72313E+12,-3261,-5530,5523,3498,452,5845,1,7,11
1.72313E+12,-3472,-5271,5890,3226,598,5251,1,7,11
1.72313E+12,-3867,-5087,5980,3150,215,4890,1,7,11
1.72313E+12,-3713,-5186,5799,2553,351,4030,1,7,11
1.72313E+12,-3790,-4830,5885,2425,-7,3696,1,7,11
1.72313E+12,-4113,-4766,6267,1790,-105,3144,1,7,11
1.72313E+12,-4149,-4990,6140,1480,56,2678,1,7,11
1.72313E+12,-4151,-4948,6503,1256,-297,2027,1,7,11
1.72313E+12,-4172,-4944,6346,1332,-379,1697,1,7,11
1.72313E+12,-4205,-4914,6680,974,-186,1431,1,7,11
1.72313E+12,-3973,-4594,6739,938,-239,1237,1,7,11
1.72313E+12,-3983,-4573,6546,941,-547,1402,1,7,11
1.72313E+12,-4152,-4519,6567,942,-633,1324,1,7,11
1.72313E+12,-4169,-4700,6592,905,-402,907,1,7,11
1.72313E+12,-4212,-4626,6609,1116,-399,763,1,7,11
1.72313E+12,-3987,-4328,6642,762,-396,690,1,7,11
1.72313E+12,-4214,-4277,6650,643,-409,647,1,7,11
1.72313E+12,-3980,-4269,6971,500,-409,869,1,7,11
1.72313E+12,-3974,-4460,6937,395,-433,857,1,7,11
1.72313E+12,-4145,-4454,6960,544,-486,818,1,7,11
1.72313E+12,-4139,-4442,6973,151,-503,779,1,7,11
1.72313E+12,-4093,-4472,6986,294,-808,503,1,7,11
1.72313E+12,-3785,-4255,6995,-54,-866,457,1,7,11
1.72313E+12,-3729,-4314,6997,45,-692,514,1,7,11
1.72313E+12,-3768,-4266,6978,-333,-1032,274,1,7,11
1.72313E+12,-4098,-4274,6973,-187,-1122,-122,1,7,11
1.72313E+12,-3813,-4657,6992,-575,-1025,112,1,7,11
1.72313E+12,-3878,-4729,6940,-400,-1407,22,1,7,11
1.72313E+12,-3492,-4539,6933,-444,-1189,-382,1,7,11
1.72313E+12,-3705,-4607,6953,-400,-1400,-525,1,7,11
1.72313E+12,-3458,-4914,6952,-564,-1293,-601,1,7,11
1.72313E+12,-3711,-4911,6917,-199,-1149,-599,1,7,11
1.72313E+12,-3686,-4871,6587,-371,-699,-543,1,7,11
1.72313E+12,-3645,-4600,6539,-337,-474,-175,1,7,11
1.72313E+12,-3601,-4561,6734,-325,-520,-326,1,7,11
1.72313E+12,-3611,-4527,6724,-330,-315,15,1,7,11
1.72313E+12,-3687,-4556,6547,-318,-123,126,1,7,11
1.72313E+12,-3549,-4562,6613,8,274,259,1,7,11
1.72313E+12,-3938,-4546,6645,102,129,171,1,7,11
1.72313E+12,-3819,-4502,6626,-47,226,385,1,7,11
1.72313E+12,-4166,-4726,6595,295,586,647,1,7,11
1.72313E+12,-4220,-4736,6610,366,432,907,1,7,11
1.72313E+12,-3981,-4497,6607,201,483,1379,1,7,11
1.72313E+12,-3992,-4504,6578,525,485,1233,1,7,11
1.72313E+12,-4035,-4707,6543,565,446,1248,1,7,11
1.72313E+12,-4071,-4655,6770,562,637,1224,1,7,11
1.72313E+12,-4367,-4336,6732,546,567,1163,1,7,11
1.72313E+12,-4402,-4273,6701,516,254,1360,1,7,11
1.72313E+12,-4386,-4464,6393,200,205,1299,1,7,11
1.72313E+12,-4383,-4407,6376,369,181,954,1,7,11
1.72313E+12,-4422,-4363,6397,289,185,1135,1,7,11
1.72313E+12,-4237,-4084,6713,-7,211,1112,1,7,11
1.72313E+12,-4305,-4061,6777,272,252,1141,1,7,11
1.72313E+12,-4614,-4045,6569,324,556,952,1,7,11
1.72313E+12,-4639,-4044,6621,380,585,1018,1,7,11
1.72313E+12,-4622,-4049,6927,184,577,1308,1,7,11
1.72313E+12,-4320,-4054,6951,239,537,1280,1,7,11
1.72313E+12,-4299,-4041,6932,541,233,950,1,7,11
1.72313E+12,-4280,-3969,6563,546,190,1114,1,7,11
1.72313E+12,-4274,-4166,6746,190,188,1056,1,7,11
1.72313E+12,-4390,-4165,6664,276,176,716,1,7,11
1.72313E+12,-4095,-3988,6752,87,226,816,1,7,11
1.72313E+12,-4355,-4005,6589,35,515,395,1,7,11
1.72313E+12,-4480,-4180,6918,118,599,548,1,7,11
1.72313E+12,-4672,-3765,6654,263,443,559,1,7,11
1.72313E+12,-4563,-3580,6569,372,812,427,1,7,11
1.72313E+12,-4949,-3696,6770,139,679,852,1,7,11
1.72313E+12,-4791,-3618,6735,357,754,766,1,7,11
1.72313E+12,-5121,-3607,6727,272,1042,1144,1,7,11
1.72313E+12,-5230,-3617,6736,-64,1056,957,1,7,11
1.72313E+12,-5091,-3652,6783,-112,1066,1022,1,7,11
1.72313E+12,-5386,-3656,6761,-105,1024,1327,1,7,11
1.72313E+12,-5417,-3626,6712,-93,714,1350,1,7,11
1.72313E+12,-5438,-3616,6669,-90,659,1386,1,7,11
1.72313E+12,-5429,-3638,6361,-115,850,1389,1,7,11
1.72313E+12,-5433,-3639,6347,117,792,1346,1,7,11
1.72313E+12,-5450,-3663,6385,97,467,1018,1,7,11
1.72313E+12,-5482,-3666,6676,-128,618,920,1,7,11
1.72313E+12,-5496,-3660,6673,-76,224,1086,1,7,11
1.72313E+12,-5504,-3641,6368,-32,348,1026,1,7,11
1.72313E+12,-5500,-3638,6356,-7,-52,702,1,7,11
1.72313E+12,-5249,-3627,6387,266,-109,645,1,7,11
1.72313E+12,-5477,-3613,6687,311,75,833,1,7,11
1.72313E+12,-5469,-3322,6756,142,7,505,1,7,11
1.72313E+12,-5383,-3603,6544,226,-357,406,1,7,11
1.72313E+12,-5106,-3585,6592,568,-177,196,1,7,11
1.72313E+12,-5061,-3315,6625,637,-516,267,1,7,11
1.72313E+12,-5218,-3316,6634,416,-598,94,1,7,11
1.72313E+12,-4857,-3635,6915,398,-416,-337,1,7,11
1.72313E+12,-4794,-3693,6938,637,-469,-529,1,7,11
1.72313E+12,-4957,-3489,6934,626,-775,-446,1,7,11
1.72313E+12,-4870,-3475,6635,635,-795,-877,1,7,11
1.72313E+12,-4576,-3698,6620,394,-781,-1032,1,7,11
1.72313E+12,-4570,-3647,6610,420,-772,-1149,1,7,11
1.72313E+12,-4592,-3586,6564,458,-778,-966,1,7,11
1.72313E+12,-4598,-3316,6566,478,-510,-949,1,7,11
1.72313E+12,-4537,-3601,6618,502,-501,-1138,1,7,11
1.72313E+12,-4700,-3712,6996,825,-487,-1060,1,7,11
1.72313E+12,-4326,-3849,6846,736,-456,-764,1,7,11
1.72313E+12,-4419,-3741,7218,985,-386,-753,1,7,11
1.72313E+12,-4020,-3805,7052,1581,-521,-1041,1,7,11
1.72313E+12,-4179,-3753,7082,1722,-360,-1033,1,7,11
1.72313E+12,-4122,-3877,7082,2372,121,-703,1,7,11
1.72313E+12,-4165,-3655,7069,2501,191,-868,1,7,11
1.72313E+12,-4206,-3401,7286,3093,825,-486,1,7,11
1.72313E+12,-4183,-3178,7252,3048,962,-625,1,7,11
1.72313E+12,-4210,-2941,7205,3413,1598,-596,1,7,11
1.72313E+12,-4376,-2660,6907,3427,1710,-634,1,7,11
1.72313E+12,-4610,-2416,6865,3068,2318,-390,1,7,11
1.72313E+12,-4555,-1978,6804,3119,2646,-629,1,7,11
1.72313E+12,-4984,-2149,7015,2832,2941,-629,1,7,11
1.72313E+12,-5123,-2111,6969,2247,3180,-441,1,7,11
1.72313E+12,-5009,-2122,6955,2165,3369,-818,1,7,11
1.72313E+12,-5441,-2111,6627,1861,3234,-725,1,7,11
1.72313E+12,-5650,-2114,6581,1555,3278,-1140,1,7,11
1.72313E+12,-5598,-1923,6588,1004,3225,-982,1,7,11
1.72313E+12,-6014,-2009,6566,1038,3062,-1314,1,7,11
1.72313E+12,-5857,-2351,6531,870,3082,-1338,1,7,11
1.72313E+12,-6148,-2203,6752,488,2548,-1331,1,7,11
1.72313E+12,-6174,-2566,6716,424,2245,-1341,1,7,11
1.72313E+12,-6200,-2618,6666,426,1937,-1386,1,7,11
1.72313E+12,-6234,-2633,6387,457,1907,-1156,1,7,11
1.72313E+12,-6246,-2626,6346,505,1641,-1390,1,7,11
1.72313E+12,-6226,-2608,6518,796,1399,-1338,1,7,11
1.72313E+12,-6192,-2600,6496,785,925,-1016,1,7,11
1.72313E+12,-5855,-2613,6493,485,719,-959,1,7,11
1.72313E+12,-5823,-2625,6514,465,831,-943,1,7,11
1.72313E+12,-5830,-2295,6502,484,488,-944,1,7,11
1.72313E+12,-5868,-2238,6496,486,474,-908,1,7,11
1.72313E+12,-6162,-2408,6460,478,478,-1112,1,7,11
1.72313E+12,-6221,-2341,6416,433,494,-1076,1,7,11
1.72313E+12,-6018,-2047,6123,582,489,-1032,1,7,11
1.72313E+12,-6101,-2040,6104,174,450,-746,1,7,11
1.72313E+12,-6460,-2034,6053,267,633,-719,1,7,11
1.72313E+12,-6309,-2309,6036,107,547,-668,1,7,11
1.72313E+12,-6370,-2337,6266,-265,186,-870,1,7,11
1.72313E+12,-6395,-2198,6018,-355,334,-825,1,7,11
1.72313E+12,-6383,-2258,6264,-135,-58,-835,1,7,11
1.72313E+12,-6324,-2303,6250,-154,32,-644,1,7,11
1.72313E+12,-6282,-2595,6256,-177,-149,-725,1,7,11
1.72313E+12,-6482,-2642,6031,-190,-578,-1042,1,7,11
1.72313E+12,-6112,-2468,6052,-175,-477,-1042,1,7,11
1.72313E+12,-6201,-2528,6045,-133,-693,-1045,1,7,11
1.72313E+12,-5814,-2864,6080,-344,-1038,-1060,1,7,11
1.72313E+12,-5925,-2909,6122,-292,-1100,-1097,1,7,11
1.72313E+12,-5599,-2909,6454,59,-1136,-1136,1,7,11
1.72313E+12,-5509,-2865,6522,111,-911,-1152,1,7,11
1.72313E+12,-5710,-2545,6364,-126,-922,-916,1,7,11
1.72313E+12,-5659,-2474,6713,-99,-938,-928,1,7,11
1.72313E+12,-5340,-2651,6764,-92,-953,-913,1,7,11
1.72313E+12,-5281,-2572,6542,-117,-955,-1118,1,7,11
1.72313E+12,-5485,-2257,6601,87,-937,-1057,1,7,11
1.72313E+12,-5465,-2214,6646,25,-899,-723,1,7,11
1.72313E+12,-5481,-2255,6981,-319,-1091,-856,1,7,11
1.72313E+12,-5446,-2256,6979,-371,-1030,-493,1,7,11
1.72313E+12,-5436,-2567,6981,-207,-673,-389,1,7,11
1.72313E+12,-5430,-2622,6634,-549,-834,-601,1,7,11
1.72313E+12,-5473,-2484,6616,-430,-426,-565,1,7,11
1.72313E+12,-5255,-2909,6630,-791,-533,-556,1,7,11
1.72313E+12,-5294,-2790,6601,-823,-146,-634,1,7,11
1.72313E+12,-5331,-3170,6560,-829,-310,-774,1,7,11
1.72313E+12,-5321,-3064,6532,-839,-270,-705,1,7,11
1.72313E+12,-5342,-3444,6541,-812,-267,-944,1,7,11
1.72313E+12,-5667,-3267,6585,-458,-302,-1406,1,7,11
1.72313E+12,-5726,-3275,6608,-547,-377,-1246,1,7,11
1.72313E+12,-5682,-3234,6590,-362,-225,-1253,1,7,11
1.72313E+12,-5501,-3442,6774,40,-576,-1220,1,7,11
1.72313E+12,-4996,-3435,6758,107,-601,-1176,1,7,11
1.72313E+12,-4777,-3403,6541,-114,-579,-1166,1,7,11
1.72313E+12,-4584,-3348,6596,-126,-523,-1398,1,7,11
1.72313E+12,-4647,-3010,6951,77,-166,-1308,1,7,11
1.72313E+12,-4438,-3191,6790,-262,-300,-910,1,7,11
1.72313E+12,-3982,-3137,6909,-380,95,-1027,1,7,11
1.72313E+12,-3804,-3121,7061,-251,-13,-647,1,7,11
1.72313E+12,-3909,-3130,7450,-388,375,-825,1,7,11
1.72313E+12,-3853,-3160,7313,-494,233,-483,1,7,11
1.72313E+12,-3540,-3151,7333,-843,579,-391,1,7,11
1.72313E+12,-3551,-3105,7306,-683,440,-561,1,7,11
1.72313E+12,-3876,-3124,7549,-1054,834,-177,1,7,11
1.72313E+12,-3898,-2963,7493,-1150,697,15,1,7,11
1.72313E+12,-3882,-3414,7138,-983,1066,104,1,7,11
1.72313E+12,-3874,-3290,7268,-1359,995,10,1,7,11
1.72313E+12,-3948,-3457,7196,-1650,1401,-139,1,7,11
1.72313E+12,-4113,-3879,7189,-1800,1548,-224,1,7,11
1.72313E+12,-4010,-3729,6873,-1857,1634,-213,1,7,11
1.72313E+12,-4407,-3774,6948,-1863,1426,-139,1,7,11
1.72313E+12,-4313,-3806,6394,-1916,1449,-294,1,7,11
1.72313E+12,-4505,-3831,6263,-1781,1481,69,1,7,11
1.72313E+12,-4960,-4162,5904,-2014,1815,-26,1,7,11
1.72313E+12,-5133,-4085,5660,-2294,1681,149,1,7,11
1.72313E+12,-5089,-4322,5330,-2512,2091,530,1,7,11
1.72313E+12,-5318,-4510,5313,-2827,1947,596,1,7,11
1.72313E+12,-5528,-4567,5446,-2501,1998,615,1,7,11
1.72313E+12,-5953,-4504,4993,-2433,2022,587,1,7,11
1.72313E+12,-5847,-4643,4791,-2442,2038,528,1,7,11
1.72313E+12,-6241,-4292,4866,-2550,2025,217,1,7,11
1.72313E+12,-6029,-4243,4658,-2775,1963,175,1,7,11
1.72313E+12,-6051,-4268,4258,-3368,2171,132,1,7,11
1.72313E+12,-6085,-4292,4436,-3688,2156,374,1,7,11
1.72313E+12,-6094,-4653,4426,-3715,2149,223,1,7,11
1.72313E+12,-6041,-4568,4438,-4154,2144,402,1,7,11
1.72313E+12,-6216,-4756,4438,-4212,2113,801,1,7,11
1.72313E+12,-6163,-5189,4422,-4170,2059,875,1,7,11
1.72313E+12,-5841,-5049,4379,-3771,1727,640,1,7,11
1.72313E+12,-5795,-5117,4069,-3557,1904,850,1,7,11
1.72313E+12,-6009,-5380,4170,-3310,1823,779,1,7,11
1.72313E+12,-5998,-5393,3738,-3372,1524,433,1,7,11
1.72313E+12,-5827,-5429,3890,-2967,1505,620,1,7,11
1.72313E+12,-6165,-5456,3530,-3087,1437,580,1,7,11
1.72313E+12,-6017,-5500,3546,-2729,1596,592,1,7,11
1.72313E+12,-6029,-5312,3579,-2846,1161,390,1,7,11
1.72313E+12,-6218,-5680,3899,-2672,926,416,1,7,11
1.72313E+12,-5845,-5758,3910,-2202,644,617,1,7,11
1.72313E+12,-5969,-5739,3855,-2003,596,212,1,7,11
1.72313E+12,-5626,-5668,3850,-2153,331,263,1,7,11
1.72313E+12,-5614,-5283,3945,-2072,101,67,1,7,11
1.72313E+12,-5918,-5382,4152,-1695,-358,-330,1,7,11
1.72313E+12,-5792,-5192,4396,-1448,-539,-356,1,7,11
1.72313E+12,-5865,-4788,4282,-1384,-458,7,1,7,11
1.72313E+12,-6204,-4870,4319,-756,-830,-85,1,7,11
1.72313E+12,-6046,-4667,4247,-432,-864,147,1,7,11
1.72313E+12,-6102,-4230,4428,-236,-817,428,1,7,11
1.72313E+12,-6140,-4362,4385,-163,-458,706,1,7,11
1.72313E+12,-6418,-4051,4390,-164,-585,935,1,7,11
1.72313E+12,-6125,-4052,4358,-190,-219,1342,1,7,11
1.72313E+12,-6096,-4110,4082,-240,-375,1384,1,7,11
1.72313E+12,-6101,-4452,4087,-566,-295,1358,1,7,11
1.72313E+12,-6146,-4280,4085,-632,9,1299,1,7,11
1.72313E+12,-6415,-4615,4080,-419,0,958,1,7,11
1.72313E+12,-6415,-4689,4058,-448,-302,1110,1,7,11
1.72313E+12,-6126,-4520,4059,-479,-374,990,1,7,11
1.72313E+12,-6061,-4879,4083,-770,-205,660,1,7,11
1.72313E+12,-6247,-4968,4394,-777,-609,814,1,7,11
1.72313E+12,-6175,-4743,4441,-501,-448,433,1,7,11
1.72313E+12,-5877,-4740,4258,-467,-769,586,1,7,11
1.72313E+12,-5818,-4943,4327,-401,-816,526,1,7,11
1.72313E+12,-5982,-4585,4349,-570,-824,242,1,7,11
1.72313E+12,-5924,-4711,4337,-224,-771,244,1,7,11
1.72313E+12,-5907,-4315,4322,-170,-411,551,1,7,11
1.72313E+12,-5937,-4458,4332,-136,-538,401,1,7,11
1.72313E+12,-5975,-4388,4627,-135,-149,799,1,7,11
1.72313E+12,-5775,-4075,4638,-372,-291,688,1,7,11
1.72313E+12,-5808,-4027,4611,-345,53,1102,1,7,11
1.72313E+12,-5830,-3999,4234,-323,125,1002,1,7,11
1.72313E+12,-5878,-4201,4374,-330,-63,1368,1,7,11
1.72313E+12,-6257,-4108,3994,-366,275,1192,1,7,11
1.72313E+12,-6456,-3724,4140,-170,365,1560,1,7,11
1.72313E+12,-6314,-3735,4116,-253,269,1818,1,7,11
1.72313E+12,-6372,-3785,4112,-522,622,1733,1,7,11
1.72313E+12,-6696,-3813,3839,-182,455,2082,1,7,11
1.72313E+12,-6550,-3784,3810,-321,785,2115,1,7,11
1.72313E+12,-6957,-3731,3806,69,852,2115,1,7,11
1.72313E+12,-6861,-3896,3798,-33,649,2104,1,7,11
1.72313E+12,-7214,-3549,3743,367,684,2092,1,7,11
1.72313E+12,-7283,-3705,3932,204,741,1791,1,7,11
1.72313E+12,-7089,-3597,3856,241,1064,1715,1,7,11
1.72313E+12,-7445,-3262,3555,232,896,1891,1,7,11
1.72313E+12,-7551,-3449,3545,223,975,1852,1,7,11
1.72313E+12,-7550,-3384,3511,229,1014,1854,1,7,11
1.72313E+12,-7476,-3070,3703,241,1289,1855,1,7,11
1.72313E+12,-7462,-3042,3684,198,1326,1797,1,7,11
1.72313E+12,-7544,-3005,3459,162,1359,1431,1,7,11
1.72313E+12,-7345,-3116,3644,164,1335,1544,1,7,11
1.72313E+12,-7374,-2729,3299,347,1310,1396,1,7,11
1.72313E+12,-7384,-2900,3243,-54,1291,1013,1,7,11
1.72313E+12,-7378,-2896,3272,27,1023,1139,1,7,11
1.72313E+12,-7404,-2898,3585,-338,1001,740,1,7,11
1.72313E+12,-7380,-2883,3305,-373,944,875,1,7,11
1.72313E+12,-7551,-2880,3232,-180,1147,501,1,7,11
1.72313E+12,-7141,-2751,3417,-577,1106,591,1,7,11
1.72313E+12,-7293,-3127,3398,-421,1101,225,1,7,11
1.72313E+12,-7239,-2997,3425,-478,1137,382,1,7,11
1.72313E+12,-7210,-3367,3214,-491,935,329,1,7,11
1.72313E+12,-7197,-3455,3254,-446,980,312,1,7,11
1.72313E+12,-6911,-3255,3223,-622,1001,319,1,7,11
1.72313E+12,-6888,-3262,3411,-551,1283,328,1,7,11
1.72313E+12,-6875,-3257,3334,-251,1329,356,1,7,11
1.72313E+12,-6877,-3295,3028,-233,1389,134,1,7,11
1.72313E+12,-6898,-3314,3000,-203,1196,132,1,7,11
1.72313E+12,-7186,-3319,2995,-170,1262,368,1,7,11
1.72313E+12,-7209,-3304,2985,-366,1578,338,1,7,11
1.72313E+12,-7218,-3290,2999,-303,1634,315,1,7,11
1.72313E+12,-7204,-3258,3030,52,1417,286,1,7,11
1.72313E+12,-7173,-3419,2995,-77,1435,-5,1,7,11
1.72313E+12,-7202,-3040,3190,262,1456,-29,1,7,11
1.72313E+12,-7254,-3143,3082,292,1458,274,1,7,11
1.72313E+12,-7055,-2738,2912,-20,1452,129,1,7,11
1.72313E+12,-7115,-2903,2854,96,1445,560,1,7,11
1.72313E+12,-7165,-2879,2541,-310,1443,507,1,7,11
1.72313E+12,-7477,-2875,2445,-150,1444,677,1,7,11
1.72313E+12,-7300,-2846,2298,-187,1451,1079,1,7,11
1.72313E+12,-7335,-2555,2411,-196,1493,1101,1,7,11
1.72313E+12,-7515,-2551,2321,-203,1810,1082,1,7,11
1.72313E+12,-7287,-2712,2340,-246,1883,682,1,7,11
1.72313E+12,-7220,-2795,2022,-145,2096,537,1,7,11
1.72313E+12,-7109,-2933,2082,-23,2046,60,1,7,11
1.72313E+12,-7364,-2475,1884,311,2289,-516,1,7,11
1.72313E+12,-7654,-2293,1508,-36,2816,-596,1,7,11
1.72313E+12,-8204,-2202,1525,23,2762,-215,1,7,11
1.72313E+12,-8143,-2178,1817,-150,2780,8,1,7,11
1.72313E+12,-8183,-2209,1792,-537,2880,-34,1,7,11
1.72313E+12,-8183,-2252,1427,-620,2650,340,1,7,11
1.72313E+12,-8130,-2564,1250,-438,2394,131,1,7,11
1.72313E+12,-8084,-2641,1351,-778,1920,365,1,7,11
1.72313E+12,-8299,-2457,977,-838,1749,315,1,7,11
1.72313E+12,-8287,-2497,1143,-846,1888,-4,1,7,11
1.72313E+12,-8294,-2506,1085,-813,1802,-41,1,7,11
1.72313E+12,-8303,-2513,1031,-482,1448,-60,1,7,11
1.72313E+12,-8296,-2499,683,-391,1582,-68,1,7,11
1.72313E+12,-8282,-2504,828,-592,1203,-67,1,7,11
1.72313E+12,-8219,-2544,768,-552,1328,-83,1,7,11
1.72313E+12,-7901,-2524,387,-563,940,117,1,7,11
1.72313E+12,-7892,-2504,589,-570,1123,117,1,7,11
1.72313E+12,-7884,-2512,567,-595,1070,-101,1,7,11
1.72313E+12,-7908,-2463,537,-572,1032,-56,1,7,11
1.72313E+12,-7904,-2684,517,-569,748,288,1,7,11
1.72313E+12,-7879,-2435,240,-540,725,140,1,7,11
1.72313E+12,-7823,-2466,214,-237,714,202,1,7,11
1.72313E+12,-8025,-2484,199,-192,722,192,1,7,11
1.72313E+12,-8014,-2503,215,-159,751,379,1,7,11
1.72313E+12,-8007,-2483,222,-370,759,312,1,7,11
1.72313E+12,-7996,-2466,242,-365,757,-15,1,7,11
1.72313E+12,-7988,-2668,217,-380,735,-94,1,7,11
1.72313E+12,-7988,-2666,215,-211,710,104,1,7,11
1.72313E+12,-7989,-2647,180,-535,659,59,1,7,11
1.72313E+12,-7977,-2660,160,-392,840,34,1,7,11
1.72313E+12,-7979,-2654,383,-772,483,-257,1,7,11
1.72313E+12,-8043,-2639,318,-890,639,1,1,7,11
1.72313E+12,-7864,-2594,259,-722,540,72,1,7,11
1.72313E+12,-8220,-2629,-15,-1098,175,277,1,7,11
1.72313E+12,-8221,-2462,271,-936,379,177,1,7,11
1.72313E+12,-7918,-2522,292,-1144,336,529,1,7,11
1.72313E+12,-7841,-2552,300,-1054,303,568,1,7,11
1.72313E+12,-8022,-2543,312,-700,288,553,1,7,11
1.72313E+12,-7967,-2479,320,-859,284,240,1,7,11
1.72313E+12,-7669,-2661,325,-807,280,185,1,7,11
1.72313E+12,-7616,-2605,334,-806,278,148,1,7,11
1.72313E+12,-7578,-2589,363,-842,283,376,1,7,11
1.72313E+12,-7794,-2588,136,-872,289,356,1,7,11
1.72313E+12,-7784,-2595,168,-895,306,342,1,7,11
1.72313E+12,-7798,-2582,190,-895,325,358,1,7,11
1.72313E+12,-7804,-2571,156,-647,333,147,1,7,11
1.72313E+12,-7581,-2574,146,-674,355,183,1,7,11
1.72313E+12,-7631,-2564,369,-672,374,220,1,7,11
1.72313E+12,-7677,-2579,337,-685,137,249,1,7,11
1.72313E+12,-7978,-2619,350,-694,161,522,1,7,11
1.72313E+12,-8016,-2642,350,-643,168,255,1,7,11
1.72313E+12,-8051,-2654,362,-830,160,221,1,7,11
1.72313E+12,-7814,-2659,356,-483,138,187,1,7,11
1.72313E+12,-7826,-2656,348,-638,364,156,1,7,11
1.72313E+12,-7820,-2632,318,-541,327,130,1,7,11
1.72313E+12,-7811,-2626,309,-218,296,350,1,7,11
1.72313E+12,-7816,-2627,332,-384,-18,317,1,7,11
1.72313E+12,-7817,-2592,342,-300,-67,290,1,7,11
1.72313E+12,-7825,-2563,342,25,-105,275,1,7,11
1.72313E+12,-7842,-2269,355,88,-125,272,1,7,11
1.72313E+12,-7842,-2235,370,-95,113,291,1,7,11
1.72313E+12,-7827,-2204,370,-33,95,304,1,7,11
1.72313E+12,-7811,-2180,138,264,88,304,1,7,11
1.72313E+12,-7812,-2426,145,292,94,286,1,7,11
1.72313E+12,-7810,-2405,136,326,96,259,1,7,11
1.72313E+12,-8053,-2342,375,367,97,-25,1,7,11
1.72313E+12,-8033,-2318,382,128,115,-57,1,7,11
1.72313E+12,-8039,-2307,143,146,-113,-94,1,7,11
1.72313E+12,-8032,-2033,141,186,-68,-119,1,7,11
1.72313E+12,-8017,-2021,128,216,-32,106,1,7,11
1.72313E+12,-8006,-2011,374,233,263,79,1,7,11
1.72313E+12,-7989,-2012,367,216,298,50,1,7,11
1.72313E+12,-7974,-2011,372,183,325,22,1,7,11
1.72313E+12,-7976,-2014,129,142,347,-261,1,7,11
1.72313E+12,-7979,-2009,374,371,355,-285,1,7,11
1.72313E+12,-7975,-1998,350,324,350,-308,1,7,11
1.72313E+12,-7981,-2014,359,-15,354,-316,1,7,11
1.72313E+12,-7973,-2034,360,-83,359,-299,1,7,11
1.72313E+12,-7969,-2312,372,-126,370,-278,1,7,11
1.72313E+12,-7959,-2331,350,113,383,5,1,7,11
1.72313E+12,-7964,-2326,306,95,153,26,1,7,11
1.72313E+12,-7979,-2323,281,53,191,50,1,7,11
1.72313E+12,-7982,-2345,270,-261,233,77,1,7,11
1.72313E+12,-8002,-2361,263,-295,525,96,1,7,11
1.72313E+12,-8024,-2384,-1,-325,545,100,1,7,11
1.72313E+12,-8059,-2415,281,-353,558,87,1,7,11
1.72313E+12,-7831,-2203,348,-357,548,68,1,7,11
1.72313E+12,-7826,-2221,370,-297,252,37,1,7,11
1.72313E+12,-7810,-2213,359,27,200,-260,1,7,11
1.72313E+12,-8064,-2208,344,70,165,-281,1,7,11
1.72313E+12,-8056,-2397,292,126,131,-274,1,7,11
1.72313E+12,-8011,-2337,-69,-89,345,-257,1,7,11
1.72313E+12,-7961,-2318,101,-88,314,38,1,7,11
1.72313E+12,-7672,-2334,102,116,337,93,1,7,11
1.72313E+12,-7652,-2359,126,83,143,-92,1,7,11
1.72313E+12,-7657,-2375,-84,91,233,-73,1,7,11
1.72313E+12,-7945,-2358,-54,-66,629,-76,1,7,11
1.72313E+12,-7978,-2331,-32,-13,437,-85,1,7,11
1.72313E+12,-8000,-2040,-16,265,466,-111,1,7,11
1.72313E+12,-8023,-2029,261,-4,472,108,1,7,11
1.72313E+12,-8026,-2013,-17,-7,445,58,1,7,11
1.72313E+12,-8025,-2026,-45,-35,418,0,1,7,11
1.72313E+12,-8019,-2015,-116,-49,394,-311,1,7,11
1.72313E+12,-8020,-2040,101,-103,384,-350,1,7,11
1.72313E+12,-7997,-2336,67,109,631,-365,1,7,11
1.72313E+12,-7975,-2377,21,87,629,-380,1,7,11
1.72313E+12,-7955,-2381,-294,79,623,-138,1,7,11
1.72313E+12,-7950,-2390,-338,44,635,-143,1,7,11
1.72313E+12,-7951,-2422,-343,7,401,-380,1,7,11
1.72313E+12,-7945,-2186,-362,8,419,-371,1,7,11
1.72313E+12,-7965,-2217,-337,-257,438,-383,1,7,11
1.72313E+12,-7989,-2235,-303,10,433,-141,1,7,11
1.72313E+12,-8013,-2244,-268,32,409,-146,1,7,11
1.72313E+12,-8010,-2236,-262,43,611,-146,1,7,11
1.72313E+12,-8007,-2223,7,32,550,-150,1,7,11
1.72313E+12,-7986,-2223,-269,9,213,-161,1,7,11
1.72313E+12,-7966,-2211,-298,-263,136,-173,1,7,11
1.72313E+12,-7951,-2211,-358,-292,336,-157,1,7,11
1.72313E+12,-7658,-2237,-383,-337,304,-130,1,7,11
1.72313E+12,-7615,-2267,-155,-339,284,-351,1,7,11
1.72313E+12,-7581,-2283,-215,-333,293,-327,1,7,11
1.72313E+12,-7802,-2280,-530,-334,316,-297,1,7,11
1.72313E+12,-7790,-2282,-558,-352,360,-274,1,7,11
1.72313E+12,-7560,-2269,-566,-355,162,11,1,7,11
1.72313E+12,-7598,-2245,-578,-332,213,53,1,7,11
1.72313E+12,-7632,-2223,-610,-315,512,100,1,7,11
1.72313E+12,-7663,-2221,-609,-327,544,-124,1,7,11
1.72313E+12,-7959,-2256,-561,-340,559,-117,1,7,11
1.72313E+12,-7996,-2282,-247,-322,546,-119,1,7,11
1.72313E+12,-7995,-2567,-220,-281,236,-123,1,7,11
1.72313E+12,-7984,-2581,-210,26,169,104,1,7,11
1.72313E+12,-7956,-2300,-240,73,344,61,1,7,11
1.72313E+12,-7667,-2286,-538,70,276,25,1,7,11
1.72313E+12,-7627,-2273,-606,52,-32,8,1,7,11
1.72313E+12,-7588,-2290,-389,12,-39,7,1,7,11
1.72313E+12,-7575,-2566,-386,-258,-6,19,1,7,11
1.72313E+12,-7578,-2591,-624,26,302,51,1,7,11
1.72313E+12,-7581,-2598,-624,85,348,73,1,7,11
1.72313E+12,-7588,-2579,-629,-125,132,72,1,7,11
1.72313E+12,-7607,-2584,-603,-120,164,62,1,7,11
1.72313E+12,-7631,-2579,-562,-104,177,40,1,7,11
1.72313E+12,-7654,-2580,-528,-102,163,15,1,7,11
1.72313E+12,-7956,-2598,-203,-104,142,-268,1,7,11
1.72313E+12,-7971,-2606,-180,-74,336,-272,1,7,11
1.72313E+12,-7680,-2575,-253,-26,-14,-274,1,7,11
1.72313E+12,-7643,-2285,-604,-41,-84,-274,1,7,11
1.72313E+12,-7624,-2271,-409,-97,-107,-258,1,7,11
1.72313E+12,-7614,-2563,-408,101,-89,48,1,7,11
1.72313E+12,-7606,-2573,-395,114,-52,103,1,7,11
1.72313E+12,-7602,-2582,-619,-107,-2,-110,1,7,11
1.72313E+12,-7602,-2579,-575,-44,297,-78,1,7,11
1.72313E+12,-7605,-2563,-529,267,317,-78,1,7,11
1.72313E+12,-7633,-2252,-521,313,315,-105,1,7,11
1.72313E+12,-7662,-2196,-525,323,289,-114,1,7,11
1.72313E+12,-7677,-2400,-561,302,-7,-108,1,7,11
1.72313E+12,-7943,-2368,-591,-8,-45,-93,1,7,11
1.72313E+12,-7955,-2359,-608,-83,-74,-80,1,7,11
1.72313E+12,-7965,-2367,-620,101,-96,-63,1,7,11
1.72313E+12,-7967,-2408,-592,33,-106,-44,1,7,11
1.72313E+12,-7966,-2205,-544,-259,-113,-29,1,7,11
1.72313E+12,-7953,-2238,-517,-260,125,-28,1,7,11
1.72313E+12,-7945,-2237,-520,28,104,-33,1,7,11
1.72313E+12,-7670,-2228,-526,62,79,-14,1,7,11
1.72313E+12,-7628,-2226,-553,84,63,268,1,7,11
1.72313E+12,-7603,-2238,-569,93,59,283,1,7,11
1.72313E+12,-7589,-2247,-575,99,70,291,1,7,11
1.72313E+12,-7578,-2244,-568,109,91,294,1,7,11
1.72313E+12,-7586,-2215,-586,-124,122,285,1,7,11
1.72313E+12,-7594,-2199,-570,120,-95,276,1,7,11
1.72313E+12,-7619,-2199,-546,108,-57,-7,1,7,11
1.72313E+12,-7672,-2212,-242,82,-32,-45,1,7,11
1.72313E+12,-7967,-2205,-215,83,-19,-83,1,7,11
1.72313E+12,-7985,-2188,-208,100,-23,-103,1,7,11
1.72313E+12,-7993,-2193,-195,107,-44,-125,1,7,11
1.72313E+12,-7978,-2201,-190,116,-76,103,1,7,11
1.72313E+12,-7959,-2192,-205,-126,-111,50,1,7,11
1.72313E+12,-7942,-2428,-236,-114,126,3,1,7,11
1.72313E+12,-7670,-2188,-232,-115,-120,-268,1,7,11
1.72313E+12,-7656,-2218,-214,-95,-105,-273,1,7,11
1.72313E+12,-7635,-2240,-213,-47,-108,-283,1,7,11
1.72313E+12,-7626,-2241,-222,261,-109,-290,1,7,11
1.72313E+12,-7635,-2218,-248,299,-111,-275,1,7,11
1.72313E+12,-7624,-2425,-574,314,-120,27,1,7,11
1.72313E+12,-7617,-2400,-633,287,-110,94,1,7,11
1.72313E+12,-7625,-2390,-388,-6,-82,-92,1,7,11
1.72313E+12,-7636,-2397,-626,-33,-38,-23,1,7,11
1.72313E+12,-7652,-2420,-595,-35,259,283,1,7,11
1.72313E+12,-7665,-2431,-563,258,287,312,1,7,11
1.72313E+12,-7676,-2425,-537,293,308,306,1,7,11
1.72313E+12,-7966,-2429,-228,299,313,272,1,7,11
1.72313E+12,-8002,-2427,-175,303,286,-34,1,7,11
1.72313E+12,-8027,-2414,-137,312,-16,-101,1,7,11
1.72313E+12,-8040,-2405,-362,314,-73,95,1,7,11
1.72313E+12,-8040,-2390,-361,312,-121,54,1,7,11
1.72313E+12,-7999,-2387,-376,288,89,22,1,7,11
1.72313E+12,-7965,-2414,-383,-11,61,-274,1,7,11
1.72313E+12,-7680,-2425,-149,-38,37,-317,1,7,11
1.72313E+12,-7645,-2187,-180,-60,27,-349,1,7,11
1.72313E+12,-7613,-2201,-215,-78,35,-365,1,7,11
1.72313E+12,-7610,-2220,-232,-84,73,-356,1,7,11
1.72313E+12,-7612,-2244,-231,-62,127,-318,1,7,11
1.72313E+12,-7611,-2250,-255,-5,-77,-269,1,7,11
1.72313E+12,-7617,-2249,-525,300,-26,28,1,7,11
1.72313E+12,-7632,-2223,-558,342,268,61,1,7,11
1.72313E+12,-7656,-2202,-571,354,301,82,1,7,11
1.72313E+12,-7939,-2202,-568,344,323,99,1,7,11
1.72313E+12,-7958,-2227,-536,331,326,89,1,7,11
1.72313E+12,-7977,-2246,-524,321,306,50,1,7,11
1.72313E+12,-8007,-2267,-206,336,271,11,1,7,11
1.72313E+12,-8030,-2258,-201,379,-42,-273,1,7,11
1.72313E+12,-8014,-2206,-211,169,-106,-278,1,7,11
1.72313E+12,-7979,-2431,-207,165,76,-271,1,7,11
1.72313E+12,-7959,-2424,-169,369,55,-289,1,7,11
1.72313E+12,-7958,-2187,-363,317,46,-303,1,7,11
1.72313E+12,-7959,-2204,-297,300,32,-319,1,7,11
1.72313E+12,-7963,-2201,-277,316,8,-339,1,7,11
1.72313E+12,-7965,-2207,5,324,-274,-333,1,7,11
1.72313E+12,-7952,-2190,-269,339,-309,-325,1,7,11
1.72313E+12,-7945,-2425,-323,337,-341,-322,1,7,11
1.72313E+12,-7672,-2409,-138,304,-364,-305,1,7,11
1.72313E+12,-7655,-2425,-153,-29,-361,-290,1,7,11
1.72313E+12,-7641,-2233,-348,-101,-341,-289,1,7,11
1.72313E+12,-7625,-2570,-267,-108,-323,-309,1,7,11
1.72313E+12,-7581,-2605,8,-53,-335,-348,1,7,11
1.72313E+12,-7795,-2608,-284,-1,-356,-144,1,7,11
1.72313E+12,-7752,-2582,-345,-7,-375,-172,1,7,11
1.72313E+12,-7760,-2574,-371,-75,-368,-172,1,7,11
1.72313E+12,-7779,-2568,-131,108,-355,-138,1,7,11
1.72313E+12,-7805,-2586,-381,40,-321,-338,1,7,11
1.72313E+12,-7578,-2601,-374,-269,-269,-280,1,7,11
1.72313E+12,-7611,-2612,-351,-308,44,18,1,7,11
1.72313E+12,-7656,-2619,-296,-350,90,29,1,7,11
1.72313E+12,-7984,-2661,3,-133,124,30,1,7,11
1.72313E+12,-8023,-2669,33,-361,118,26,1,7,11
1.72313E+12,-7813,-2671,76,-337,110,3,1,7,11
1.72313E+12,-7857,-2672,108,-279,72,-304,1,7,11
1.72313E+12,-7849,-2671,-112,31,24,-357,1,7,11
1.72313E+12,-7811,-2637,120,90,-296,-172,1,7,11
1.72313E+12,-8031,-2592,57,115,-350,-514,1,7,11
1.72313E+12,-7992,-2561,24,87,-135,-577,1,7,11
1.72313E+12,-7951,-2594,40,23,-149,-612,1,7,11
1.72313E+12,-7658,-2621,58,1,-152,-631,1,7,11
1.72313E+12,-7612,-2648,75,-263,-147,-640,1,7,11
1.72313E+12,-7567,-2668,95,-277,-381,-389,1,7,11
1.72313E+12,-7808,-2449,126,-290,-352,-638,1,7,11
1.72313E+12,-7781,-2471,-114,-276,-340,-607,1,7,11
1.72313E+12,-7763,-2489,-110,11,-327,-573,1,7,11
1.72313E+12,-7742,-2478,125,53,-323,-530,1,7,11
1.72313E+12,-7719,-2468,101,59,-305,-234,1,7,11
1.72313E+12,-7734,-2499,115,31,9,-191,1,7,11
1.72313E+12,-7751,-2521,-124,75,68,-374,1,7,11
1.72313E+12,-7752,-2522,121,-102,-105,-273,1,7,11
1.72313E+12,-7769,-2502,107,-69,-40,36,1,7,11
1.72313E+12,-7803,-2489,-127,-74,287,70,1,7,11
1.72313E+12,-7592,-2493,-74,-89,345,95,1,7,11
1.72313E+12,-7638,-2505,-24,-88,369,102,1,7,11
1.72313E+12,-7658,-2492,-3,-65,351,97,1,7,11
1.72313E+12,-7679,-2502,271,-76,320,70,1,7,11
1.72313E+12,-7940,-2492,-4,-67,266,41,1,7,11
1.72313E+12,-7656,-2483,-52,-97,-52,3,1,7,11
1.72313E+12,-7615,-2494,-104,98,-114,-296,1,7,11
1.72313E+12,-7582,-2522,113,36,103,-332,1,7,11
1.72313E+12,-7567,-2547,93,1,85,-341,1,7,11
1.72313E+12,-7803,-2554,62,4,87,-316,1,7,11
1.72313E+12,-7791,-2545,15,1,-126,-275,1,7,11
1.72313E+12,-7794,-2547,-258,-278,-56,27,1,7,11
1.72313E+12,-7553,-2827,30,-305,274,75,1,7,11
1.72313E+12,-7578,-2847,62,-295,330,105,1,7,11
1.72313E+12,-7618,-2848,100,-264,358,119,1,7,11
1.72313E+12,-7651,-2821,105,36,356,-128,1,7,11
1.72313E+12,-7663,-2539,99,50,342,-114,1,7,11
1.72313E+12,-7659,-2528,103,44,313,-104,1,7,11
1.72313E+12,-7634,-2544,125,25,269,-102,1,7,11
1.72313E+12,-7605,-2552,126,17,-42,126,1,7,11
1.72313E+12,-7606,-2533,95,0,-83,89,1,7,11
1.72313E+12,-7599,-2516,56,-299,-116,90,1,7,11
1.72313E+12,-7587,-2513,27,-354,-118,103,1,7,11
1.72313E+12,-7566,-2515,4,-144,-101,114,1,7,11
1.72313E+12,-7575,-2527,-259,-181,-66,121,1,7,11
1.72313E+12,-7577,-2520,-266,-202,-32,126,1,7,11
1.72313E+12,-7581,-2524,28,-243,269,113,1,7,11
1.72313E+12,-7590,-2547,95,-549,304,79,1,7,11
1.72313E+12,-7603,-2528,104,-569,313,52,1,7,11
1.72313E+12,-7618,-2488,-117,-593,308,32,1,7,11
1.72313E+12,-7640,-2488,-78,-389,296,42,1,7,11
1.72313E+12,-7654,-2474,-86,-408,272,79,1,7,11
1.72313E+12,-7651,-2445,107,-394,-20,-96,1,7,11
1.72313E+12,-7648,-2688,38,-410,-57,-25,1,7,11
1.72313E+12,-7653,-2453,-258,-449,-77,319,1,7,11
1.72313E+12,-7652,-2494,-270,-476,-86,159,1,7,11
1.72313E+12,-7635,-2533,-275,-425,-88,222,1,7,11
1.72313E+12,-7624,-2553,-274,-614,-85,230,1,7,11
1.72313E+12,-7639,-2549,-274,-527,-75,198,1,7,11
1.72313E+12,-7940,-2498,-294,-165,-63,156,1,7,11
1.72313E+12,-7968,-2679,-312,-327,-48,128,1,7,11
1.72313E+12,-7987,-2652,-293,-276,-24,365,1,7,11
1.72313E+12,-7996,-2639,-277,36,-10,330,1,7,11
1.72313E+12,-8003,-2639,7,88,-13,274,1,7,11
1.72313E+12,-7999,-2656,48,-105,-22,-45,1,7,11
1.72313E+12,-7960,-2659,51,-36,-46,-120,1,7,11
1.72313E+12,-7661,-2663,51,265,-66,47,1,7,11
1.72313E+12,-7611,-2663,53,292,-90,-294,1,7,11
1.72313E+12,-7572,-2672,60,301,-118,-368,1,7,11
1.72313E+12,-7790,-2677,49,308,108,-157,1,7,11
1.72313E+12,-7757,-2681,26,293,83,-172,1,7,11
1.72313E+12,-7753,-2438,6,267,81,-165,1,7,11
1.72313E+12,-7759,-2473,5,-21,93,-137,1,7,11
1.72313E+12,-7794,-2539,42,-35,125,-356,1,7,11
1.72313E+12,-7589,-2832,76,265,-96,-327,1,7,11
1.72313E+12,-7628,-2850,92,339,-64,-304,1,7,11
1.72313E+12,-7676,-2852,116,161,-35,-290,1,7,11
1.72313E+12,-7980,-2858,-78,565,-28,-317,1,7,11
1.72313E+12,-7991,-2862,-56,618,-57,-365,1,7,11
1.72313E+12,-7998,-2859,-55,415,-115,-172,1,7,11
1.72313E+12,-7993,-2824,-72,465,55,-231,1,7,11
1.72313E+12,-7988,-2541,-81,484,-287,-522,1,7,11
1.72313E+12,-7970,-2514,-71,490,-358,-539,1,7,11
1.72313E+12,-7939,-2507,-69,499,-158,-550,1,7,11
1.72313E+12,-7643,-2495,-80,507,-199,-557,1,7,11
1.72313E+12,-7588,-2483,-110,499,-221,-554,1,7,11
1.72313E+12,-7794,-2480,-115,453,-214,-548,1,7,11
1.72313E+12,-7768,-2484,-84,402,-183,-529,1,7,11
1.72313E+12,-7743,-2491,-56,638,-140,-234,1,7,11
1.72313E+12,-7724,-2497,-40,626,-336,-193,1,7,11
1.72313E+12,-7731,-2497,-7,613,-265,-164,1,7,11
1.72313E+12,-7749,-2489,277,581,71,-145,1,7,11
1.72313E+12,-7793,-2456,281,528,-108,-138,1,7,11
1.72313E+12,-7578,-2448,288,203,-48,-130,1,7,11
1.72313E+12,-7620,-2463,301,352,-2,-369,1,7,11
1.72313E+12,-7649,-2519,352,-10,268,-360,1,7,11
1.72313E+12,-7664,-2835,376,-85,-9,-384,1,7,11
1.72313E+12,-7647,-2866,345,119,-49,-169,1,7,11
1.72313E+12,-7638,-2906,298,64,-82,-191,1,7,11
1.72313E+12,-7598,-2692,256,36,-108,-191,1,7,11
1.72313E+12,-7797,-2714,-22,14,-106,-190,1,7,11
1.72313E+12,-7767,-2742,-21,-262,-67,-144,1,7,11
1.72313E+12,-7752,-2765,-16,5,-2,-375,1,7,11
1.72313E+12,-7763,-2764,256,43,366,-357,1,7,11
1.72313E+12,-7802,-2735,279,101,174,-344,1,7,11
1.72313E+12,-7588,-2730,302,116,206,-319,1,7,11
1.72313E+12,-7601,-2712,323,-118,188,-297,1,7,11
1.72313E+12,-7611,-2697,346,-118,144,-292,1,7,11
1.72313E+12,-7627,-2940,337,125,336,-291,1,7,11
1.72313E+12,-7618,-2689,302,85,268,-287,1,7,11
1.72313E+12,-7571,-2715,-47,31,-51,-288,1,7,11
1.72313E+12,-7746,-2778,105,-285,-77,-288,1,7,11
1.72313E+12,-7704,-3115,53,-332,-22,-285,1,7,11
1.72313E+12,-7711,-3181,77,-309,345,-267,1,7,11
1.72313E+12,-7734,-2962,-105,63,217,4,1,7,11
1.72313E+12,-7799,-2950,-4,-2,606,12,1,7,11
1.72313E+12,-7621,-3154,347,225,456,18,1,7,11
1.72313E+12,-7671,-2812,155,434,494,14,1,7,11
1.72313E+12,-7948,-2702,161,837,471,-278,1,7,11
1.72313E+12,-7964,-2853,374,882,392,-321,1,7,11
1.72313E+12,-7945,-2530,302,818,525,-350,1,7,11
1.72313E+12,-7651,-2552,-4,424,155,-374,1,7,11
1.72313E+12,-7626,-2859,267,559,320,-375,1,7,11
1.72313E+12,-7606,-2913,279,219,-16,-360,1,7,11
1.72313E+12,-7808,-2933,-13,187,-90,-335,1,7,11
1.72313E+12,-7767,-2695,-60,149,-108,-308,1,7,11
1.72313E+12,-7739,-2703,-105,364,-62,-281,1,7,11
1.72313E+12,-7746,-2738,-63,286,268,-269,1,7,11
1.72313E+12,-7768,-2777,258,-66,321,-275,1,7,11
1.72313E+12,-7784,-2795,308,-82,326,-306,1,7,11
1.72313E+12,-7799,-2801,329,-110,302,-357,1,7,11
1.72313E+12,-7555,-2800,285,119,-7,-153,1,7,11
1.72313E+12,-7789,-3074,-43,55,-74,-176,1,7,11
1.72313E+12,-7738,-3115,-109,-284,126,-179,1,7,11
1.72313E+12,-7704,-3182,111,-360,106,-173,1,7,11
1.72313E+12,-7404,-2990,94,-145,105,-154,1,7,11
1.72313E+12,-7360,-3035,100,-146,117,-150,1,7,11
1.72313E+12,-7319,-3333,113,-383,-117,-168,1,7,11
1.72313E+12,-7543,-3067,111,-354,-98,-238,1,7,11
1.72313E+12,-7552,-3060,-69,-368,-71,-609,1,7,11
1.72313E+12,-7364,-3027,261,-355,-44,-485,1,7,11
1.72313E+12,-7728,-2990,335,-313,-10,-840,1,7,11
1.72313E+12,-7566,-2972,132,15,287,-859,1,7,11
1.72313E+12,-7595,-2976,374,100,310,-819,1,7,11
1.72313E+12,-7807,-2989,327,-104,296,-769,1,7,11
1.72313E+12,-7792,-2993,286,-122,268,-772,1,7,11
1.72313E+12,-7779,-3003,-27,99,-43,-769,1,7,11
1.72313E+12,-7769,-3031,-66,38,-114,-498,1,7,11
1.72313E+12,-7753,-3338,-72,-259,124,-454,1,7,11
1.72313E+12,-7723,-3404,-46,-266,126,-410,1,7,11
1.72313E+12,-7681,-3222,267,55,-126,-626,1,7,11
1.72313E+12,-7352,-3281,298,-105,115,-614,1,7,11
1.72313E+12,-7521,-3283,270,-27,75,-386,1,7,11
1.72313E+12,-7470,-3261,-48,-13,42,-424,1,7,11
1.72313E+12,-7435,-3215,111,-41,21,-433,1,7,11
1.72313E+12,-7442,-3234,68,123,41,-399,1,7,11
1.72313E+12,-7475,-3257,71,54,89,-593,1,7,11
1.72313E+12,-7504,-3284,82,3,-98,-226,1,7,11
1.72313E+12,-7526,-3319,100,-298,-57,-161,1,7,11
1.72313E+12,-7304,-3591,118,-332,-17,-367,1,7,11
1.72313E+12,-7346,-3596,-119,-348,275,-333,1,7,11
1.72313E+12,-7385,-3600,-73,-355,298,-307,1,7,11
1.72313E+12,-7408,-3626,269,-357,302,-283,1,7,11
1.72313E+12,-7411,-3618,323,-323,278,-286,1,7,11
1.72313E+12,-7400,-3599,347,-293,-16,-304,1,7,11
1.72313E+12,-7368,-3303,336,-278,-63,-320,1,7,11
1.72313E+12,-7332,-3264,319,-307,-112,-344,1,7,11
1.72313E+12,-7544,-3235,263,-375,88,-373,1,7,11
1.72313E+12,-7509,-3216,-62,-223,44,-145,1,7,11
1.72313E+12,-7484,-3212,102,-614,22,-165,1,7,11
1.72313E+12,-7474,-3240,40,-496,29,-172,1,7,11
1.72313E+12,-7492,-3287,32,-850,62,-171,1,7,11
1.72313E+12,-7510,-3323,47,-881,109,-158,1,7,11
1.72313E+12,-7532,-3625,104,-843,-86,-145,1,7,11
1.72313E+12,-7305,-3629,-109,-475,-38,-142,1,7,11
1.72313E+12,-7336,-3585,-114,-603,-18,-145,1,7,11
1.72313E+12,-7368,-3292,-124,-521,-8,-382,1,7,11
1.72313E+12,-7391,-3265,-126,-212,-12,-338,1,7,11
1.72313E+12,-7400,-3278,-104,-184,-32,-289,1,7,11
1.72313E+12,-7396,-3293,-81,-163,-64,9,1,7,11
1.72313E+12,-7366,-3316,-63,-154,-107,41,1,7,11
1.72313E+12,-7330,-3604,-45,-146,122,57,1,7,11
1.72313E+12,-7549,-3627,-34,-382,114,71,1,7,11
1.72313E+12,-7504,-3635,-43,-360,-116,75,1,7,11
1.72313E+12,-7480,-3637,-46,-339,-82,82,1,7,11
1.72313E+12,-7477,-3640,-48,-332,-41,88,1,7,11
1.72313E+12,-7496,-3628,-39,-320,-1,94,1,7,11
1.72313E+12,-7525,-3608,-31,-299,291,114,1,7,11
1.72313E+12,-7297,-3594,-33,-290,316,-115,1,7,11
1.72313E+12,-7324,-3594,-27,-287,329,-98,1,7,11
1.72313E+12,-7362,-3598,-16,-295,320,-97,1,7,11
1.72313E+12,-7403,-3325,-2,-294,278,-103,1,7,11
1.72313E+12,-7419,-3298,-12,-316,-48,-103,1,7,11
1.72313E+12,-7688,-3270,-25,-347,-114,-105,1,7,11
1.72313E+12,-7692,-3245,-43,-379,89,-108,1,7,11
1.72313E+12,-7421,-3235,-73,-144,54,-107,1,7,11
1.72313E+12,-7393,-3230,-89,-172,37,-108,1,7,11
1.72313E+12,-7352,-3232,-126,-183,29,-110,1,7,11
1.72313E+12,-7319,-3245,97,-193,39,-126,1,7,11
1.72313E+12,-7549,-3249,83,-184,62,121,1,7,11
1.72313E+12,-7538,-3266,89,-164,106,122,1,7,11
1.72313E+12,-7520,-3266,82,-382,-90,-128,1,7,11
1.72313E+12,-7528,-3245,74,-331,-12,126,1,7,11
1.72313E+12,-7319,-3207,86,-288,321,-125,1,7,11
1.72313E+12,-7362,-3453,113,-261,133,127,1,7,11
1.72313E+12,-7389,-3445,-121,-258,382,99,1,7,11
1.72313E+12,-7416,-3451,-95,-279,356,71,1,7,11
1.72313E+12,-7683,-3210,-76,-301,311,47,1,7,11
1.72313E+12,-7421,-3218,-86,-315,-3,21,1,7,11
1.72313E+12,-7399,-3228,119,-342,-64,10,1,7,11
1.72313E+12,-7338,-3268,75,-380,-98,7,1,7,11
1.72313E+12,-7308,-3323,104,-164,-104,8,1,7,11
1.72313E+12,-7539,-3609,114,-156,-92,18,1,7,11
1.72313E+12,-7523,-3616,113,-340,-60,31,1,7,11
1.72313E+12,-7525,-3590,94,-282,-20,47,1,7,11
1.72313E+12,-7533,-3300,74,3,279,68,1,7,11
1.72313E+12,-7547,-3279,73,3,327,99,1,7,11
1.72313E+12,-7304,-3265,67,5,360,-128,1,7,11
1.72313E+12,-7338,-3260,75,2,379,-119,1,7,11
1.72313E+12,-7374,-3237,65,8,365,-113,1,7,11
1.72313E+12,-7391,-3246,88,-268,340,-108,1,7,11
1.72313E+12,-7390,-3245,101,-289,296,-118,1,7,11
1.72313E+12,-7378,-3238,98,-318,-14,118,1,7,11
1.72313E+12,-7359,-3232,97,-364,-70,90,1,7,11
1.72313E+12,-7328,-3232,67,-161,-124,61,1,7,11
1.72313E+12,-7549,-3243,17,-218,93,44,1,7,11
1.72313E+12,-7517,-3266,-276,-535,90,50,1,7,11
1.72313E+12,-7504,-3315,-270,-569,-120,79,1,7,11
1.72313E+12,-7513,-3636,-262,-542,-51,110,1,7,11
1.72313E+12,-7525,-3632,-267,-158,311,-124,1,7,11
1.72313E+12,-7299,-3617,-266,-335,366,127,1,7,11
1.72313E+12,-7347,-3600,10,-272,138,104,1,7,11
1.72313E+12,-7399,-3312,33,37,133,71,1,7,11
1.72313E+12,-7711,-3298,75,74,351,47,1,7,11
1.72313E+12,-7729,-3281,100,120,282,29,1,7,11
1.72313E+12,-7726,-3279,-125,-99,-57,9,1,7,11
1.72313E+12,-7683,-3278,-113,-55,104,-272,1,7,11
1.72313E+12,-7374,-3276,127,-8,14,-309,1,7,11
1.72313E+12,-7318,-3282,102,268,-314,-339,1,7,11
1.72313E+12,-7529,-3307,82,279,-359,-364,1,7,11
1.72313E+12,-7516,-3327,69,304,-369,-373,1,7,11
1.72313E+12,-7515,-3588,41,333,-347,-352,1,7,11
1.72313E+12,-7520,-3322,7,363,-300,-302,1,7,11
1.72313E+12,-7525,-3319,-259,128,24,19,1,7,11
1.72313E+12,-7531,-3315,4,137,96,67,1,7,11
1.72313E+12,-7298,-3314,18,147,-97,79,1,7,11
1.72313E+12,-7328,-3303,38,146,-50,77,1,7,11
1.72313E+12,-7347,-3306,94,374,-28,64,1,7,11
1.72313E+12,-7367,-3592,-84,347,-30,34,1,7,11
1.72313E+12,-7370,-3604,-41,351,-69,-266,1,7,11
1.72313E+12,-7355,-3593,-38,364,127,-310,1,7,11
1.72313E+12,-7313,-3319,-74,365,69,-339,1,7,11
1.72313E+12,-7525,-3307,120,332,33,-351,1,7,11
1.72313E+12,-7508,-3291,73,284,48,-336,1,7,11
1.72313E+12,-7492,-3292,54,-28,101,-291,1,7,11
1.72313E+12,-7495,-3326,103,-68,-72,22,1,7,11
1.72313E+12,-7500,-3327,-124,-44,-1,63,1,7,11
1.72313E+12,-7519,-3293,-112,-19,321,73,1,7,11
1.72313E+12,-7315,-3276,-69,-16,363,88,1,7,11
1.72313E+12,-7381,-3273,-29,-11,366,104,1,7,11
1.72313E+12,-7413,-3259,-17,-14,320,110,1,7,11
1.72313E+12,-7689,-3257,-12,-51,-1,104,1,7,11
1.72313E+12,-7418,-3277,-14,-105,-81,88,1,7,11
1.72313E+12,-7378,-3289,-63,112,89,66,1,7,11
1.72313E+12,-7305,-3314,-121,55,25,47,1,7,11
1.72313E+12,-7521,-3629,104,13,26,32,1,7,11
1.72313E+12,-7487,-3664,119,19,82,50,1,7,11
1.72313E+12,-7470,-3675,-111,80,-74,87,1,7,11
1.72313E+12,-7477,-3698,-67,-92,293,126,1,7,11
1.72313E+12,-7534,-3709,-5,259,145,-115,1,7,11
1.72313E+12,-7484,-3271,-126,568,595,-325,1,7,11
1.72313E+12,-7504,-3297,126,212,388,-362,1,7,11
1.72313E+12,-7379,-3601,-64,144,616,-350,1,7,11
1.72313E+12,-7421,-3316,-79,173,551,17,1,7,11
1.72313E+12,-7386,-3294,115,165,199,-118,1,7,11
1.72313E+12,-7363,-3276,71,368,367,-43,1,7,11
1.72313E+12,-7351,-3262,42,288,288,-11,1,7,11
1.72313E+12,-7344,-3258,47,-77,-22,-16,1,7,11
1.72313E+12,-7350,-3293,110,61,-54,-46,1,7,11
1.72313E+12,-7365,-3600,-59,5,-83,-85,1,7,11
1.72313E+12,-7350,-3605,-29,15,-122,127,1,7,11
1.72313E+12,-7339,-3327,-47,36,103,81,1,7,11
1.72313E+12,-7327,-3298,-92,18,82,54,1,7,11
1.72313E+12,-7319,-3285,104,-307,70,22,1,7,11
1.72313E+12,-7318,-3302,72,-151,70,0,1,7,11
1.72313E+12,-7322,-3615,110,-237,82,-261,1,7,11
1.72313E+12,-7322,-3672,-96,-248,93,3,1,7,11
1.72313E+12,-7320,-3699,-72,-197,87,13,1,7,11
1.72313E+12,-7302,-3695,-74,-378,70,20,1,7,11
1.72313E+12,-7536,-3663,-105,-323,58,14,1,7,11
1.72313E+12,-7531,-3631,-121,-297,58,19,1,7,11
1.72313E+12,-7540,-3608,120,-287,70,39,1,7,11
1.72313E+12,-7301,-3603,120,-278,88,63,1,7,11
1.72313E+12,-7318,-3605,127,-268,105,100,1,7,11
1.72313E+12,-7326,-3592,120,2,115,121,1,7,11
1.72313E+12,-7332,-3600,115,5,117,125,1,7,11
1.72313E+12,-7334,-3603,124,-265,111,100,1,7,11
1.72313E+12,-7336,-3607,-115,-270,96,66,1,7,11
1.72313E+12,-7340,-3607,-114,-278,76,30,1,7,11
1.72313E+12,-7349,-3606,-89,-290,65,2,1,7,11
1.72313E+12,-7356,-3611,-55,-307,59,-258,1,7,11
1.72313E+12,-7342,-3623,-32,-321,49,0,1,7,11
1.72313E+12,-7325,-3628,-10,-331,41,-266,1,7,11
1.72313E+12,-7316,-3627,271,-335,32,-281,1,7,11
1.72313E+12,-7310,-3618,296,-338,14,-282,1,7,11
1.72313E+12,-7540,-3628,311,-346,-264,-264,1,7,11
1.72313E+12,-7496,-3634,312,-353,-284,7,1,7,11
1.72313E+12,-7488,-3638,311,-369,-292,12,1,7,11
1.72313E+12,-7465,-3638,295,-137,-296,30,1,7,11
1.72313E+12,-7455,-3625,257,-171,-294,36,1,7,11
1.72313E+12,-7446,-3617,-23,-266,-286,42,1,7,11
1.72313E+12,-7459,-3605,-65,-594,-278,50,1,7,11
1.72313E+12,-7497,-3618,-73,-423,-265,83,1,7,11
1.72313E+12,-7539,-3632,-88,-470,-260,-126,1,7,11
1.72313E+12,-7312,-3644,-97,-498,-263,-85,1,7,11
1.72313E+12,-7335,-3663,-124,-502,-272,-44,1,7,11
1.72313E+12,-7344,-3677,97,-482,-279,-10,1,7,11
1.72313E+12,-7329,-3703,76,-447,-290,268,1,7,11
1.72313E+12,-7312,-3472,76,-403,-297,262,1,7,11
1.72313E+12,-7303,-3491,88,-594,-307,-24,1,7,11
1.72313E+12,-7313,-3463,88,-246,-304,-67,1,7,11
1.72313E+12,-7334,-3673,74,-153,-275,-92,1,7,11
1.72313E+12,-7348,-3626,60,-339,34,-92,1,7,11
1.72313E+12,-7362,-3606,65,-291,94,-82,1,7,11
1.72313E+12,-7377,-3612,83,14,-108,-90,1,7,11
1.72313E+12,-7399,-3599,77,65,-78,-125,1,7,11
1.72313E+12,-7681,-3327,82,97,-62,96,1,7,11
1.72313E+12,-7696,-3325,-128,105,-81,62,1,7,11
1.72313E+12,-7710,-3593,-65,120,121,20,1,7,11
1.72313E+12,-7711,-3323,-12,-109,35,-274,1,7,11
1.72313E+12,-7711,-3310,330,-109,-314,-296,1,7,11
1.72313E+12,-7691,-3278,362,-117,-151,-272,1,7,11
1.72313E+12,-7394,-3256,353,113,-232,19,1,7,11
1.72313E+12,-7372,-3263,360,59,-542,39,1,7,11
1.72313E+12,-7329,-3290,363,-264,-558,73,1,7,11
1.72313E+12,-7526,-3587,372,-325,-549,104,1,7,11
1.72313E+12,-7510,-3615,133,-364,-515,120,1,7,11
1.72313E+12,-7501,-3630,144,-375,-219,-125,1,7,11
1.72313E+12,-7513,-3625,154,-367,-178,-116,1,7,11
1.72313E+12,-7520,-3597,155,-343,-380,-110,1,7,11
1.72313E+12,-7544,-3307,169,-317,-357,-102,1,7,11
1.72313E+12,-7311,-3274,187,-289,-354,-88,1,7,11
1.72313E+12,-7331,-3249,198,-288,-368,-74,1,7,11
1.72313E+12,-7327,-3212,195,-291,-147,-54,1,7,11
1.72313E+12,-7311,-3456,181,-327,-184,-39,1,7,11
1.72313E+12,-7551,-3456,177,-374,-216,-27,1,7,11
1.72313E+12,-7544,-3223,190,-172,-232,-16,1,7,11
1.72313E+12,-7533,-3237,187,-210,-235,-5,1,7,11
1.72313E+12,-7524,-3261,183,-242,-206,264,1,7,11
1.72313E+12,-7537,-3272,180,-514,-150,271,1,7,11
1.72313E+12,-7302,-3279,184,-254,-334,279,1,7,11
1.72313E+12,-7317,-3290,183,-231,4,282,1,7,11
1.72313E+12,-7335,-3307,206,-201,91,274,1,7,11
1.72313E+12,-7368,-3594,524,-154,-83,-9,1,7,11
1.72313E+12,-7391,-3592,560,-319,-27,-52,1,7,11
1.72313E+12,-7412,-3313,589,31,266,-97,1,7,11
1.72313E+12,-7686,-3262,612,107,295,121,1,7,11
1.72313E+12,-7695,-3208,622,-87,308,98,1,7,11
1.72313E+12,-7691,-3419,635,-63,307,87,1,7,11
1.72313E+12,-7419,-3387,636,-70,281,80,1,7,11
1.72313E+12,-7410,-3357,636,-110,-21,65,1,7,11
1.72313E+12,-7392,-3341,615,71,-89,58,1,7,11
1.72313E+12,-7369,-3349,613,-288,95,67,1,7,11
1.72313E+12,-7330,-3361,594,-141,17,84,1,7,11
1.72313E+12,-7305,-3378,566,-238,-290,108,1,7,11
1.72313E+12,-7547,-3398,526,-576,-311,-112,1,7,11
1.72313E+12,-7307,-3411,238,-637,-304,-67,1,7,11
1.72313E+12,-7347,-3437,196,-423,-262,270,1,7,11
1.72313E+12,-7385,-3216,196,-460,35,319,1,7,11
1.72313E+12,-7418,-3244,217,-428,69,358,1,7,11
1.72313E+12,-7693,-3263,241,-611,101,375,1,7,11
1.72313E+12,-7707,-3261,512,-242,-125,372,1,7,11
1.72313E+12,-7708,-3224,246,-377,-105,353,1,7,11
1.72313E+12,-7712,-3417,237,-286,-91,321,1,7,11
1.72313E+12,-7713,-3364,233,3,-83,285,1,7,11
1.72313E+12,-7704,-3346,250,-263,-86,-7,1,7,11
1.72313E+12,-7693,-3065,249,-285,-103,-51,1,7,11
1.72313E+12,-7692,-3059,252,-331,-123,-97,1,7,11
1.72313E+12,-7696,-3068,535,-375,114,121,1,7,11
1.72313E+12,-7703,-3068,554,-137,94,105,1,7,11
1.72313E+12,-7703,-3049,537,-149,80,97,1,7,11
1.72313E+12,-7690,-3046,520,-184,73,110,1,7,11
1.72313E+12,-7412,-3044,217,-229,79,116,1,7,11
1.72313E+12,-7417,-3052,183,-531,115,112,1,7,11
1.72313E+12,-7424,-3338,170,-574,-84,118,1,7,11
1.72313E+12,-7706,-3374,195,-576,-15,122,1,7,11
1.72313E+12,-7733,-3396,201,-524,287,124,1,7,11
1.72313E+12,-7763,-3393,191,-209,314,118,1,7,11
1.72313E+12,-7792,-3374,188,-145,321,113,1,7,11
1.72313E+12,-7804,-3332,189,-343,271,104,1,7,11
1.72313E+12,-7805,-3047,192,-332,-39,91,1,7,11
1.72313E+12,-7787,-3023,194,-329,-93,85,1,7,11
1.72313E+12,-7757,-3030,200,-352,124,84,1,7,11
1.72313E+12,-7729,-3031,195,-360,94,75,1,7,11
1.72313E+12,-7710,-3044,207,-376,91,64,1,7,11
1.72313E+12,-7691,-3046,210,-130,103,53,1,7,11
1.72313E+12,-7688,-3049,209,-130,125,48,1,7,11
1.72313E+12,-7684,-3039,200,-134,-111,48,1,7,11
1.72313E+12,-7683,-3033,195,-155,-90,47,1,7,11
1.72313E+12,-7702,-3049,192,-180,-64,44,1,7,11
1.72313E+12,-7718,-3068,201,-181,-44,59,1,7,11
1.72313E+12,-7716,-3065,192,-167,-39,79,1,7,11
1.72313E+12,-7717,-3054,188,-164,-40,88,1,7,11
1.72313E+12,-7710,-3062,187,-166,-46,98,1,7,11
1.72313E+12,-7700,-3332,183,-167,-51,101,1,7,11
1.72313E+12,-7691,-3351,190,-162,-57,93,1,7,11
1.72313E+12,-7692,-3343,184,-149,-57,79,1,7,11
1.72313E+12,-7692,-3330,168,-138,-55,75,1,7,11
1.72313E+12,-7692,-3059,165,-138,-44,77,1,7,11
1.72313E+12,-7696,-3049,158,-142,-34,81,1,7,11
1.72313E+12,-7698,-3049,154,-153,-28,84,1,7,11
1.72313E+12,-7705,-3063,151,-170,-24,83,1,7,11
1.72313E+12,-7714,-3067,147,-185,-24,75,1,7,11
1.72313E+12,-7723,-3067,129,-192,-32,74,1,7,11
1.72313E+12,-7726,-3070,129,-198,-43,76,1,7,11
1.72313E+12,-7720,-3330,132,-200,-61,75,1,7,11
1.72313E+12,-7722,-3071,378,-196,-81,80,1,7,11
1.72313E+12,-7720,-3329,130,-207,-105,95,1,7,11
1.72313E+12,-7719,-3339,138,-216,123,112,1,7,11
1.72313E+12,-7705,-3345,128,-230,91,126,1,7,11
1.72313E+12,-7700,-3344,373,-253,73,-123,1,7,11
1.72313E+12,-7697,-3364,375,-534,72,-102,1,7,11
1.72313E+12,-7690,-3391,375,-531,81,-77,1,7,11
1.72313E+12,-7422,-3399,378,-518,84,-63,1,7,11
1.72313E+12,-7415,-3388,368,-237,88,-71,1,7,11
1.72313E+12,-7421,-3369,361,-215,97,-86,1,7,11
1.72313E+12,-7694,-3351,361,-201,120,-93,1,7,11
1.72313E+12,-7710,-3066,346,-173,-112,-89,1,7,11
1.72313E+12,-7734,-3034,335,-147,-87,-83,1,7,11
1.72313E+12,-7750,-3013,338,-377,-74,-72,1,7,11
1.72313E+12,-7761,-2986,335,-352,-68,-71,1,7,11
1.72313E+12,-7765,-2968,351,-351,-88,-92,1,7,11
1.72313E+12,-7759,-2955,352,-347,-113,-117,1,7,11
1.72313E+12,-7748,-2967,364,-349,121,123,1,7,11
1.72313E+12,-7721,-2966,369,-344,100,114,1,7,11
1.72313E+12,-7707,-2971,381,-348,87,100,1,7,11
1.72313E+12,-7692,-2972,131,-357,79,93,1,7,11
1.72313E+12,-7681,-2969,376,-375,82,87,1,7,11
1.72313E+12,-7694,-2970,376,-146,94,94,1,7,11
1.72313E+12,-7696,-2979,354,-175,111,113,1,7,11
1.72313E+12,-7717,-3018,374,-207,-117,-121,1,7,11
1.72313E+12,-7737,-3045,133,-192,-98,-100,1,7,11
1.72313E+12,-7759,-3052,135,-148,-84,-88,1,7,11
1.72313E+12,-7772,-3032,380,-365,-74,-79,1,7,11
1.72313E+12,-7776,-3023,382,-324,-72,-65,1,7,11
1.72313E+12,-7768,-3007,363,-287,-72,-65,1,7,11
1.72313E+12,-7769,-2989,343,-263,-72,-80,1,7,11
1.72313E+12,-7780,-2977,339,3,-72,-103,1,7,11
1.72313E+12,-7782,-2977,348,9,-76,-128,1,7,11
1.72313E+12,-7780,-2978,349,27,-86,92,1,7,11
1.72313E+12,-7782,-2964,347,45,-97,65,1,7,11
1.72313E+12,-7779,-2950,343,64,-100,51,1,7,11
1.72313E+12,-7773,-2950,344,79,-95,50,1,7,11
1.72313E+12,-7756,-2945,338,96,-82,47,1,7,11
1.72313E+12,-7749,-2950,342,99,-58,37,1,7,11
1.72313E+12,-7741,-2952,364,115,-39,24,1,7,11
1.72313E+12,-7726,-3195,374,127,-29,8,1,7,11
1.72313E+12,-7716,-3184,369,-125,-20,-267,1,7,11
1.72313E+12,-7717,-3185,130,118,-8,-275,1,7,11
1.72313E+12,-7720,-3173,136,120,-6,-267,1,7,11
1.72313E+12,-7737,-3163,131,86,-7,5,1,7,11
1.72313E+12,-7748,-3169,140,34,-22,25,1,7,11
1.72313E+12,-7763,-3176,141,-265,-53,34,1,7,11
1.72313E+12,-7767,-3194,156,-309,-91,47,1,7,11
1.72313E+12,-7760,-2958,167,-347,-126,60,1,7,11
1.72313E+12,-7759,-2976,184,-373,103,74,1,7,11
1.72313E+12,-7752,-2987,176,-379,84,88,1,7,11
1.72313E+12,-7750,-2991,181,-131,82,95,1,7,11
1.72313E+12,-7756,-2997,182,-130,93,102,1,7,11
1.72313E+12,-7752,-3003,185,-374,105,106,1,7,11
1.72313E+12,-7747,-3006,176,-356,118,90,1,7,11
1.72313E+12,-7743,-3016,180,-329,-126,61,1,7,11
1.72313E+12,-7730,-3008,172,-292,-123,35,1,7,11
1.72313E+12,-7725,-2985,162,-257,-126,10,1,7,11
1.72313E+12,-7712,-2982,163,10,122,-267,1,7,11
1.72313E+12,-7717,-2967,145,22,109,-289,1,7,11
1.72313E+12,-7724,-2967,149,15,103,-294,1,7,11
1.72313E+12,-7730,-2960,141,19,97,-284,1,7,11
1.72313E+12,-7720,-2957,128,25,93,-267,1,7,11
1.72313E+12,-7715,-2948,371,22,101,0,1,7,11
1.72313E+12,-7715,-2958,372,8,122,11,1,7,11
1.72313E+12,-7723,-2974,129,-262,-105,20,1,7,11
1.72313E+12,-7740,-2974,141,-259,-80,31,1,7,11
1.72313E+12,-7755,-2977,155,8,-66,46,1,7,11
1.72313E+12,-7761,-2981,173,19,-63,65,1,7,11
1.72313E+12,-7755,-2978,181,33,-67,78,1,7,11
1.72313E+12,-7753,-2979,199,27,-72,79,1,7,11
1.72313E+12,-7752,-2986,210,33,-85,80,1,7,11
1.72313E+12,-7747,-2981,222,28,-100,71,1,7,11
1.72313E+12,-7738,-2967,224,7,-113,63,1,7,11
1.72313E+12,-7726,-2950,203,-278,127,55,1,7,11
1.72313E+12,-7731,-2963,213,-324,117,58,1,7,11
1.72313E+12,-7728,-2968,208,-350,108,67,1,7,11
1.72313E+12,-7715,-2977,201,-367,101,72,1,7,11
1.72313E+12,-7702,-2971,193,-376,96,75,1,7,11
1.72313E+12,-7696,-2962,184,-379,98,83,1,7,11
1.72313E+12,-7689,-2952,169,-382,116,90,1,7,11
1.72313E+12,-7695,-2948,163,-131,-113,90,1,7,11
1.72313E+12,-7708,-2946,160,-129,-94,93,1,7,11
1.72313E+12,-7728,-2952,171,-135,-89,98,1,7,11
1.72313E+12,-7742,-2954,179,-130,-104,101,1,7,11
1.72313E+12,-7749,-3200,167,-129,124,107,1,7,11
1.72313E+12,-7743,-3183,135,-147,100,118,1,7,11
1.72313E+12,-7732,-3196,377,-193,96,-123,1,7,11
1.72313E+12,-7722,-2967,129,-226,110,-111,1,7,11
1.72313E+12,-7720,-2994,135,-237,-126,-106,1,7,11
1.72313E+12,-7731,-3017,381,-222,-98,-110,1,7,11
1.72313E+12,-7743,-3037,128,-194,-66,-120,1,7,11
1.72313E+12,-7768,-3052,138,-147,-45,-127,1,7,11
1.72313E+12,-7775,-3045,377,-343,-40,123,1,7,11
1.72313E+12,-7779,-3025,357,-285,-41,111,1,7,11
1.72313E+12,-7774,-3015,357,9,-39,104,1,7,11
1.72313E+12,-7771,-3007,359,55,-33,109,1,7,11
1.72313E+12,-7757,-3007,371,110,-18,124,1,7,11
1.72313E+12,-7731,-2990,369,-86,-2,125,1,7,11
1.72313E+12,-7725,-2970,361,-46,277,103,1,7,11
1.72313E+12,-7732,-3198,132,-27,299,83,1,7,11
1.72313E+12,-7761,-3179,171,-28,308,70,1,7,11
1.72313E+12,-7782,-3189,225,-39,304,68,1,7,11
1.72313E+12,-7802,-3185,254,-38,284,63,1,7,11
1.72313E+12,-7796,-3170,249,-33,-23,70,1,7,11
1.72313E+12,-7780,-3161,215,-42,-58,67,1,7,11
1.72313E+12,-7760,-3173,196,-101,-90,53,1,7,11
1.72313E+12,-7732,-2946,172,106,-122,27,1,7,11
1.72313E+12,-7690,-2976,147,63,114,-258,1,7,11
1.72313E+12,-7418,-2988,136,63,-123,-278,1,7,11
1.72313E+12,-7424,-3004,147,90,-84,-269,1,7,11
1.72313E+12,-7696,-3009,136,-101,-44,16,1,7,11
1.72313E+12,-7707,-2998,371,-35,-4,54,1,7,11
1.72313E+12,-7731,-2982,378,260,291,86,1,7,11
1.72313E+12,-7753,-2954,372,300,305,123,1,7,11
1.72313E+12,-7768,-3186,363,315,306,-105,1,7,11
1.72313E+12,-7794,-3163,369,317,299,-84,1,7,11
1.72313E+12,-7565,-3138,144,295,276,-74,1,7,11
1.72313E+12,-7588,-3127,179,256,-14,-74,1,7,11
1.72313E+12,-7615,-3144,240,-40,-55,-75,1,7,11
1.72313E+12,-7619,-3141,539,-60,-115,-92,1,7,11
1.72313E+12,-7598,-3130,538,-87,67,-112,1,7,11
1.72313E+12,-7575,-3119,530,114,4,118,1,7,11
1.72313E+12,-7791,-3108,240,53,-308,100,1,7,11
1.72313E+12,-7753,-3115,199,-286,-337,84,1,7,11
1.72313E+12,-7729,-3125,152,-368,-329,81,1,7,11
1.72313E+12,-7712,-3144,143,-174,-283,100,1,7,11
1.72313E+12,-7706,-3184,161,-207,46,126,1,7,11
1.72313E+12,-7712,-2955,192,-177,124,-125,1,7,11
1.72313E+12,-7720,-2971,211,-375,-62,127,1,7,11
1.72313E+12,-7728,-2961,213,-292,-13,113,1,7,11
1.72313E+12,-7739,-3180,199,28,274,86,1,7,11
1.72313E+12,-7765,-3160,204,41,281,54,1,7,11
1.72313E+12,-7554,-3136,209,31,268,21,1,7,11
1.72313E+12,-7587,-3145,229,10,-18,1,1,7,11
1.72313E+12,-7607,-3150,245,2,-60,1,1,7,11
1.72313E+12,-7589,-3148,233,-257,-114,7,1,7,11
1.72313E+12,-7554,-3164,223,-278,105,6,1,7,11
1.72313E+12,-7767,-3178,207,-284,85,7,1,7,11
1.72313E+12,-7728,-3192,185,-290,91,-257,1,7,11
1.72313E+12,-7703,-3190,158,-296,121,6,1,7,11
1.72313E+12,-7696,-3196,146,-308,-83,22,1,7,11
1.72313E+12,-7703,-2954,147,-307,-24,45,1,7,11
1.72313E+12,-7706,-2965,155,-274,288,75,1,7,11
1.72313E+12,-7718,-2972,170,48,335,99,1,7,11
1.72313E+12,-7719,-2962,166,112,362,100,1,7,11
1.72313E+12,-7754,-2952,185,-95,377,67,1,7,11
1.72313E+12,-7790,-3181,253,-63,366,25,1,7,11
1.72313E+12,-7562,-2953,608,-66,303,-292,1,7,11
1.72313E+12,-7562,-2957,405,-20,227,-353,1,7,11
1.72313E+12,-7804,-3191,392,301,-125,-154,1,7,11
1.72313E+12,-7766,-3181,577,321,41,-192,1,7,11
1.72313E+12,-7714,-3178,228,268,-276,-215,1,7,11
1.72313E+12,-7700,-3192,164,-61,-286,-221,1,7,11
1.72313E+12,-7694,-2955,381,-124,4,-193,1,7,11
1.72313E+12,-7702,-2975,358,99,84,-146,1,7,11
1.72313E+12,-7721,-2992,365,101,-72,-348,1,7,11
1.72313E+12,-7748,-2996,383,118,279,-300,1,7,11
1.72313E+12,-7782,-3025,190,127,342,-264,1,7,11
1.72313E+12,-7554,-3026,231,-88,349,2,1,7,11
1.72313E+12,-7561,-3010,245,-57,299,-269,1,7,11
1.72313E+12,-7556,-3006,252,-68,-28,-284,1,7,11
1.72313E+12,-7791,-2998,224,-79,-106,-296,1,7,11
1.72313E+12,-7757,-3014,169,-115,84,-313,1,7,11
1.72313E+12,-7700,-3046,352,96,28,-322,1,7,11
1.72313E+12,-7695,-3371,340,32,34,-335,1,7,11
1.72313E+12,-7706,-3437,360,19,79,-333,1,7,11
1.72313E+12,-7710,-3222,133,64,-111,-327,1,7,11
1.72313E+12,-7723,-3215,156,-86,-39,-320,1,7,11
1.72313E+12,-7756,-3424,181,314,285,-309,1,7,11
1.72313E+12,-7555,-3352,207,189,330,-281,1,7,11
1.72313E+12,-7605,-3051,529,539,341,23,1,7,11
1.72313E+12,-7613,-3058,617,600,301,54,1,7,11
1.72313E+12,-7597,-3064,443,408,-28,13,1,7,11
1.72313E+12,-7556,-3037,772,481,111,-346,1,7,11
1.72313E+12,-7778,-3021,800,784,-258,-222,1,7,11
1.72313E+12,-7760,-3003,815,807,-363,-612,1,7,11
1.72313E+12,-7753,-2999,788,818,-204,-459,1,7,11
1.72313E+12,-7757,-3016,499,810,-534,-791,1,7,11
1.72313E+12,-7732,-3043,461,775,-594,-828,1,7,11
1.72313E+12,-7696,-3361,456,456,-385,-844,1,7,11
1.72313E+12,-7394,-3422,460,637,-453,-859,1,7,11
1.72313E+12,-7363,-3447,463,578,-481,-867,1,7,11
1.72313E+12,-7307,-3216,483,521,-486,-810,1,7,11
1.72313E+12,-7498,-3238,496,184,-468,-469,1,7,11
1.72313E+12,-7456,-3273,780,369,-445,-392,1,7,11
1.72313E+12,-7155,-3316,776,288,-429,-587,1,7,11
1.72313E+12,-7133,-3610,502,-63,-394,-549,1,7,11
1.72313E+12,-7137,-3652,497,109,-590,-252,1,7,11
1.72313E+12,-7442,-3682,769,66,-239,-201,1,7,11
1.72313E+12,-7514,-3706,802,82,-382,-376,1,7,11
1.72313E+12,-7317,-3698,818,112,0,-268,1,7,11
1.72313E+12,-7343,-3667,801,-2,-103,119,1,7,11
1.72313E+12,-7338,-3657,797,350,337,270,1,7,11
1.72313E+12,-7305,-3664,803,207,539,152,1,7,11
1.72313E+12,-7540,-3675,830,577,475,226,1,7,11
1.72313E+12,-7547,-3653,843,410,861,221,1,7,11
1.72313E+12,-7327,-3328,846,447,662,159,1,7,11
1.72313E+12,-7396,-3240,866,412,651,352,1,7,11
1.72313E+12,-7729,-3420,644,608,840,325,1,7,11
1.72313E+12,-7788,-3357,641,545,487,360,1,7,11
1.72313E+12,-7752,-3389,873,135,553,561,1,7,11
1.72313E+12,-7712,-3398,836,327,203,602,1,7,11
1.72313E+12,-7683,-3392,816,-14,379,589,1,7,11
1.72313E+12,-7413,-3359,787,-95,308,534,1,7,11
1.72313E+12,-7419,-3339,783,54,-14,208,1,7,11
1.72313E+12,-7685,-3336,795,-309,-80,129,1,7,11
1.72313E+12,-7692,-3342,812,-134,113,302,1,7,11
1.72313E+12,-7713,-3343,804,-179,74,-24,1,7,11
1.72313E+12,-7738,-3343,796,-188,60,-55,1,7,11
1.72313E+12,-7738,-3362,795,-183,65,-51,1,7,11
1.72313E+12,-7759,-3383,814,-160,74,-40,1,7,11
1.72313E+12,-7773,-3399,830,-136,62,-31,1,7,11
1.72313E+12,-7766,-3411,859,-382,29,-36,1,7,11
1.72313E+12,-7754,-3405,887,-378,-279,-45,1,7,11
1.72313E+12,-7748,-3394,656,-371,-316,-38,1,7,11
1.72313E+12,-7704,-3368,647,-358,-348,-8,1,7,11
1.72313E+12,-7395,-3379,891,-369,-350,266,1,7,11
1.72313E+12,-7348,-3402,891,-381,-322,257,1,7,11
1.72313E+12,-7347,-3429,650,-374,-257,-47,1,7,11
1.72313E+12,-7370,-3425,641,-335,69,-97,1,7,11
1.72313E+12,-7406,-3385,853,-292,-113,106,1,7,11
1.72313E+12,-7718,-3334,820,-280,-46,72,1,7,11
1.72313E+12,-7784,-3058,820,-295,259,57,1,7,11
1.72313E+12,-7580,-3061,855,-325,269,43,1,7,11
1.72313E+12,-7604,-3341,664,-337,-20,24,1,7,11
1.72313E+12,-7607,-3353,714,-311,-83,0,1,7,11
1.72313E+12,-7580,-3341,717,-261,92,-285,1,7,11
1.72313E+12,-7792,-3045,682,37,17,-309,1,7,11
1.72313E+12,-7742,-3013,890,36,-289,-318,1,7,11
1.72313E+12,-7698,-3007,848,-259,-314,-311,1,7,11
1.72313E+12,-7408,-3022,828,-310,-316,-291,1,7,11
1.72313E+12,-7391,-3038,837,-352,-285,-263,1,7,11
1.72313E+12,-7386,-3066,863,-360,23,44,1,7,11
1.72313E+12,-7377,-3352,877,-322,88,108,1,7,11
1.72313E+12,-7388,-3341,859,-258,-91,-106,1,7,11
1.72313E+12,-7419,-3070,869,45,-6,-59,1,7,11
1.72313E+12,-7701,-3046,883,67,308,-7,1,7,11
1.72313E+12,-7744,-3042,653,85,337,292,1,7,11
1.72313E+12,-7776,-3028,669,80,328,332,1,7,11
1.72313E+12,-7791,-3018,676,61,301,355,1,7,11
1.72313E+12,-7783,-3012,670,28,263,367,1,7,11
1.72313E+12,-7744,-3031,646,-277,-28,347,1,7,11
1.72313E+12,-7717,-3063,871,-313,-44,296,1,7,11
1.72313E+12,-7714,-3332,855,-316,-39,-21,1,7,11
1.72313E+12,-7723,-3333,841,-306,-7,-68,1,7,11
1.72313E+12,-7748,-3066,836,-288,289,-112,1,7,11
1.72313E+12,-7795,-3056,850,-267,317,111,1,7,11
1.72313E+12,-7583,-3036,877,4,313,91,1,7,11
1.72313E+12,-7615,-3003,640,22,273,84,1,7,11
1.72313E+12,-7629,-2981,662,21,-48,100,1,7,11
1.72313E+12,-7598,-2963,649,18,-124,124,1,7,11
1.72313E+12,-7554,-2951,892,-261,68,-118,1,7,11
1.72313E+12,-7763,-2953,878,-301,29,-108,1,7,11
1.72313E+12,-7715,-2965,858,-335,13,-105,1,7,11
1.72313E+12,-7422,-2981,839,-376,28,-116,1,7,11
1.72313E+12,-7417,-3009,853,-149,75,125,1,7,11
1.72313E+12,-7412,-3025,856,-143,123,109,1,7,11
1.72313E+12,-7689,-3022,852,-377,-82,88,1,7,11
1.72313E+12,-7720,-2997,852,-361,-39,70,1,7,11
1.72313E+12,-7769,-2987,857,-348,-10,59,1,7,11
1.72313E+12,-7567,-2989,871,-331,-1,77,1,7,11
1.72313E+12,-7596,-2999,890,-318,-16,107,1,7,11
1.72313E+12,-7603,-3002,647,-308,-54,119,1,7,11
1.72313E+12,-7590,-3010,645,-302,-108,123,1,7,11
1.72313E+12,-7559,-3003,644,-291,94,110,1,7,11
1.72313E+12,-7785,-3007,875,-278,50,108,1,7,11
1.72313E+12,-7751,-3005,838,-269,12,105,1,7,11
1.72313E+12,-7719,-3028,824,-277,19,106,1,7,11
1.72313E+12,-7708,-3045,832,-272,43,106,1,7,11
1.72313E+12,-7706,-3059,852,24,78,101,1,7,11
1.72313E+12,-7736,-3064,880,97,-126,106,1,7,11
1.72313E+12,-7738,-3025,866,-71,-90,123,1,7,11
1.72313E+12,-7751,-2983,852,-23,-51,127,1,7,11
1.72313E+12,-7773,-2950,841,-14,-22,-121,1,7,11
1.72313E+12,-7793,-2945,876,-31,-15,-109,1,7,11
1.72313E+12,-7799,-2950,678,-51,-42,-111,1,7,11
1.72313E+12,-7788,-3197,711,-62,-101,-125,1,7,11
1.72313E+12,-7761,-3174,724,-89,90,116,1,7,11
1.72313E+12,-7747,-3157,738,109,39,117,1,7,11
1.72313E+12,-7744,-3163,755,44,7,-117,1,7,11
1.72313E+12,-7753,-3185,1034,-265,-262,-94,1,7,11
1.72313E+12,-7761,-3192,1024,-288,-265,-70,1,7,11
1.72313E+12,-7761,-3193,739,-315,0,-53,1,7,11
1.72313E+12,-7748,-2958,700,-342,15,-47,1,7,11
1.72313E+12,-7742,-2992,672,-363,38,-74,1,7,11
1.72313E+12,-7736,-3026,660,-354,67,-123,1,7,11
1.72313E+12,-7750,-3045,670,-320,114,74,1,7,11
1.72313E+12,-7782,-3034,681,6,-96,33,1,7,11
1.72313E+12,-7800,-2997,672,90,-57,16,1,7,11
1.72313E+12,-7565,-3199,642,-89,-15,18,1,7,11
1.72313E+12,-7580,-3142,880,-48,279,35,1,7,11
1.72313E+12,-7584,-3114,888,-46,306,55,1,7,11
1.72313E+12,-7589,-3098,652,-57,314,75,1,7,11
1.72313E+12,-7586,-3092,673,-74,299,85,1,7,11
1.72313E+12,-7582,-3102,699,-115,273,72,1,7,11
1.72313E+12,-7590,-3115,734,100,-28,48,1,7,11
1.72313E+12,-7592,-3116,756,71,-82,23,1,7,11
1.72313E+12,-7573,-3115,747,33,126,7,1,7,11
1.72313E+12,-7798,-3130,732,-270,94,-261,1,7,11
1.72313E+12,-7775,-3157,722,-314,79,-266,1,7,11
1.72313E+12,-7746,-3189,707,-342,80,-262,1,7,11
1.72313E+12,-7732,-2965,709,-351,110,-258,1,7,11
1.72313E+12,-7741,-2994,726,-334,-106,10,1,7,11
1.72313E+12,-7755,-2989,743,-281,-71,30,1,7,11
1.72313E+12,-7765,-2973,748,22,-52,55,1,7,11
1.72313E+12,-7780,-2959,751,58,-40,75,1,7,11
1.72313E+12,-7783,-3191,728,81,-40,98,1,7,11
1.72313E+12,-7780,-3163,715,89,-39,117,1,7,11
1.72313E+12,-7779,-3146,692,79,-33,125,1,7,11
1.72313E+12,-7777,-3141,684,58,-21,126,1,7,11
1.72313E+12,-7783,-3152,687,37,256,121,1,7,11
1.72313E+12,-7791,-3164,696,22,266,104,1,7,11
1.72313E+12,-7806,-3170,728,7,265,73,1,7,11
1.72313E+12,-7574,-3175,765,-261,-12,36,1,7,11
1.72313E+12,-7583,-3166,1031,-271,-60,10,1,7,11
1.72313E+12,-7567,-3160,767,-289,-112,-259,1,7,11
1.72313E+12,-7797,-3168,746,-320,99,3,1,7,11
1.72313E+12,-7749,-3187,697,-344,74,16,1,7,11
1.72313E+12,-7725,-2954,675,-366,92,22,1,7,11
1.72313E+12,-7722,-2966,664,-366,-120,29,1,7,11
1.72313E+12,-7737,-2984,671,-338,-68,40,1,7,11
1.72313E+12,-7764,-2988,684,-296,-23,51,1,7,11
1.72313E+12,-7786,-2963,667,17,257,50,1,7,11
1.72313E+12,-7572,-3188,671,55,274,63,1,7,11
1.72313E+12,-7603,-3181,672,82,260,84,1,7,11
1.72313E+12,-7613,-3173,687,91,-32,89,1,7,11
1.72313E+12,-7616,-3186,724,77,-80,77,1,7,11
1.72313E+12,-7596,-3194,754,68,121,51,1,7,11
1.72313E+12,-7573,-3193,1030,67,72,16,1,7,11
1.72313E+12,-7784,-3184,760,67,40,-263,1,7,11
1.72313E+12,-7733,-3182,708,49,28,-275,1,7,11
1.72313E+12,-7700,-3187,674,9,46,-289,1,7,11
1.72313E+12,-7697,-2945,659,-286,93,-291,1,7,11
1.72313E+12,-7706,-2980,663,-315,-102,-274,1,7,11
1.72313E+12,-7729,-3001,675,-304,-37,12,1,7,11
1.72313E+12,-7757,-3001,670,10,274,41,1,7,11
1.72313E+12,-7778,-2977,655,76,309,57,1,7,11
1.72313E+12,-7792,-2963,657,111,327,57,1,7,11
1.72313E+12,-7561,-2966,698,110,328,41,1,7,11
1.72313E+12,-7581,-2965,739,111,297,0,1,7,11
1.72313E+12,-7579,-2951,761,117,-48,-278,1,7,11
1.72313E+12,-7564,-3191,1027,100,-111,-293,1,7,11
1.72313E+12,-7803,-3177,767,72,100,-302,1,7,11
1.72313E+12,-7782,-3178,732,27,63,-300,1,7,11
1.72313E+12,-7751,-3197,686,-287,52,-298,1,7,11
1.72313E+12,-7728,-2972,658,-357,74,-285,1,7,11
1.72313E+12,-7722,-3019,659,-145,-128,-271,1,7,11
1.72313E+12,-7741,-3055,687,-378,-69,-257,1,7,11
1.72313E+12,-7754,-3061,697,-306,-17,4,1,7,11
1.72313E+12,-7773,-3041,702,29,284,-258,1,7,11
1.72313E+12,-7802,-3020,722,95,303,-264,1,7,11
1.72313E+12,-7562,-2989,747,-114,285,-273,1,7,11
1.72313E+12,-7560,-2961,1025,-92,-23,-290,1,7,11
1.72313E+12,-7554,-3188,767,-97,-92,-315,1,7,11
1.72313E+12,-7784,-3166,746,127,97,-334,1,7,11
1.72313E+12,-7747,-3161,708,52,43,-348,1,7,11
1.72313E+12,-7708,-3174,671,-318,16,-362,1,7,11
1.72313E+12,-7691,-2978,660,-189,27,-372,1,7,11
1.72313E+12,-7422,-3017,663,-245,45,-363,1,7,11
1.72313E+12,-7683,-3053,678,-532,83,-340,1,7,11
1.72313E+12,-7691,-3332,686,-526,115,-309,1,7,11
1.72313E+12,-7683,-3353,688,-530,-119,-297,1,7,11
1.72313E+12,-7722,-3383,717,-254,-80,-321,1,7,11
1.72313E+12,-7765,-3382,747,-153,-70,-313,1,7,11
1.72313E+12,-7772,-3360,740,-319,-60,-306,1,7,11
1.72313E+12,-7782,-3359,1028,-257,-32,-304,1,7,11
1.72313E+12,-7783,-3354,1061,61,-9,-306,1,7,11
1.72313E+12,-7785,-3343,1086,-115,-3,-315,1,7,11
1.72313E+12,-7772,-3064,1087,-62,-22,-329,1,7,11
1.72313E+12,-7767,-3045,1085,-49,-40,-348,1,7,11
1.72313E+12,-7744,-3038,1070,-50,-75,-355,1,7,11
1.72313E+12,-7700,-3036,766,-65,-106,-350,1,7,11
1.72313E+12,-7408,-3029,709,-109,-111,-350,1,7,11
1.72313E+12,-7402,-3047,689,70,-83,-350,1,7,11
1.72313E+12,-7399,-3043,655,32,-52,-338,1,7,11
1.72313E+12,-7403,-3047,647,-271,-7,-326,1,7,11
1.72313E+12,-7698,-3061,644,-297,292,-315,1,7,11
1.72313E+12,-7718,-3058,651,-303,311,-292,1,7,11
1.72313E+12,-7749,-3065,678,-307,319,0,1,7,11
1.72313E+12,-7782,-3061,707,-281,305,49,1,7,11
1.72313E+12,-7791,-3065,704,4,267,86,1,7,11
1.72313E+12,-7795,-3046,666,30,-26,109,1,7,11
1.72313E+12,-7765,-3041,889,14,-64,-121,1,7,11
1.72313E+12,-7731,-3067,880,-286,-69,-110,1,7,11
1.72313E+12,-7710,-3359,878,-307,-57,-110,1,7,11
1.72313E+12,-7702,-3390,640,-292,-2,-124,1,7,11
1.72313E+12,-7708,-3415,660,7,299,104,1,7,11
1.72313E+12,-7729,-3399,654,68,331,62,1,7,11
1.72313E+12,-7758,-3386,679,98,355,31,1,7,11
1.72313E+12,-7787,-3394,725,115,356,11,1,7,11
1.72313E+12,-7792,-3408,1034,-118,324,-266,1,7,11
1.72313E+12,-7770,-3393,1045,-77,269,-294,1,7,11
1.72313E+12,-7693,-3428,1055,-83,-50,-314,1,7,11
1.72313E+12,-7351,-3450,739,-85,-98,-144,1,7,11
1.72313E+12,-7297,-3236,646,-124,-108,-529,1,7,11
1.72313E+12,-7512,-3290,802,93,-57,-420,1,7,11
1.72313E+12,-7506,-3638,779,63,316,-825,1,7,11
1.72313E+12,-7538,-3704,797,-120,199,-693,1,7,11
1.72313E+12,-7313,-3695,803,276,576,-1048,1,7,11
1.72313E+12,-7372,-3666,825,147,425,-1123,1,7,11
1.72313E+12,-7700,-3618,863,246,494,-898,1,7,11
1.72313E+12,-7754,-3324,653,575,770,-897,1,7,11
1.72313E+12,-7790,-3279,680,628,474,-1124,1,7,11
1.72313E+12,-7555,-3260,690,627,386,-1073,1,7,11
1.72313E+12,-7801,-3253,682,607,518,-745,1,7,11
1.72313E+12,-7764,-3286,661,544,380,-678,1,7,11
1.72313E+12,-7719,-3592,651,241,-9,-875,1,7,11
1.72313E+12,-7413,-3640,871,204,-117,-819,1,7,11
1.72313E+12,-7349,-3677,842,180,82,-510,1,7,11
1.72313E+12,-7315,-3693,843,183,82,-451,1,7,11
1.72313E+12,-7317,-3691,859,210,120,-631,1,7,11
1.72313E+12,-7359,-3693,698,247,-97,-526,1,7,11
1.72313E+12,-7374,-3701,761,544,-97,-376,1,7,11
1.72313E+12,-7356,-3694,1056,557,97,-321,1,7,11
1.72313E+12,-7344,-3683,1053,544,14,-293,1,7,11
1.72313E+12,-7315,-3666,1027,242,-330,-270,1,7,11
1.72313E+12,-7301,-3680,733,166,-140,4,1,7,11
1.72313E+12,-7545,-3472,724,337,-186,20,1,7,11
1.72313E+12,-7551,-3528,753,288,-207,29,1,7,11
1.72313E+12,-7551,-3556,1035,285,-215,46,1,7,11
1.72313E+12,-7534,-3844,1074,301,-205,69,1,7,11
1.72313E+12,-7501,-3852,1102,340,-197,82,1,7,11
1.72313E+12,-7466,-3575,1112,373,-186,67,1,7,11
1.72313E+12,-7454,-3515,1092,375,-165,41,1,7,11
1.72313E+12,-7468,-3485,1103,323,-383,27,1,7,11
1.72313E+12,-7496,-3490,903,270,-342,27,1,7,11
1.72313E+12,-7527,-3517,990,-15,-318,39,1,7,11
1.72313E+12,-7543,-3517,1303,257,-329,51,1,7,11
1.72313E+12,-7539,-3503,1329,278,-357,64,1,7,11
1.72313E+12,-7518,-3482,1296,284,-132,75,1,7,11
1.72313E+12,-7497,-3471,998,-3,-153,87,1,7,11
1.72313E+12,-7485,-3495,973,-50,-156,102,1,7,11
1.72313E+12,-7480,-3510,948,-81,-138,124,1,7,11
1.72313E+12,-7485,-3527,950,-98,-357,-99,1,7,11
1.72313E+12,-7492,-3529,957,-85,-301,-61,1,7,11
1.72313E+12,-7493,-3513,969,-46,14,-12,1,7,11
1.72313E+12,-7471,-3481,961,-11,68,283,1,7,11
1.72313E+12,-7467,-3700,953,-23,-127,270,1,7,11
1.72313E+12,-7484,-3681,982,-70,-80,-32,1,7,11
1.72313E+12,-7522,-3668,1280,-127,-55,-101,1,7,11
1.72313E+12,-7315,-3661,1344,91,-53,92,1,7,11
1.72313E+12,-7338,-3647,1367,60,-85,49,1,7,11
1.72313E+12,-7342,-3646,1371,21,127,12,1,7,11
1.72313E+12,-7323,-3661,1367,-287,89,-267,1,7,11
1.72313E+12,-7544,-3685,1339,-334,58,-287,1,7,11
1.72313E+12,-7493,-3465,1296,-375,46,-303,1,7,11
1.72313E+12,-7438,-3530,990,-166,68,-323,1,7,11
1.72313E+12,-7158,-3546,981,-199,-114,-350,1,7,11
1.72313E+12,-7428,-3570,973,-190,-9,-352,1,7,11
1.72313E+12,-7463,-3549,969,-135,350,-326,1,7,11
1.72313E+12,-7511,-3523,984,-361,187,-291,1,7,11
1.72313E+12,-7302,-3495,988,-330,239,-267,1,7,11
1.72313E+12,-7346,-3480,1016,-324,244,-268,1,7,11
1.72313E+12,-7378,-3464,1295,-330,216,-302,1,7,11
1.72313E+12,-7393,-3698,1309,-332,366,-317,1,7,11
1.72313E+12,-7399,-3689,1301,-338,275,-316,1,7,11
1.72313E+12,-7380,-3692,1286,-353,-72,-311,1,7,11
1.72313E+12,-7332,-3708,995,-130,97,-307,1,7,11
1.72313E+12,-7523,-3501,979,-207,40,-313,1,7,11
1.72313E+12,-7471,-3560,961,-242,13,-318,1,7,11
1.72313E+12,-7168,-3870,934,-253,27,-329,1,7,11
1.72313E+12,-7148,-3888,903,-234,73,-340,1,7,11
1.72313E+12,-7147,-3890,1137,-213,-109,-340,1,7,11
1.72313E+12,-7425,-3874,1125,-178,-25,-326,1,7,11
1.72313E+12,-7450,-3845,1113,-150,307,-299,1,7,11
1.72313E+12,-7473,-3579,1121,-148,365,-275,1,7,11
1.72313E+12,-7506,-3571,1144,-158,144,-281,1,7,11
1.72313E+12,-7538,-3550,915,-180,148,-322,1,7,11
1.72313E+12,-7319,-3537,956,-217,131,-368,1,7,11
1.72313E+12,-7332,-3509,966,-249,334,-147,1,7,11
1.72313E+12,-7335,-3495,988,-571,266,-174,1,7,11
1.72313E+12,-7310,-3488,1019,-386,-68,-198,1,7,11
1.72313E+12,-7527,-3510,1294,-462,114,-211,1,7,11
1.72313E+12,-7481,-3541,1303,-771,39,-208,1,7,11
1.72313E+12,-7425,-3551,998,-794,-276,-191,1,7,11
1.72313E+12,-7148,-3568,940,-836,-280,-160,1,7,11
1.72313E+12,-7131,-3845,1119,-856,13,-360,1,7,11
1.72313E+12,-7122,-3852,1046,-887,96,-314,1,7,11
1.72313E+12,-7144,-3863,1031,-672,-47,-298,1,7,11
1.72313E+12,-7431,-3879,1053,-692,311,-311,1,7,11
1.72313E+12,-7465,-3865,1057,-680,133,-350,1,7,11
1.72313E+12,-7492,-3847,1052,-686,187,-152,1,7,11
1.72313E+12,-7511,-3565,1042,-703,215,-222,1,7,11
1.72313E+12,-7514,-3550,1031,-742,226,-543,1,7,11
1.72313E+12,-7483,-3545,769,-1044,218,-601,1,7,11
1.72313E+12,-7425,-3859,1039,-1103,189,-422,1,7,11
1.72313E+12,-7111,-3894,1025,-1135,148,-469,1,7,11
1.72313E+12,-7054,-3918,712,-948,360,-773,1,7,11
1.72313E+12,-7255,-3963,895,-1033,318,-791,1,7,11
1.72313E+12,-7227,-3773,850,-1401,295,-800,1,7,11
1.72313E+12,-7230,-4103,809,-1241,296,-793,1,7,11
1.72313E+12,-7281,-4190,790,-1539,335,-500,1,7,11
1.72313E+12,-7087,-3982,776,-1221,135,-412,1,7,11
1.72313E+12,-7151,-4021,785,-1367,206,-555,1,7,11
1.72313E+12,-7481,-4039,792,-920,538,-174,1,7,11
1.72313E+12,-7537,-4050,798,-667,604,-291,1,7,11
1.72313E+12,-7533,-4038,507,-388,396,105,1,7,11
1.72313E+12,-7476,-4041,465,-185,433,-86,1,7,11
1.72313E+12,-7432,-4010,425,-295,442,-122,1,7,11
1.72313E+12,-7136,-4223,398,14,408,34,1,7,11
1.72313E+12,-7153,-4161,398,-262,603,-350,1,7,11
1.72313E+12,-7429,-3833,636,-315,229,-179,1,7,11
1.72313E+12,-7159,-3778,603,-167,351,-218,1,7,11
1.72313E+12,-7129,-3768,577,-571,-25,-210,1,7,11
1.72313E+12,-7083,-3781,544,-460,-121,-177,1,7,11
1.72313E+12,-7066,-3814,522,-841,66,-145,1,7,11
1.72313E+12,-7048,-4113,238,-690,15,-361,1,7,11
1.72313E+12,-7049,-4166,513,-748,-260,-308,1,7,11
1.72313E+12,-7075,-4203,528,-708,-258,57,1,7,11
1.72313E+12,-7065,-4210,532,-889,19,-109,1,7,11
1.72313E+12,-7075,-4212,560,-782,63,-32,1,7,11
1.72313E+12,-7102,-3970,582,-631,116,314,1,7,11
1.72313E+12,-7140,-4210,554,-165,-93,171,1,7,11
1.72313E+12,-7165,-4174,512,21,-42,543,1,7,11
1.72313E+12,-7448,-4165,517,-119,272,387,1,7,11
1.72313E+12,-7465,-4156,551,-35,307,440,1,7,11
1.72313E+12,-7487,-4114,569,288,303,440,1,7,11
1.72313E+12,-7476,-3824,575,289,267,408,1,7,11
1.72313E+12,-7458,-3785,597,261,-38,577,1,7,11
1.72313E+12,-7462,-3777,387,-50,-81,193,1,7,11
1.72313E+12,-7449,-3744,416,-72,117,341,1,7,11
1.72313E+12,-7134,-3714,407,-97,69,-8,1,7,11
1.72313E+12,-7082,-3963,411,111,41,-106,1,7,11
1.72313E+12,-7295,-3722,398,60,29,65,1,7,11
1.72313E+12,-7291,-3967,631,41,34,12,1,7,11
1.72313E+12,-7290,-3954,577,15,51,11,1,7,11
1.72313E+12,-7060,-3951,539,-269,100,57,1,7,11
1.72313E+12,-7098,-3953,526,-276,-95,-102,1,7,11
1.72313E+12,-7124,-3958,522,-281,-25,-5,1,7,11
1.72313E+12,-7434,-3722,566,-266,292,339,1,7,11
1.72313E+12,-7461,-3725,586,36,308,142,1,7,11
1.72313E+12,-7500,-3732,622,94,301,170,1,7,11
1.72313E+12,-7494,-3964,626,-113,265,170,1,7,11
1.72313E+12,-7493,-3945,392,-115,-23,370,1,7,11
1.72313E+12,-7477,-3928,415,112,-61,285,1,7,11
1.72313E+12,-7461,-3913,431,79,-103,-56,1,7,11
1.72313E+12,-7426,-3882,394,39,116,-121,1,7,11
1.72313E+12,-7131,-3854,581,-289,104,89,1,7,11
1.72313E+12,-7126,-3869,561,-384,-121,68,1,7,11
1.72313E+12,-7123,-3903,567,-193,-68,67,1,7,11
1.72313E+12,-7141,-3927,595,-204,261,66,1,7,11
1.72313E+12,-7165,-3933,598,-168,316,76,1,7,11
1.72313E+12,-7443,-3904,576,-382,346,76,1,7,11
1.72313E+12,-7463,-3868,572,-380,356,71,1,7,11
1.72313E+12,-7491,-3862,610,-148,346,70,1,7,11
1.72313E+12,-7500,-3849,637,-159,296,78,1,7,11
1.72313E+12,-7490,-3578,406,-186,-23,68,1,7,11
1.72313E+12,-7470,-3565,634,-209,-91,70,1,7,11
1.72313E+12,-7444,-3566,604,-253,96,68,1,7,11
1.72313E+12,-7162,-3584,568,-560,82,67,1,7,11
1.72313E+12,-7151,-3871,550,-622,100,66,1,7,11
1.72313E+12,-7138,-3898,518,-399,-119,67,1,7,11
1.72313E+12,-7147,-3924,248,-636,-58,65,1,7,11
1.72313E+12,-7149,-3919,220,-595,269,57,1,7,11
1.72313E+12,-7434,-3919,198,-552,347,32,1,7,11
1.72313E+12,-7456,-3904,177,-245,163,13,1,7,11
1.72313E+12,-7491,-3891,169,-193,238,-274,1,7,11
1.72313E+12,-7522,-3871,167,-145,551,-295,1,7,11
1.72313E+12,-7532,-3866,172,-372,579,-311,1,7,11
1.72313E+12,-7539,-3874,204,-353,581,-332,1,7,11
1.72313E+12,-7543,-3874,225,-324,547,-358,1,7,11
1.72313E+12,-7530,-3869,222,-303,222,-364,1,7,11
1.72313E+12,-7500,-3870,216,-309,152,-359,1,7,11
1.72313E+12,-7472,-3886,187,-335,345,-352,1,7,11
1.72313E+12,-7455,-3914,175,-374,293,-348,1,7,11
1.72313E+12,-7444,-3943,169,-140,261,-338,1,7,11
1.72313E+12,-7428,-3715,158,-137,-7,-323,1,7,11
1.72313E+12,-7156,-3737,152,-373,-4,-310,1,7,11
1.72313E+12,-7140,-3759,138,-345,266,-306,1,7,11
1.72313E+12,-7141,-3769,145,-306,285,-304,1,7,11
1.72313E+12,-7141,-3768,136,-264,291,-304,1,7,11
1.72313E+12,-7142,-3758,149,21,282,-306,1,7,11
1.72313E+12,-7141,-3739,145,44,261,-301,1,7,11
1.72313E+12,-7146,-3722,151,37,-2,-305,1,7,11
1.72313E+12,-7165,-3954,134,21,-19,-300,1,7,11
1.72313E+12,-7433,-3928,373,-284,-38,-293,1,7,11
1.72313E+12,-7453,-3931,129,-349,-57,-281,1,7,11
1.72313E+12,-7463,-3948,154,-147,-88,-274,1,7,11
1.72313E+12,-7456,-3720,175,-168,125,-267,1,7,11
1.72313E+12,-7441,-3737,171,-151,80,-257,1,7,11
1.72313E+12,-7151,-3747,129,-136,44,1,1,7,11
1.72313E+12,-7123,-3753,338,-383,30,-258,1,7,11
1.72313E+12,-7087,-3768,304,-142,36,-262,1,7,11
1.72313E+12,-7092,-3802,310,-147,67,-258,1,7,11
1.72313E+12,-7085,-3815,301,-350,108,33,1,7,11
1.72313E+12,-7106,-3803,290,25,-45,84,1,7,11
1.72313E+12,-7107,-3783,262,98,273,-122,1,7,11
1.72313E+12,-7116,-3769,260,-116,323,-97,1,7,11
1.72313E+12,-7139,-3776,302,-108,345,-102,1,7,11
1.72313E+12,-7439,-3763,355,-84,335,-123,1,7,11
1.72313E+12,-7462,-3736,128,-55,287,125,1,7,11
1.72313E+12,-7469,-3722,153,-55,-15,127,1,7,11
1.72313E+12,-7455,-3725,164,-74,-54,122,1,7,11
1.72313E+12,-7428,-3733,184,-96,-83,97,1,7,11
1.72313E+12,-7141,-3737,178,-114,-103,63,1,7,11
1.72313E+12,-7128,-3741,167,121,-113,34,1,7,11
1.72313E+12,-7130,-3743,151,108,-111,25,1,7,11
1.72313E+12,-7116,-3738,131,104,-89,50,1,7,11
1.72313E+12,-7111,-3749,142,107,-41,97,1,7,11
1.72313E+12,-7100,-3751,157,-112,266,-107,1,7,11
1.72313E+12,-7086,-3724,145,-63,318,-75,1,7,11
1.72313E+12,-7101,-3945,147,-38,375,-74,1,7,11
