timestamp,ax,ay,az,gx,gy,gz,Label1,Label2,Label3
2.84E+03,-7571,1989,-1859,-632,-269,-322,1,7,11
2.84E+03,-7611,1963,-1829,-462,72,-331,1,7,11
2.84E+03,-7628,1927,-1795,-491,118,-306,1,7,11
2.84E+03,-7602,2149,-1800,-457,-127,-268,1,7,11
2.84E+03,-7572,2118,-1813,-386,-110,11,1,7,11
2.84E+03,-7802,2098,-1830,-542,-81,25,1,7,11
2.84E+03,-7801,2098,-1853,-169,-44,41,1,7,11
2.84E+03,-7556,2088,-1855,-294,-10,64,1,7,11
2.84E+03,-7573,2071,-1856,113,265,97,1,7,11
2.84E+03,-7575,2055,-1873,281,267,-126,1,7,11
2.84E+03,-7565,2065,-1897,197,273,-100,1,7,11
2.84E+03,-7555,2091,-1687,615,291,-86,1,7,11
2.84E+03,-7558,2135,-1759,478,327,-88,1,7,11
2.84E+03,-7581,1931,-2054,796,377,-107,1,7,11
2.84E+03,-7669,1965,-1779,786,185,114,1,7,11
2.84E+03,-7985,1977,-1747,481,212,90,1,7,11
2.84E+03,-7950,1961,-1741,421,144,66,1,7,11
2.84E+03,-7632,1959,-1752,611,314,11,1,7,11
2.84E+03,-7621,1970,-1761,516,271,-302,1,7,11
2.84E+03,-7616,2007,-1763,334,-10,-315,1,7,11
2.84E+03,-7575,2017,-1784,-64,-28,-271,1,7,11
2.84E+03,-7758,2002,-2085,48,-28,41,1,7,11
2.84E+03,-7707,1975,-2133,-337,265,79,1,7,11
2.84E+03,-7703,1939,-2172,-190,306,92,1,7,11
2.84E+03,-7731,2158,-1939,-517,334,97,1,7,11
2.84E+03,-7800,2138,-1943,-536,346,115,1,7,11
2.84E+03,-7611,2113,-1922,-246,321,-97,1,7,11
2.84E+03,-7653,2095,-2161,-158,-1,-49,1,7,11
2.85E+03,-7943,2082,-2147,-299,-79,-14,1,7,11
2.85E+03,-7940,2090,-2149,95,85,-4,1,7,11
2.85E+03,-7671,2115,-2153,-41,18,-33,1,7,11
2.85E+03,-7653,2139,-2145,295,-284,-62,1,7,11
2.85E+03,-7613,2171,-2141,341,-311,-103,1,7,11
2.85E+03,-7588,1944,-2134,340,-307,117,1,7,11
2.85E+03,-7553,1962,-2135,308,-295,84,1,7,11
2.85E+03,-7775,1973,-2140,-9,-260,48,1,7,11
2.85E+03,-7762,1969,-2137,-94,51,18,1,7,11
2.85E+03,-7761,1963,-2123,80,104,-259,1,7,11
2.85E+03,-7782,1959,-2094,6,-98,-265,1,7,11
2.85E+03,-7557,1952,-2057,-313,-63,8,1,7,11
2.85E+03,-7596,2175,-1775,-360,-58,29,1,7,11
2.85E+03,-7597,2150,-1778,-377,-93,41,1,7,11
2.85E+03,-7558,2138,-2075,-138,126,22,1,7,11
2.85E+03,-7808,2135,-2096,-183,-126,-268,1,7,11
2.85E+03,-7554,2137,-2101,-231,-106,-279,1,7,11
2.85E+03,-7575,2130,-2083,-522,-75,-272,1,7,11
2.85E+03,-7605,2113,-2059,-533,-55,18,1,7,11
2.85E+03,-7625,2102,-1782,-246,-60,56,1,7,11
2.85E+03,-7619,2100,-1774,-183,-91,89,1,7,11
2.85E+03,-7588,2107,-1784,-355,124,121,1,7,11
2.85E+03,-7573,2131,-1785,28,115,-127,1,7,11
2.85E+03,-7571,2167,-2054,94,115,-124,1,7,11
2.85E+03,-7573,1946,-2066,-123,108,-119,1,7,11
2.85E+03,-7594,1975,-2079,-116,87,-121,1,7,11
2.85E+03,-7598,2003,-2109,113,55,-127,1,7,11
2.85E+03,-7590,2012,-2124,49,22,113,1,7,11
2.85E+03,-7587,2001,-2130,-300,5,88,1,7,11
2.85E+03,-7608,1984,-2113,-141,-260,63,1,7,11
2.85E+03,-7628,1966,-2096,-213,-273,57,1,7,11
2.85E+03,-7638,1937,-2065,-515,-276,73,1,7,11
2.85E+03,-7646,2172,-1758,-515,-271,104,1,7,11
2.85E+03,-7654,2146,-1706,-210,-279,-105,1,7,11
2.85E+03,-7624,2126,-1680,-370,-307,-68,1,7,11
2.85E+03,-7592,2137,-1677,-259,-327,-58,1,7,11
2.85E+03,-7575,2161,-1684,91,-335,-68,1,7,11
2.85E+03,-7560,1942,-1698,-96,-338,-82,1,7,11
2.85E+03,-7796,1969,-1709,-72,-334,-96,1,7,11
2.85E+03,-7793,1985,-1708,-90,-317,-110,1,7,11
2.86E+03,-7799,1987,-1716,120,-306,-124,1,7,11
2.86E+03,-7799,1989,-1725,59,-302,114,1,7,11
2.86E+03,-7805,1986,-1725,-269,-285,102,1,7,11
2.86E+03,-7565,1971,-1714,-345,-259,103,1,7,11
2.86E+03,-7571,1946,-1699,-149,31,-128,1,7,11
2.86E+03,-7582,1924,-1682,-173,67,-90,1,7,11
2.86E+03,-7570,2165,-1674,-159,103,-49,1,7,11
2.86E+03,-7591,2167,-1673,-382,-116,-27,1,7,11
2.86E+03,-7589,1924,-1682,-338,-103,-11,1,7,11
2.86E+03,-7586,1958,-1701,-294,-91,-10,1,7,11
2.86E+03,-7591,1988,-1725,-262,-76,-13,1,7,11
2.86E+03,-7601,2025,-1748,17,-66,-23,1,7,11
2.86E+03,-7612,2308,-1753,24,-65,-25,1,7,11
2.86E+03,-7626,2334,-1759,32,-81,-23,1,7,11
2.86E+03,-7618,2343,-1751,39,-107,-15,1,7,11
2.86E+03,-7607,2343,-1737,47,116,-14,1,7,11
2.86E+03,-7601,2341,-1733,66,86,-31,1,7,11
2.86E+03,-7581,2343,-1735,83,54,-56,1,7,11
2.86E+03,-7564,2348,-1729,95,37,-93,1,7,11
2.86E+03,-7562,2367,-1718,97,34,127,1,7,11
2.86E+03,-7576,2379,-1707,78,42,112,1,7,11
2.86E+03,-7573,2378,-1691,51,38,118,1,7,11
2.86E+03,-7561,2381,-1684,12,42,-128,1,7,11
2.86E+03,-7555,2370,-1920,-287,56,-120,1,7,11
2.86E+03,-7560,2356,-1896,-322,70,-103,1,7,11
2.86E+03,-7806,2348,-1898,-339,77,-78,1,7,11
2.86E+03,-7790,2346,-1882,-347,101,-51,1,7,11
2.86E+03,-7783,2352,-1875,-342,-126,-21,1,7,11
2.86E+03,-7805,2378,-1875,-330,-94,269,1,7,11
2.86E+03,-7556,2403,-1883,-322,-88,320,1,7,11
2.86E+03,-7788,2414,-1908,-314,-75,356,1,7,11
2.86E+03,-7792,2185,-1665,-300,-44,369,1,7,11
2.86E+03,-7806,2216,-1679,-285,-28,370,1,7,11
2.86E+03,-7562,2248,-1682,-278,-30,360,1,7,11
2.86E+03,-7576,2266,-1683,-289,-43,344,1,7,11
2.86E+03,-7586,2282,-1676,-296,-68,327,1,7,11
2.86E+03,-7576,2301,-1681,-309,-104,297,1,7,11
2.86E+03,-7570,2571,-1690,-332,116,257,1,7,11
2.86E+03,-7565,2584,-1694,-356,91,-51,1,7,11
2.86E+03,-7806,2562,-1684,-142,74,-104,1,7,11
2.87E+03,-7801,2266,-1678,-174,67,48,1,7,11
2.87E+03,-7803,2240,-1666,-188,68,-284,1,7,11
2.87E+03,-7554,2227,-1903,-185,76,-340,1,7,11
2.87E+03,-7554,2210,-1899,-170,72,-370,1,7,11
2.87E+03,-7788,2177,-1889,-164,78,-380,1,7,11
2.87E+03,-7765,2381,-1862,-158,87,-133,1,7,11
2.87E+03,-7787,2343,-1848,-129,103,-149,1,7,11
2.87E+03,-7805,2334,-1848,-326,96,-134,1,7,11
2.87E+03,-7802,2353,-1874,-268,98,-358,1,7,11
2.87E+03,-7799,2403,-1674,27,119,-312,1,7,11
2.87E+03,-7765,2182,-1731,24,-115,-262,1,7,11
2.87E+03,-7766,2185,-1765,-271,-68,19,1,7,11
2.87E+03,-7792,2430,-1776,-308,-38,23,1,7,11
2.87E+03,-7564,2178,-1781,-326,-41,8,1,7,11
2.87E+03,-7587,2178,-1782,-337,-58,-270,1,7,11
2.87E+03,-7605,2181,-1773,-332,-88,-290,1,7,11
2.87E+03,-7608,2182,-1752,-328,-122,-303,1,7,11
2.87E+03,-7609,2404,-1732,-320,101,-318,1,7,11
2.87E+03,-7598,2376,-1710,-295,57,-345,1,7,11
2.87E+03,-7585,2351,-1696,-272,13,-130,1,7,11
2.87E+03,-7564,2324,-1691,-257,-281,-167,1,7,11
2.87E+03,-7807,2309,-1693,8,-288,-191,1,7,11
2.87E+03,-7795,2036,-1692,-258,-276,-190,1,7,11
2.87E+03,-7770,1997,-1687,-273,4,-163,1,7,11
2.87E+03,-7751,1963,-1668,-278,37,-131,1,7,11
2.87E+03,-7756,1926,-1917,-271,71,-351,1,7,11
2.87E+03,-7786,2166,-1910,21,100,-317,1,7,11
2.87E+03,-7579,1924,-1898,86,122,-257,1,7,11
2.87E+03,-7606,1949,-1879,-86,-124,90,1,7,11
2.87E+03,-7626,1983,-1860,266,127,-62,1,7,11
2.87E+03,-7630,2021,-1838,363,110,280,1,7,11
2.87E+03,-7643,2334,-1839,185,81,322,1,7,11
2.87E+03,-7656,2401,-1840,236,36,339,1,7,11
2.87E+03,-7620,2204,-1851,252,-275,335,1,7,11
2.87E+03,-7573,2260,-1875,229,-294,306,1,7,11
2.87E+03,-7785,2297,-1904,169,-281,269,1,7,11
2.87E+03,-7724,2289,-1687,341,11,-43,1,7,11
2.87E+03,-7700,2267,-1722,258,85,127,1,7,11
2.87E+03,-7704,2231,-1744,-80,-92,46,1,7,11
2.87E+03,-7737,2183,-1747,112,-24,-282,1,7,11
2.88E+03,-7791,2389,-1740,75,269,-321,1,7,11
2.88E+03,-7587,2347,-1741,71,261,-330,1,7,11
2.88E+03,-7626,2304,-1743,79,-34,-314,1,7,11
2.88E+03,-7649,1999,-1728,99,-91,-281,1,7,11
2.88E+03,-7658,1961,-1703,-118,104,9,1,7,11
2.88E+03,-7655,1932,-1687,-64,40,53,1,7,11
2.88E+03,-7636,1923,-1917,259,-269,102,1,7,11
2.88E+03,-7621,1938,-1899,331,-297,-98,1,7,11
2.88E+03,-7606,1992,-1896,145,-307,-29,1,7,11
2.88E+03,-7580,2322,-1906,187,-289,299,1,7,11
2.88E+03,-7563,2396,-1669,195,7,359,1,7,11
2.88E+03,-7565,2209,-1668,163,57,136,1,7,11
2.88E+03,-7587,2255,-1671,357,89,138,1,7,11
2.88E+03,-7602,2284,-1910,289,84,367,1,7,11
2.88E+03,-7594,2274,-1886,-52,46,312,1,7,11
2.88E+03,-7586,2285,-1884,-115,7,-33,1,7,11
2.88E+03,-7804,2274,-1866,55,-275,91,1,7,11
2.88E+03,-7805,2247,-1844,-296,-280,24,1,7,11
2.88E+03,-7782,2198,-1825,-136,-271,-265,1,7,11
2.88E+03,-7752,2408,-1827,-228,1,-281,1,7,11
2.88E+03,-7718,2367,-1847,-515,41,-279,1,7,11
2.88E+03,-7693,2334,-1877,-533,107,-268,1,7,11
2.88E+03,-7703,2320,-1905,-527,-64,11,1,7,11
2.88E+03,-7765,2336,-1909,-247,277,50,1,7,11
2.88E+03,-7603,2357,-1893,-197,322,121,1,7,11
2.88E+03,-7659,2369,-1875,-375,294,-45,1,7,11
2.88E+03,-7674,2390,-1865,-274,-21,286,1,7,11
2.88E+03,-7663,2390,-1854,74,-95,321,1,7,11
2.88E+03,-7620,2396,-1876,-87,84,287,1,7,11
2.88E+03,-7582,2182,-1915,-26,38,-60,1,7,11
2.88E+03,-7572,2237,-1686,-19,26,84,1,7,11
2.88E+03,-7561,2284,-1698,-63,19,0,1,7,11
2.88E+03,-7770,2293,-1721,112,14,-300,1,7,11
2.88E+03,-7741,2273,-1739,18,53,-327,1,7,11
2.88E+03,-7738,2243,-1734,-327,111,-331,1,7,11
2.88E+03,-7763,2208,-1695,-370,-91,-311,1,7,11
2.88E+03,-7780,2421,-1915,-369,-60,-262,1,7,11
2.88E+03,-7799,2375,-1883,-321,-49,41,1,7,11
2.88E+03,-7792,2341,-1883,27,-71,69,1,7,11
2.88E+03,-7782,2343,-1911,-120,-88,60,1,7,11
2.89E+03,-7784,2379,-1683,-32,-94,40,1,7,11
2.89E+03,-7563,2412,-1693,276,-91,36,1,7,11
2.89E+03,-7579,2183,-1709,314,-109,48,1,7,11
2.89E+03,-7584,2205,-1719,321,-125,52,1,7,11
2.89E+03,-7595,2216,-1723,302,121,31,1,7,11
2.89E+03,-7606,2215,-1716,265,108,-272,1,7,11
2.89E+03,-7620,2202,-1694,-41,94,-325,1,7,11
2.89E+03,-7621,2187,-1682,-93,75,-370,1,7,11
2.89E+03,-7630,2419,-1910,109,59,-147,1,7,11
2.89E+03,-7631,2376,-1893,57,35,-173,1,7,11
2.89E+03,-7620,2332,-1876,-10,-266,-181,1,7,11
2.89E+03,-7596,2039,-1875,-296,-289,-186,1,7,11
2.89E+03,-7595,2017,-1856,-320,-284,-189,1,7,11
2.89E+03,-7607,2000,-1829,-343,-276,-165,1,7,11
2.89E+03,-7600,1970,-1808,-358,-276,-383,1,7,11
2.89E+03,-7589,1938,-1794,-353,-262,-348,1,7,11
2.89E+03,-7574,2175,-1520,-332,16,-314,1,7,11
2.89E+03,-7601,2165,-1484,-310,49,-286,1,7,11
2.89E+03,-7626,2164,-1466,-277,57,13,1,7,11
2.89E+03,-7621,2175,-1473,15,46,64,1,7,11
2.89E+03,-7588,1950,-1511,42,43,107,1,7,11
2.89E+03,-7576,1999,-1800,58,68,-111,1,7,11
2.89E+03,-7580,2309,-1837,54,110,-63,1,7,11
2.89E+03,-7567,2346,-1880,49,-104,-2,1,7,11
2.89E+03,-7795,2366,-1673,53,-54,304,1,7,11
2.89E+03,-7797,2395,-1702,65,263,326,1,7,11
2.89E+03,-7563,2402,-1708,83,301,325,1,7,11
2.89E+03,-7580,2405,-1719,119,301,299,1,7,11
2.89E+03,-7600,2176,-1726,-104,284,-3,1,7,11
2.89E+03,-7626,2223,-1768,-98,-20,-58,1,7,11
2.89E+03,-7605,2269,-1792,83,-81,-112,1,7,11
2.89E+03,-7637,2299,-1786,-322,-121,81,1,7,11
2.89E+03,-7644,2299,-1746,-243,70,64,1,7,11
2.89E+03,-7602,2250,-1705,-415,14,59,1,7,11
2.89E+03,-7804,2184,-1668,-792,-262,50,1,7,11
2.89E+03,-7764,2380,-1868,-854,25,35,1,7,11
2.89E+03,-7769,2327,-1807,-843,89,26,1,7,11
2.89E+03,-7749,2026,-1527,-502,-118,49,1,7,11
2.89E+03,-7700,1990,-1795,-620,-56,52,1,7,11
2.89E+03,-7698,1989,-1829,-212,286,28,1,7,11
2.90E+03,-7737,2024,-1879,-332,358,-270,1,7,11
2.90E+03,-7791,2330,-1667,26,135,-302,1,7,11
2.90E+03,-7600,2382,-1697,96,134,-306,1,7,11
2.90E+03,-7658,2419,-1721,-120,347,-282,1,7,11
2.90E+03,-7945,2177,-1719,-114,273,6,1,7,11
2.90E+03,-7953,2178,-1714,-125,-79,36,1,7,11
2.90E+03,-7659,2417,-1715,112,76,48,1,7,11
2.90E+03,-7599,2386,-1707,79,9,34,1,7,11
2.90E+03,-7566,2362,-1691,50,-262,-258,1,7,11
2.90E+03,-7576,2353,-1918,36,7,-284,1,7,11
2.90E+03,-7590,2351,-1875,34,13,-286,1,7,11
2.90E+03,-7605,2367,-1848,51,10,5,1,7,11
2.90E+03,-7597,2380,-1833,81,-260,61,1,7,11
2.90E+03,-7572,2401,-1838,102,-266,112,1,7,11
2.90E+03,-7808,2417,-1833,113,4,-122,1,7,11
2.90E+03,-7556,2180,-1830,118,24,-120,1,7,11
2.90E+03,-7560,2199,-1836,116,33,123,1,7,11
2.90E+03,-7805,2221,-1845,93,38,97,1,7,11
2.90E+03,-7557,2228,-1854,49,50,57,1,7,11
2.90E+03,-7575,2231,-1860,-269,59,17,1,7,11
2.90E+03,-7595,2217,-1857,-332,72,-275,1,7,11
2.90E+03,-7590,2190,-1853,-384,89,-294,1,7,11
2.90E+03,-7573,2406,-1845,-165,122,-310,1,7,11
2.90E+03,-7561,2353,-1825,-173,-83,-317,1,7,11
2.90E+03,-7576,2040,-1805,-138,-29,-336,1,7,11
2.90E+03,-7586,2002,-1531,-328,259,-360,1,7,11
2.90E+03,-7610,1985,-1517,13,278,-376,1,7,11
2.90E+03,-7646,1987,-1494,101,275,-372,1,7,11
2.90E+03,-7663,1998,-1479,-75,-15,-341,1,7,11
2.90E+03,-7618,1984,-1478,281,-89,-268,1,7,11
2.90E+03,-7563,1988,-1506,329,-114,13,1,7,11
2.90E+03,-7786,1994,-1536,349,-105,28,1,7,11
2.90E+03,-7753,2007,-1830,354,-69,40,1,7,11
2.90E+03,-7770,2037,-1858,339,-13,61,1,7,11
2.90E+03,-7800,2310,-1877,313,285,95,1,7,11
2.90E+03,-7563,2331,-1666,285,293,-121,1,7,11
2.90E+03,-7799,2333,-1716,-11,284,-96,1,7,11
2.90E+03,-7769,2320,-1784,-56,284,-103,1,7,11
2.90E+03,-7758,2312,-2097,-99,307,121,1,7,11
2.90E+03,-7785,2313,-2135,126,345,93,1,7,11
2.91E+03,-7578,2310,-2134,115,371,86,1,7,11
2.91E+03,-7626,2041,-2132,-127,357,104,1,7,11
2.91E+03,-7623,2033,-2158,-89,301,123,1,7,11
2.91E+03,-7601,2040,-1941,-52,-6,117,1,7,11
2.91E+03,-7592,2312,-1957,-36,-38,95,1,7,11
2.91E+03,-7595,2336,-1964,-44,-64,78,1,7,11
2.91E+03,-7608,2344,-1947,-66,-95,79,1,7,11
2.91E+03,-7609,2349,-1921,-90,118,91,1,7,11
2.91E+03,-7614,2352,-2144,-110,78,100,1,7,11
2.91E+03,-7608,2352,-2106,-126,35,111,1,7,11
2.91E+03,-7574,2348,-2079,127,-265,121,1,7,11
2.91E+03,-7801,2353,-2057,124,-278,113,1,7,11
2.91E+03,-7793,2355,-1777,112,-276,93,1,7,11
2.91E+03,-7798,2368,-1759,91,-280,68,1,7,11
2.91E+03,-7806,2374,-1750,45,-290,40,1,7,11
2.91E+03,-7793,2362,-1756,-286,-307,21,1,7,11
2.91E+03,-7776,2342,-1754,-365,-314,-260,1,7,11
2.91E+03,-7793,2317,-1740,-202,-298,-275,1,7,11
2.91E+03,-7576,2034,-1721,-539,-293,-267,1,7,11
2.91E+03,-7597,2000,-1711,-600,-300,24,1,7,11
2.91E+03,-7606,1975,-1705,-630,-301,72,1,7,11
2.91E+03,-7634,1961,-1671,-617,-293,117,1,7,11
2.91E+03,-7649,1951,-1894,-570,-310,-94,1,7,11
2.91E+03,-7653,1953,-1863,-233,-339,-63,1,7,11
2.91E+03,-7635,1977,-1843,-135,-375,-38,1,7,11
2.91E+03,-7607,2006,-1839,3,-162,-33,1,7,11
2.91E+03,-7571,2030,-1844,62,-170,-35,1,7,11
2.91E+03,-7794,2310,-1840,90,-158,-49,1,7,11
2.91E+03,-7784,2340,-1845,91,-377,-72,1,7,11
2.91E+03,-7790,2364,-1832,72,-331,-85,1,7,11
2.91E+03,-7785,2393,-1829,40,-295,-82,1,7,11
2.91E+03,-7796,2406,-1821,0,11,-64,1,7,11
2.91E+03,-7805,2407,-1803,-292,51,-41,1,7,11
2.91E+03,-7801,2407,-1797,-312,78,-21,1,7,11
2.91E+03,-7803,2404,-1793,-316,100,-13,1,7,11
2.91E+03,-7808,2415,-1805,-309,114,-17,1,7,11
2.91E+03,-7802,2179,-1823,-294,118,-32,1,7,11
2.91E+03,-7554,2206,-1849,-281,-124,-54,1,7,11
2.91E+03,-7566,2229,-1862,-277,-109,-74,1,7,11
2.91E+03,-7585,2240,-1853,-274,-97,-95,1,7,11
2.92E+03,-7594,2236,-1860,-268,-101,-121,1,7,11
2.92E+03,-7596,2221,-1859,4,-117,95,1,7,11
2.92E+03,-7596,2215,-1857,22,121,51,1,7,11
2.92E+03,-7591,2207,-1864,34,101,8,1,7,11
2.92E+03,-7592,2197,-1848,35,87,-275,1,7,11
2.92E+03,-7583,2181,-1841,33,73,-278,1,7,11
2.92E+03,-7584,2427,-1825,32,68,-270,1,7,11
2.92E+03,-7575,2400,-1811,32,60,9,1,7,11
2.92E+03,-7562,2375,-1802,51,57,52,1,7,11
2.92E+03,-7555,2371,-1805,60,62,85,1,7,11
2.92E+03,-7554,2367,-1804,84,75,110,1,7,11
2.92E+03,-7570,2368,-1802,124,93,-121,1,7,11
2.92E+03,-7577,2392,-1814,-99,94,-104,1,7,11
2.92E+03,-7586,2412,-1821,-95,95,-84,1,7,11
2.92E+03,-7593,2427,-1835,-110,88,-72,1,7,11
2.92E+03,-7629,2183,-1840,117,75,-77,1,7,11
2.92E+03,-7650,2197,-1845,92,42,-72,1,7,11
2.92E+03,-7630,2194,-1855,62,8,-64,1,7,11
2.92E+03,-7619,2193,-1850,39,0,-73,1,7,11
2.92E+03,-7620,2191,-1834,25,1,-83,1,7,11
2.92E+03,-7608,2430,-1815,28,-263,-98,1,7,11
2.92E+03,-7600,2424,-1806,49,-265,-121,1,7,11
2.92E+03,-7598,2430,-1795,73,-275,120,1,7,11
2.92E+03,-7586,2180,-1797,96,-289,111,1,7,11
2.92E+03,-7574,2186,-1793,106,-292,104,1,7,11
2.92E+03,-7579,2201,-1530,104,-292,108,1,7,11
2.92E+03,-7584,2207,-1520,94,-294,117,1,7,11
2.92E+03,-7586,2209,-1509,85,-297,-124,1,7,11
2.92E+03,-7557,2211,-1515,68,-301,-107,1,7,11
2.92E+03,-7554,2202,-1495,38,-282,-109,1,7,11
2.92E+03,-7564,2192,-1474,21,-268,-113,1,7,11
2.92E+03,-7569,2179,-1458,21,-269,-114,1,7,11
2.92E+03,-7560,2179,-1454,43,-263,-118,1,7,11
2.92E+03,-7564,2184,-1447,68,22,-120,1,7,11
2.92E+03,-7567,2204,-1448,92,55,-120,1,7,11
2.92E+03,-7587,2224,-1452,110,92,-115,1,7,11
2.92E+03,-7590,2241,-1464,119,120,-102,1,7,11
2.92E+03,-7583,2252,-1478,117,-122,-98,1,7,11
2.92E+03,-7580,2261,-1478,106,-110,-110,1,7,11
2.92E+03,-7583,2279,-1495,97,-113,124,1,7,11
2.93E+03,-7591,2283,-1506,78,-121,98,1,7,11
2.93E+03,-7588,2280,-1510,57,122,79,1,7,11
2.93E+03,-7582,2268,-1507,42,107,63,1,7,11
2.93E+03,-7587,2254,-1491,36,94,52,1,7,11
2.93E+03,-7580,2240,-1482,43,79,42,1,7,11
2.93E+03,-7577,2236,-1481,57,74,32,1,7,11
2.93E+03,-7568,2228,-1489,73,71,31,1,7,11
2.93E+03,-7566,2224,-1480,81,82,33,1,7,11
2.93E+03,-7579,2224,-1477,90,89,34,1,7,11
2.93E+03,-7578,2233,-1480,88,91,42,1,7,11
2.93E+03,-7568,2231,-1487,76,98,52,1,7,11
2.93E+03,-7578,2233,-1480,54,119,57,1,7,11
2.93E+03,-7596,2228,-1466,31,127,61,1,7,11
2.93E+03,-7604,2229,-1469,17,119,67,1,7,11
2.93E+03,-7591,2226,-1473,7,111,74,1,7,11
2.93E+03,-7580,2226,-1478,1,118,69,1,7,11
2.93E+03,-7580,2220,-1483,-260,126,59,1,7,11
2.93E+03,-7576,2213,-1487,-263,-125,46,1,7,11
2.93E+03,-7576,2205,-1485,0,-119,30,1,7,11
2.93E+03,-7578,2192,-1479,15,-120,19,1,7,11
2.93E+03,-7572,2188,-1486,35,-124,12,1,7,11
2.93E+03,-7565,2193,-1493,50,-123,14,1,7,11
2.93E+03,-7581,2196,-1489,58,-113,25,1,7,11
2.93E+03,-7600,2201,-1486,62,-106,45,1,7,11
2.93E+03,-7606,2196,-1497,66,-114,70,1,7,11
2.93E+03,-7611,2202,-1504,73,-120,86,1,7,11
2.93E+03,-7624,2211,-1506,75,-125,103,1,7,11
2.93E+03,-7629,2206,-1494,73,111,120,1,7,11
2.93E+03,-7610,2203,-1500,75,98,-128,1,7,11
2.93E+03,-7600,2202,-1490,76,100,126,1,7,11
2.93E+03,-7585,2191,-1486,82,108,122,1,7,11
2.93E+03,-7586,2189,-1484,91,123,110,1,7,11
2.93E+03,-7590,2181,-1473,102,-120,101,1,7,11
2.93E+03,-7601,2180,-1473,120,-115,90,1,7,11
2.93E+03,-7609,2176,-1468,-116,-113,82,1,7,11
2.93E+03,-7616,2425,-1466,-105,-113,77,1,7,11
2.93E+03,-7614,2419,-1466,-109,-115,80,1,7,11
2.93E+03,-7618,2413,-1467,124,-113,88,1,7,11
2.93E+03,-7612,2405,-1454,90,-108,95,1,7,11
2.93E+03,-7606,2408,-1458,44,-103,113,1,7,11
2.94E+03,-7590,2416,-1470,-277,-89,-114,1,7,11
2.94E+03,-7560,2429,-1491,-358,-59,-71,1,7,11
2.94E+03,-7793,2180,-1516,-202,-4,-21,1,7,11
2.94E+03,-7784,2185,-1795,-563,327,284,1,7,11
2.94E+03,-7787,2180,-1534,-406,146,334,1,7,11
2.94E+03,-7786,2427,-1525,-480,208,375,1,7,11
2.94E+03,-7780,2179,-1533,-502,242,158,1,7,11
2.94E+03,-7797,2181,-1530,-509,525,178,1,7,11
2.94E+03,-7554,2197,-1528,-472,517,184,1,7,11
2.94E+03,-7558,2227,-1528,-392,222,168,1,7,11
2.94E+03,-7579,2275,-1800,-547,170,142,1,7,11
2.94E+03,-7560,2579,-1834,-172,348,372,1,7,11
2.94E+03,-7782,2630,-1858,-310,278,362,1,7,11
2.94E+03,-7770,2686,-1876,47,-16,336,1,7,11
2.94E+03,-7765,2467,-1892,-127,-42,300,1,7,11
2.94E+03,-7765,2497,-1899,-66,-72,276,1,7,11
2.94E+03,-7768,2515,-1905,-23,-103,252,1,7,11
2.94E+03,-7767,2528,-1897,275,109,-27,1,7,11
2.94E+03,-7753,2525,-1896,281,87,-45,1,7,11
2.94E+03,-7747,2528,-1889,283,79,-72,1,7,11
2.94E+03,-7745,2532,-1885,284,80,-98,1,7,11
2.94E+03,-7743,2538,-1884,282,83,-122,1,7,11
2.94E+03,-7716,2544,-1892,267,83,113,1,7,11
2.94E+03,-7702,2541,-1899,-17,95,79,1,7,11
2.94E+03,-7692,2533,-1909,-55,115,40,1,7,11
2.94E+03,-7688,2521,-1905,-94,-124,4,1,7,11
2.94E+03,-7687,2493,-1904,125,-114,-279,1,7,11
2.94E+03,-7694,2465,-1901,107,-94,-304,1,7,11
2.94E+03,-7692,2683,-1879,100,-76,-321,1,7,11
2.94E+03,-7694,2666,-1874,127,-52,-337,1,7,11
2.94E+03,-7695,2653,-1860,-100,-26,-337,1,7,11
2.94E+03,-7703,2631,-1859,-78,-6,-333,1,7,11
2.94E+03,-7727,2624,-1859,-53,268,-329,1,7,11
2.94E+03,-7740,2632,-1893,-29,268,-319,1,7,11
2.94E+03,-7744,2651,-1676,-23,269,-311,1,7,11
2.94E+03,-7749,2665,-1717,-41,276,-298,1,7,11
2.94E+03,-7753,2680,-1760,-75,288,-291,1,7,11
2.94E+03,-7766,2687,-1790,-116,296,-278,1,7,11
2.94E+03,-7791,2432,-1789,92,284,-271,1,7,11
2.94E+03,-7566,2680,-1787,45,-6,-271,1,7,11
2.95E+03,-7586,2673,-1774,-257,-67,-278,1,7,11
2.95E+03,-7587,2666,-1772,-302,105,-287,1,7,11
2.95E+03,-7568,2666,-1775,-371,30,-300,1,7,11
2.95E+03,-7575,2642,-1738,-214,-264,-323,1,7,11
2.95E+03,-7564,2595,-1702,-559,-309,-334,1,7,11
2.95E+03,-7794,2296,-1916,-627,-337,-345,1,7,11
2.95E+03,-7750,2241,-1873,-415,-351,-356,1,7,11
2.95E+03,-7710,2180,-1829,-430,-333,-373,1,7,11
2.95E+03,-7701,2393,-1796,-406,-286,-134,1,7,11
2.95E+03,-7712,2359,-1534,-602,33,-139,1,7,11
2.95E+03,-7706,2335,-1798,-519,93,-132,1,7,11
2.95E+03,-7725,2330,-1817,-162,-87,-132,1,7,11
2.95E+03,-7768,2348,-1826,-319,-23,-372,1,7,11
2.95E+03,-7558,2372,-1837,23,260,-345,1,7,11
2.95E+03,-7589,2398,-1859,92,-6,-306,1,7,11
2.95E+03,-7590,2429,-1887,-115,-43,-261,1,7,11
2.95E+03,-7579,2200,-1898,-87,-82,35,1,7,11
2.95E+03,-7565,2224,-1900,-67,-118,77,1,7,11
2.95E+03,-7564,2255,-1893,-45,115,119,1,7,11
2.95E+03,-7567,2573,-1876,-17,92,-76,1,7,11
2.95E+03,-7557,2595,-1861,-6,73,-32,1,7,11
2.95E+03,-7804,2617,-1843,-1,46,-9,1,7,11
2.95E+03,-7794,2635,-1831,-17,17,-16,1,7,11
2.95E+03,-7773,2649,-1844,-43,-269,-47,1,7,11
2.95E+03,-7750,2657,-1862,-88,-276,-100,1,7,11
2.95E+03,-7748,2657,-1868,98,5,92,1,7,11
2.95E+03,-7758,2647,-1859,14,31,35,1,7,11
2.95E+03,-7770,2637,-1845,-330,50,-263,1,7,11
2.95E+03,-7773,2617,-1842,-150,65,-287,1,7,11
2.95E+03,-7776,2615,-1854,-209,87,-289,1,7,11
2.95E+03,-7756,2601,-1856,-256,115,-277,1,7,11
2.95E+03,-7749,2595,-1870,-548,-102,-264,1,7,11
2.95E+03,-7748,2585,-1875,-578,-63,8,1,7,11
2.95E+03,-7743,2293,-1872,-588,-24,29,1,7,11
2.95E+03,-7749,2266,-1852,-553,268,25,1,7,11
2.95E+03,-7779,2249,-1828,-232,290,12,1,7,11
2.95E+03,-7796,2224,-1812,-153,286,1,1,7,11
2.95E+03,-7803,2218,-1809,-309,262,-270,1,7,11
2.95E+03,-7801,2226,-1820,33,-20,-284,1,7,11
2.95E+03,-7798,2246,-1822,104,-43,-293,1,7,11
2.96E+03,-7805,2260,-1817,-113,-57,-280,1,7,11
2.96E+03,-7799,2278,-1835,-95,-76,13,1,7,11
2.96E+03,-7778,2300,-1855,-98,-88,54,1,7,11
2.96E+03,-7738,2572,-1914,127,-94,79,1,7,11
2.96E+03,-7709,2587,-1676,75,-76,81,1,7,11
2.96E+03,-7706,2604,-1699,8,-50,67,1,7,11
2.96E+03,-7720,2614,-1721,-313,-31,56,1,7,11
2.96E+03,-7707,2611,-1751,-360,-21,59,1,7,11
2.96E+03,-7697,2599,-1778,-137,263,65,1,7,11
2.96E+03,-7715,2575,-1780,-142,296,74,1,7,11
2.96E+03,-7720,2290,-1778,-365,299,82,1,7,11
2.96E+03,-7755,2283,-1774,-290,296,72,1,7,11
2.96E+03,-7792,2278,-1764,57,266,77,1,7,11
2.96E+03,-7788,2280,-1779,-105,-53,78,1,7,11
2.96E+03,-7780,2288,-2062,-25,-107,69,1,7,11
2.96E+03,-7771,2574,-2080,282,117,47,1,7,11
2.96E+03,-7789,2605,-2072,293,100,29,1,7,11
2.96E+03,-7565,2627,-2054,271,81,42,1,7,11
2.96E+03,-7573,2616,-1772,-16,42,64,1,7,11
2.96E+03,-7564,2599,-1749,-45,-259,73,1,7,11
2.96E+03,-7555,2577,-1734,-77,-329,45,1,7,11
2.96E+03,-7782,2569,-1722,-125,-365,23,1,7,11
2.96E+03,-7761,2298,-1719,77,-366,-258,1,7,11
2.96E+03,-7760,2281,-1701,19,-348,-277,1,7,11
2.96E+03,-7764,2268,-1679,-290,-330,-287,1,7,11
2.96E+03,-7780,2247,-1898,-335,-304,-285,1,7,11
2.96E+03,-7553,2217,-1866,-357,-291,-272,1,7,11
2.96E+03,-7563,2188,-1828,-354,-295,9,1,7,11
2.96E+03,-7806,2408,-1802,-326,-310,27,1,7,11
2.96E+03,-7745,2396,-1816,-283,-325,29,1,7,11
2.96E+03,-7687,2395,-1850,5,-296,-259,1,7,11
2.96E+03,-7721,2423,-1858,25,40,-294,1,7,11
2.96E+03,-7771,2193,-1842,36,95,-283,1,7,11
2.96E+03,-7555,2190,-1811,61,125,22,1,7,11
2.96E+03,-7563,2189,-1531,123,121,93,1,7,11
2.96E+03,-7805,2185,-1532,-53,111,-114,1,7,11
2.96E+03,-7790,2190,-1795,288,109,-95,1,7,11
2.96E+03,-7774,2203,-1814,360,116,-110,1,7,11
2.96E+03,-7792,2233,-1829,153,-120,118,1,7,11
2.96E+03,-7563,2271,-1841,170,-106,98,1,7,11
2.97E+03,-7568,2292,-1860,154,-106,96,1,7,11
2.97E+03,-7577,2290,-1866,371,-110,99,1,7,11
2.97E+03,-7592,2289,-1860,332,-125,108,1,7,11
2.97E+03,-7601,2279,-1863,298,113,125,1,7,11
2.97E+03,-7592,2268,-1868,277,91,-105,1,7,11
2.97E+03,-7804,2268,-1885,274,89,-89,1,7,11
2.97E+03,-7792,2279,-1891,273,112,-83,1,7,11
2.97E+03,-7785,2294,-1893,269,-128,-75,1,7,11
2.97E+03,-7781,2301,-1899,259,-116,-70,1,7,11
2.97E+03,-7789,2561,-1890,-10,-116,-65,1,7,11
2.97E+03,-7780,2562,-1898,-21,121,-61,1,7,11
2.97E+03,-7764,2564,-1905,-38,100,-66,1,7,11
2.97E+03,-7763,2563,-1907,-60,93,-79,1,7,11
2.97E+03,-7760,2564,-1667,-82,85,-95,1,7,11
2.97E+03,-7764,2302,-1674,-101,79,-115,1,7,11
2.97E+03,-7749,2294,-1672,-116,68,125,1,7,11
2.97E+03,-7755,2288,-1672,125,71,100,1,7,11
2.97E+03,-7771,2287,-1914,114,73,84,1,7,11
2.97E+03,-7778,2282,-1916,109,65,79,1,7,11
2.97E+03,-7769,2282,-1675,113,62,84,1,7,11
2.97E+03,-7765,2279,-1920,114,72,98,1,7,11
2.97E+03,-7767,2281,-1667,119,89,115,1,7,11
2.97E+03,-7759,2272,-1669,126,103,-123,1,7,11
2.97E+03,-7755,2278,-1678,-122,123,-115,1,7,11
2.97E+03,-7753,2277,-1683,-123,-112,-120,1,7,11
2.97E+03,-7763,2283,-1685,-125,-104,117,1,7,11
2.97E+03,-7762,2293,-1699,122,-114,89,1,7,11
2.97E+03,-7768,2564,-1714,101,-127,57,1,7,11
2.97E+03,-7774,2573,-1718,63,111,36,1,7,11
2.97E+03,-7772,2570,-1716,21,93,19,1,7,11
2.97E+03,-7766,2294,-1702,-273,80,10,1,7,11
2.97E+03,-7759,2265,-1693,-297,73,4,1,7,11
2.97E+03,-7762,2242,-1672,-303,71,-258,1,7,11
2.97E+03,-7772,2226,-1915,-290,69,-263,1,7,11
2.97E+03,-7777,2227,-1909,-267,71,-264,1,7,11
2.97E+03,-7780,2227,-1909,7,78,0,1,7,11
2.97E+03,-7789,2227,-1901,21,88,8,1,7,11
2.97E+03,-7802,2239,-1908,31,93,14,1,7,11
2.97E+03,-7553,2250,-1911,27,87,25,1,7,11
2.97E+03,-7796,2252,-1917,11,77,36,1,7,11
2.98E+03,-7558,2249,-1920,-273,79,32,1,7,11
2.98E+03,-7587,2251,-1907,-301,64,30,1,7,11
2.98E+03,-7588,2236,-1901,-319,24,34,1,7,11
2.98E+03,-7568,2232,-1909,-323,-262,30,1,7,11
2.98E+03,-7569,2229,-1887,-338,-262,25,1,7,11
2.98E+03,-7561,2214,-1871,-337,-281,15,1,7,11
2.98E+03,-7560,2203,-1849,-334,-283,3,1,7,11
2.98E+03,-7559,2189,-1830,-318,-291,-268,1,7,11
2.98E+03,-7804,2187,-1816,-288,-305,-290,1,7,11
2.98E+03,-7792,2180,-1815,-267,-308,-306,1,7,11
2.98E+03,-7800,2431,-1803,-263,-304,-330,1,7,11
2.98E+03,-7576,2402,-1515,-282,-301,-370,1,7,11
2.98E+03,-7625,2380,-1479,-298,-339,-165,1,7,11
2.98E+03,-7633,2358,-1459,-319,-159,-230,1,7,11
2.98E+03,-7650,2039,-1427,-369,-243,-578,1,7,11
2.98E+03,-7661,1985,-1645,-136,-606,-454,1,7,11
2.98E+03,-7667,1971,-1641,-151,-468,-864,1,7,11
2.98E+03,-7950,1953,-1622,-196,-835,-1026,1,7,11
2.98E+03,-7955,1920,-1603,-250,-710,-921,1,7,11
2.98E+03,-7952,2155,-1595,-567,-1089,-1325,1,7,11
2.98E+03,-7960,2071,-1539,-443,-933,-1201,1,7,11
2.98E+03,-7986,1722,-1177,-782,-1284,-1554,1,7,11
2.98E+03,-7965,1825,-1312,-657,-1370,-1578,1,7,11
2.98E+03,-7666,1651,-953,-1067,-1192,-1563,1,7,11
2.98E+03,-7778,1274,-1138,-1122,-1276,-1545,1,7,11
2.98E+03,-7802,1231,-1097,-1089,-1262,-1549,1,7,11
2.98E+03,-7657,1273,-1050,-740,-1169,-1248,1,7,11
2.98E+03,-7974,1572,-747,-652,-1340,-1351,1,7,11
2.98E+03,-7971,1596,-1025,-848,-1295,-1107,1,7,11
2.98E+03,-8003,1426,-1070,-503,-1150,-781,1,7,11
2.98E+03,-7824,1461,-1097,-488,-1069,-597,1,7,11
2.98E+03,-7898,1518,-1095,-472,-668,-226,1,7,11
2.98E+03,-8248,1823,-1089,-439,-751,-159,1,7,11
2.98E+03,-8067,1831,-1059,-419,-430,-355,1,7,11
2.98E+03,-8102,1831,-1033,-395,-407,-295,1,7,11
2.98E+03,-8096,1837,-749,-576,-391,32,1,7,11
2.98E+03,-8077,1809,-712,-564,-630,94,1,7,11
2.98E+03,-8281,1509,-662,-558,-627,-124,1,7,11
2.98E+03,-8213,1487,-883,-518,-619,121,1,7,11
2.98E+03,-7902,1477,-860,-221,-596,83,1,7,11
2.99E+03,-7858,1504,-835,-180,-564,56,1,7,11
2.99E+03,-8050,1517,-813,-176,-529,67,1,7,11
2.99E+03,-7989,1504,-789,-202,-228,99,1,7,11
2.99E+03,-7948,1508,-772,-210,-168,-128,1,7,11
2.99E+03,-7646,1512,-774,-221,-366,-66,1,7,11
2.99E+03,-7635,1524,-771,-221,-283,-11,1,7,11
2.99E+03,-7675,1533,-771,-231,59,297,1,7,11
2.99E+03,-7965,1834,-801,-206,108,345,1,7,11
2.99E+03,-7994,1894,-827,-183,-110,132,1,7,11
2.99E+03,-8022,1694,-862,-155,-69,178,1,7,11
2.99E+03,-7836,1782,-884,-374,-26,239,1,7,11
2.99E+03,-7865,2093,-657,-366,-13,583,1,7,11
2.99E+03,-7910,2164,-675,-343,-4,634,1,7,11
2.99E+03,-8204,1973,-703,-342,-13,425,1,7,11
2.99E+03,-7935,2306,-742,-320,-55,447,1,7,11
2.99E+03,-8205,2406,-1047,-300,-61,427,1,7,11
2.99E+03,-8208,2243,-1079,-306,-60,438,1,7,11
2.99E+03,-7935,2293,-1082,-340,-51,457,1,7,11
2.99E+03,-7901,2577,-1082,-371,-46,461,1,7,11
2.99E+03,-7888,2595,-1067,-142,-38,437,1,7,11
2.99E+03,-7852,2593,-1056,-162,-42,397,1,7,11
2.99E+03,-7820,2602,-1050,-154,-49,584,1,7,11
2.99E+03,-8055,2603,-1040,-147,-38,522,1,7,11
2.99E+03,-8044,2599,-1036,-135,-20,222,1,7,11
2.99E+03,-8060,2604,-766,-362,286,194,1,7,11
2.99E+03,-7821,2627,-767,-329,304,212,1,7,11
2.99E+03,-7820,2657,-1037,-314,314,250,1,7,11
2.99E+03,-7809,2672,-1051,-320,334,547,1,7,11
2.99E+03,-8059,2442,-1081,-328,354,575,1,7,11
2.99E+03,-8047,2464,-1111,-342,378,596,1,7,11
2.99E+03,-7809,2475,-1133,-360,163,611,1,7,11
2.99E+03,-7819,2494,-1140,-366,188,624,1,7,11
2.99E+03,-7839,2519,-1147,-370,198,637,1,7,11
2.99E+03,-7845,2543,-913,-372,171,391,1,7,11
2.99E+03,-7838,2827,-925,-365,130,636,1,7,11
2.99E+03,-7833,2878,-957,-349,348,613,1,7,11
2.99E+03,-7810,2911,-992,-334,325,584,1,7,11
2.99E+03,-7818,2942,-1003,-318,330,544,1,7,11
2.99E+03,-7815,2708,-1003,-294,324,255,1,7,11
2.99E+03,-7819,2741,-993,7,319,217,1,7,11
3.00E+03,-8064,2775,-1004,71,304,188,1,7,11
3.00E+03,-8020,3081,-1298,-100,296,146,1,7,11
3.00E+03,-7997,3165,-1349,-11,319,327,1,7,11
3.00E+03,-7994,3009,-1406,314,347,-12,1,7,11
3.00E+03,-7991,3367,-1206,360,359,-93,1,7,11
3.00E+03,-8006,3454,-1228,360,375,83,1,7,11
3.00E+03,-8044,3256,-1252,345,376,8,1,7,11
3.00E+03,-7817,3305,-1538,329,336,-335,1,7,11
3.00E+03,-7833,3323,-1559,298,279,-177,1,7,11
3.00E+03,-7834,3302,-1570,258,-42,-556,1,7,11
3.00E+03,-7827,3238,-1552,-29,-110,-446,1,7,11
3.00E+03,-7820,3438,-1279,-48,77,-846,1,7,11
3.00E+03,-7835,3358,-1267,-73,-5,-764,1,7,11
3.00E+03,-7829,3016,-1240,-95,-311,-1098,1,7,11
3.00E+03,-7834,3184,-1202,-100,-335,-1126,1,7,11
3.00E+03,-7844,2807,-1155,-118,-377,-904,1,7,11
3.00E+03,-7847,2702,-1364,-108,-158,-929,1,7,11
3.00E+03,-7833,2852,-1331,-74,-205,-941,1,7,11
3.00E+03,-7826,2516,-1303,-23,-243,-938,1,7,11
3.00E+03,-8059,2439,-1281,288,-240,-907,1,7,11
3.00E+03,-8054,2642,-1006,341,-197,-1115,1,7,11
3.00E+03,-8030,2629,-1004,160,-378,-758,1,7,11
3.00E+03,-7990,2630,-1008,239,-328,-683,1,7,11
3.00E+03,-7966,2602,-991,547,61,-496,1,7,11
3.00E+03,-7976,2575,-965,557,70,-131,1,7,11
3.00E+03,-7937,2580,-961,588,238,-36,1,7,11
3.00E+03,-7742,2239,-950,585,635,597,1,7,11
3.00E+03,-7413,2334,-927,180,862,472,1,7,11
3.00E+03,-7732,2046,-909,356,1033,455,1,7,11
3.00E+03,-7748,2016,-1143,322,1120,425,1,7,11
3.00E+03,-7740,1986,-1116,310,914,629,1,7,11
3.00E+03,-7567,2143,-1048,-11,942,538,1,7,11
3.00E+03,-7680,1778,-754,-42,1093,177,1,7,11
3.00E+03,-8000,1696,-1056,-31,894,283,1,7,11
3.00E+03,-8008,1919,-1140,260,412,91,1,7,11
3.00E+03,-7984,1900,-968,270,226,-138,1,7,11
3.00E+03,-7997,1867,-1008,-14,359,-391,1,7,11
3.00E+03,-8042,1840,-1020,-53,262,-873,1,7,11
3.00E+03,-7819,1814,-1012,-101,-80,-1047,1,7,11
3.00E+03,-7859,1518,-991,108,111,-902,1,7,11
3.01E+03,-7877,1464,-962,63,53,-951,1,7,11
3.01E+03,-7883,1417,-947,36,13,-953,1,7,11
3.01E+03,-7873,1631,-913,29,-274,-914,1,7,11
3.01E+03,-7877,1600,-1130,38,-290,-1130,1,7,11
3.01E+03,-7911,1595,-1120,61,-317,-1095,1,7,11
3.01E+03,-7924,1586,-1116,76,-374,-1058,1,7,11
3.01E+03,-7931,1595,-1111,86,-183,-1031,1,7,11
3.01E+03,-7920,1595,-1104,74,-245,-747,1,7,11
3.01E+03,-7881,1599,-1108,54,-550,-701,1,7,11
3.01E+03,-7835,1597,-1117,1,-568,-647,1,7,11
3.01E+03,-8047,1584,-1113,-333,-548,-840,1,7,11
3.01E+03,-8011,1549,-1086,-168,-245,-773,1,7,11
3.01E+03,-8017,1245,-1045,-515,-176,-455,1,7,11
3.01E+03,-8056,1189,-719,-590,-373,-404,1,7,11
3.01E+03,-7833,1397,-669,-630,-351,-618,1,7,11
3.01E+03,-7859,1373,-643,-388,-351,-593,1,7,11
3.01E+03,-7881,1360,-656,-632,-367,-579,1,7,11
3.01E+03,-7899,1365,-660,-613,-131,-565,1,7,11
3.01E+03,-7917,1361,-670,-577,-143,-543,1,7,11
3.01E+03,-7908,1361,-676,-247,-161,-248,1,7,11
3.01E+03,-7862,1362,-707,-152,-165,-200,1,7,11
3.01E+03,-7820,1360,-755,-302,-130,-169,1,7,11
3.01E+03,-7811,1370,-1048,69,-308,-148,1,7,11
3.01E+03,-7842,1391,-1054,-58,40,-369,1,7,11
3.01E+03,-7868,1170,-1052,338,114,-305,1,7,11
3.01E+03,-7866,1197,-1066,216,-96,42,1,7,11
3.01E+03,-7867,1221,-1096,585,-43,122,1,7,11
3.01E+03,-7874,1267,-1141,419,267,-65,1,7,11
3.01E+03,-7878,1596,-953,472,319,-15,1,7,11
3.01E+03,-7893,1654,-965,468,147,292,1,7,11
3.01E+03,-7928,1429,-960,424,196,311,1,7,11
3.01E+03,-8235,1439,-932,632,210,312,1,7,11
3.01E+03,-8251,1437,-917,597,179,298,1,7,11
3.01E+03,-8214,1423,-919,571,382,261,1,7,11
3.01E+03,-7883,1655,-969,562,345,-59,1,7,11
3.01E+03,-8058,1646,-1303,549,358,113,1,7,11
3.01E+03,-7998,1621,-1376,517,169,24,1,7,11
3.01E+03,-7980,1611,-1170,228,521,-306,1,7,11
3.01E+03,-8001,1595,-1200,189,621,-351,1,7,11
3.01E+03,-8046,1591,-1211,168,439,-354,1,7,11
3.02E+03,-7832,1603,-1237,169,472,-312,1,7,11
3.02E+03,-7845,1603,-1279,168,467,17,1,7,11
3.02E+03,-7865,1615,-1581,167,456,87,1,7,11
3.02E+03,-7878,1650,-1631,175,431,-108,1,7,11
3.02E+03,-7893,1427,-1419,170,397,-54,1,7,11
3.02E+03,-7923,1469,-1451,163,617,-14,1,7,11
3.02E+03,-8212,1500,-1466,144,560,283,1,7,11
3.02E+03,-8218,1515,-1467,379,224,312,1,7,11
3.02E+03,-8225,1528,-1475,359,148,316,1,7,11
3.02E+03,-8213,1802,-1475,337,327,309,1,7,11
3.02E+03,-7920,1804,-1457,303,257,284,1,7,11
3.02E+03,-7905,1799,-1440,259,-46,-16,1,7,11
3.02E+03,-7889,1808,-1411,-42,-89,-68,1,7,11
3.02E+03,-7881,1796,-1626,-103,-127,-113,1,7,11
3.02E+03,-7860,1513,-1586,91,101,102,1,7,11
3.02E+03,-7842,1488,-1555,32,80,71,1,7,11
3.02E+03,-7836,1468,-1251,-279,76,40,1,7,11
3.02E+03,-7867,1452,-1195,-333,74,24,1,7,11
3.02E+03,-7852,1423,-1164,-376,30,43,1,7,11
3.02E+03,-7812,1631,-1158,-156,-258,54,1,7,11
3.02E+03,-8034,1622,-1168,-184,-261,63,1,7,11
3.02E+03,-8000,1617,-1202,-210,19,77,1,7,11
3.02E+03,-7983,1622,-1251,-240,74,87,1,7,11
3.02E+03,-8019,1645,-1247,-521,-115,106,1,7,11
3.02E+03,-8043,1409,-1265,-524,-83,-106,1,7,11
3.02E+03,-8006,1659,-1562,-249,-86,-65,1,7,11
3.02E+03,-7968,1655,-1596,-207,-76,-62,1,7,11
3.02E+03,-7676,1658,-1622,-142,-46,-82,1,7,11
3.02E+03,-7974,1422,-1609,-310,272,-116,1,7,11
3.02E+03,-8052,1455,-1604,73,311,-106,1,7,11
3.02E+03,-7835,1483,-1620,-28,302,-42,1,7,11
3.02E+03,-7838,1504,-1633,129,287,281,1,7,11
3.02E+03,-7836,1811,-1422,537,269,341,1,7,11
3.02E+03,-7820,1866,-1473,397,258,372,1,7,11
3.02E+03,-7832,1676,-1507,470,258,373,1,7,11
3.02E+03,-7864,1736,-1521,500,256,364,1,7,11
3.02E+03,-7879,2050,-1521,487,-27,357,1,7,11
3.02E+03,-7863,2084,-1528,429,-74,334,1,7,11
3.02E+03,-7851,2107,-1523,584,-112,295,1,7,11
3.02E+03,-7826,2119,-1520,182,115,-13,1,7,11
3.03E+03,-8052,2117,-1507,-2,99,-71,1,7,11
3.03E+03,-8006,2107,-1499,37,108,-115,1,7,11
3.03E+03,-7978,2047,-1454,-208,-103,102,1,7,11
3.03E+03,-7978,1717,-1642,-453,-51,79,1,7,11
3.03E+03,-7982,1881,-1601,-661,-15,67,1,7,11
3.03E+03,-7987,1798,-1578,-1072,264,57,1,7,11
3.03E+03,-7993,1494,-1585,-906,273,43,1,7,11
3.03E+03,-8028,1475,-1596,-966,291,-259,1,7,11
3.03E+03,-8053,1479,-1610,-964,292,-275,1,7,11
3.03E+03,-7815,1491,-1608,-930,278,-276,1,7,11
3.03E+03,-7847,1507,-1598,-1122,-7,-270,1,7,11
3.03E+03,-7872,1517,-1585,-1027,-70,2,1,7,11
3.03E+03,-7865,1796,-1576,-893,104,16,1,7,11
3.03E+03,-7871,1817,-1546,-498,34,30,1,7,11
3.03E+03,-7870,1827,-1269,-608,-301,50,1,7,11
3.03E+03,-7854,1832,-1242,-206,-377,73,1,7,11
3.03E+03,-7812,1825,-1239,-324,-179,88,1,7,11
3.03E+03,-8026,1830,-1248,49,-202,86,1,7,11
3.03E+03,-8000,1851,-1270,-120,-192,68,1,7,11
3.03E+03,-7987,1862,-1275,-57,-151,40,1,7,11
3.03E+03,-8001,1892,-1271,-32,-355,26,1,7,11
3.03E+03,-8022,1670,-1539,-31,-312,28,1,7,11
3.03E+03,-8041,1701,-1544,-61,-270,29,1,7,11
3.03E+03,-7834,1725,-1274,-114,20,38,1,7,11
3.03E+03,-7850,1730,-1265,70,26,56,1,7,11
3.03E+03,-7839,1718,-1257,-262,13,55,1,7,11
3.03E+03,-7839,1692,-1233,-339,-259,34,1,7,11
3.03E+03,-7833,1914,-1233,-148,-280,-271,1,7,11
3.03E+03,-8061,1888,-1228,-193,-295,-326,1,7,11
3.03E+03,-8021,1865,-1236,-217,-283,-376,1,7,11
3.03E+03,-8010,1841,-1236,-234,15,-147,1,7,11
3.03E+03,-7992,1811,-1249,-232,67,-155,1,7,11
3.03E+03,-7965,1526,-1267,-196,-102,-156,1,7,11
3.03E+03,-7965,1499,-1280,-157,-44,-150,1,7,11
3.03E+03,-7984,1494,-1560,-356,261,-138,1,7,11
3.03E+03,-8020,1508,-1582,-293,290,-368,1,7,11
3.03E+03,-8052,1495,-1595,15,291,-334,1,7,11
3.03E+03,-7822,1488,-1613,87,265,-304,1,7,11
3.03E+03,-7865,1503,-1629,-94,-24,-277,1,7,11
3.03E+03,-7912,1525,-1627,-21,-74,18,1,7,11
3.04E+03,-8212,1804,-1612,302,119,69,1,7,11
3.04E+03,-8220,1824,-1593,361,33,-124,1,7,11
3.04E+03,-8207,1830,-1579,157,-309,-82,1,7,11
3.04E+03,-7923,1831,-1564,192,-381,-65,1,7,11
3.04E+03,-7907,1845,-1560,205,-174,-75,1,7,11
3.04E+03,-7894,1856,-1542,183,-205,-102,1,7,11
3.04E+03,-7889,1878,-1278,381,-212,124,1,7,11
3.04E+03,-7878,1894,-1254,283,-212,106,1,7,11
3.04E+03,-7868,1895,-1224,-94,-206,89,1,7,11
3.04E+03,-7858,1879,-1190,33,-200,77,1,7,11
3.04E+03,-7837,1850,-1157,-339,-200,64,1,7,11
3.04E+03,-7810,1820,-1376,-182,-191,51,1,7,11
3.04E+03,-8037,1531,-1367,-515,-167,40,1,7,11
3.04E+03,-8007,1502,-1347,-574,-377,32,1,7,11
3.04E+03,-8005,1493,-1320,-607,-316,27,1,7,11
3.04E+03,-8030,1488,-1286,-616,-261,39,1,7,11
3.04E+03,-8021,1452,-1281,-601,8,65,1,7,11
3.04E+03,-8002,1462,-1320,-525,47,68,1,7,11
3.04E+03,-7982,1466,-1359,-211,96,52,1,7,11
3.04E+03,-8024,1484,-1390,-147,-79,32,1,7,11
3.04E+03,-7821,1507,-1155,-331,-16,44,1,7,11
3.04E+03,-7882,1523,-1161,9,281,79,1,7,11
3.04E+03,-7914,1798,-1167,101,284,-121,1,7,11
3.04E+03,-7901,1807,-1174,-52,-4,-69,1,7,11
3.04E+03,-7881,1820,-1190,304,-38,-35,1,7,11
3.04E+03,-7873,1846,-1196,144,-68,-21,1,7,11
3.04E+03,-7864,1889,-1213,223,-100,-20,1,7,11
3.04E+03,-7841,1677,-1247,531,-128,-26,1,7,11
3.04E+03,-8061,1709,-1274,547,-125,-55,1,7,11
3.04E+03,-8042,1754,-1549,244,-106,-118,1,7,11
3.04E+03,-8043,1771,-1547,135,-84,56,1,7,11
3.04E+03,-8040,1772,-1278,258,-66,-286,1,7,11
3.04E+03,-8040,1772,-1266,120,-58,-368,1,7,11
3.04E+03,-8029,1753,-1538,-290,-48,-176,1,7,11
3.04E+03,-8021,1718,-1540,-195,-8,-228,1,7,11
3.04E+03,-8027,1666,-1544,-605,303,-518,1,7,11
3.04E+03,-8045,1861,-1538,-475,358,-543,1,7,11
3.04E+03,-7819,1807,-1262,-824,149,-551,1,7,11
3.04E+03,-7873,1504,-1241,-884,177,-539,1,7,11
3.04E+03,-7927,1455,-1206,-651,164,-250,1,7,11
3.05E+03,-8226,1415,-1171,-894,366,-198,1,7,11
3.05E+03,-8260,1629,-1386,-847,272,-381,1,7,11
3.05E+03,-8230,1596,-1367,-503,-109,-313,1,7,11
3.05E+03,-7933,1579,-1362,-397,46,-263,1,7,11
3.05E+03,-7877,1568,-1365,-547,-282,28,1,7,11
3.05E+03,-7811,1576,-1376,-187,-317,44,1,7,11
3.05E+03,-8032,1588,-1391,-356,-299,53,1,7,11
3.05E+03,-8030,1604,-1399,-286,4,72,1,7,11
3.05E+03,-8038,1624,-1403,32,51,112,1,7,11
3.05E+03,-8061,1648,-1169,96,96,-91,1,7,11
3.05E+03,-7821,1418,-1190,-99,125,-33,1,7,11
3.05E+03,-7823,1437,-1210,-36,-118,281,1,7,11
3.05E+03,-8061,1465,-1243,274,-107,324,1,7,11
3.05E+03,-8040,1484,-1541,315,-84,350,1,7,11
3.05E+03,-8035,1503,-1576,348,-53,356,1,7,11
3.05E+03,-8062,1522,-1585,374,-24,351,1,7,11
3.05E+03,-7856,1802,-1582,153,-10,358,1,7,11
3.05E+03,-7874,1822,-1579,195,-29,380,1,7,11
3.05E+03,-7861,1837,-1584,232,-60,137,1,7,11
3.05E+03,-7857,1852,-1592,512,-83,379,1,7,11
3.05E+03,-7862,1879,-1598,524,-101,343,1,7,11
3.05E+03,-7851,1668,-1591,245,117,282,1,7,11
3.05E+03,-7829,1686,-1586,196,93,-20,1,7,11
3.05E+03,-7830,1706,-1591,380,75,-71,1,7,11
3.05E+03,-7839,1716,-1584,295,44,-114,1,7,11
3.05E+03,-7838,1723,-1577,-48,4,112,1,7,11
3.05E+03,-7822,1715,-1581,115,-286,90,1,7,11
3.05E+03,-8064,1697,-1588,19,-299,70,1,7,11
3.05E+03,-8059,1668,-1577,-328,-291,53,1,7,11
3.05E+03,-8057,1885,-1550,-149,-277,38,1,7,11
3.05E+03,-7825,1839,-1259,-206,0,23,1,7,11
3.05E+03,-7853,1792,-1206,-230,10,17,1,7,11
3.05E+03,-7850,1499,-1168,-221,-260,19,1,7,11
3.05E+03,-7838,1489,-1400,-195,-266,19,1,7,11
3.05E+03,-8042,1478,-1167,-176,-276,29,1,7,11
3.05E+03,-7975,1474,-1229,-179,4,18,1,7,11
3.05E+03,-8019,1523,-1234,-208,105,5,1,7,11
3.05E+03,-8047,1811,-1249,-242,-87,51,1,7,11
3.05E+03,-7828,1841,-1233,-255,-41,118,1,7,11
3.05E+03,-7854,1831,-1201,-240,-25,-39,1,7,11
3.06E+03,-7854,1828,-1181,-162,-50,303,1,7,11
3.06E+03,-7830,1832,-1175,-313,-88,352,1,7,11
3.06E+03,-7822,1858,-1185,62,-119,359,1,7,11
3.06E+03,-7811,1904,-1201,-90,99,348,1,7,11
3.06E+03,-8061,1688,-1218,-5,71,329,1,7,11
3.06E+03,-8059,1732,-1219,311,57,317,1,7,11
3.06E+03,-7811,1766,-1220,346,46,308,1,7,11
3.06E+03,-7815,2055,-1225,366,27,304,1,7,11
3.06E+03,-7819,2078,-1233,363,14,297,1,7,11
3.06E+03,-7812,2086,-1230,335,1,286,1,7,11
3.06E+03,-7810,2090,-1231,297,-267,258,1,7,11
3.06E+03,-7814,2095,-1230,-10,-279,-29,1,7,11
3.06E+03,-7823,2090,-1224,-68,-297,-64,1,7,11
3.06E+03,-7822,2092,-1212,-121,-317,-92,1,7,11
3.06E+03,-7811,2076,-1204,81,-329,-115,1,7,11
3.06E+03,-8060,2066,-1203,43,-342,126,1,7,11
3.06E+03,-8047,2060,-1202,17,-353,119,1,7,11
3.06E+03,-8030,1782,-1199,-264,-349,116,1,7,11
3.06E+03,-8037,1780,-1193,-269,-329,112,1,7,11
3.06E+03,-8043,1761,-1168,-274,-306,127,1,7,11
3.06E+03,-8034,1748,-1165,-265,-282,-117,1,7,11
3.06E+03,-8039,1741,-1402,11,-266,-108,1,7,11
3.06E+03,-8051,1723,-1380,24,33,-96,1,7,11
3.06E+03,-8063,1712,-1364,56,50,-84,1,7,11
3.06E+03,-8061,1709,-1369,96,64,-71,1,7,11
3.06E+03,-7809,1730,-1374,-114,84,-64,1,7,11
3.06E+03,-7817,1759,-1390,-79,97,-63,1,7,11
3.06E+03,-7825,1789,-1403,-55,102,-65,1,7,11
3.06E+03,-7822,2065,-1402,-66,100,-69,1,7,11
3.06E+03,-7829,2089,-1407,-81,92,-77,1,7,11
3.06E+03,-7820,2106,-1405,-109,77,-79,1,7,11
3.06E+03,-8061,2106,-1154,110,66,-87,1,7,11
3.06E+03,-8047,2108,-1157,71,62,-101,1,7,11
3.06E+03,-8046,2106,-1154,36,68,-119,1,7,11
3.06E+03,-8056,2107,-1402,8,75,112,1,7,11
3.06E+03,-8046,2114,-1404,-265,70,98,1,7,11
3.06E+03,-8050,2116,-1392,-293,80,87,1,7,11
3.06E+03,-8058,2107,-1385,-320,80,85,1,7,11
3.06E+03,-7809,2115,-1378,-344,74,81,1,7,11
3.06E+03,-8059,2105,-1372,-137,68,98,1,7,11
3.07E+03,-8052,2077,-1366,-169,64,109,1,7,11
3.07E+03,-8050,2057,-1363,-175,70,104,1,7,11
3.07E+03,-8061,2054,-1355,-165,72,96,1,7,11
3.07E+03,-8061,2057,-1358,-153,68,89,1,7,11
3.07E+03,-8057,2061,-1361,-133,66,64,1,7,11
3.07E+03,-7813,2063,-1349,-373,69,30,1,7,11
3.07E+03,-7832,1789,-1336,-358,62,-257,1,7,11
3.07E+03,-7814,1773,-1338,-327,36,-293,1,7,11
3.07E+03,-7819,1775,-1339,-286,31,-336,1,7,11
3.07E+03,-7823,1763,-1332,-273,26,-361,1,7,11
3.07E+03,-7831,1747,-1326,6,16,-381,1,7,11
3.07E+03,-7821,1758,-1330,28,2,-384,1,7,11
3.07E+03,-7817,1741,-1325,26,-258,-371,1,7,11
3.07E+03,-7811,1742,-1326,42,-261,-347,1,7,11
3.07E+03,-7816,1743,-1325,47,4,-312,1,7,11
3.07E+03,-7819,1739,-1325,45,17,-276,1,7,11
3.07E+03,-7829,1734,-1322,45,31,3,1,7,11
3.07E+03,-7850,1742,-1318,52,41,16,1,7,11
3.07E+03,-7858,1754,-1315,65,43,24,1,7,11
3.07E+03,-7852,1768,-1325,69,36,34,1,7,11
3.07E+03,-7845,1776,-1322,62,31,45,1,7,11
3.07E+03,-7859,1778,-1309,41,38,52,1,7,11
3.07E+03,-7875,1777,-1307,23,30,67,1,7,11
3.07E+03,-7855,1781,-1314,16,14,87,1,7,11
3.07E+03,-7840,1784,-1312,-266,23,104,1,7,11
3.07E+03,-7825,1773,-1302,-289,41,118,1,7,11
3.07E+03,-7821,1761,-1299,-314,61,118,1,7,11
3.07E+03,-8063,1752,-1291,-329,80,112,1,7,11
3.07E+03,-8056,1750,-1024,-320,113,96,1,7,11
3.07E+03,-8049,1751,-1287,-290,122,89,1,7,11
3.07E+03,-8046,1757,-1281,-276,-122,85,1,7,11
3.07E+03,-8055,1756,-1292,-275,-108,89,1,7,11
3.07E+03,-8061,1753,-1293,-274,-98,85,1,7,11
3.07E+03,-7817,1764,-1297,-270,-95,78,1,7,11
3.07E+03,-8064,1772,-1309,-277,-101,71,1,7,11
3.07E+03,-7815,1779,-1309,-288,-101,52,1,7,11
3.07E+03,-7840,1773,-1310,-298,-103,41,1,7,11
3.07E+03,-7848,1771,-1312,-307,-115,45,1,7,11
3.07E+03,-7857,1755,-1302,-311,-122,51,1,7,11
3.07E+03,-7871,1779,-1310,-305,120,65,1,7,11
3.08E+03,-7872,1764,-1301,-310,102,77,1,7,11
3.08E+03,-7875,1761,-1304,-286,93,81,1,7,11
3.08E+03,-7868,1768,-1303,-257,87,88,1,7,11
3.08E+03,-7862,1763,-1303,18,83,87,1,7,11
3.08E+03,-7850,1766,-1304,43,80,75,1,7,11
3.08E+03,-7840,1768,-1297,65,81,58,1,7,11
3.08E+03,-7839,1775,-1306,84,81,36,1,7,11
3.08E+03,-7841,2048,-1302,98,83,21,1,7,11
3.08E+03,-7848,2057,-1306,99,82,18,1,7,11
3.08E+03,-7846,1789,-1312,84,72,22,1,7,11
3.08E+03,-7846,1781,-1306,70,58,22,1,7,11
3.08E+03,-7841,1774,-1300,49,47,21,1,7,11
3.08E+03,-7832,1765,-1290,25,43,25,1,7,11
3.08E+03,-7832,1747,-1012,0,39,24,1,7,11
3.08E+03,-7834,1736,-1009,-271,38,19,1,7,11
3.08E+03,-7840,1725,-997,-279,38,11,1,7,11
3.08E+03,-7839,1723,-1001,-276,31,1,1,7,11
3.08E+03,-7833,1725,-997,-267,23,-262,1,7,11
3.08E+03,-7820,1724,-999,-266,26,-263,1,7,11
3.08E+03,-7837,1716,-995,-275,46,-262,1,7,11
3.08E+03,-7868,1712,-984,-277,53,1,1,7,11
3.08E+03,-7873,1719,-995,-271,37,22,1,7,11
3.08E+03,-7872,1725,-1001,-273,43,37,1,7,11
3.08E+03,-7865,1737,-1005,-282,57,52,1,7,11
3.08E+03,-7851,1730,-1003,-298,68,64,1,7,11
3.08E+03,-7848,1724,-999,-315,82,66,1,7,11
3.08E+03,-7843,1713,-997,-322,90,63,1,7,11
3.08E+03,-7842,1715,-993,-322,94,55,1,7,11
3.08E+03,-7842,1712,-993,-316,93,52,1,7,11
3.08E+03,-7839,1702,-989,-303,93,46,1,7,11
3.08E+03,-7847,1708,-992,-277,99,38,1,7,11
3.08E+03,-7857,1717,-989,3,101,35,1,7,11
3.08E+03,-7849,1722,-997,24,96,37,1,7,11
3.08E+03,-7846,1723,-997,37,98,27,1,7,11
3.08E+03,-7862,1730,-993,44,99,17,1,7,11
3.08E+03,-7878,1730,-994,44,81,19,1,7,11
3.08E+03,-7869,1727,-991,53,54,22,1,7,11
3.08E+03,-7860,1738,-993,58,43,30,1,7,11
3.08E+03,-7850,1745,-1000,59,45,51,1,7,11
3.08E+03,-7836,1740,-999,53,56,72,1,7,11
3.09E+03,-7845,1734,-989,50,76,93,1,7,11
3.09E+03,-7843,1732,-976,63,88,114,1,7,11
3.09E+03,-7848,1733,-968,83,94,126,1,7,11
3.09E+03,-7850,1729,-973,101,97,-121,1,7,11
3.09E+03,-7843,1738,-972,123,99,-119,1,7,11
3.09E+03,-7853,1745,-972,-121,99,-120,1,7,11
3.09E+03,-7855,1756,-977,-113,95,-126,1,7,11
3.09E+03,-7860,1764,-972,-109,82,126,1,7,11
3.09E+03,-7857,1769,-973,-111,71,123,1,7,11
3.09E+03,-7850,1772,-973,-111,68,122,1,7,11
3.09E+03,-7844,1767,-975,-123,70,119,1,7,11
3.09E+03,-7842,1763,-968,122,77,109,1,7,11
3.09E+03,-7843,1755,-962,110,81,88,1,7,11
3.09E+03,-7857,1755,-955,100,78,69,1,7,11
3.09E+03,-7860,1762,-963,96,67,59,1,7,11
3.09E+03,-7847,1764,-968,88,62,54,1,7,11
3.09E+03,-7856,1765,-968,65,70,49,1,7,11
3.09E+03,-7883,1758,-949,39,74,47,1,7,11
3.09E+03,-7893,1745,-936,27,51,53,1,7,11
3.09E+03,-7881,1736,-948,24,31,62,1,7,11
3.09E+03,-7868,1734,-949,21,27,68,1,7,11
3.09E+03,-7862,1727,-949,20,35,70,1,7,11
3.09E+03,-7859,1722,-939,23,40,71,1,7,11
3.09E+03,-7855,1715,-931,35,45,74,1,7,11
3.09E+03,-7859,1716,-920,57,56,83,1,7,11
3.09E+03,-7860,1717,-914,80,63,90,1,7,11
3.09E+03,-7855,1729,-916,103,70,101,1,7,11
3.09E+03,-7848,1738,-915,117,80,113,1,7,11
3.09E+03,-7850,1747,-916,123,93,122,1,7,11
3.09E+03,-7855,1764,-912,124,99,-124,1,7,11
3.09E+03,-7846,1777,-915,118,104,-114,1,7,11
3.09E+03,-7845,1781,-907,97,119,-109,1,7,11
3.09E+03,-7848,1789,-912,76,124,-104,1,7,11
3.09E+03,-7853,2052,-923,63,125,-99,1,7,11
3.09E+03,-7847,2064,-931,47,127,-93,1,7,11
3.09E+03,-7846,2073,-929,36,-117,-89,1,7,11
3.09E+03,-7841,2076,-927,28,-103,-86,1,7,11
3.09E+03,-7833,2080,-932,27,-86,-90,1,7,11
3.09E+03,-7841,2091,-939,35,-68,-97,1,7,11
3.09E+03,-7838,2106,-947,53,-57,-110,1,7,11
3.10E+03,-7849,2127,-952,62,-48,-119,1,7,11
3.10E+03,-7853,2133,-965,58,-41,127,1,7,11
3.10E+03,-7864,2148,-978,48,-33,111,1,7,11
3.10E+03,-7876,2156,-993,22,-37,87,1,7,11
3.10E+03,-7879,2143,-1003,-260,-55,64,1,7,11
3.10E+03,-7909,2127,-997,-276,-66,36,1,7,11
3.10E+03,-7926,2096,-980,-272,-104,24,1,7,11
3.10E+03,-7911,2068,-966,16,92,4,1,7,11
3.10E+03,-7882,1790,-967,53,46,-269,1,7,11
3.10E+03,-7859,1767,-971,79,26,-288,1,7,11
3.10E+03,-7881,1745,-959,89,37,-303,1,7,11
3.10E+03,-7898,1723,-937,97,29,-296,1,7,11
3.10E+03,-7886,1720,-938,112,15,-278,1,7,11
3.10E+03,-7876,1717,-941,107,16,7,1,7,11
3.10E+03,-7846,1711,-953,82,20,41,1,7,11
3.10E+03,-7828,1700,-931,49,49,68,1,7,11
3.10E+03,-7832,1711,-908,22,86,108,1,7,11
3.10E+03,-7835,1730,-1149,2,119,-91,1,7,11
3.10E+03,-7818,1764,-1139,-265,-109,-21,1,7,11
3.10E+03,-8055,2070,-1141,-282,-70,300,1,7,11
3.10E+03,-8011,2125,-1150,-310,-28,361,1,7,11
3.10E+03,-7994,1922,-897,-358,286,161,1,7,11
3.10E+03,-8014,1964,-898,-177,363,207,1,7,11
3.10E+03,-8030,2015,-899,-516,173,245,1,7,11
3.10E+03,-8035,2326,-912,-636,230,556,1,7,11
3.10E+03,-8021,2390,-941,-463,522,596,1,7,11
3.10E+03,-7997,2186,-970,-803,570,386,1,7,11
3.10E+03,-7964,2227,-991,-888,635,434,1,7,11
3.10E+03,-7945,2229,-999,-761,445,457,1,7,11
3.10E+03,-7971,2199,-984,-1135,499,432,1,7,11
3.10E+03,-7999,2179,-990,-941,497,613,1,7,11
3.10E+03,-8013,2182,-1001,-963,459,248,1,7,11
3.10E+03,-8008,2177,-1282,-968,413,374,1,7,11
3.10E+03,-8020,2413,-1288,-961,632,-8,1,7,11
3.10E+03,-8028,2373,-1288,-939,590,-126,1,7,11
3.10E+03,-8056,2320,-1007,-1141,538,23,1,7,11
3.10E+03,-7810,2017,-991,-1051,209,-324,1,7,11
3.10E+03,-8062,1976,-978,-672,132,-137,1,7,11
3.10E+03,-8034,1950,-969,-788,324,-178,1,7,11
3.10E+03,-8024,2174,-954,-387,294,-196,1,7,11
3.11E+03,-8004,2161,-956,-236,279,-189,1,7,11
3.11E+03,-7997,2154,-961,-343,288,-165,1,7,11
3.11E+03,-7988,2144,-960,59,300,-382,1,7,11
3.11E+03,-7968,2160,-990,-59,313,-357,1,7,11
3.11E+03,-7965,1929,-1296,363,354,-349,1,7,11
3.11E+03,-7966,1965,-1357,176,373,-357,1,7,11
3.11E+03,-7965,2011,-1404,196,143,-364,1,7,11
3.11E+03,-7970,2045,-1193,167,173,-368,1,7,11
3.11E+03,-7972,2327,-1232,359,200,-371,1,7,11
3.11E+03,-7974,2337,-1266,268,219,-370,1,7,11
3.11E+03,-7975,2327,-1556,-91,232,-378,1,7,11
3.11E+03,-7980,2308,-1583,72,242,-134,1,7,11
3.11E+03,-7994,2037,-1585,-277,255,-153,1,7,11
3.11E+03,-8004,2017,-1573,-352,249,-157,1,7,11
3.11E+03,-8022,1989,-1565,-155,227,-162,1,7,11
3.11E+03,-8039,1955,-1554,-193,189,-161,1,7,11
3.11E+03,-8050,2171,-1546,-211,143,-165,1,7,11
3.11E+03,-8048,2141,-1539,-203,354,-166,1,7,11
3.11E+03,-8024,2115,-1275,-184,316,-167,1,7,11
3.11E+03,-7999,2093,-1277,-151,292,-167,1,7,11
3.11E+03,-7987,2089,-1544,-361,287,-165,1,7,11
3.11E+03,-7986,2098,-1565,-314,292,-152,1,7,11
3.11E+03,-7991,2106,-1571,-265,294,-381,1,7,11
3.11E+03,-7970,2106,-1587,30,285,-344,1,7,11
3.11E+03,-7952,2106,-1609,63,284,-322,1,7,11
3.11E+03,-7942,2102,-1630,91,289,-310,1,7,11
3.11E+03,-7945,2101,-1644,119,297,-307,1,7,11
3.11E+03,-7949,2108,-1639,-117,306,-299,1,7,11
3.11E+03,-7948,2102,-1644,-97,311,-284,1,7,11
3.11E+03,-7955,2103,-1637,-74,318,-263,1,7,11
3.11E+03,-7974,2104,-1620,-53,327,10,1,7,11
3.11E+03,-7981,2109,-1619,-34,331,29,1,7,11
3.11E+03,-7984,2117,-1610,-24,343,45,1,7,11
3.11E+03,-7950,2109,-1619,-21,359,52,1,7,11
3.11E+03,-7680,2104,-1627,-23,140,31,1,7,11
3.11E+03,-7666,2110,-1651,-32,185,6,1,7,11
3.11E+03,-7654,2115,-1429,-46,239,-278,1,7,11
3.11E+03,-7646,2110,-1453,-72,559,-302,1,7,11
3.11E+03,-7642,2107,-1480,-101,621,-317,1,7,11
3.11E+03,-7649,2095,-1509,-127,413,-330,1,7,11
3.12E+03,-7663,2099,-1795,123,438,-338,1,7,11
3.12E+03,-7666,2086,-1827,121,427,-334,1,7,11
3.12E+03,-7670,2075,-1876,-118,395,-333,1,7,11
3.12E+03,-7675,2073,-1665,-88,613,-328,1,7,11
3.12E+03,-7951,2072,-1697,-56,569,-307,1,7,11
3.12E+03,-7966,2060,-1713,-21,512,-275,1,7,11
3.12E+03,-7977,2057,-1718,288,182,14,1,7,11
3.12E+03,-7986,2051,-1723,344,353,52,1,7,11
3.12E+03,-7976,1777,-1742,170,-21,82,1,7,11
3.12E+03,-7972,1788,-1768,220,-82,78,1,7,11
3.12E+03,-7973,2084,-1782,514,-119,65,1,7,11
3.12E+03,-7983,2124,-1777,524,111,64,1,7,11
3.12E+03,-7992,2155,-1774,253,84,75,1,7,11
3.12E+03,-8008,2173,-1756,217,50,71,1,7,11
3.12E+03,-8012,1922,-1751,170,1,47,1,7,11
3.12E+03,-7992,1921,-1745,376,-309,-263,1,7,11
3.12E+03,-7973,1925,-1731,314,-352,-338,1,7,11
3.12E+03,-7948,1925,-1723,-27,-130,-153,1,7,11
3.12E+03,-7678,2166,-1708,127,-149,-217,1,7,11
3.12E+03,-7669,2139,-1690,16,-158,-520,1,7,11
3.12E+03,-7948,2105,-1891,-353,-158,-548,1,7,11
3.12E+03,-7957,2051,-1847,-204,-176,-547,1,7,11
3.12E+03,-7952,1733,-1816,-550,-196,-536,1,7,11
3.12E+03,-7944,1684,-1534,-617,-197,-516,1,7,11
3.12E+03,-7944,1898,-1514,-400,-176,-243,1,7,11
3.12E+03,-7958,1876,-1483,-399,-145,-224,1,7,11
3.12E+03,-7956,1857,-1468,-618,-375,-182,1,7,11
3.12E+03,-7970,1854,-1449,-560,-344,-143,1,7,11
3.12E+03,-8026,1851,-1417,-234,-314,-375,1,7,11
3.12E+03,-8045,1847,-1656,-143,-342,-353,1,7,11
3.12E+03,-8043,1842,-1654,-320,-376,-358,1,7,11
3.12E+03,-8039,1835,-1639,-268,-140,-129,1,7,11
3.12E+03,-8026,1830,-1647,22,-162,-175,1,7,11
3.12E+03,-8006,1826,-1652,29,-168,-224,1,7,11
3.12E+03,-7998,1824,-1652,20,-157,-515,1,7,11
3.12E+03,-7987,1814,-1651,-264,-142,-526,1,7,11
3.12E+03,-7993,1797,-1624,-294,-360,-252,1,7,11
3.12E+03,-7983,1505,-1606,-310,-325,-207,1,7,11
3.12E+03,-7994,1483,-1599,-290,-278,-155,1,7,11
3.12E+03,-8006,1461,-1582,8,26,-343,1,7,11
3.13E+03,-8006,1461,-1574,80,69,-266,1,7,11
3.13E+03,-8016,1477,-1571,-87,113,75,1,7,11
3.13E+03,-8008,1496,-1581,256,-110,-91,1,7,11
3.13E+03,-7980,1799,-1620,338,-79,13,1,7,11
3.13E+03,-7983,1842,-1664,144,-38,313,1,7,11
3.13E+03,-7983,1889,-1440,172,258,344,1,7,11
3.13E+03,-7982,1686,-1464,164,295,366,1,7,11
3.13E+03,-7997,1743,-1483,360,357,146,1,7,11
3.13E+03,-7981,1778,-1501,328,135,205,1,7,11
3.13E+03,-7947,2054,-1520,-12,180,539,1,7,11
3.13E+03,-7671,2064,-1529,67,514,632,1,7,11
3.13E+03,-7649,2052,-1520,-335,612,499,1,7,11
3.13E+03,-7629,1757,-1526,-218,467,878,1,7,11
3.13E+03,-7668,1718,-1496,-609,822,713,1,7,11
3.13E+03,-7978,1680,-1484,-451,854,744,1,7,11
3.13E+03,-8022,1683,-1492,-476,800,703,1,7,11
3.13E+03,-8035,1706,-1514,-447,419,866,1,7,11
3.13E+03,-8016,1742,-1801,-631,526,479,1,7,11
3.13E+03,-7995,1785,-1824,-532,130,580,1,7,11
3.13E+03,-7955,2078,-1847,-161,258,162,1,7,11
3.13E+03,-7666,2100,-1876,-290,-101,-10,1,7,11
3.13E+03,-7665,2132,-1891,96,84,75,1,7,11
3.13E+03,-7675,2143,-1881,-48,19,-328,1,7,11
3.13E+03,-7956,2145,-1862,301,-300,-201,1,7,11
3.13E+03,-7985,2133,-1869,378,-379,-579,1,7,11
3.13E+03,-7997,2121,-1871,176,-216,-453,1,7,11
3.13E+03,-7986,2113,-1889,208,-568,-851,1,7,11
3.13E+03,-7973,2097,-1908,203,-385,-740,1,7,11
3.13E+03,-7963,2065,-1903,175,-436,-1133,1,7,11
3.13E+03,-7986,1781,-1876,153,-472,-987,1,7,11
3.13E+03,-8002,1760,-1857,135,-507,-1291,1,7,11
3.13E+03,-8007,1727,-1834,375,-788,-1283,1,7,11
3.13E+03,-7999,1683,-1817,361,-792,-978,1,7,11
3.13E+03,-7999,1893,-1533,353,-772,-901,1,7,11
3.13E+03,-8000,1841,-1505,344,-473,-1069,1,7,11
3.13E+03,-7996,1799,-1482,343,-421,-713,1,7,11
3.13E+03,-7995,1514,-1476,343,-615,-864,1,7,11
3.13E+03,-7998,1500,-1466,333,-543,-495,1,7,11
3.13E+03,-7986,1497,-1477,309,-218,-620,1,7,11
3.13E+03,-7981,1493,-1489,270,-382,-227,1,7,11
3.14E+03,-8002,1491,-1497,-42,-265,-334,1,7,11
3.14E+03,-8013,1483,-1502,-101,102,85,1,7,11
3.14E+03,-8014,1470,-1522,107,-49,-20,1,7,11
3.14E+03,-8014,1454,-1798,63,306,353,1,7,11
3.14E+03,-8047,1443,-1530,49,129,159,1,7,11
3.14E+03,-7860,1451,-1507,76,163,183,1,7,11
3.14E+03,-7896,1463,-1475,-115,375,190,1,7,11
3.14E+03,-7870,1460,-1469,-31,273,165,1,7,11
3.14E+03,-7826,1453,-1459,322,-89,359,1,7,11
3.14E+03,-8052,1473,-1453,148,68,263,1,7,11
3.14E+03,-8032,1495,-1447,179,-275,-95,1,7,11
3.14E+03,-8002,1513,-1447,169,-338,82,1,7,11
3.14E+03,-7976,1792,-1451,131,-359,20,1,7,11
3.14E+03,-7980,1806,-1436,305,-346,-273,1,7,11
3.14E+03,-7985,1794,-1427,-62,-327,-280,1,7,11
3.14E+03,-8013,1520,-1658,72,-290,-273,1,7,11
3.14E+03,-8049,1495,-1634,-308,-258,-260,1,7,11
3.14E+03,-7826,1470,-1624,-157,3,15,1,7,11
3.14E+03,-7833,1455,-1639,-240,2,27,1,7,11
3.14E+03,-7848,1453,-1643,-560,10,33,1,7,11
3.14E+03,-7890,1456,-1624,-603,20,61,1,7,11
3.14E+03,-7909,1450,-1586,-614,2,120,1,7,11
3.14E+03,-7898,1419,-1558,-576,-296,-71,1,7,11
3.14E+03,-7865,1632,-1276,-242,-349,-33,1,7,11
3.14E+03,-7814,1602,-1272,-129,-139,-38,1,7,11
3.14E+03,-8024,1603,-1280,-257,-163,-78,1,7,11
3.14E+03,-7999,1621,-1543,118,-155,-116,1,7,11
3.14E+03,-7983,1654,-1562,-37,-383,125,1,7,11
3.14E+03,-8005,1443,-1569,294,-339,-116,1,7,11
3.14E+03,-8052,1481,-1557,353,-303,-70,1,7,11
3.14E+03,-7830,1508,-1278,139,-302,-2,1,7,11
3.14E+03,-7840,1514,-1537,164,-325,317,1,7,11
3.14E+03,-7826,1528,-1545,184,-347,345,1,7,11
3.14E+03,-7826,1807,-1560,193,-356,345,1,7,11
3.14E+03,-7843,1847,-1545,188,-343,332,1,7,11
3.14E+03,-7875,1886,-1262,174,-337,333,1,7,11
3.14E+03,-7895,1902,-1231,155,-354,339,1,7,11
3.14E+03,-7890,1917,-1207,133,-129,330,1,7,11
3.14E+03,-7866,1675,-1201,355,-164,304,1,7,11
3.14E+03,-7831,1690,-1220,300,-186,259,1,7,11
3.15E+03,-8060,1699,-1234,-49,-180,-46,1,7,11
3.15E+03,-8016,1690,-1261,91,-154,-88,1,7,11
3.15E+03,-7978,1675,-1271,-288,-355,-125,1,7,11
3.15E+03,-7980,1891,-1268,-146,-286,110,1,7,11
3.15E+03,-7988,1866,-1268,-234,23,109,1,7,11
3.15E+03,-7982,1821,-1273,-542,59,-124,1,7,11
3.15E+03,-7975,1521,-1273,-561,95,-97,1,7,11
3.15E+03,-8011,1493,-1260,-249,-103,-43,1,7,11
3.15E+03,-8049,1483,-1259,-161,-90,260,1,7,11
3.15E+03,-7810,1468,-1265,-308,-97,305,1,7,11
3.15E+03,-7837,1489,-1269,74,-101,332,1,7,11
3.15E+03,-7867,1531,-1265,-63,-126,357,1,7,11
3.15E+03,-7886,1836,-1262,289,74,375,1,7,11
3.15E+03,-7869,1879,-1545,362,6,133,1,7,11
3.15E+03,-7861,1684,-1561,148,-304,137,1,7,11
3.15E+03,-7853,1746,-1567,147,-340,135,1,7,11
3.15E+03,-7855,2063,-1557,368,-365,133,1,7,11
3.15E+03,-7869,2104,-1266,309,-133,136,1,7,11
3.15E+03,-7873,2114,-1241,-7,-165,133,1,7,11
3.15E+03,-7872,2115,-1218,-69,-199,366,1,7,11
3.15E+03,-7853,2085,-1194,115,-230,316,1,7,11
3.15E+03,-7845,2058,-1170,54,-246,-22,1,7,11
3.15E+03,-7856,1761,-1370,3,-514,-113,1,7,11
3.15E+03,-7833,1699,-1330,-286,-524,72,1,7,11
3.15E+03,-8061,1877,-1024,-283,-240,10,1,7,11
3.15E+03,-8051,1451,-905,-267,-169,-296,1,7,11
3.15E+03,-8034,1243,-1058,-74,-356,-342,1,7,11
3.15E+03,-7942,1397,-1056,602,-286,-373,1,7,11
3.15E+03,-7612,1368,-901,1101,118,-135,1,7,11
3.15E+03,-7604,1405,-1007,1587,324,-373,1,7,11
3.15E+03,-7585,1260,-1402,1750,513,-306,1,7,11
3.15E+03,-7599,1621,-1269,2322,452,19,1,7,11
3.15E+03,-7659,1461,-1615,2262,879,93,1,7,11
3.15E+03,-8039,1533,-1412,2614,731,-54,1,7,11
3.15E+03,-7861,1852,-1448,2658,750,288,1,7,11
3.15E+03,-7912,1667,-1491,2677,679,378,1,7,11
3.15E+03,-7919,1737,-1804,2678,827,213,1,7,11
3.15E+03,-7889,1784,-1864,2585,444,540,1,7,11
3.15E+03,-7851,2082,-1909,2207,589,573,1,7,11
3.15E+03,-8057,2126,-1706,2031,240,572,1,7,11
3.16E+03,-8011,2173,-1756,2071,181,541,1,7,11
3.16E+03,-7971,1972,-2067,1807,155,238,1,7,11
3.16E+03,-7964,2013,-2094,1239,160,195,1,7,11
3.16E+03,-7962,2312,-2100,900,171,172,1,7,11
3.16E+03,-7961,2308,-2100,790,178,170,1,7,11
3.16E+03,-7956,2012,-2076,170,185,167,1,7,11
3.16E+03,-7954,1961,-2058,111,189,151,1,7,11
3.16E+03,-7938,2155,-1790,-153,182,129,1,7,11
3.16E+03,-7646,2081,-1787,-621,176,349,1,7,11
3.16E+03,-7617,1756,-1784,-779,196,291,1,7,11
3.16E+03,-7631,1694,-1758,-870,229,-35,1,7,11
3.16E+03,-7661,1916,-1722,-642,236,-88,1,7,11
3.16E+03,-7680,1874,-1707,-884,221,127,1,7,11
3.16E+03,-7960,1842,-1702,-834,191,94,1,7,11
3.16E+03,-7979,1809,-1686,-772,143,71,1,7,11
3.16E+03,-7999,1533,-1691,-438,342,46,1,7,11
3.16E+03,-8004,1800,-1701,-611,267,24,1,7,11
3.16E+03,-7975,1809,-1729,-541,-63,9,1,7,11
3.16E+03,-7952,1820,-1751,-238,-116,-265,1,7,11
3.16E+03,-7937,1825,-1762,-205,108,-279,1,7,11
3.16E+03,-7671,1839,-1777,-177,89,-283,1,7,11
3.16E+03,-7659,1876,-1789,-152,75,-261,1,7,11
3.16E+03,-7663,1912,-1792,-145,71,40,1,7,11
3.16E+03,-7666,1693,-2051,-139,69,109,1,7,11
3.16E+03,-7668,1732,-1782,-139,67,-60,1,7,11
3.16E+03,-7663,1764,-1791,-144,63,291,1,7,11
3.16E+03,-7650,1786,-2058,-161,57,376,1,7,11
3.16E+03,-7635,1787,-2075,-196,62,165,1,7,11
3.16E+03,-7627,1785,-2085,-236,78,168,1,7,11
3.16E+03,-7643,2050,-2085,-531,102,382,1,7,11
3.16E+03,-7669,2076,-2078,-561,118,315,1,7,11
3.16E+03,-7969,2096,-1783,-601,111,-15,1,7,11
3.16E+03,-7995,2099,-1747,-388,74,-90,1,7,11
3.16E+03,-7988,2088,-1715,-429,26,85,1,7,11
3.16E+03,-7966,2074,-1708,-475,-267,-260,1,7,11
3.16E+03,-7941,2062,-1705,-785,-279,-351,1,7,11
3.16E+03,-7667,1775,-1917,-854,-266,-163,1,7,11
3.16E+03,-7661,1723,-1865,-656,13,-214,1,7,11
3.16E+03,-7648,1680,-1816,-673,30,-240,1,7,11
3.16E+03,-7614,1877,-1520,-659,43,-252,1,7,11
3.17E+03,-7578,1803,-1497,-857,73,-527,1,7,11
3.17E+03,-7567,1497,-1491,-499,125,-554,1,7,11
3.17E+03,-7581,1484,-1508,-603,-76,-571,1,7,11
3.17E+03,-7570,1480,-1830,-185,-30,-563,1,7,11
3.17E+03,-7570,1481,-1861,-282,288,-549,1,7,11
3.17E+03,-7587,1522,-1914,-122,364,-532,1,7,11
3.17E+03,-7625,1813,-1700,260,177,-236,1,7,11
3.17E+03,-7674,1828,-1737,354,220,-181,1,7,11
3.17E+03,-7971,1844,-1743,178,233,-372,1,7,11
3.17E+03,-8011,1854,-1747,243,211,-306,1,7,11
3.17E+03,-8023,1869,-1762,551,380,28,1,7,11
3.17E+03,-8015,1891,-1780,584,314,58,1,7,11
3.17E+03,-7996,1909,-2053,573,258,73,1,7,11
3.17E+03,-7970,1914,-2069,525,-35,76,1,7,11
3.17E+03,-7946,1675,-2081,216,-58,73,1,7,11
3.17E+03,-7948,1693,-2082,149,-58,68,1,7,11
3.17E+03,-7955,1711,-2066,333,-63,79,1,7,11
3.17E+03,-7939,1724,-2062,267,-78,98,1,7,11
3.17E+03,-7658,1731,-2071,-52,-91,119,1,7,11
3.17E+03,-7640,1713,-2093,-115,-89,120,1,7,11
3.17E+03,-7635,1707,-2116,95,-83,99,1,7,11
3.17E+03,-7637,1698,-2124,59,-72,65,1,7,11
3.17E+03,-7651,1687,-2125,33,-65,32,1,7,11
3.17E+03,-7664,1668,-2118,15,-71,9,1,7,11
3.17E+03,-7666,1895,-2099,6,-85,-260,1,7,11
3.17E+03,-7946,1862,-2073,2,-104,-265,1,7,11
3.17E+03,-7972,1825,-1770,9,113,5,1,7,11
3.17E+03,-7977,1793,-1731,27,61,34,1,7,11
3.17E+03,-7963,1512,-1714,40,15,60,1,7,11
3.17E+03,-7676,1501,-1727,34,-272,79,1,7,11
3.17E+03,-7645,1496,-1735,-266,-275,89,1,7,11
3.17E+03,-7623,1485,-1734,-331,2,86,1,7,11
3.17E+03,-7646,1503,-1730,-129,46,71,1,7,11
3.17E+03,-7674,1794,-1723,-177,85,90,1,7,11
3.17E+03,-7665,1818,-1710,-208,111,-119,1,7,11
3.17E+03,-7634,1838,-1741,-238,-110,-72,1,7,11
3.17E+03,-7616,1843,-1747,-528,-50,-40,1,7,11
3.17E+03,-7617,1868,-1755,-545,15,-32,1,7,11
3.17E+03,-7631,1878,-1769,-555,292,-53,1,7,11
3.17E+03,-7678,1888,-1765,-563,290,-80,1,7,11
3.18E+03,-7966,1907,-1764,-546,-8,-100,1,7,11
3.18E+03,-7956,1668,-1778,-520,-71,-113,1,7,11
3.18E+03,-7680,1692,-2058,-218,-106,127,1,7,11
3.18E+03,-7668,1705,-2069,-196,-117,112,1,7,11
3.18E+03,-7656,1716,-2075,-168,-116,97,1,7,11
3.18E+03,-7675,1729,-2077,-137,-98,83,1,7,11
3.18E+03,-7939,1738,-2072,-358,-100,76,1,7,11
3.18E+03,-7678,1728,-2070,-333,-121,71,1,7,11
3.18E+03,-7660,1712,-2077,-310,118,55,1,7,11
3.18E+03,-7656,1686,-2077,-307,111,18,1,7,11
3.18E+03,-7658,1672,-2080,-301,101,-276,1,7,11
3.18E+03,-7941,1917,-2076,-310,98,-301,1,7,11
3.18E+03,-7937,1900,-2068,-331,72,-303,1,7,11
3.18E+03,-7939,1901,-2061,-348,45,-297,1,7,11
3.18E+03,-7955,1909,-1781,-131,20,-275,1,7,11
3.18E+03,-7967,1919,-1745,-164,-280,22,1,7,11
3.18E+03,-7964,1689,-1734,-188,-327,77,1,7,11
3.18E+03,-7956,1724,-1737,-216,-356,-112,1,7,11
3.18E+03,-7667,1736,-1751,-513,-373,-59,1,7,11
3.18E+03,-7651,1748,-1737,-548,-364,-42,1,7,11
3.18E+03,-7641,1753,-1720,-570,-348,-48,1,7,11
3.18E+03,-7645,1750,-1680,-578,-334,-75,1,7,11
3.18E+03,-7650,1722,-1896,-572,-327,-115,1,7,11
3.18E+03,-7636,1705,-1887,-523,-330,90,1,7,11
3.18E+03,-7636,1704,-1859,-214,-306,23,1,7,11
3.18E+03,-7955,1702,-1830,-166,-273,-297,1,7,11
3.18E+03,-7941,1697,-1506,-377,5,-358,1,7,11
3.18E+03,-7941,1687,-1495,-157,43,-337,1,7,11
3.18E+03,-7938,1681,-1489,-181,79,-304,1,7,11
3.18E+03,-7666,1682,-1506,-191,110,1,1,7,11
3.18E+03,-7598,1917,-1794,-204,-119,54,1,7,11
3.18E+03,-7798,1886,-1827,-199,-58,78,1,7,11
3.18E+03,-7779,1858,-1861,-175,275,82,1,7,11
3.18E+03,-7553,1841,-1896,-380,353,74,1,7,11
3.18E+03,-7591,1834,-1681,-299,151,75,1,7,11
3.18E+03,-7637,1844,-1709,68,186,83,1,7,11
3.18E+03,-7940,1859,-1742,-68,200,106,1,7,11
3.18E+03,-7978,1881,-1762,317,189,-120,1,7,11
3.18E+03,-7995,1915,-2052,201,153,-88,1,7,11
3.18E+03,-7993,1708,-2075,580,369,-60,1,7,11
3.19E+03,-7989,1766,-2086,418,331,-37,1,7,11
3.19E+03,-7978,2072,-2097,474,289,-17,1,7,11
3.19E+03,-7943,2116,-2103,486,-7,-7,1,7,11
3.19E+03,-7652,2149,-2108,447,-44,-17,1,7,11
3.19E+03,-7620,1926,-2127,619,-72,-55,1,7,11
3.19E+03,-7583,1940,-2148,222,-89,-111,1,7,11
3.19E+03,-7808,1934,-2165,289,-83,67,1,7,11
3.19E+03,-7794,2159,-2175,71,-66,-320,1,7,11
3.19E+03,-7801,2124,-2172,-155,-29,-144,1,7,11
3.19E+03,-7563,2076,-2156,-616,283,-195,1,7,11
3.19E+03,-7594,1774,-2144,-785,319,-211,1,7,11
3.19E+03,-7631,1736,-2132,-651,339,-186,1,7,11
3.19E+03,-7659,1694,-2119,-751,342,-139,1,7,11
3.19E+03,-7947,1664,-2113,-762,325,-350,1,7,11
3.19E+03,-7970,1895,-2106,-746,286,-313,1,7,11
3.19E+03,-7969,1881,-2113,-706,-34,-297,1,7,11
3.19E+03,-7987,1877,-2115,-654,-91,-292,1,7,11
3.19E+03,-7994,1885,-2102,-855,103,-271,1,7,11
3.19E+03,-8006,1889,-2078,-791,43,22,1,7,11
3.19E+03,-8019,1894,-1775,-466,-273,75,1,7,11
3.19E+03,-8010,1886,-1728,-389,-347,-127,1,7,11
3.19E+03,-7975,1866,-1680,-559,-166,-90,1,7,11
3.19E+03,-7944,1861,-1673,-216,-217,-84,1,7,11
3.19E+03,-7647,1868,-1673,-136,-240,-101,1,7,11
3.19E+03,-7619,1887,-1918,-324,-228,-127,1,7,11
3.19E+03,-7607,1915,-1901,-268,-185,113,1,7,11
3.19E+03,-7604,1678,-1868,38,-135,110,1,7,11
3.19E+03,-7592,1681,-1845,86,-349,116,1,7,11
3.19E+03,-7587,1675,-1838,-123,-304,112,1,7,11
3.19E+03,-7592,1696,-1845,-76,-262,88,1,7,11
3.19E+03,-7615,1718,-1844,-47,32,62,1,7,11
3.19E+03,-7642,1745,-1854,-41,52,49,1,7,11
3.19E+03,-7654,1774,-1871,-45,66,53,1,7,11
3.19E+03,-7648,2052,-1888,-69,90,58,1,7,11
3.19E+03,-7665,2071,-1896,-110,119,66,1,7,11
3.19E+03,-7949,2078,-1895,86,-109,79,1,7,11
3.19E+03,-7976,2077,-1871,20,-92,96,1,7,11
3.19E+03,-7991,2059,-1848,-299,-104,109,1,7,11
3.19E+03,-7977,1782,-1849,-352,117,101,1,7,11
3.19E+03,-7947,1769,-1855,-149,92,66,1,7,11
3.20E+03,-7937,1769,-1868,-214,89,20,1,7,11
3.20E+03,-7670,1760,-1864,-525,103,-260,1,7,11
3.20E+03,-7651,1738,-1866,-562,-124,-258,1,7,11
3.20E+03,-7604,1691,-1872,-571,-86,9,1,7,11
3.20E+03,-7577,1907,-1886,-546,-27,15,1,7,11
3.20E+03,-7573,1869,-1907,-232,291,15,1,7,11
3.20E+03,-7592,1849,-1674,-148,340,18,1,7,11
3.20E+03,-7640,1861,-1710,-304,374,40,1,7,11
3.20E+03,-7660,1873,-1722,59,132,84,1,7,11
3.20E+03,-7946,1893,-1746,-99,372,-117,1,7,11
3.20E+03,-7961,1903,-1765,-15,328,-65,1,7,11
3.20E+03,-7948,1907,-1782,312,266,-50,1,7,11
3.20E+03,-7953,1683,-2053,350,-57,-88,1,7,11
3.20E+03,-8029,1713,-1777,349,94,21,1,7,11
3.20E+03,-8014,1765,-1786,287,-292,-322,1,7,11
3.20E+03,-7981,2059,-2052,-60,-133,-147,1,7,11
3.20E+03,-7968,2058,-1774,66,-186,-208,1,7,11
3.20E+03,-7953,1775,-1749,-323,-217,-247,1,7,11
3.20E+03,-7943,1734,-1708,-183,-214,-527,1,7,11
3.20E+03,-7941,1694,-1917,-528,-195,-530,1,7,11
3.20E+03,-7951,1907,-1861,-592,-169,-517,1,7,11
3.20E+03,-7942,1854,-1820,-637,-157,-235,1,7,11
3.20E+03,-7671,1803,-1797,-399,-150,-216,1,7,11
3.20E+03,-7663,1513,-1529,-400,-139,-215,1,7,11
3.20E+03,-7666,1497,-1534,-385,-384,-227,1,7,11
3.20E+03,-7943,1485,-1803,-634,-380,-232,1,7,11
3.20E+03,-7972,1478,-1804,-634,-378,-234,1,7,11
3.20E+03,-8007,1478,-1812,-631,-140,-224,1,7,11
3.20E+03,-8051,1489,-1805,-615,-181,-198,1,7,11
3.20E+03,-7828,1501,-1530,-597,-236,-150,1,7,11
3.20E+03,-7847,1515,-1517,-560,-555,-344,1,7,11
3.20E+03,-7850,1811,-1522,-516,-610,-274,1,7,11
3.20E+03,-7839,1863,-1534,-225,-392,68,1,7,11
3.20E+03,-7817,1905,-1794,-206,-406,-93,1,7,11
3.20E+03,-8045,1684,-1524,-197,-389,-1,1,7,11
3.20E+03,-8036,1709,-1485,-185,-613,343,1,7,11
3.20E+03,-8014,1729,-1445,-163,-587,174,1,7,11
3.20E+03,-7998,1744,-1659,-131,-560,243,1,7,11
3.20E+03,-7985,1765,-1624,-345,-538,549,1,7,11
3.20E+03,-7954,1791,-1604,-300,-256,580,1,7,11
3.21E+03,-7669,2074,-1602,-261,-212,590,1,7,11
3.21E+03,-7632,2103,-1601,26,-155,593,1,7,11
3.21E+03,-7598,2123,-1599,48,-331,589,1,7,11
3.21E+03,-7599,2141,-1588,66,31,573,1,7,11
3.21E+03,-7604,2166,-1586,92,127,562,1,7,11
3.21E+03,-7614,1935,-1589,122,-43,557,1,7,11
3.21E+03,-7626,1974,-1616,-112,288,557,1,7,11
3.21E+03,-7625,2021,-1657,-104,358,556,1,7,11
3.21E+03,-7631,2323,-1440,-115,170,556,1,7,11
3.21E+03,-7646,2355,-1468,104,231,559,1,7,11
3.21E+03,-7671,2362,-1487,64,537,559,1,7,11
3.21E+03,-7943,2369,-1491,35,565,558,1,7,11
3.21E+03,-7938,2376,-1504,25,576,555,1,7,11
3.21E+03,-7938,2380,-1514,29,578,549,1,7,11
3.21E+03,-7939,2369,-1506,35,580,539,1,7,11
3.21E+03,-7938,2365,-1498,52,568,522,1,7,11
3.21E+03,-7942,2356,-1503,78,539,244,1,7,11
3.21E+03,-7948,2374,-1513,109,243,217,1,7,11
3.21E+03,-7680,2384,-1534,-119,190,196,1,7,11
3.21E+03,-7660,2393,-1808,-107,139,179,1,7,11
3.21E+03,-7634,2412,-1821,-105,359,165,1,7,11
3.21E+03,-7611,2415,-1829,-114,333,157,1,7,11
3.21E+03,-7617,2416,-1828,-127,309,147,1,7,11
3.21E+03,-7627,2422,-1825,-125,279,137,1,7,11
3.21E+03,-7627,2176,-1822,-111,-20,133,1,7,11
3.21E+03,-7622,2179,-1816,-88,-63,131,1,7,11
3.21E+03,-7624,2182,-1806,-55,-96,129,1,7,11
3.21E+03,-7629,2182,-1801,-10,-124,130,1,7,11
3.21E+03,-7620,2181,-1797,300,105,379,1,7,11
3.21E+03,-7589,2192,-1802,363,91,358,1,7,11
3.21E+03,-7567,2208,-1803,193,94,303,1,7,11
3.21E+03,-7807,2227,-1826,227,105,258,1,7,11
3.21E+03,-7802,2240,-1834,238,127,-38,1,7,11
3.21E+03,-7796,2255,-1844,221,-102,-67,1,7,11
3.21E+03,-7787,2262,-1857,181,-72,-81,1,7,11
3.21E+03,-7786,2258,-1873,373,-34,-90,1,7,11
3.21E+03,-7797,2251,-1888,309,261,-87,1,7,11
3.21E+03,-7801,2235,-1899,-18,293,-71,1,7,11
3.21E+03,-7796,2210,-1905,-93,320,-54,1,7,11
3.21E+03,-7792,2422,-1899,94,341,-56,1,7,11
3.22E+03,-7806,2416,-1896,47,349,-87,1,7,11
3.22E+03,-7574,2416,-1905,19,338,124,1,7,11
3.22E+03,-7572,2417,-1915,5,308,83,1,7,11
3.22E+03,-7569,2427,-1676,1,282,55,1,7,11
3.22E+03,-7567,2177,-1700,-264,270,41,1,7,11
3.22E+03,-7808,2425,-1706,-271,267,42,1,7,11
3.22E+03,-7556,2411,-1705,-279,278,41,1,7,11
3.22E+03,-7571,2388,-1695,-287,279,32,1,7,11
3.22E+03,-7589,2362,-1684,-286,262,4,1,7,11
3.22E+03,-7602,2354,-1685,-273,-30,-291,1,7,11
3.22E+03,-7600,2353,-1689,-258,-73,-328,1,7,11
3.22E+03,-7598,2360,-1692,14,127,-368,1,7,11
3.22E+03,-7589,2359,-1696,12,103,-375,1,7,11
3.22E+03,-7575,2353,-1693,9,91,-371,1,7,11
3.22E+03,-7572,2346,-1684,13,87,-364,1,7,11
3.22E+03,-7563,2337,-1673,26,82,-348,1,7,11
3.22E+03,-7561,2331,-1676,47,81,-332,1,7,11
3.22E+03,-7562,2336,-1680,72,86,-319,1,7,11
3.22E+03,-7559,2336,-1689,90,91,-307,1,7,11
3.22E+03,-7562,2344,-1700,104,98,-302,1,7,11
3.22E+03,-7555,2351,-1702,103,103,-301,1,7,11
3.22E+03,-7798,2341,-1708,87,106,-317,1,7,11
3.22E+03,-7800,2332,-1706,78,112,-346,1,7,11
3.22E+03,-7566,2322,-1688,71,120,-374,1,7,11
3.22E+03,-7565,2018,-1684,91,127,-137,1,7,11
3.22E+03,-7565,2005,-1684,-105,-121,-151,1,7,11
3.22E+03,-7804,1996,-1697,-40,-95,-159,1,7,11
3.22E+03,-7568,1998,-1701,283,-57,-163,1,7,11
3.22E+03,-7596,1993,-1686,342,-43,-155,1,7,11
3.22E+03,-7617,1983,-1675,133,-52,-144,1,7,11
3.22E+03,-7624,1969,-1917,165,-85,-141,1,7,11
3.22E+03,-7642,1936,-1889,170,-126,-159,1,7,11
3.22E+03,-7644,2161,-1872,162,77,-185,1,7,11
3.22E+03,-7627,2126,-1858,136,30,-222,1,7,11
3.22E+03,-7603,2106,-1863,358,3,-519,1,7,11
3.22E+03,-7569,2110,-1892,307,17,-541,1,7,11
3.22E+03,-7804,2122,-1919,-24,67,-538,1,7,11
3.22E+03,-7556,2135,-1680,-107,-118,-241,1,7,11
3.22E+03,-7555,2128,-1718,59,-54,-172,1,7,11
3.22E+03,-7799,2118,-1739,-269,-7,-359,1,7,11
3.23E+03,-7772,2113,-1782,-322,283,-299,1,7,11
3.23E+03,-7783,2125,-2088,-359,323,10,1,7,11
3.23E+03,-7573,2133,-2093,-359,357,122,1,7,11
3.23E+03,-7610,2139,-2083,-302,358,-32,1,7,11
3.23E+03,-7633,2159,-2084,62,332,334,1,7,11
3.23E+03,-7650,2171,-2108,-61,286,168,1,7,11
3.23E+03,-7667,1940,-2115,340,-26,222,1,7,11
3.23E+03,-7943,1978,-2119,221,-91,240,1,7,11
3.23E+03,-7942,2029,-2129,588,90,230,1,7,11
3.23E+03,-7669,2326,-2140,398,20,194,1,7,11
3.23E+03,-7647,2357,-2148,405,-295,129,1,7,11
3.23E+03,-7632,2377,-2136,608,-327,294,1,7,11
3.23E+03,-7614,2382,-2111,245,-352,-68,1,7,11
3.23E+03,-7607,2366,-2064,367,-365,80,1,7,11
3.23E+03,-7593,2345,-1761,-25,-378,-278,1,7,11
3.23E+03,-7569,2032,-1717,91,-132,-369,1,7,11
3.23E+03,-7558,1983,-1918,-278,-379,-213,1,7,11
3.23E+03,-7806,1937,-1884,-367,-366,-543,1,7,11
3.23E+03,-7792,2161,-1878,-170,-342,-584,1,7,11
3.23E+03,-7783,2127,-1866,-223,-292,-592,1,7,11
3.23E+03,-7773,2103,-1861,-526,24,-567,1,7,11
3.23E+03,-7797,2080,-1852,-559,97,-519,1,7,11
3.23E+03,-7586,2055,-1842,-576,-106,-184,1,7,11
3.23E+03,-7601,1783,-1854,-564,-95,-349,1,7,11
3.23E+03,-7591,1774,-1885,-526,-82,-265,1,7,11
3.23E+03,-7587,1780,-1912,-218,-56,64,1,7,11
3.23E+03,-7593,1786,-1676,-155,-30,126,1,7,11
3.23E+03,-7598,1784,-1690,-339,-20,-81,1,7,11
3.23E+03,-7611,1774,-1694,6,-24,-58,1,7,11
3.23E+03,-7630,1788,-1711,-128,-50,-56,1,7,11
3.23E+03,-7639,2077,-1731,-9,-97,-53,1,7,11
3.23E+03,-7629,2114,-1757,357,110,-47,1,7,11
3.23E+03,-7615,2165,-1790,196,80,-34,1,7,11
3.23E+03,-7608,1952,-2070,522,72,-10,1,7,11
3.23E+03,-7597,1990,-2096,573,65,274,1,7,11
3.23E+03,-7575,2020,-2113,597,57,294,1,7,11
3.23E+03,-7564,2041,-2123,600,64,291,1,7,11
3.23E+03,-7574,2319,-2134,586,71,275,1,7,11
3.23E+03,-7582,2348,-2148,557,71,260,1,7,11
3.23E+03,-7585,2377,-2167,513,68,-14,1,7,11
3.24E+03,-7574,2397,-1929,201,67,-39,1,7,11
3.24E+03,-7571,2409,-1940,381,81,-80,1,7,11
3.24E+03,-7588,2417,-1928,298,92,124,1,7,11
3.24E+03,-7615,2408,-2160,-44,90,72,1,7,11
3.24E+03,-7638,2390,-2131,-125,60,13,1,7,11
3.24E+03,-7645,2360,-2100,62,-257,-305,1,7,11
3.24E+03,-7629,2319,-2061,0,-325,-374,1,7,11
3.24E+03,-7619,2025,-1776,-309,-384,-190,1,7,11
3.24E+03,-7607,1967,-1725,-348,-166,-247,1,7,11
3.24E+03,-7606,1921,-1676,-130,-177,-539,1,7,11
3.24E+03,-7601,2134,-1897,-155,-182,-554,1,7,11
3.24E+03,-7596,2096,-1865,-170,-178,-558,1,7,11
3.24E+03,-7597,2059,-1841,-186,-158,-553,1,7,11
3.24E+03,-7598,1761,-1832,-222,-378,-536,1,7,11
3.24E+03,-7595,1739,-1842,-244,-348,-524,1,7,11
3.24E+03,-7590,1728,-1865,-531,-311,-248,1,7,11
3.24E+03,-7598,1712,-1888,-557,-260,-231,1,7,11
3.24E+03,-7619,1706,-1904,-566,52,-196,1,7,11
3.24E+03,-7656,1692,-1891,-555,102,-140,1,7,11
3.24E+03,-7940,1674,-1872,-243,-128,-325,1,7,11
3.24E+03,-7979,1910,-1837,-134,-124,1,1,7,11
3.24E+03,-8013,1904,-1807,17,108,68,1,7,11
3.24E+03,-8005,1919,-1825,-65,56,121,1,7,11
3.24E+03,-7973,1700,-1842,360,19,-106,1,7,11
3.24E+03,-7958,1761,-1854,239,12,-87,1,7,11
3.24E+03,-7940,2083,-1867,577,2,-71,1,7,11
3.24E+03,-7672,2116,-1876,606,-271,-69,1,7,11
3.24E+03,-7654,2149,-1888,590,-291,-86,1,7,11
3.24E+03,-7647,2165,-1900,543,-304,-118,1,7,11
3.24E+03,-7644,1936,-1911,218,-309,110,1,7,11
3.24E+03,-7632,1943,-1910,382,-299,99,1,7,11
3.24E+03,-7618,1935,-1907,295,-273,93,1,7,11
3.24E+03,-7618,1934,-1909,-37,26,89,1,7,11
3.24E+03,-7621,1922,-1905,-104,65,80,1,7,11
3.24E+03,-7647,2155,-1894,96,95,57,1,7,11
3.24E+03,-7676,2137,-1885,47,100,18,1,7,11
3.24E+03,-7955,2117,-1880,2,77,-287,1,7,11
3.24E+03,-7960,2096,-1875,-314,40,-342,1,7,11
3.24E+03,-7953,2077,-1877,-381,10,-136,1,7,11
3.24E+03,-7674,2055,-1879,-202,-260,-161,1,7,11
3.25E+03,-7640,1763,-1876,-534,2,-167,1,7,11
3.25E+03,-7592,1708,-1890,-600,33,-159,1,7,11
3.25E+03,-7585,1910,-1893,-640,113,-156,1,7,11
3.25E+03,-7635,1882,-1874,-636,-51,-135,1,7,11
3.25E+03,-7948,1881,-1854,-586,266,-337,1,7,11
3.25E+03,-7982,1887,-1837,-513,286,-258,1,7,11
3.25E+03,-7996,1894,-1816,-163,272,76,1,7,11
3.25E+03,-8002,1687,-1822,-303,-25,-120,1,7,11
3.25E+03,-7993,1712,-1823,73,-82,-79,1,7,11
3.25E+03,-7983,1752,-1842,-91,120,-58,1,7,11
3.25E+03,-7976,2051,-1840,-29,70,-54,1,7,11
3.25E+03,-7957,2099,-1832,260,24,-62,1,7,11
3.25E+03,-7954,2143,-1841,-4,-274,-85,1,7,11
3.25E+03,-7679,1928,-1850,-56,-305,-118,1,7,11
3.25E+03,-7670,1943,-1852,111,-316,92,1,7,11
3.25E+03,-7664,1946,-1846,-266,-308,48,1,7,11
3.25E+03,-7660,1929,-1821,-150,-288,10,1,7,11
3.25E+03,-7657,2158,-1794,-547,-262,-272,1,7,11
3.25E+03,-7677,2109,-1516,-489,42,-315,1,7,11
3.25E+03,-7949,2074,-1498,-838,67,-333,1,7,11
3.25E+03,-7955,2057,-1494,-890,88,-340,1,7,11
3.25E+03,-7957,1790,-1485,-655,119,-328,1,7,11
3.25E+03,-7959,1785,-1477,-649,-109,-299,1,7,11
3.25E+03,-7944,1764,-1479,-876,-98,-260,1,7,11
3.25E+03,-7678,1739,-1476,-821,-93,24,1,7,11
3.25E+03,-7665,1723,-1489,-488,-93,42,1,7,11
3.25E+03,-7637,1718,-1499,-398,-101,56,1,7,11
3.25E+03,-7605,1723,-1528,-563,-90,66,1,7,11
3.25E+03,-7588,1728,-1810,-222,-49,85,1,7,11
3.25E+03,-7587,1736,-1834,-139,265,113,1,7,11
3.25E+03,-7618,1750,-1835,-316,332,-111,1,7,11
3.25E+03,-7651,1764,-1841,17,128,-68,1,7,11
3.25E+03,-7674,1780,-1852,96,155,-24,1,7,11
3.25E+03,-7951,2052,-1855,-93,163,-3,1,7,11
3.25E+03,-7981,2080,-1872,-38,153,-4,1,7,11
3.25E+03,-7997,2131,-1891,-3,376,-21,1,7,11
3.25E+03,-8008,1926,-1910,257,329,-46,1,7,11
3.25E+03,-7995,1979,-1917,-18,269,-75,1,7,11
3.25E+03,-7980,2012,-1917,-66,-34,-114,1,7,11
3.25E+03,-7964,2038,-1908,121,-81,104,1,7,11
3.26E+03,-7661,2039,-1665,35,120,66,1,7,11
3.26E+03,-7589,2012,-1686,-319,83,11,1,7,11
3.26E+03,-7796,1973,-1705,-157,98,-319,1,7,11
3.26E+03,-7772,1936,-1707,-229,-108,-373,1,7,11
3.26E+03,-7780,2154,-1691,-525,-39,-141,1,7,11
3.26E+03,-7566,2126,-1914,-525,286,-378,1,7,11
3.26E+03,-7606,2087,-1895,-235,318,-327,1,7,11
3.26E+03,-7620,2055,-1666,-164,315,-283,1,7,11
3.26E+03,-7626,1790,-1710,-345,307,-276,1,7,11
3.26E+03,-7664,2057,-1736,-278,302,-291,1,7,11
3.26E+03,-7980,2074,-1744,30,283,-300,1,7,11
3.26E+03,-8035,2100,-1749,83,-23,-290,1,7,11
3.26E+03,-8048,2102,-1741,-127,-102,-269,1,7,11
3.26E+03,-8051,2099,-1726,-89,67,-272,1,7,11
3.26E+03,-8014,2101,-1721,-66,-290,-294,1,7,11
3.26E+03,-7947,2087,-1727,-77,-375,-345,1,7,11
3.26E+03,-7652,2078,-1730,-119,-153,-162,1,7,11
3.26E+03,-7661,2073,-1699,77,-153,-212,1,7,11
3.26E+03,-7679,2070,-1916,22,-150,-218,1,7,11
3.26E+03,-7952,2061,-1868,-267,-145,-179,1,7,11
3.26E+03,-7958,1779,-1818,-268,-135,-365,1,7,11
3.26E+03,-7961,1757,-1515,16,-129,-295,1,7,11
3.26E+03,-7952,1739,-1492,69,-384,2,1,7,11
3.26E+03,-7942,1738,-1482,120,-383,5,1,7,11
3.26E+03,-7943,1756,-1487,-104,-378,-275,1,7,11
3.26E+03,-7679,2055,-1503,-109,-371,-314,1,7,11
3.26E+03,-7959,2093,-1508,90,-352,-356,1,7,11
3.26E+03,-7978,2100,-1493,-266,-338,-132,1,7,11
3.26E+03,-8015,2076,-1450,-382,-337,-171,1,7,11
3.26E+03,-8055,2054,-1429,-235,-344,-187,1,7,11
3.26E+03,-8056,1763,-1409,-604,-355,-199,1,7,11
3.26E+03,-8020,1738,-1411,-446,-360,-215,1,7,11
3.26E+03,-7963,1711,-1409,-781,-351,-237,1,7,11
3.26E+03,-7661,1684,-1412,-845,-284,-251,1,7,11
3.26E+03,-7607,1664,-1439,-885,30,-250,1,7,11
3.26E+03,-7596,1909,-1466,-888,68,-241,1,7,11
3.26E+03,-7606,1884,-1489,-895,-109,-221,1,7,11
3.26E+03,-7637,1886,-1513,-874,10,-200,1,7,11
3.26E+03,-7953,1893,-1509,-834,330,-156,1,7,11
3.26E+03,-7991,1881,-1514,-775,351,-339,1,7,11
3.27E+03,-7999,1854,-1527,-397,336,-268,1,7,11
3.27E+03,-8003,1834,-1804,-548,318,33,1,7,11
3.27E+03,-8010,1828,-1832,-181,302,62,1,7,11
3.27E+03,-8022,1833,-1828,-331,289,78,1,7,11
3.27E+03,-8047,1831,-1814,19,266,98,1,7,11
3.27E+03,-8056,1827,-1808,118,-32,122,1,7,11
3.27E+03,-8050,1846,-1799,-87,-56,-121,1,7,11
3.27E+03,-8035,1852,-1536,-3,-108,-120,1,7,11
3.27E+03,-8010,1863,-1536,321,103,126,1,7,11
3.27E+03,-7989,1881,-1515,368,58,109,1,7,11
3.27E+03,-8002,1899,-1481,135,43,103,1,7,11
3.27E+03,-8006,1682,-1473,153,11,-128,1,7,11
3.27E+03,-7981,1731,-1492,167,-274,-87,1,7,11
3.27E+03,-7965,1773,-1506,371,-284,-43,1,7,11
3.27E+03,-7940,2060,-1534,304,-293,-4,1,7,11
3.27E+03,-7938,2093,-1798,220,-292,266,1,7,11
3.27E+03,-7947,2129,-1818,-116,-296,268,1,7,11
3.27E+03,-7958,2149,-1834,60,-297,265,1,7,11
3.27E+03,-7957,2158,-1840,-270,-294,-1,1,7,11
3.27E+03,-7947,2156,-1839,-325,-289,-20,1,7,11
3.27E+03,-7665,2131,-1849,-369,-291,-68,1,7,11
3.27E+03,-7678,2110,-1844,-139,-270,111,1,7,11
3.27E+03,-8004,2114,-1819,-145,9,34,1,7,11
3.27E+03,-7828,2130,-1533,-144,-267,-257,1,7,11
3.27E+03,-7872,2140,-1509,-130,-322,2,1,7,11
3.27E+03,-7883,2134,-1479,-372,-140,20,1,7,11
3.27E+03,-7885,2120,-1435,-355,-217,26,1,7,11
3.27E+03,-7861,2102,-1651,-335,-550,17,1,7,11
3.27E+03,-7815,2089,-1629,-312,-617,-266,1,7,11
3.27E+03,-8038,2076,-1582,-308,-393,-302,1,7,11
3.27E+03,-8032,2067,-1261,-311,-403,-330,1,7,11
3.27E+03,-8021,2059,-1208,-313,-417,-340,1,7,11
3.27E+03,-7986,2049,-1180,-317,-420,-345,1,7,11
3.27E+03,-7973,1788,-1153,-333,-385,-354,1,7,11
3.27E+03,-7970,1778,-1387,-373,-589,-363,1,7,11
3.27E+03,-7966,1756,-1369,-173,-526,-376,1,7,11
3.27E+03,-7970,1738,-1352,-241,-191,-142,1,7,11
3.27E+03,-7979,1720,-1327,-572,-362,-165,1,7,11
3.27E+03,-8008,1699,-1294,-396,-278,-182,1,7,11
3.27E+03,-8029,1678,-1286,-469,43,-177,1,7,11
3.28E+03,-8018,1898,-1299,-800,100,-162,1,7,11
3.28E+03,-8008,1849,-1316,-859,-82,-157,1,7,11
3.28E+03,-8001,1810,-1331,-882,-4,-154,1,7,11
3.28E+03,-8008,1794,-1355,-870,329,-148,1,7,11
3.28E+03,-8022,1797,-1388,-824,134,-382,1,7,11
3.28E+03,-8026,1804,-1174,-501,171,-343,1,7,11
3.28E+03,-8032,1813,-1206,-416,194,-304,1,7,11
3.28E+03,-8044,1829,-1247,-560,200,-265,1,7,11
3.28E+03,-7815,1857,-1260,-164,187,30,1,7,11
3.28E+03,-7859,1886,-1270,-266,138,78,1,7,11
3.28E+03,-7887,1903,-1269,-100,309,124,1,7,11
3.28E+03,-7915,1903,-1252,323,-50,-108,1,7,11
3.28E+03,-7924,1888,-1256,231,80,-114,1,7,11
3.28E+03,-7898,1891,-1537,390,-292,90,1,7,11
3.28E+03,-7851,1883,-1578,492,-368,17,1,7,11
3.28E+03,-8062,1882,-1605,807,-372,-330,1,7,11
3.28E+03,-8049,1885,-1598,812,-317,-148,1,7,11
3.28E+03,-7815,1881,-1551,791,8,-194,1,7,11
3.28E+03,-7836,1877,-1544,503,41,-204,1,7,11
3.28E+03,-7844,1896,-1540,468,47,-192,1,7,11
3.28E+03,-7820,1919,-1562,410,46,-163,1,7,11
3.28E+03,-8048,1685,-1611,588,59,-133,1,7,11
3.28E+03,-7997,1704,-1627,232,88,-356,1,7,11
3.28E+03,-7965,1699,-1651,370,-117,-337,1,7,11
3.28E+03,-7975,1688,-1653,-4,-62,-333,1,7,11
3.28E+03,-7995,1665,-1660,-109,-40,-341,1,7,11
3.28E+03,-8021,1897,-1661,61,-37,-362,1,7,11
3.28E+03,-8058,1858,-1643,-269,-49,-133,1,7,11
3.28E+03,-7831,1812,-1622,-319,-77,-151,1,7,11
3.28E+03,-7859,1503,-1593,-352,-113,-169,1,7,11
3.28E+03,-7921,1427,-1249,-365,106,-169,1,7,11
3.28E+03,-8193,1647,-1197,-326,18,-150,1,7,11
3.28E+03,-7924,1636,-1169,-281,-294,-369,1,7,11
3.28E+03,-7885,1620,-1408,15,-334,-318,1,7,11
3.28E+03,-7845,1630,-1407,52,-337,-265,1,7,11
3.28E+03,-8063,1657,-1169,79,-307,49,1,7,11
3.28E+03,-8017,1422,-1191,89,3,117,1,7,11
3.28E+03,-7990,1448,-1201,98,88,-78,1,7,11
3.28E+03,-7984,1457,-1210,114,-83,-26,1,7,11
3.28E+03,-7983,1459,-1229,-103,-15,259,1,7,11
3.29E+03,-7971,1456,-1258,-42,287,-2,1,7,11
3.29E+03,-7993,1465,-1542,300,332,-40,1,7,11
3.29E+03,-8018,1491,-1574,141,363,-77,1,7,11
3.29E+03,-8049,1519,-1601,238,379,-109,1,7,11
3.29E+03,-7812,1809,-1642,582,130,127,1,7,11
3.29E+03,-7831,1833,-1424,386,382,115,1,7,11
3.29E+03,-7845,1854,-1460,419,371,105,1,7,11
3.29E+03,-7841,1876,-1493,414,351,87,1,7,11
3.29E+03,-7816,1885,-1549,614,333,64,1,7,11
3.29E+03,-8059,1896,-1812,255,337,41,1,7,11
3.29E+03,-8058,1893,-1815,369,350,25,1,7,11
3.29E+03,-7811,1859,-1811,-42,357,24,1,7,11
3.29E+03,-8058,1822,-1815,67,354,32,1,7,11
3.29E+03,-8033,1533,-1811,-363,361,40,1,7,11
3.29E+03,-8052,1507,-1794,-186,369,46,1,7,11
3.29E+03,-7811,1478,-1512,-233,357,66,1,7,11
3.29E+03,-7824,1450,-1500,-239,327,85,1,7,11
3.29E+03,-7831,1424,-1485,-221,270,99,1,7,11
3.29E+03,-7818,1408,-1485,-176,-56,94,1,7,11
3.29E+03,-7813,1660,-1498,-380,-116,62,1,7,11
3.29E+03,-8063,1419,-1504,-333,85,32,1,7,11
3.29E+03,-7811,1434,-1499,-295,48,15,1,7,11
3.29E+03,-8063,1441,-1499,-260,19,25,1,7,11
3.29E+03,-8051,1447,-1492,29,6,47,1,7,11
3.29E+03,-7809,1462,-1472,59,7,77,1,7,11
3.29E+03,-7839,1461,-1435,87,-261,113,1,7,11
3.29E+03,-7844,1469,-1424,114,-295,-108,1,7,11
3.29E+03,-7832,1479,-1420,-123,-332,-88,1,7,11
3.29E+03,-7832,1498,-1411,127,-351,-83,1,7,11
3.29E+03,-7847,1517,-1651,100,-365,-89,1,7,11
3.29E+03,-7876,1530,-1600,62,-378,-95,1,7,11
3.29E+03,-7881,1535,-1566,18,-156,-89,1,7,11
3.29E+03,-7853,1522,-1280,-280,-197,-91,1,7,11
3.29E+03,-8044,1518,-1550,-312,-211,-112,1,7,11
3.29E+03,-7999,1524,-1556,-346,-179,112,1,7,11
3.29E+03,-7967,1518,-1557,-381,-366,81,1,7,11
3.29E+03,-7969,1507,-1550,-141,-273,61,1,7,11
3.29E+03,-7981,1500,-1548,-373,72,63,1,7,11
3.29E+03,-8002,1503,-1549,-313,-117,89,1,7,11
3.29E+03,-8001,1503,-1563,29,-71,124,1,7,11
3.30E+03,-7997,1512,-1583,-119,-30,-112,1,7,11
3.30E+03,-8013,1521,-1613,-5,258,-108,1,7,11
3.30E+03,-8033,1793,-1632,358,264,-121,1,7,11
3.30E+03,-8059,1810,-1648,187,256,103,1,7,11
3.30E+03,-8061,1839,-1431,247,-24,63,1,7,11
3.30E+03,-8060,1878,-1461,254,-42,23,1,7,11
3.30E+03,-8047,1901,-1481,205,-46,5,1,7,11
3.30E+03,-8061,1912,-1475,374,-36,-265,1,7,11
3.30E+03,-7831,1905,-1448,264,-32,-265,1,7,11
3.30E+03,-7834,1880,-1424,-113,-59,-257,1,7,11
3.30E+03,-7819,1819,-1420,14,-79,-263,1,7,11
3.30E+03,-8052,1519,-1420,-367,-82,-302,1,7,11
3.30E+03,-8041,1503,-1422,-225,-62,-349,1,7,11
3.30E+03,-8013,1469,-1660,-578,-24,-383,1,7,11
3.30E+03,-8017,1455,-1656,-640,288,-136,1,7,11
3.30E+03,-8050,1439,-1646,-404,339,-369,1,7,11
3.30E+03,-7820,1420,-1636,-392,361,-333,1,7,11
3.30E+03,-7831,1415,-1635,-594,349,-296,1,7,11
3.30E+03,-7829,1425,-1643,-248,307,-270,1,7,11
3.30E+03,-7817,1450,-1661,-147,-2,4,1,7,11
3.30E+03,-8052,1473,-1438,-310,-60,29,1,7,11
3.30E+03,-8055,1497,-1451,22,-108,49,1,7,11
3.30E+03,-8057,1503,-1470,74,105,75,1,7,11
3.30E+03,-8053,1500,-1482,98,56,90,1,7,11
3.30E+03,-7810,1498,-1492,103,-2,99,1,7,11
3.30E+03,-8055,1486,-1498,94,-288,112,1,7,11
3.30E+03,-8040,1469,-1492,88,-287,120,1,7,11
3.30E+03,-8033,1450,-1484,90,-257,125,1,7,11
3.30E+03,-7813,1464,-1460,119,58,126,1,7,11
3.30E+03,-7867,1497,-1418,-90,104,-112,1,7,11
3.30E+03,-7903,1541,-1653,-29,110,-76,1,7,11
3.30E+03,-7907,1836,-1637,286,92,-39,1,7,11
3.30E+03,-7885,1872,-1626,326,67,-20,1,7,11
3.30E+03,-7832,1888,-1625,349,42,-32,1,7,11
3.30E+03,-8052,1914,-1614,340,27,-71,1,7,11
3.30E+03,-8021,1903,-1599,286,5,57,1,7,11
3.30E+03,-8007,1876,-1571,-78,-258,5,1,7,11
3.30E+03,-7999,1831,-1537,52,-267,-362,1,7,11
3.30E+03,-8006,1794,-1242,-331,-267,-264,1,7,11
3.30E+03,-8032,1489,-1208,-205,1,-597,1,7,11
3.31E+03,-8059,1428,-1175,-586,26,-625,1,7,11
3.31E+03,-8054,1617,-1172,-441,48,-617,1,7,11
3.31E+03,-8039,1566,-1197,-778,59,-607,1,7,11
3.31E+03,-8017,1518,-1232,-835,110,-579,1,7,11
3.31E+03,-8022,1222,-1260,-862,-68,-528,1,7,11
3.31E+03,-8042,1202,-1274,-839,267,-198,1,7,11
3.31E+03,-7854,1198,-1544,-499,338,-349,1,7,11
3.31E+03,-7858,1195,-1583,-637,363,41,1,7,11
3.31E+03,-7855,1212,-1609,-233,376,-96,1,7,11
3.31E+03,-7862,1238,-1632,-326,136,263,1,7,11
3.31E+03,-7861,1278,-1645,103,383,345,1,7,11
3.31E+03,-7848,1560,-1658,257,359,159,1,7,11
3.31E+03,-7842,1606,-1664,144,297,163,1,7,11
3.31E+03,-7818,1417,-1446,525,269,142,1,7,11
3.31E+03,-7822,1505,-1467,598,-26,366,1,7,11
3.31E+03,-7837,1835,-1471,607,-52,344,1,7,11
3.31E+03,-7844,1880,-1469,552,-89,330,1,7,11
3.31E+03,-7830,1907,-1471,151,-123,312,1,7,11
3.31E+03,-8031,1910,-1493,280,103,272,1,7,11
3.31E+03,-7996,1907,-1514,-111,106,-47,1,7,11
3.31E+03,-7971,1882,-1519,2,124,-108,1,7,11
3.31E+03,-7672,1841,-1803,-379,-106,97,1,7,11
3.31E+03,-7617,1533,-1834,-224,-56,58,1,7,11
3.31E+03,-7606,1478,-1857,-550,289,29,1,7,11
3.31E+03,-7613,1443,-1885,-566,381,30,1,7,11
3.31E+03,-7641,1431,-1899,-535,209,68,1,7,11
3.31E+03,-7960,1429,-1892,-206,527,-112,1,7,11
3.31E+03,-8025,1433,-1894,-348,539,-5,1,7,11
3.31E+03,-8047,1444,-1916,39,235,359,1,7,11
3.31E+03,-8046,1455,-1701,-92,171,169,1,7,11
3.31E+03,-8041,1489,-1747,266,360,181,1,7,11
3.31E+03,-8062,1804,-1778,335,303,154,1,7,11
3.31E+03,-7835,1868,-1785,370,-19,377,1,7,11
3.31E+03,-7844,1912,-1768,363,-94,350,1,7,11
3.31E+03,-7836,1693,-1743,338,85,324,1,7,11
3.31E+03,-8058,1704,-1722,292,18,285,1,7,11
3.31E+03,-8022,1708,-1700,-24,-283,-30,1,7,11
3.31E+03,-7984,1703,-1689,-106,-305,-99,1,7,11
3.31E+03,-7963,1691,-1672,50,-311,88,1,7,11
3.31E+03,-7958,1671,-1910,-315,-305,29,1,7,11
3.32E+03,-7961,1910,-1892,-167,-303,-265,1,7,11
3.32E+03,-7975,1879,-1876,-523,-305,-274,1,7,11
3.32E+03,-7995,1840,-1855,-615,-312,-260,1,7,11
3.32E+03,-8013,1534,-1815,-427,-335,27,1,7,11
3.32E+03,-8024,1483,-1793,-459,-370,63,1,7,11
3.32E+03,-8011,1438,-1525,-458,-141,88,1,7,11
3.32E+03,-7999,1421,-1521,-434,-150,97,1,7,11
3.32E+03,-8008,1411,-1506,-403,-145,91,1,7,11
3.32E+03,-8020,1409,-1484,-617,-140,82,1,7,11
3.32E+03,-8035,1417,-1458,-561,-136,69,1,7,11
3.32E+03,-8050,1434,-1445,-245,-137,65,1,7,11
3.32E+03,-8049,1464,-1437,-181,-139,70,1,7,11
3.32E+03,-8048,1496,-1434,-135,-132,86,1,7,11
3.32E+03,-8046,1517,-1421,-364,-374,110,1,7,11
3.32E+03,-8045,1794,-1659,-343,-350,-119,1,7,11
3.32E+03,-8042,1816,-1631,-328,-324,-85,1,7,11
3.32E+03,-8021,1836,-1624,-309,-304,-50,1,7,11
3.32E+03,-8003,1851,-1613,-287,-277,-13,1,7,11
3.32E+03,-7984,1883,-1615,-263,9,277,1,7,11
3.32E+03,-7979,1910,-1615,18,47,314,1,7,11
3.32E+03,-7966,1693,-1617,35,89,349,1,7,11
3.32E+03,-7975,1734,-1619,51,124,381,1,7,11
3.32E+03,-7978,1785,-1619,67,-113,162,1,7,11
3.32E+03,-7972,2087,-1633,75,-100,190,1,7,11
3.32E+03,-7965,2132,-1652,72,-84,215,1,7,11
3.32E+03,-7965,2171,-1411,64,-66,224,1,7,11
3.32E+03,-7983,1947,-1412,46,-49,220,1,7,11
3.32E+03,-8006,1971,-1421,36,-53,207,1,7,11
3.32E+03,-8028,1984,-1420,30,-72,177,1,7,11
3.32E+03,-8060,1999,-1414,22,-105,140,1,7,11
3.32E+03,-8053,2000,-1415,16,96,353,1,7,11
3.32E+03,-8031,1993,-1413,5,30,303,1,7,11
3.32E+03,-8020,1989,-1651,-265,-278,-13,1,7,11
3.32E+03,-8010,1974,-1628,-286,-315,-62,1,7,11
3.32E+03,-7994,1952,-1607,-306,-348,-92,1,7,11
3.32E+03,-7978,1927,-1574,-324,-381,-87,1,7,11
3.32E+03,-7962,2163,-1547,-328,-133,-78,1,7,11
3.32E+03,-7963,2162,-1267,-312,-137,-64,1,7,11
3.32E+03,-7962,2172,-1254,-287,-142,-45,1,7,11
3.32E+03,-7945,1920,-1246,-268,-140,-13,1,7,11
3.33E+03,-7954,1927,-1229,1,-382,275,1,7,11
3.33E+03,-7979,1942,-1211,15,-368,307,1,7,11
3.33E+03,-7990,1957,-1202,34,-369,346,1,7,11
3.33E+03,-7979,1972,-1211,67,-374,128,1,7,11
3.33E+03,-7970,1990,-1207,107,-333,169,1,7,11
3.33E+03,-7970,2003,-1197,-117,-284,184,1,7,11
3.33E+03,-7970,2011,-1191,-77,19,194,1,7,11
3.33E+03,-7982,2032,-1157,-34,62,200,1,7,11
3.33E+03,-7994,2321,-1391,271,95,219,1,7,11
3.33E+03,-7975,2363,-1390,336,114,514,1,7,11
3.33E+03,-7676,2409,-1162,344,-107,555,1,7,11
3.33E+03,-7645,2203,-1208,311,-45,582,1,7,11
3.33E+03,-7625,2246,-1259,-16,283,603,1,7,11
3.33E+03,-7605,2266,-1553,-119,357,606,1,7,11
3.33E+03,-7596,2246,-1580,13,178,588,1,7,11
3.33E+03,-7603,2177,-1575,-369,239,523,1,7,11
3.33E+03,-7656,2378,-1563,-194,523,143,1,7,11
3.33E+03,-7946,2351,-1569,-221,229,256,1,7,11
3.33E+03,-7952,2350,-1576,-209,167,114,1,7,11
3.33E+03,-7964,2339,-1583,-185,370,5,1,7,11
3.33E+03,-7954,2322,-1587,-138,318,-313,1,7,11
3.33E+03,-7952,2039,-1579,-330,289,-346,1,7,11
3.33E+03,-7961,2015,-1574,13,263,-359,1,7,11
3.33E+03,-7962,2008,-1577,113,-19,-362,1,7,11
3.33E+03,-7951,2015,-1586,-55,-38,-361,1,7,11
3.33E+03,-7943,2039,-1609,264,-45,-359,1,7,11
3.33E+03,-7678,2317,-1643,289,-42,-352,1,7,11
3.33E+03,-7948,2327,-1654,269,-35,-358,1,7,11
3.33E+03,-7973,2347,-1412,-32,-46,-368,1,7,11
3.33E+03,-7982,2350,-1412,-94,-76,-373,1,7,11
3.33E+03,-7972,2348,-1415,95,-104,-377,1,7,11
3.33E+03,-7960,2338,-1413,19,-126,-378,1,7,11
3.33E+03,-7939,2309,-1415,-315,118,-130,1,7,11
3.33E+03,-7669,2017,-1409,-131,121,-147,1,7,11
3.33E+03,-7668,1991,-1648,-188,-124,-172,1,7,11
3.33E+03,-7671,1961,-1642,-227,-123,-189,1,7,11
3.33E+03,-7674,1943,-1639,-252,-115,-191,1,7,11
3.33E+03,-7937,1920,-1640,-520,-105,-170,1,7,11
3.33E+03,-7946,2153,-1635,-523,-100,-130,1,7,11
3.33E+03,-7977,2129,-1610,-516,-98,-338,1,7,11
3.34E+03,-7996,2119,-1616,-223,-116,-286,1,7,11
3.34E+03,-7983,2121,-1630,-169,106,19,1,7,11
3.34E+03,-7951,2131,-1653,-365,88,54,1,7,11
3.34E+03,-7667,2141,-1415,-315,99,65,1,7,11
3.34E+03,-7673,2155,-1420,-278,121,64,1,7,11
3.34E+03,-7950,1932,-1413,24,-105,71,1,7,11
3.34E+03,-7978,1948,-1655,79,-84,100,1,7,11
3.34E+03,-7979,1946,-1649,-118,-98,127,1,7,11
3.34E+03,-7964,1965,-1418,-50,108,-128,1,7,11
3.34E+03,-7939,1977,-1445,280,75,98,1,7,11
3.34E+03,-7671,1991,-1466,301,60,36,1,7,11
3.34E+03,-7671,2014,-1483,301,61,-275,1,7,11
3.34E+03,-7939,2028,-1479,287,67,-317,1,7,11
3.34E+03,-7954,2025,-1456,265,65,-340,1,7,11
3.34E+03,-7970,2007,-1429,-8,47,-348,1,7,11
3.34E+03,-7964,1997,-1431,-18,18,-348,1,7,11
3.34E+03,-7952,1994,-1441,-35,1,-352,1,7,11
3.34E+03,-7957,2003,-1436,-62,5,-353,1,7,11
3.34E+03,-7962,2015,-1425,-101,16,-342,1,7,11
3.34E+03,-7989,2018,-1646,96,29,-328,1,7,11
3.34E+03,-8012,2003,-1610,29,20,-306,1,7,11
3.34E+03,-8005,1990,-1587,-286,-262,-294,1,7,11
3.34E+03,-7990,1969,-1563,-356,-281,-293,1,7,11
3.34E+03,-7987,1939,-1276,-171,-285,-305,1,7,11
3.34E+03,-7998,2159,-1230,-235,-280,-319,1,7,11
3.34E+03,-7996,2131,-1198,-537,-277,-326,1,7,11
3.34E+03,-7975,2106,-1180,-570,-264,-335,1,7,11
3.34E+03,-7962,2095,-1164,-597,33,-344,1,7,11
3.34E+03,-7970,2078,-1400,-617,87,-341,1,7,11
3.34E+03,-7982,2063,-1377,-620,-127,-321,1,7,11
3.34E+03,-7974,1783,-1379,-588,-105,-291,1,7,11
3.34E+03,-7945,1760,-1398,-527,-85,-272,1,7,11
3.34E+03,-7656,1753,-1181,-186,-56,-268,1,7,11
3.34E+03,-7636,1761,-1218,-348,-13,-282,1,7,11
3.34E+03,-7614,1768,-1271,1,284,-296,1,7,11
3.34E+03,-7592,1780,-1612,90,333,-309,1,7,11
3.34E+03,-7600,2055,-1417,-86,142,-319,1,7,11
3.34E+03,-7626,2077,-1471,-7,204,-307,1,7,11
3.34E+03,-7673,2105,-1497,325,518,-274,1,7,11
3.34E+03,-7983,2154,-1521,143,565,47,1,7,11
3.35E+03,-8005,2172,-1815,208,568,-127,1,7,11
3.35E+03,-8003,1956,-1867,525,540,-70,1,7,11
3.35E+03,-7998,1991,-1679,548,242,-62,1,7,11
3.35E+03,-8021,2307,-1722,522,193,-102,1,7,11
3.35E+03,-8034,2350,-1755,199,339,105,1,7,11
3.35E+03,-8035,2365,-1765,339,259,47,1,7,11
3.35E+03,-8027,2350,-1762,-60,-75,-273,1,7,11
3.35E+03,-8022,2327,-1733,50,113,-342,1,7,11
3.35E+03,-8026,2017,-1680,-167,54,-151,1,7,11
3.35E+03,-8028,1949,-1871,-280,-258,-205,1,7,11
3.35E+03,-8025,2135,-1531,-617,-320,-243,1,7,11
3.35E+03,-8020,2065,-1455,-406,-377,-525,1,7,11
3.35E+03,-7996,1753,-1660,-419,-172,-531,1,7,11
3.35E+03,-7965,1704,-1618,-422,-196,-524,1,7,11
3.35E+03,-7678,1918,-1593,-412,-195,-249,1,7,11
3.35E+03,-7653,1891,-1577,-396,-155,-217,1,7,11
3.35E+03,-7642,1869,-1566,-634,-340,-170,1,7,11
3.35E+03,-7665,1846,-1541,-607,6,-361,1,7,11
3.35E+03,-7955,1836,-1256,-550,88,-279,1,7,11
3.35E+03,-7991,1820,-1224,-219,-115,65,1,7,11
3.35E+03,-8008,1816,-1218,-369,-99,-116,1,7,11
3.35E+03,-8015,1847,-1231,15,-96,-67,1,7,11
3.35E+03,-8025,1883,-1256,-126,-94,-35,1,7,11
3.35E+03,-8039,1683,-1269,-26,-97,-6,1,7,11
3.35E+03,-8027,1738,-1278,316,-117,285,1,7,11
3.35E+03,-8007,1789,-1572,129,119,303,1,7,11
3.35E+03,-7974,2094,-1615,168,103,306,1,7,11
3.35E+03,-7667,2133,-1411,178,102,288,1,7,11
3.35E+03,-7633,2166,-1470,149,-126,-5,1,7,11
3.35E+03,-7630,1930,-1504,355,-72,-54,1,7,11
3.35E+03,-7659,1957,-1518,308,-26,-84,1,7,11
3.35E+03,-7670,1969,-1531,268,258,-80,1,7,11
3.35E+03,-7659,1953,-1801,-22,270,-62,1,7,11
3.35E+03,-7667,1944,-1824,-42,289,-54,1,7,11
3.35E+03,-7958,1945,-1833,-53,303,-53,1,7,11
3.35E+03,-8002,1956,-1844,-60,290,-54,1,7,11
3.35E+03,-8014,1972,-1844,-63,257,-43,1,7,11
3.35E+03,-8012,1989,-1860,-69,-36,-44,1,7,11
3.35E+03,-8029,2010,-1851,-95,-85,-76,1,7,11
3.35E+03,-8026,2005,-1831,124,104,-121,1,7,11
3.36E+03,-8032,2006,-1802,88,32,64,1,7,11
3.36E+03,-8029,2013,-1510,43,-299,-264,1,7,11
3.36E+03,-8018,2001,-1466,-279,-362,-314,1,7,11
3.36E+03,-7979,1978,-1427,-356,-155,-343,1,7,11
3.36E+03,-7946,1946,-1649,-184,-172,-363,1,7,11
3.36E+03,-7940,2156,-1605,-524,-156,-379,1,7,11
3.36E+03,-7954,2105,-1559,-594,-381,-378,1,7,11
3.36E+03,-7944,2057,-1266,-385,-351,-363,1,7,11
3.36E+03,-7949,1755,-1222,-412,-307,-348,1,7,11
3.36E+03,-7981,1704,-1193,-424,-264,-330,1,7,11
3.36E+03,-7994,1676,-1183,-406,10,-322,1,7,11
3.36E+03,-8000,1665,-1189,-637,36,-320,1,7,11
3.36E+03,-8021,1664,-1194,-607,73,-312,1,7,11
3.36E+03,-8052,1669,-1195,-563,110,-279,1,7,11
3.36E+03,-8053,1918,-1198,-233,-113,39,1,7,11
3.36E+03,-8036,1914,-1201,-372,-86,102,1,7,11
3.36E+03,-8034,1667,-1190,27,-64,-109,1,7,11
3.36E+03,-8020,1689,-1191,-73,-72,-74,1,7,11
3.36E+03,-7976,1720,-1216,339,-103,-62,1,7,11
3.36E+03,-7649,1759,-1267,213,-123,-72,1,7,11
3.36E+03,-7580,2054,-1589,550,-113,-104,1,7,11
3.36E+03,-7799,2096,-1648,580,-61,115,1,7,11
3.36E+03,-7808,2147,-1448,566,274,91,1,7,11
3.36E+03,-7579,1941,-1494,523,355,97,1,7,11
3.36E+03,-7617,1980,-1524,199,159,-124,1,7,11
3.36E+03,-7633,2000,-1829,365,194,-78,1,7,11
3.36E+03,-7629,2012,-1886,-1,214,-55,1,7,11
3.36E+03,-7645,2016,-1684,127,248,-64,1,7,11
3.36E+03,-7943,2029,-1717,-257,542,-87,1,7,11
3.36E+03,-7976,2308,-1738,-378,562,-93,1,7,11
3.36E+03,-8006,2315,-1750,-234,555,-90,1,7,11
3.36E+03,-8009,2308,-1744,-570,523,-83,1,7,11
3.36E+03,-8020,2316,-1726,-629,234,-86,1,7,11
3.36E+03,-8019,2040,-1701,-410,188,-107,1,7,11
3.36E+03,-8004,2024,-1666,-417,365,117,1,7,11
3.36E+03,-8006,1997,-1879,-403,299,73,1,7,11
3.36E+03,-7992,1972,-1840,-610,-44,16,1,7,11
3.36E+03,-7961,1953,-1818,-556,127,-311,1,7,11
3.36E+03,-7951,1944,-1794,-254,67,-379,1,7,11
3.36E+03,-7678,1938,-1515,-234,22,-166,1,7,11
3.37E+03,-7663,2170,-1485,-239,-261,-195,1,7,11
3.37E+03,-7663,2142,-1466,-251,-269,-222,1,7,11
3.37E+03,-7941,2122,-1437,-521,-277,-239,1,7,11
3.37E+03,-7974,2116,-1422,-532,-289,-251,1,7,11
3.37E+03,-7986,2101,-1661,-561,-309,-239,1,7,11
3.37E+03,-8006,2099,-1647,-585,-312,-227,1,7,11
3.37E+03,-8012,2080,-1632,-619,-314,-207,1,7,11
3.37E+03,-8016,2053,-1614,-385,-320,-197,1,7,11
3.37E+03,-8010,1777,-1600,-395,-321,-195,1,7,11
3.37E+03,-8016,1774,-1586,-392,-314,-190,1,7,11
3.37E+03,-8018,1771,-1562,-633,-299,-178,1,7,11
3.37E+03,-8022,1761,-1274,-612,-282,-157,1,7,11
3.37E+03,-8000,1734,-1265,-573,-277,-381,1,7,11
3.37E+03,-7960,1706,-1256,-517,-265,-358,1,7,11
3.37E+03,-7668,1675,-1240,-196,26,-343,1,7,11
3.37E+03,-7657,1666,-1228,-369,86,-330,1,7,11
3.37E+03,-7675,1669,-1209,-286,-100,-303,1,7,11
3.37E+03,-7951,1674,-1197,46,-52,0,1,7,11
3.37E+03,-7944,1681,-1214,104,-26,38,1,7,11
3.37E+03,-7937,1717,-1553,-118,-2,56,1,7,11
3.37E+03,-7652,1738,-1606,-112,270,64,1,7,11
3.37E+03,-7640,1763,-1661,127,308,65,1,7,11
3.37E+03,-7647,1786,-1449,106,153,85,1,7,11
3.37E+03,-7667,1784,-1472,84,217,113,1,7,11
3.37E+03,-7938,1771,-1495,89,250,-118,1,7,11
3.37E+03,-7948,1771,-1527,122,515,-115,1,7,11
3.37E+03,-7946,1787,-1837,-67,241,-124,1,7,11
3.37E+03,-7945,2059,-1884,294,220,109,1,7,11
3.37E+03,-7973,2068,-1900,355,199,87,1,7,11
3.37E+03,-8017,2089,-1907,171,150,76,1,7,11
3.37E+03,-8023,2104,-1920,239,326,79,1,7,11
3.37E+03,-8013,2117,-1681,548,-5,73,1,7,11
3.37E+03,-7975,2118,-1704,567,-75,60,1,7,11
3.37E+03,-7675,2093,-1714,555,-113,25,1,7,11
3.37E+03,-7667,2076,-1713,525,-122,-276,1,7,11
3.37E+03,-7672,2068,-1708,235,-119,-304,1,7,11
3.37E+03,-7946,2069,-1692,198,-107,-307,1,7,11
3.37E+03,-7947,2075,-1684,157,-108,-274,1,7,11
3.37E+03,-7938,2062,-1693,374,-106,24,1,7,11
3.37E+03,-7670,2054,-1713,330,-85,63,1,7,11
3.38E+03,-7671,2052,-1710,319,-75,66,1,7,11
3.38E+03,-7949,2057,-1707,308,-57,64,1,7,11
3.38E+03,-7976,1790,-1694,298,-64,62,1,7,11
3.38E+03,-7987,1766,-1665,301,-97,49,1,7,11
3.38E+03,-8006,1737,-1902,336,121,16,1,7,11
3.38E+03,-8029,1717,-1869,132,66,-271,1,7,11
3.38E+03,-8036,1706,-1841,170,2,-298,1,7,11
3.38E+03,-8027,1684,-1808,188,-316,-314,1,7,11
3.38E+03,-7987,1669,-1798,183,-372,-327,1,7,11
3.38E+03,-7955,1908,-1535,155,-383,-347,1,7,11
3.38E+03,-7956,1919,-1510,367,-352,-353,1,7,11
3.38E+03,-7978,1674,-1486,297,-319,-327,1,7,11
3.38E+03,-7976,1916,-1464,-64,-298,-272,1,7,11
3.38E+03,-7973,1899,-1449,84,-270,46,1,7,11
3.38E+03,-7946,1901,-1459,-278,14,114,1,7,11
3.38E+03,-7652,1898,-1481,-140,61,-73,1,7,11
3.38E+03,-7627,1884,-1482,-547,-92,292,1,7,11
3.38E+03,-7598,1868,-1496,-593,-19,349,1,7,11
3.38E+03,-7598,1861,-1507,-571,312,378,1,7,11
3.38E+03,-7597,1865,-1796,-232,357,128,1,7,11
3.38E+03,-7610,1879,-1826,-364,137,365,1,7,11
3.38E+03,-7630,1900,-1861,49,163,339,1,7,11
3.38E+03,-7672,1675,-1899,-35,174,311,1,7,11
3.38E+03,-7973,1725,-1675,156,165,287,1,7,11
3.38E+03,-8008,1773,-1700,585,374,277,1,7,11
3.38E+03,-8017,2071,-1724,460,300,270,1,7,11
3.38E+03,-8005,2105,-1757,792,-40,-7,1,7,11
3.38E+03,-7990,2149,-1790,799,-118,-45,1,7,11
3.38E+03,-7952,1920,-2073,476,74,-96,1,7,11
3.38E+03,-7667,1929,-2094,607,50,108,1,7,11
3.38E+03,-7657,1924,-2082,193,64,70,1,7,11
3.38E+03,-7668,2160,-1790,282,83,45,1,7,11
3.38E+03,-7662,2119,-1769,125,81,29,1,7,11
3.38E+03,-7654,2080,-1752,-267,80,3,1,7,11
3.38E+03,-7646,2049,-1749,-130,82,-279,1,7,11
3.38E+03,-7627,1771,-1753,-235,94,-296,1,7,11
3.38E+03,-7641,1738,-1739,-575,124,-301,1,7,11
3.38E+03,-7664,1706,-1712,-619,-115,-282,1,7,11
3.38E+03,-7945,1678,-1695,-612,-125,3,1,7,11
3.38E+03,-7960,1910,-1683,-567,95,26,1,7,11
3.39E+03,-7972,1891,-1681,-233,43,34,1,7,11
3.39E+03,-7987,1888,-1671,-141,-266,33,1,7,11
3.39E+03,-7992,1889,-1905,-293,-330,29,1,7,11
3.39E+03,-7990,1897,-1882,71,-135,30,1,7,11
3.39E+03,-7985,1908,-1851,-89,-184,41,1,7,11
3.39E+03,-7978,1919,-1827,-15,-228,56,1,7,11
3.39E+03,-7966,1673,-1810,285,-520,76,1,7,11
3.39E+03,-7961,1694,-1801,293,-537,93,1,7,11
3.39E+03,-7941,1725,-1533,266,-538,125,1,7,11
3.39E+03,-7937,1743,-1514,-41,-513,-106,1,7,11
3.39E+03,-7666,1763,-1500,-103,-213,-76,1,7,11
3.39E+03,-7659,1764,-1496,79,-142,-55,1,7,11
3.39E+03,-7662,1772,-1496,4,-342,-53,1,7,11
3.39E+03,-7942,1783,-1486,-318,-289,-65,1,7,11
3.39E+03,-7959,1790,-1476,-362,-259,-72,1,7,11
3.39E+03,-7967,1789,-1468,-369,13,-76,1,7,11
3.39E+03,-7952,1784,-1476,-338,18,-90,1,7,11
3.39E+03,-7940,1773,-1496,-290,27,-127,1,7,11
3.39E+03,-7943,1763,-1505,23,37,77,1,7,11
3.39E+03,-7944,1756,-1510,76,41,24,1,7,11
3.39E+03,-7951,1737,-1498,117,50,-278,1,7,11
3.39E+03,-7949,1724,-1497,-100,47,-308,1,7,11
3.39E+03,-7948,1719,-1504,-77,49,-323,1,7,11
3.39E+03,-7673,1716,-1521,-78,54,-324,1,7,11
3.39E+03,-7950,1723,-1511,-100,84,-316,1,7,11
3.39E+03,-7985,1726,-1505,120,111,-270,1,7,11
3.39E+03,-7983,1724,-1500,85,121,52,1,7,11
3.39E+03,-7939,1710,-1525,47,-113,110,1,7,11
3.39E+03,-7674,1712,-1795,7,-52,127,1,7,11
3.39E+03,-7973,1724,-1797,-288,256,122,1,7,11
3.39E+03,-8013,1746,-1534,-316,263,112,1,7,11
3.39E+03,-8039,1765,-1521,-333,-19,106,1,7,11
3.39E+03,-8024,1783,-1519,-342,-76,94,1,7,11
3.39E+03,-7988,2051,-1794,-349,-128,68,1,7,11
3.39E+03,-7962,2067,-1803,-360,96,38,1,7,11
3.39E+03,-7949,2080,-1796,-369,75,13,1,7,11
3.39E+03,-7949,2101,-1794,-373,56,-259,1,7,11
3.39E+03,-7954,2124,-1805,-383,30,-264,1,7,11
3.39E+03,-7956,2128,-1810,-145,-260,-267,1,7,11
3.39E+03,-7969,2119,-1809,-167,-292,-278,1,7,11
3.40E+03,-7986,2099,-1801,-180,-334,-289,1,7,11
3.40E+03,-7981,2063,-1796,-181,-373,-298,1,7,11
3.40E+03,-7993,1789,-1514,-166,-130,-303,1,7,11
3.40E+03,-8002,1770,-1508,-158,-138,-291,1,7,11
3.40E+03,-7999,1748,-1505,-152,-138,-278,1,7,11
3.40E+03,-8003,1740,-1501,-142,-369,-270,1,7,11
3.40E+03,-8030,1740,-1481,-139,-329,1,1,7,11
3.40E+03,-8061,1741,-1440,-383,-303,24,1,7,11
3.40E+03,-7824,1748,-1659,-367,-299,56,1,7,11
3.40E+03,-7824,1746,-1612,-349,-310,83,1,7,11
3.40E+03,-7814,1733,-1568,-325,-336,88,1,7,11
3.40E+03,-8040,1713,-1253,-303,-373,60,1,7,11
3.40E+03,-8053,1719,-1232,-300,-141,-264,1,7,11
3.40E+03,-7824,1728,-1169,-315,-181,-332,1,7,11
3.40E+03,-7815,1724,-1392,-358,-245,-381,1,7,11
3.40E+03,-8016,1686,-1382,-183,-558,-164,1,7,11
3.40E+03,-7680,1894,-1385,-533,-557,-212,1,7,11
3.40E+03,-7632,1854,-1400,-625,-231,-513,1,7,11
3.40E+03,-7640,1827,-1391,-439,-369,-535,1,7,11
3.40E+03,-7669,1801,-1370,-480,21,-246,1,7,11
3.40E+03,-7679,1516,-1356,-470,-125,-155,1,7,11
3.40E+03,-7672,1489,-1380,-410,-29,-306,1,7,11
3.40E+03,-7674,1470,-1197,-578,315,37,1,7,11
3.40E+03,-7676,1463,-1277,-210,139,92,1,7,11
3.40E+03,-7952,1482,-1603,-340,219,120,1,7,11
3.40E+03,-8032,1850,-1635,56,584,-70,1,7,11
3.40E+03,-8057,1892,-1663,-82,589,275,1,7,11
3.40E+03,-7815,1909,-1437,268,566,351,1,7,11
3.40E+03,-7817,1672,-1468,366,524,138,1,7,11
3.40E+03,-7826,1705,-1485,251,210,137,1,7,11
3.40E+03,-7837,1748,-1485,575,145,366,1,7,11
3.40E+03,-7834,2053,-1487,624,333,343,1,7,11
3.40E+03,-7816,2078,-1480,386,261,323,1,7,11
3.40E+03,-8040,2098,-1480,633,-59,295,1,7,11
3.40E+03,-7997,2130,-1497,594,-109,257,1,7,11
3.40E+03,-7948,2160,-1525,254,125,-41,1,7,11
3.40E+03,-7655,1930,-1813,133,-113,-82,1,7,11
3.40E+03,-7649,1931,-1816,-19,-71,-105,1,7,11
3.40E+03,-7662,2172,-1813,93,-35,-105,1,7,11
3.40E+03,-7665,2152,-1807,-279,-8,-86,1,7,11
3.41E+03,-7671,2110,-1796,-360,261,-59,1,7,11
3.41E+03,-7937,2068,-1527,-143,265,-34,1,7,11
3.41E+03,-7937,1783,-1797,-140,259,-13,1,7,11
3.41E+03,-7947,1763,-1808,-368,257,-1,1,7,11
3.41E+03,-7957,1743,-1812,-324,-9,265,1,7,11
3.41E+03,-7949,1718,-1833,-275,-28,263,1,7,11
3.41E+03,-7944,1717,-1858,37,-37,-14,1,7,11
3.41E+03,-7946,1725,-1875,89,-34,-34,1,7,11
3.41E+03,-7966,1734,-1879,-127,-24,-40,1,7,11
3.41E+03,-8003,1744,-1887,-76,-16,-21,1,7,11
3.41E+03,-8043,1759,-1868,-12,-35,275,1,7,11
3.41E+03,-8031,1755,-1849,317,-82,321,1,7,11
3.41E+03,-8027,1770,-1854,154,-126,346,1,7,11
3.41E+03,-7997,1777,-1838,251,76,365,1,7,11
3.41E+03,-7984,1782,-1816,610,41,365,1,7,11
3.41E+03,-7949,1781,-1534,462,3,358,1,7,11
3.41E+03,-7659,1771,-1504,832,-280,343,1,7,11
3.41E+03,-7622,1735,-1470,697,-283,325,1,7,11
3.41E+03,-7577,1690,-1447,1108,-257,317,1,7,11
3.41E+03,-7556,1700,-1453,1295,60,304,1,7,11
3.41E+03,-7803,1725,-1475,1200,-113,333,1,7,11
3.41E+03,-7770,1734,-1532,1585,-25,367,1,7,11
3.41E+03,-7749,1770,-1859,1414,346,367,1,7,11
3.41E+03,-7777,2069,-1666,1435,215,345,1,7,11
3.41E+03,-7568,2119,-1734,1408,559,307,1,7,11
3.41E+03,-7601,2162,-1787,1593,604,257,1,7,11
3.41E+03,-7623,1934,-2087,1232,617,-57,1,7,11
3.41E+03,-7648,1954,-2124,1359,609,-111,1,7,11
3.41E+03,-7668,1969,-2151,960,582,104,1,7,11
3.41E+03,-7953,1951,-2160,1059,535,76,1,7,11
3.41E+03,-7961,1943,-2158,662,212,54,1,7,11
3.41E+03,-7971,2169,-2146,793,134,42,1,7,11
3.41E+03,-7985,2142,-2144,430,305,37,1,7,11
3.41E+03,-7963,2097,-2138,586,-38,40,1,7,11
3.41E+03,-7943,2058,-2130,240,-119,38,1,7,11
3.41E+03,-7662,1771,-2125,152,78,28,1,7,11
3.41E+03,-7637,1763,-2121,331,38,15,1,7,11
3.41E+03,-7617,1765,-2121,-2,23,20,1,7,11
3.41E+03,-7610,1768,-2110,-88,35,42,1,7,11
3.41E+03,-7618,1768,-2095,86,59,76,1,7,11
3.42E+03,-7619,1768,-2077,11,95,111,1,7,11
3.42E+03,-7612,1750,-2062,-307,98,-125,1,7,11
3.42E+03,-7611,1749,-1792,-361,101,126,1,7,11
3.42E+03,-7598,1754,-2058,-140,85,108,1,7,11
3.42E+03,-7596,1763,-2078,-175,78,78,1,7,11
3.42E+03,-7585,1765,-2105,-219,70,41,1,7,11
3.42E+03,-7586,1765,-2125,-531,71,3,1,7,11
3.42E+03,-7599,1770,-2129,-591,86,-285,1,7,11
3.42E+03,-7622,1766,-2116,-412,100,-290,1,7,11
3.42E+03,-7670,1760,-2102,-457,114,-270,1,7,11
3.42E+03,-7969,1759,-2077,-493,95,27,1,7,11
3.42E+03,-7985,1751,-2069,-774,48,68,1,7,11
3.42E+03,-7984,1755,-2061,-785,-262,98,1,7,11
3.42E+03,-7968,1770,-2062,-801,-310,120,1,7,11
3.42E+03,-7956,2048,-2054,-819,-342,-120,1,7,11
3.42E+03,-7677,2073,-1764,-830,-369,-103,1,7,11
3.42E+03,-7676,2103,-1726,-837,-136,-86,1,7,11
3.42E+03,-7680,2113,-1673,-836,-174,-69,1,7,11
3.42E+03,-7657,2118,-1887,-817,-225,-64,1,7,11
3.42E+03,-7608,2119,-1863,-782,-527,-78,1,7,11
3.42E+03,-7554,2124,-1860,-485,-534,-110,1,7,11
3.42E+03,-7767,2121,-1861,-463,-242,104,1,7,11
3.42E+03,-7774,2104,-1836,-450,-170,51,1,7,11
3.42E+03,-7559,2081,-1794,-438,-352,7,1,7,11
3.42E+03,-7610,2061,-1512,-406,-312,-276,1,7,11
3.42E+03,-7611,2049,-1794,-615,-291,-290,1,7,11
3.42E+03,-7601,2075,-1854,-564,22,-301,1,7,11
3.42E+03,-7605,2100,-1905,-554,123,-300,1,7,11
3.42E+03,-7647,2125,-1680,-554,-16,-295,1,7,11
3.42E+03,-7974,2128,-1912,-553,322,-280,1,7,11
3.42E+03,-8014,2117,-1890,-525,321,-266,1,7,11
3.42E+03,-8025,2093,-1876,-231,270,-282,1,7,11
3.42E+03,-8016,2081,-1870,-180,-56,-319,1,7,11
3.42E+03,-8004,2095,-1859,-383,-126,-361,1,7,11
3.42E+03,-7970,2092,-1840,-357,64,-130,1,7,11
3.42E+03,-7943,2087,-1814,-345,14,-145,1,7,11
3.42E+03,-7664,2067,-1793,-350,-282,-162,1,7,11
3.42E+03,-7674,2052,-1507,-375,-306,-193,1,7,11
3.42E+03,-7954,1769,-1470,-164,-335,-229,1,7,11
3.42E+03,-7952,1743,-1452,-207,-375,-518,1,7,11
3.43E+03,-7662,1732,-1453,-515,-132,-541,1,7,11
3.43E+03,-7616,1710,-1485,-584,-355,-543,1,7,11
3.43E+03,-7596,1700,-1520,-403,-263,-535,1,7,11
3.43E+03,-7614,1686,-1793,-471,113,-246,1,7,11
3.43E+03,-7627,1676,-1815,-775,-32,-190,1,7,11
3.43E+03,-7943,1682,-1808,-792,332,-381,1,7,11
3.43E+03,-8009,1670,-1531,-793,131,-290,1,7,11
3.43E+03,-8043,1916,-1504,-496,372,50,1,7,11
3.43E+03,-8039,1900,-1494,-428,304,115,1,7,11
3.43E+03,-7994,1882,-1506,-602,-37,-119,1,7,11
3.43E+03,-7984,1919,-1509,-254,-96,123,1,7,11
3.43E+03,-7973,1706,-1507,-373,77,-127,1,7,11
3.43E+03,-7948,1736,-1518,-308,34,-103,1,7,11
3.43E+03,-7655,1762,-1803,1,12,-78,1,7,11
3.43E+03,-7631,1777,-1840,31,18,-71,1,7,11
3.43E+03,-7636,2066,-1858,47,49,-82,1,7,11
3.43E+03,-7663,2095,-1869,48,86,-83,1,7,11
3.43E+03,-7942,2126,-1869,45,112,-72,1,7,11
3.43E+03,-7941,2133,-1868,27,124,-64,1,7,11
3.43E+03,-7671,2144,-1881,18,127,-76,1,7,11
3.43E+03,-7665,2155,-1904,2,-121,-112,1,7,11
3.43E+03,-7677,1927,-1914,-275,-105,106,1,7,11
3.43E+03,-7952,1962,-1899,-300,-94,91,1,7,11
3.43E+03,-7959,1962,-1869,-332,-94,94,1,7,11
3.43E+03,-7966,1945,-1838,-361,-107,94,1,7,11
3.43E+03,-7948,2162,-1809,-373,125,75,1,7,11
3.43E+03,-7937,2143,-1536,-368,109,37,1,7,11
3.43E+03,-7635,2133,-1795,-375,100,-266,1,7,11
3.43E+03,-7596,2131,-1802,-150,-126,-315,1,7,11
3.43E+03,-7602,2120,-1794,-199,-64,-358,1,7,11
3.43E+03,-7624,2120,-1534,-245,-12,-379,1,7,11
3.43E+03,-7646,2123,-1801,-550,277,-379,1,7,11
3.43E+03,-7666,2112,-1806,-605,299,-371,1,7,11
3.43E+03,-7946,2107,-1812,-401,310,-359,1,7,11
3.43E+03,-7963,2099,-1812,-452,311,-345,1,7,11
3.43E+03,-7985,2090,-1804,-497,303,-323,1,7,11
3.43E+03,-7993,2077,-1796,-777,281,-304,1,7,11
3.43E+03,-7997,2088,-1796,-788,261,-284,1,7,11
3.43E+03,-7992,2109,-1793,-803,-19,-258,1,7,11
3.43E+03,-7984,2127,-1799,-833,-43,27,1,7,11
3.44E+03,-7975,2133,-1510,-873,-61,54,1,7,11
3.44E+03,-7977,2123,-1485,-658,-77,74,1,7,11
3.44E+03,-7958,2112,-1470,-677,-121,70,1,7,11
3.44E+03,-7947,2112,-1461,-677,111,56,1,7,11
3.44E+03,-7664,2106,-1465,-664,104,41,1,7,11
3.44E+03,-7639,2099,-1464,-879,123,20,1,7,11
3.44E+03,-7629,2090,-1470,-835,-95,-257,1,7,11
3.44E+03,-7642,2080,-1449,-778,-51,-280,1,7,11
3.44E+03,-7670,2081,-1441,-446,-25,-295,1,7,11
3.44E+03,-7677,2072,-1438,-608,-17,-303,1,7,11
3.44E+03,-7670,2060,-1428,-560,-14,-308,1,7,11
3.44E+03,-7677,2058,-1428,-203,256,-312,1,7,11
3.44E+03,-7672,2058,-1452,-356,266,-312,1,7,11
3.44E+03,-7673,2073,-1485,7,280,-309,1,7,11
3.44E+03,-7657,2092,-1522,104,313,-293,1,7,11
3.44E+03,-7639,2115,-1816,-77,347,-275,1,7,11
3.44E+03,-7623,2133,-1855,-38,378,0,1,7,11
3.44E+03,-7616,2145,-1895,-26,151,12,1,7,11
3.44E+03,-7632,2140,-1668,-65,178,14,1,7,11
3.44E+03,-7640,2137,-1684,-104,190,7,1,7,11
3.44E+03,-7661,2136,-1685,124,183,-266,1,7,11
3.44E+03,-7672,2116,-1692,96,155,-280,1,7,11
3.44E+03,-7950,2086,-1684,88,368,-300,1,7,11
3.44E+03,-7981,2048,-1918,95,318,-315,1,7,11
3.44E+03,-7997,1768,-1895,121,-6,-313,1,7,11
3.44E+03,-7986,1744,-1880,-102,-74,-295,1,7,11
3.44E+03,-7964,1730,-1869,-71,-128,-268,1,7,11
3.44E+03,-7943,1731,-1874,-43,98,15,1,7,11
3.44E+03,-7663,1743,-1875,-22,89,51,1,7,11
3.44E+03,-7661,1763,-1881,-15,91,92,1,7,11
3.44E+03,-7655,2049,-1906,-19,88,-117,1,7,11
3.44E+03,-7618,2072,-1681,-42,87,-74,1,7,11
3.44E+03,-7586,2088,-1723,-76,103,-53,1,7,11
3.44E+03,-7562,2092,-1757,-121,-119,-55,1,7,11
3.44E+03,-7555,2096,-1786,93,-79,-64,1,7,11
3.44E+03,-7568,2095,-2058,66,-40,-75,1,7,11
3.44E+03,-7599,2091,-2063,58,-7,-77,1,7,11
3.44E+03,-7629,2085,-2063,73,260,-70,1,7,11
3.44E+03,-7662,2076,-2077,104,-9,-70,1,7,11
3.44E+03,-7669,2070,-2095,-114,-47,-80,1,7,11
3.45E+03,-7937,2071,-2112,-88,-88,-106,1,7,11
3.45E+03,-7950,2082,-2114,-74,120,-128,1,7,11
3.45E+03,-7949,2081,-2114,-78,67,113,1,7,11
3.45E+03,-7939,2080,-2107,-80,26,112,1,7,11
3.45E+03,-7677,2075,-2094,-79,-257,125,1,7,11
3.45E+03,-7678,2063,-2052,-60,-277,-102,1,7,11
3.45E+03,-7660,1788,-1751,-18,-296,-70,1,7,11
3.45E+03,-7661,1769,-1701,313,-314,-44,1,7,11
3.45E+03,-7644,1752,-1667,155,-338,-25,1,7,11
3.45E+03,-7645,1759,-1889,517,-359,-28,1,7,11
3.45E+03,-7674,1789,-1868,610,-131,-35,1,7,11
3.45E+03,-7680,2078,-1852,423,-178,-28,1,7,11
3.45E+03,-7627,2068,-1868,463,-209,-20,1,7,11
3.45E+03,-7589,2076,-1897,510,-183,-35,1,7,11
3.45E+03,-7584,2076,-1914,789,-375,-61,1,7,11
3.45E+03,-7588,2062,-1674,790,-303,-94,1,7,11
3.45E+03,-7593,2053,-1684,790,22,-128,1,7,11
3.45E+03,-7614,2052,-1679,789,85,101,1,7,11
3.45E+03,-7639,1787,-1920,794,119,87,1,7,11
3.45E+03,-7665,1779,-1916,797,125,93,1,7,11
3.45E+03,-7677,1769,-1914,799,105,115,1,7,11
3.45E+03,-7678,1775,-1667,804,77,-118,1,7,11
3.45E+03,-7661,1762,-1683,785,49,-88,1,7,11
3.45E+03,-7640,1758,-1697,503,34,-70,1,7,11
3.45E+03,-7642,1758,-1682,475,35,-53,1,7,11
3.45E+03,-7940,1775,-1913,451,43,260,1,7,11
3.45E+03,-7964,1773,-1896,427,37,317,1,7,11
3.45E+03,-7957,1771,-1878,430,24,370,1,7,11
3.45E+03,-7677,1760,-1881,452,5,143,1,7,11
3.45E+03,-7639,1757,-1894,479,-259,381,1,7,11
3.45E+03,-7611,1761,-1914,510,4,315,1,7,11
3.45E+03,-7599,1785,-1678,780,33,-35,1,7,11
3.45E+03,-7619,2071,-1677,779,71,-126,1,7,11
3.45E+03,-7635,2098,-1679,510,91,59,1,7,11
3.45E+03,-7648,2114,-1687,485,102,6,1,7,11
3.45E+03,-7650,2118,-1694,453,97,-288,1,7,11
3.45E+03,-7644,2120,-1713,409,96,-321,1,7,11
3.45E+03,-7634,2115,-1730,604,102,-352,1,7,11
3.45E+03,-7635,2115,-1754,531,118,-378,1,7,11
3.45E+03,-7648,2118,-1770,190,-121,-135,1,7,11
3.46E+03,-7663,2116,-1785,349,-108,-133,1,7,11
3.46E+03,-7957,2114,-1777,-4,-104,-376,1,7,11
3.46E+03,-7977,2103,-1759,-98,124,-347,1,7,11
3.46E+03,-7956,2076,-1774,76,67,-318,1,7,11
3.46E+03,-7667,2056,-1791,-260,32,-303,1,7,11
3.46E+03,-7646,1775,-2053,-336,24,-298,1,7,11
3.46E+03,-7658,1750,-1775,-134,27,-285,1,7,11
3.46E+03,-7940,1717,-1750,-150,21,-261,1,7,11
3.46E+03,-7676,1697,-1740,-373,-257,31,1,7,11
3.46E+03,-7667,1698,-1726,-315,-267,63,1,7,11
3.46E+03,-7665,1708,-1710,11,-262,72,1,7,11
3.46E+03,-7652,1713,-1711,83,-263,90,1,7,11
3.46E+03,-7643,1720,-1707,-110,-267,94,1,7,11
3.46E+03,-7636,1731,-1706,-61,-263,77,1,7,11
3.46E+03,-7638,1729,-1707,-46,-263,30,1,7,11
3.46E+03,-7647,1730,-1696,-67,-261,-10,1,7,11
3.46E+03,-7670,1741,-1680,-109,8,-289,1,7,11
3.46E+03,-7939,1754,-1682,92,18,-289,1,7,11
3.46E+03,-7664,1766,-1688,25,24,-270,1,7,11
3.46E+03,-7656,1765,-1692,-324,57,-260,1,7,11
3.46E+03,-7661,1751,-1679,-182,109,12,1,7,11
3.46E+03,-7940,1718,-1904,-560,-104,15,1,7,11
3.46E+03,-7997,1700,-1873,-408,-85,6,1,7,11
3.46E+03,-8016,1684,-1845,-481,-99,-258,1,7,11
3.46E+03,-8001,1914,-1832,-785,123,2,1,7,11
3.46E+03,-7961,1876,-1837,-817,86,20,1,7,11
3.46E+03,-7673,1840,-1837,-826,70,13,1,7,11
3.46E+03,-7676,1824,-1830,-814,77,-261,1,7,11
3.46E+03,-7944,1806,-1814,-779,86,-265,1,7,11
3.46E+03,-7940,1799,-1814,-463,66,6,1,7,11
3.46E+03,-7659,1794,-1827,-633,56,25,1,7,11
3.46E+03,-7632,1792,-1856,-542,62,45,1,7,11
3.46E+03,-7646,1826,-1881,-145,91,58,1,7,11
3.46E+03,-7656,1857,-1908,-336,114,87,1,7,11
3.46E+03,-7669,1914,-1691,-280,123,126,1,7,11
3.46E+03,-7679,1807,-1769,-262,127,-83,1,7,11
3.46E+03,-7963,2113,-1783,-305,-128,-19,1,7,11
3.46E+03,-7996,1924,-1773,-160,122,308,1,7,11
3.46E+03,-8041,1960,-1763,-537,80,377,1,7,11
3.46E+03,-8000,1970,-1781,-402,-263,181,1,7,11
3.47E+03,-7949,1962,-2057,-771,-318,175,1,7,11
3.47E+03,-7656,1957,-2060,-870,-341,375,1,7,11
3.47E+03,-7643,1939,-1785,-687,-345,291,1,7,11
3.47E+03,-7656,2172,-1734,-732,-337,-62,1,7,11
3.47E+03,-7951,2141,-1666,-739,-336,101,1,7,11
3.47E+03,-7996,2110,-1841,-695,-356,36,1,7,11
3.47E+03,-7988,2092,-1529,-864,-140,4,1,7,11
3.47E+03,-7969,2075,-1480,-506,-158,-264,1,7,11
3.47E+03,-7946,2058,-1443,-408,-158,-262,1,7,11
3.47E+03,-7651,1763,-1412,-585,-139,-260,1,7,11
3.47E+03,-7644,1739,-1631,-518,-360,-289,1,7,11
3.47E+03,-7658,1735,-1614,-209,-343,-332,1,7,11
3.47E+03,-7661,1745,-1619,-190,-345,-382,1,7,11
3.47E+03,-7665,1766,-1632,-213,-340,-166,1,7,11
3.47E+03,-7676,1790,-1648,-529,-324,-175,1,7,11
3.47E+03,-7962,2054,-1652,-614,-278,-151,1,7,11
3.47E+03,-7989,1791,-1631,-441,26,-335,1,7,11
3.47E+03,-8014,1762,-1586,-497,64,23,1,7,11
3.47E+03,-8028,1711,-1278,-777,83,-128,1,7,11
3.47E+03,-8048,1665,-1218,-484,88,-46,1,7,11
3.47E+03,-8045,1892,-1182,-402,65,262,1,7,11
3.47E+03,-8015,1895,-1172,-542,37,270,1,7,11
3.47E+03,-7957,1910,-1187,-166,20,-2,1,7,11
3.47E+03,-7655,1702,-1216,-296,47,-40,1,7,11
3.47E+03,-7647,1754,-1243,73,113,-72,1,7,11
3.47E+03,-7659,2050,-1266,-77,-74,-83,1,7,11
3.47E+03,-7666,2083,-1550,280,-18,-80,1,7,11
3.47E+03,-7667,2112,-1581,377,277,-80,1,7,11
3.47E+03,-7675,2151,-1619,203,303,-90,1,7,11
3.47E+03,-7680,1965,-1437,519,310,-112,1,7,11
3.47E+03,-7939,1996,-1478,532,304,119,1,7,11
3.47E+03,-7939,2004,-1518,244,292,89,1,7,11
3.47E+03,-7674,2008,-1797,182,278,59,1,7,11
3.47E+03,-7668,1991,-1809,298,260,15,1,7,11
3.47E+03,-7661,1963,-1826,-57,264,-270,1,7,11
3.47E+03,-7656,1938,-1837,107,282,-292,1,7,11
3.47E+03,-7652,2163,-1847,32,313,-306,1,7,11
3.47E+03,-7658,2136,-1859,-278,341,-311,1,7,11
3.47E+03,-7663,2127,-1867,-315,363,-312,1,7,11
3.47E+03,-7660,2116,-1902,-346,376,-306,1,7,11
3.48E+03,-7667,2116,-1665,-375,128,-301,1,7,11
3.48E+03,-7949,2122,-1676,-151,128,-290,1,7,11
3.48E+03,-7977,2127,-1681,-179,362,-263,1,7,11
3.48E+03,-7990,2121,-1682,-193,327,31,1,7,11
3.48E+03,-7992,2119,-1669,-188,291,69,1,7,11
3.48E+03,-7992,2116,-1666,-169,-11,103,1,7,11
3.48E+03,-7971,2106,-1910,-132,-63,125,1,7,11
3.48E+03,-7951,2092,-1895,-344,-104,-123,1,7,11
3.48E+03,-7945,2088,-1881,-295,120,-128,1,7,11
3.48E+03,-7945,2089,-1866,11,85,117,1,7,11
3.48E+03,-7679,2094,-1854,54,56,105,1,7,11
3.48E+03,-7940,2110,-1848,85,35,99,1,7,11
3.48E+03,-7953,2121,-1836,102,21,100,1,7,11
3.48E+03,-7966,2127,-1812,110,2,112,1,7,11
3.48E+03,-7960,2122,-1806,119,-281,124,1,7,11
3.48E+03,-7966,2123,-1524,-128,-305,-123,1,7,11
3.48E+03,-7971,2116,-1494,-111,-330,-118,1,7,11
3.48E+03,-7972,2114,-1473,-85,-359,-112,1,7,11
3.48E+03,-7942,2115,-1465,-16,-130,-119,1,7,11
3.48E+03,-7668,2127,-1452,299,-129,121,1,7,11
3.48E+03,-7663,2142,-1449,352,-370,105,1,7,11
3.48E+03,-7656,2154,-1444,139,-348,84,1,7,11
3.48E+03,-7660,2169,-1441,177,-322,65,1,7,11
3.48E+03,-7650,1923,-1437,196,-297,44,1,7,11
3.48E+03,-7650,1926,-1443,205,-258,13,1,7,11
3.48E+03,-7644,1938,-1449,207,40,-270,1,7,11
3.48E+03,-7641,1934,-1458,193,92,-293,1,7,11
3.48E+03,-7632,1925,-1471,172,-109,-310,1,7,11
3.48E+03,-7622,2165,-1489,141,-47,-327,1,7,11
3.48E+03,-7617,2142,-1513,363,270,-347,1,7,11
3.48E+03,-7623,2136,-1527,330,325,-366,1,7,11
3.48E+03,-7636,2118,-1800,295,375,-131,1,7,11
3.48E+03,-7645,2100,-1812,262,151,-148,1,7,11
3.48E+03,-7658,2071,-1825,-18,175,-166,1,7,11
3.48E+03,-7673,1773,-1818,-44,190,-190,1,7,11
3.48E+03,-7945,1735,-1807,-47,190,-218,1,7,11
3.48E+03,-7938,1698,-1805,-24,169,-242,1,7,11
3.48E+03,-7937,1683,-1824,268,154,-519,1,7,11
3.48E+03,-7948,1915,-1846,294,145,-529,1,7,11
3.48E+03,-7968,1896,-1871,330,138,-532,1,7,11
3.49E+03,-7976,1881,-1892,368,383,-527,1,7,11
3.49E+03,-7978,1882,-1665,152,370,-516,1,7,11
3.49E+03,-8002,1885,-1673,183,362,-243,1,7,11
3.49E+03,-8016,1882,-1688,203,334,-214,1,7,11
3.49E+03,-8028,1898,-1702,222,294,-182,1,7,11
3.49E+03,-8036,1911,-1711,222,-12,-138,1,7,11
3.49E+03,-8030,1665,-1736,207,-70,-351,1,7,11
3.49E+03,-8023,1684,-1756,173,-121,-312,1,7,11
3.49E+03,-8009,1696,-1763,372,86,-272,1,7,11
3.49E+03,-7998,1703,-1764,299,46,10,1,7,11
3.49E+03,-7989,1701,-1743,-37,11,30,1,7,11
3.49E+03,-7959,1693,-1737,-109,-275,45,1,7,11
3.49E+03,-7676,1670,-1717,80,-282,50,1,7,11
3.49E+03,-7675,1898,-1694,27,-270,38,1,7,11
3.49E+03,-7669,1873,-1674,-259,-259,33,1,7,11
3.49E+03,-7664,1853,-1665,-274,27,24,1,7,11
3.49E+03,-7940,1864,-1910,-291,62,10,1,7,11
3.49E+03,-7957,1857,-1896,-322,86,19,1,7,11
3.49E+03,-7967,1855,-1887,-341,94,18,1,7,11
3.49E+03,-7985,1846,-1881,-364,87,2,1,7,11
3.49E+03,-7988,1842,-1872,-139,63,-280,1,7,11
3.49E+03,-7975,1825,-1885,-182,34,-326,1,7,11
3.49E+03,-7969,1815,-1883,-236,19,-374,1,7,11
3.49E+03,-7961,1793,-1880,-552,18,-152,1,7,11
3.49E+03,-7969,1518,-1874,-601,25,-167,1,7,11
3.49E+03,-7965,1493,-1859,-386,32,-156,1,7,11
3.49E+03,-7964,1479,-1870,-409,43,-129,1,7,11
3.49E+03,-7958,1466,-1881,-422,61,-344,1,7,11
3.49E+03,-7955,1448,-1885,-421,89,-300,1,7,11
3.49E+03,-7956,1442,-1894,-406,117,3,1,7,11
3.49E+03,-7956,1440,-1899,-628,-116,48,1,7,11
3.49E+03,-7979,1447,-1889,-578,-98,89,1,7,11
3.49E+03,-8001,1464,-1888,-253,-101,-118,1,7,11
3.49E+03,-7999,1477,-1892,-176,-118,-69,1,7,11
3.49E+03,-8004,1491,-1892,-353,119,-26,1,7,11
3.49E+03,-8021,1503,-1862,-266,86,271,1,7,11
3.49E+03,-8035,1525,-1845,84,31,307,1,7,11
3.49E+03,-8020,1844,-1876,-60,-280,339,1,7,11
3.49E+03,-7979,1898,-1888,283,-310,361,1,7,11
3.49E+03,-7962,1702,-1918,340,-310,366,1,7,11
3.50E+03,-7939,1745,-1696,352,-299,354,1,7,11
3.50E+03,-7945,1780,-1703,318,-276,318,1,7,11
3.50E+03,-7951,2065,-1694,-3,2,279,1,7,11
3.50E+03,-7940,2072,-1698,126,5,-16,1,7,11
3.50E+03,-7678,2074,-1681,41,13,-52,1,7,11
3.50E+03,-7668,2057,-1665,-289,27,-76,1,7,11
3.50E+03,-7952,1773,-1876,-336,53,-89,1,7,11
3.50E+03,-7962,1738,-1838,-349,54,-84,1,7,11
3.50E+03,-7957,1712,-1812,-328,44,-87,1,7,11
3.50E+03,-7949,1700,-1798,-297,34,-98,1,7,11
3.50E+03,-7940,1694,-1803,-273,31,-117,1,7,11
3.50E+03,-7672,1691,-1817,-263,35,119,1,7,11
3.50E+03,-7664,1683,-1830,-275,56,99,1,7,11
