timestamp,ax,ay,az,gx,gy,gz,Label1,Label2,Label3
6.17E+02,-6873,878,-4210,1354,489,-421,1,7,11
6.10E+02,-7199,823,-3974,983,474,-640,1,7,11
6.04E+02,-7091,802,-4191,1147,461,-599,1,7,11
5.98E+02,-7512,788,-4110,1103,639,-240,1,7,11
5.92E+02,-7552,793,-3801,1127,209,-322,1,7,11
5.85E+02,-7447,773,-4102,901,260,96,1,7,11
5.76E+02,-7276,412,-4179,1112,-126,-118,1,7,11
5.67E+02,-7193,560,-4214,1036,104,49,1,7,11
5.58E+02,-6903,220,-4000,728,98,-346,1,7,11
5.52E+02,-7185,184,-4045,692,91,-221,1,7,11
5.51E+02,-7223,134,-4058,659,37,-515,1,7,11
5.54E+02,-7216,322,-4075,658,-342,-198,1,7,11
5.60E+02,-6911,262,-4359,672,-217,-335,1,7,11
5.65E+02,-6835,-50,-4371,684,-591,74,1,7,11
5.69E+02,-6995,-98,-4371,677,-420,-33,1,7,11
5.73E+02,-6968,-119,-4082,651,-421,350,1,7,11
5.79E+02,-6957,-128,-4038,877,-409,239,1,7,11
5.88E+02,-6920,113,-4010,853,-391,629,1,7,11
5.94E+02,-6634,-117,-3990,843,-602,471,1,7,11
5.89E+02,-6654,-77,-3971,816,-529,790,1,7,11
5.77E+02,-6951,-13,-3971,799,-209,846,1,7,11
5.69E+02,-7027,326,-4215,769,-134,879,1,7,11
5.71E+02,-6854,173,-4192,495,-345,674,1,7,11
5.75E+02,-7171,514,-4167,468,-334,724,1,7,11
5.78E+02,-7203,611,-4156,457,-336,1025,1,7,11
5.77E+02,-7197,426,-4141,424,-342,1045,1,7,11
5.72E+02,-6886,486,-4145,632,-336,761,1,7,11
5.66E+02,-6838,806,-4146,577,-300,677,1,7,11
5.58E+02,-6791,846,-4138,219,10,806,1,7,11
5.52E+02,-7023,830,-4110,337,64,386,1,7,11
5.48E+02,-6988,795,-3831,-44,112,194,1,7,11
5.48E+02,-7003,783,-3808,116,-82,-4,1,7,11
5.47E+02,-6995,781,-3798,35,-32,106,1,7,11
5.41E+02,-6989,501,-3812,-316,295,-266,1,7,11
5.35E+02,-6997,441,-3805,-157,131,-343,1,7,11
5.34E+02,-7014,620,-3802,-214,208,-137,1,7,11
5.36E+02,-7038,545,-3796,-224,519,-176,1,7,11
5.38E+02,-6798,210,-3790,-207,548,-206,1,7,11
5.40E+02,-6803,142,-3797,-151,554,-223,1,7,11
5.44E+02,-7036,341,-3817,-342,554,-234,1,7,11
5.52E+02,-7024,294,-4098,-289,583,-248,1,7,11
5.64E+02,-7018,266,-4125,2,623,-255,1,7,11
5.79E+02,-7000,-10,-4147,15,404,-518,1,7,11
5.96E+02,-6984,-6,-4178,13,437,-532,1,7,11
6.10E+02,-6976,272,-4203,-281,468,-548,1,7,11
6.20E+02,-6983,283,-3972,-357,498,-563,1,7,11
6.25E+02,-6987,276,-3986,-204,774,-574,1,7,11
6.22E+02,-6967,258,-4022,-537,505,-572,1,7,11
6.11E+02,-6645,284,-4086,-569,465,-554,1,7,11
5.94E+02,-6594,308,-4397,-631,448,-527,1,7,11
5.81E+02,-6924,325,-4393,-427,463,-226,1,7,11
5.80E+02,-6994,350,-4378,-441,396,-362,1,7,11
5.88E+02,-6956,355,-4405,-451,530,21,1,7,11
5.94E+02,-6940,368,-4432,-471,210,95,1,7,11
5.92E+02,-6967,128,-4433,-507,190,-81,1,7,11
5.91E+02,-6978,144,-4437,-795,186,266,1,7,11
5.95E+02,-7019,177,-4427,-806,206,353,1,7,11
6.00E+02,-6816,214,-4413,-790,209,199,1,7,11
5.99E+02,-6827,246,-4402,-489,162,557,1,7,11
5.91E+02,-7034,537,-4424,-423,349,638,1,7,11
5.81E+02,-6974,566,-4437,-623,302,418,1,7,11
5.73E+02,-6933,598,-4441,-577,276,412,1,7,11
5.67E+02,-6654,384,-4432,-529,-11,636,1,7,11
5.67E+02,-6646,431,-4429,-233,-44,587,1,7,11
5.68E+02,-6643,467,-4435,-219,-76,540,1,7,11
5.69E+02,-6928,498,-4436,-221,-86,233,1,7,11
5.69E+02,-6957,788,-4441,-238,-97,208,1,7,11
5.72E+02,-6953,813,-4439,-253,-116,192,1,7,11
5.78E+02,-6933,836,-4457,-533,-121,173,1,7,11
5.88E+02,-6927,850,-4453,-575,-107,154,1,7,11
5.99E+02,-6925,849,-4453,-623,-90,130,1,7,11
6.03E+02,-6929,850,-4448,-414,-71,362,1,7,11
5.89E+02,-6930,848,-4425,-462,-60,339,1,7,11
5.66E+02,-6915,851,-4412,-506,-49,317,1,7,11
5.53E+02,-6647,858,-4395,-797,-32,300,1,7,11
5.56E+02,-6642,863,-4372,-831,-13,300,1,7,11
5.62E+02,-6634,875,-4354,-851,261,306,1,7,11
5.66E+02,-6632,891,-4093,-855,276,317,1,7,11
5.66E+02,-6631,655,-4082,-851,292,323,1,7,11
5.64E+02,-6647,674,-4061,-846,295,325,1,7,11
5.64E+02,-6926,677,-4048,-837,277,314,1,7,11
5.66E+02,-6964,685,-4013,-811,-8,291,1,7,11
5.72E+02,-6938,693,-4017,-497,-115,277,1,7,11
5.77E+02,-6592,706,-4063,-460,75,262,1,7,11
5.80E+02,-6755,724,-4379,-445,79,-23,1,7,11
5.80E+02,-6709,737,-4410,-458,-101,-52,1,7,11
5.75E+02,-6714,759,-4418,-474,272,-71,1,7,11
5.71E+02,-6765,1032,-4413,-483,129,-73,1,7,11
5.68E+02,-6569,1063,-4416,-468,208,-57,1,7,11
5.68E+02,-6629,1103,-4412,-433,245,-25,1,7,11
5.65E+02,-6940,1129,-4401,-387,237,271,1,7,11
5.60E+02,-6964,906,-4393,-590,181,318,1,7,11
5.54E+02,-6958,928,-4396,-543,351,353,1,7,11
5.47E+02,-6928,939,-4415,-247,-7,367,1,7,11
5.43E+02,-6598,961,-4447,-219,-112,372,1,7,11
5.41E+02,-6753,973,-4247,-218,72,355,1,7,11
5.41E+02,-6685,988,-4291,-253,75,323,1,7,11
5.40E+02,-6673,985,-4299,-557,-125,298,1,7,11
5.42E+02,-6683,982,-4286,-605,-64,286,1,7,11
5.49E+02,-6719,971,-4267,-638,-7,280,1,7,11
5.58E+02,-6771,967,-4238,-393,282,285,1,7,11
5.66E+02,-6549,975,-4475,-636,277,298,1,7,11
5.72E+02,-6586,988,-4449,-612,258,310,1,7,11
5.81E+02,-6607,991,-4445,-584,-53,331,1,7,11
5.95E+02,-6608,991,-4455,-548,-118,336,1,7,11
6.05E+02,-6601,993,-4458,-513,77,327,1,7,11
6.06E+02,-6556,1005,-4229,-210,18,314,1,7,11
6.01E+02,-6745,1285,-4250,-171,-276,305,1,7,11
6.00E+02,-6697,1307,-4258,-145,-273,295,1,7,11
6.06E+02,-6679,1323,-4256,-131,13,298,1,7,11
6.20E+02,-6691,1320,-4242,-377,57,314,1,7,11
6.39E+02,-6711,1337,-4474,-349,83,336,1,7,11
6.61E+02,-6721,1352,-4470,-315,100,352,1,7,11
6.81E+02,-6762,1371,-4462,-286,119,364,1,7,11
7.00E+02,-6551,1395,-4458,-260,116,129,1,7,11
7.17E+02,-6562,1172,-4453,15,92,147,1,7,11
7.35E+02,-6574,1209,-4448,21,70,154,1,7,11
7.52E+02,-6588,1239,-4439,13,44,157,1,7,11
7.63E+02,-6594,1267,-4428,-262,-257,156,1,7,11
7.64E+02,-6567,1277,-4438,-300,-315,136,1,7,11
7.52E+02,-6767,1279,-4441,-350,-365,351,1,7,11
7.36E+02,-6683,1274,-4434,-155,-382,290,1,7,11
7.23E+02,-6662,1263,-4423,-226,-365,-57,1,7,11
7.16E+02,-6393,1248,-4401,-549,-317,-81,1,7,11
7.09E+02,-6676,1243,-4383,-597,4,-116,1,7,11
6.97E+02,-6715,1239,-4361,-619,77,-122,1,7,11
6.79E+02,-6770,1246,-4091,-610,-113,-85,1,7,11
6.58E+02,-6571,1268,-4063,-577,-68,-41,1,7,11
6.36E+02,-6618,1539,-4042,-529,-57,265,1,7,11
6.19E+02,-6622,1544,-4041,-209,-84,291,1,7,11
6.13E+02,-6570,1545,-4055,-139,110,332,1,7,11
6.18E+02,-6734,1548,-4095,-333,47,343,1,7,11
6.34E+02,-6398,1559,-4393,-289,18,294,1,7,11
6.57E+02,-6361,1565,-4422,-269,44,-3,1,7,11
6.84E+02,-6369,1573,-4424,-269,-113,-33,1,7,11
7.11E+02,-6658,1582,-4414,-266,-44,-34,1,7,11
7.33E+02,-6701,1604,-4418,13,262,-17,1,7,11
7.49E+02,-6752,1633,-4425,45,284,271,1,7,11
7.53E+02,-6542,1655,-4421,62,280,304,1,7,11
7.46E+02,-6585,1411,-4414,69,-13,327,1,7,11
7.37E+02,-6611,1428,-4428,79,-88,338,1,7,11
7.37E+02,-6576,1441,-4445,71,74,336,1,7,11
7.52E+02,-6748,1440,-4480,44,-261,307,1,7,11
7.71E+02,-6678,1429,-4246,2,-285,258,1,7,11
7.84E+02,-6659,1411,-4244,-298,-264,-44,1,7,11
7.79E+02,-6687,1648,-4472,-324,35,-76,1,7,11
7.61E+02,-6734,1639,-4442,-319,68,-77,1,7,11
7.38E+02,-6772,1649,-4419,-276,85,-50,1,7,11
7.17E+02,-6535,1420,-4406,40,88,-8,1,7,11
7.01E+02,-6560,1455,-4378,101,83,299,1,7,11
6.92E+02,-6576,1495,-4354,-100,59,344,1,7,11
6.90E+02,-6597,1527,-4062,-66,23,363,1,7,11
6.90E+02,-6628,1807,-4025,-48,-289,356,1,7,11
6.87E+02,-6620,1818,-4012,-46,-376,322,1,7,11
6.80E+02,-6543,1811,-4013,-78,-208,-7,1,7,11
6.71E+02,-6707,1799,-4038,-124,-247,-115,1,7,11
6.63E+02,-6383,1528,-4068,75,-226,30,1,7,11
6.56E+02,-6363,1502,-4069,13,-147,-313,1,7,11
6.50E+02,-6387,1471,-4053,-293,-302,-360,1,7,11
6.48E+02,-6658,1437,-4031,-310,34,-370,1,7,11
6.52E+02,-6674,1654,-4020,-304,97,-369,1,7,11
6.66E+02,-6714,1636,-3993,-290,-107,-364,1,7,11
6.88E+02,-6766,1636,-4221,-273,-79,-340,1,7,11
7.08E+02,-6556,1650,-4224,-258,-81,-295,1,7,11
7.21E+02,-6558,1417,-4004,3,-106,19,1,7,11
7.29E+02,-6768,1448,-4054,-267,-118,78,1,7,11
7.38E+02,-6731,1462,-4362,-302,-94,125,1,7,11
7.56E+02,-6716,1470,-4389,-341,-36,-87,1,7,11
7.78E+02,-6712,1461,-4397,-372,280,-51,1,7,11
7.95E+02,-6728,1455,-4411,-379,325,-36,1,7,11
7.99E+02,-6742,1441,-4439,-368,343,-40,1,7,11
7.90E+02,-6746,1438,-4465,-330,331,-74,1,7,11
7.77E+02,-6754,1437,-4236,-298,317,-101,1,7,11
7.68E+02,-6767,1443,-4236,-265,303,-115,1,7,11
7.64E+02,-6783,1460,-4476,28,280,-113,1,7,11
7.61E+02,-6532,1475,-4474,61,-8,-100,1,7,11
7.52E+02,-6783,1490,-4459,94,-44,-81,1,7,11
7.36E+02,-6774,1517,-4448,118,-84,-70,1,7,11
7.21E+02,-6775,1808,-4438,-124,-123,-66,1,7,11
7.11E+02,-6779,1821,-4419,-128,93,-71,1,7,11
7.06E+02,-6778,1834,-4385,113,44,-86,1,7,11
7.01E+02,-6755,1826,-4359,94,-264,-114,1,7,11
6.93E+02,-6718,1812,-4088,63,-301,97,1,7,11
6.85E+02,-6686,1804,-4078,26,-306,46,1,7,11
6.83E+02,-6675,1526,-4068,-272,-293,6,1,7,11
6.93E+02,-6688,1508,-4061,-309,-272,-272,1,7,11
7.09E+02,-6711,1476,-4068,-335,1,-271,1,7,11
7.25E+02,-6757,1458,-4080,-341,13,28,1,7,11
7.35E+02,-6751,1456,-4371,-323,12,86,1,7,11
7.38E+02,-6742,1462,-4406,-295,34,-108,1,7,11
7.33E+02,-6750,1468,-4419,9,61,-43,1,7,11
7.22E+02,-6763,1462,-4431,47,75,265,1,7,11
7.10E+02,-6529,1461,-4436,70,72,305,1,7,11
7.03E+02,-6548,1487,-4444,-128,53,332,1,7,11
7.02E+02,-6571,1815,-4466,-78,20,354,1,7,11
7.01E+02,-6569,1907,-4230,-60,-286,135,1,7,11
6.95E+02,-6548,1731,-4257,81,-340,172,1,7,11
6.83E+02,-6780,1775,-4269,-338,-370,211,1,7,11
6.71E+02,-6757,1780,-4259,-538,-129,237,1,7,11
6.60E+02,-6762,1775,-4229,-474,-382,238,1,7,11
6.52E+02,-6769,1756,-4420,-822,-130,233,1,7,11
6.44E+02,-6753,1721,-4358,-1038,-157,209,1,7,11
6.35E+02,-6756,1704,-4032,-1116,-173,171,1,7,11
6.26E+02,-6761,1692,-4213,-1151,-187,146,1,7,11
6.15E+02,-6755,1678,-4149,-1140,-201,131,1,7,11
6.07E+02,-6780,1680,-3835,-1099,-196,374,1,7,11
6.06E+02,-6538,1686,-3782,-1031,-196,370,1,7,11
6.13E+02,-6538,1691,-3747,-695,-189,362,1,7,11
6.22E+02,-6780,1704,-3731,-862,-171,348,1,7,11
6.30E+02,-6745,1736,-3736,-512,-143,336,1,7,11
6.40E+02,-6698,1761,-3746,-430,-340,324,1,7,11
6.60E+02,-6676,2066,-3769,-606,9,302,1,7,11
6.90E+02,-6715,2115,-3776,-537,123,288,1,7,11
7.19E+02,-6756,2143,-3782,-219,-50,285,1,7,11
7.32E+02,-6543,2168,-3788,-157,-7,269,1,7,11
7.29E+02,-6574,1921,-3783,-355,257,-16,1,7,11
7.19E+02,-6594,1928,-3789,-299,-25,-52,1,7,11
7.13E+02,-6588,1936,-3804,13,-76,-86,1,7,11
7.16E+02,-6784,1941,-3819,61,-127,-103,1,7,11
7.26E+02,-6686,1923,-4127,92,112,-117,1,7,11
7.43E+02,-6359,2159,-4161,99,-96,116,1,7,11
7.63E+02,-6320,2142,-4197,101,-11,95,1,7,11
7.82E+02,-6338,2127,-4206,106,346,78,1,7,11
7.95E+02,-6678,2123,-4205,-128,183,82,1,7,11
8.00E+02,-6766,2141,-4199,-81,218,112,1,7,11
8.00E+02,-6570,2168,-4209,-15,191,-92,1,7,11
7.96E+02,-6620,1933,-4213,294,135,-39,1,7,11
7.90E+02,-6639,1925,-4219,340,302,266,1,7,11
7.84E+02,-6611,1937,-3986,383,-121,275,1,7,11
7.79E+02,-6549,1953,-4016,149,87,251,1,7,11
7.74E+02,-6724,1948,-4051,383,7,-44,1,7,11
7.67E+02,-6674,1948,-4057,344,20,-102,1,7,11
7.51E+02,-6400,1937,-4049,296,60,112,1,7,11
7.25E+02,-6663,2172,-4028,258,93,84,1,7,11
7.00E+02,-6693,2152,-3995,-19,123,71,1,7,11
6.85E+02,-6731,2143,-4220,-22,-114,83,1,7,11
6.83E+02,-6752,2142,-4205,-12,-124,113,1,7,11
6.85E+02,-6764,2152,-4210,257,124,-112,1,7,11
6.83E+02,-6771,2165,-4209,258,122,-82,1,7,11
6.78E+02,-6781,2170,-4203,257,107,-59,1,7,11
6.78E+02,-6535,1925,-4198,-7,87,-51,1,7,11
6.90E+02,-6538,1934,-4184,-22,63,-48,1,7,11
7.07E+02,-6756,1928,-4193,-47,17,-58,1,7,11
7.21E+02,-6692,2167,-4208,-87,-275,-95,1,7,11
7.27E+02,-6392,2143,-4212,117,-270,106,1,7,11
7.30E+02,-6365,2116,-3979,77,20,59,1,7,11
7.35E+02,-6353,2093,-3992,53,83,28,1,7,11
7.48E+02,-6353,2078,-4000,49,-100,20,1,7,11
7.63E+02,-6383,2080,-4006,68,-19,32,1,7,11
7.77E+02,-6701,2098,-4001,102,297,74,1,7,11
7.84E+02,-6776,2119,-4000,-113,321,-121,1,7,11
7.85E+02,-6579,2143,-3993,-70,291,-55,1,7,11
7.83E+02,-6617,2152,-3979,-37,-40,-3,1,7,11
7.79E+02,-6590,1921,-3995,-7,108,286,1,7,11
7.74E+02,-6760,1929,-4025,-5,-303,274,1,7,11
7.69E+02,-6668,1945,-4049,-41,-337,-20,1,7,11
7.64E+02,-6360,1941,-4049,-96,-306,-63,1,7,11
7.55E+02,-6353,1931,-4034,111,22,-99,1,7,11
7.36E+02,-6369,2172,-4007,86,90,-122,1,7,11
7.03E+02,-6660,2154,-3988,87,-108,123,1,7,11
6.64E+02,-6686,2157,-3984,109,-71,125,1,7,11
6.30E+02,-6714,2169,-3990,-127,-48,-122,1,7,11
6.06E+02,-6741,1932,-3986,-120,-42,-110,1,7,11
5.92E+02,-6769,1948,-3981,127,-58,-102,1,7,11
5.86E+02,-6530,1962,-3981,110,-91,-107,1,7,11
5.85E+02,-6540,1967,-3972,78,117,-120,1,7,11
5.83E+02,-6766,1973,-3980,37,53,113,1,7,11
5.83E+02,-6710,1964,-3982,-275,9,73,1,7,11
5.93E+02,-6397,1935,-3987,-344,-262,28,1,7,11
6.15E+02,-6367,2150,-3988,-145,15,-280,1,7,11
6.37E+02,-6360,2124,-3985,-180,62,-317,1,7,11
6.52E+02,-6343,2102,-3996,-186,124,-331,1,7,11
6.60E+02,-6354,2091,-4002,-166,-51,-329,1,7,11
6.71E+02,-6397,2093,-3997,-377,288,-298,1,7,11
6.92E+02,-6720,2109,-3999,-317,343,19,1,7,11
7.14E+02,-6535,2126,-3992,6,353,100,1,7,11
7.27E+02,-6577,2149,-3990,77,316,-75,1,7,11
7.23E+02,-6580,2172,-3983,-122,-12,-17,1,7,11
7.07E+02,-6552,1945,-3985,-85,-106,270,1,7,11
6.85E+02,-6758,1969,-4008,-80,62,264,1,7,11
6.64E+02,-6702,1991,-4034,-114,2,-33,1,7,11
6.48E+02,-6395,2011,-4052,81,-281,-93,1,7,11
6.38E+02,-6336,2002,-4058,-258,-274,105,1,7,11
6.32E+02,-6298,1982,-4058,-338,29,53,1,7,11
6.24E+02,-6296,1940,-4044,-149,108,12,1,7,11
6.10E+02,-6329,2153,-4015,-177,-63,-264,1,7,11
5.97E+02,-6388,2129,-3994,-157,261,-259,1,7,11
5.93E+02,-6702,2131,-3976,-355,305,34,1,7,11
5.93E+02,-6762,2143,-3976,-279,317,92,1,7,11
5.93E+02,-6534,1920,-3981,56,295,-100,1,7,11
5.91E+02,-6531,1945,-4002,119,-9,-47,1,7,11
5.89E+02,-6775,1969,-4021,-100,-63,-27,1,7,11
5.88E+02,-6753,1994,-4040,-88,-124,-29,1,7,11
5.87E+02,-6709,2010,-4049,-97,64,-56,1,7,11
5.83E+02,-6383,2013,-4057,126,20,-103,1,7,11
5.80E+02,-6336,1995,-4072,78,18,99,1,7,11
5.85E+02,-6320,1980,-4066,32,52,51,1,7,11
5.99E+02,-6325,1960,-4063,4,99,18,1,7,11
6.15E+02,-6350,1931,-4050,-264,-107,-257,1,7,11
6.27E+02,-6658,1921,-4046,0,-67,-258,1,7,11
6.36E+02,-6702,1926,-4043,21,-54,19,1,7,11
6.45E+02,-6731,1936,-4047,45,-61,51,1,7,11
6.55E+02,-6756,1952,-4054,65,-74,90,1,7,11
6.66E+02,-6772,1970,-4042,77,-106,127,1,7,11
6.77E+02,-6756,1982,-4029,86,100,-108,1,7,11
6.86E+02,-6736,1995,-4024,86,47,-109,1,7,11
6.91E+02,-6707,1992,-4009,76,6,-123,1,7,11
6.90E+02,-6672,1989,-3989,56,-284,110,1,7,11
6.82E+02,-6379,1974,-3973,26,-294,78,1,7,11
6.67E+02,-6350,1965,-4219,-264,-271,42,1,7,11
6.47E+02,-6318,1955,-4215,-304,18,15,1,7,11
6.36E+02,-6288,1961,-3974,-342,76,-263,1,7,11
6.45E+02,-6295,1984,-4006,-145,-104,-265,1,7,11
6.66E+02,-6332,2025,-4034,-234,-26,13,1,7,11
6.86E+02,-6370,2317,-4053,-600,295,63,1,7,11
6.93E+02,-6392,2343,-4090,-452,339,-120,1,7,11
6.92E+02,-6659,2366,-4360,-814,375,-48,1,7,11
6.92E+02,-6683,2378,-4372,-649,145,274,1,7,11
6.98E+02,-6706,2379,-4367,-707,147,332,1,7,11
7.05E+02,-6737,2363,-4082,-734,360,371,1,7,11
7.09E+02,-6758,2356,-4058,-706,302,358,1,7,11
7.05E+02,-6756,2355,-4016,-653,-42,324,1,7,11
6.94E+02,-6726,2351,-3992,-833,121,263,1,7,11
6.76E+02,-6679,2351,-3975,-503,51,-71,1,7,11
6.57E+02,-6364,2343,-4219,-433,13,103,1,7,11
6.45E+02,-6309,2339,-4204,-619,9,18,1,7,11
6.46E+02,-6280,2330,-4188,-560,45,-309,1,7,11
6.51E+02,-6524,2322,-4182,-243,101,-359,1,7,11
6.53E+02,-6306,2329,-4170,-188,-83,-382,1,7,11
6.52E+02,-6374,2340,-4152,-130,-24,-369,1,7,11
6.60E+02,-6677,2363,-4148,-318,-17,-320,1,7,11
6.88E+02,-6693,2390,-4162,2,-36,-258,1,7,11
7.28E+02,-6689,2416,-4191,52,-65,55,1,7,11
7.67E+02,-6676,2185,-4219,87,-93,102,1,7,11
7.90E+02,-6396,2198,-3983,106,-122,127,1,7,11
7.99E+02,-6382,2195,-3994,119,107,-124,1,7,11
7.98E+02,-6366,2186,-3990,123,81,117,1,7,11
7.94E+02,-6386,2431,-3975,-121,56,99,1,7,11
7.89E+02,-6361,2422,-3970,-87,9,98,1,7,11
7.81E+02,-6324,2407,-3983,-58,-272,87,1,7,11
7.66E+02,-6320,2393,-3976,-41,-258,74,1,7,11
7.45E+02,-6326,2369,-3977,-17,14,59,1,7,11
7.21E+02,-6321,2365,-4004,277,31,39,1,7,11
6.96E+02,-6334,2396,-4050,305,101,12,1,7,11
6.73E+02,-6393,2401,-4037,296,-106,18,1,7,11
6.58E+02,-6695,2394,-4014,289,-101,35,1,7,11
6.53E+02,-6725,2379,-3997,282,-127,46,1,7,11
6.58E+02,-6725,2374,-3998,281,75,42,1,7,11
6.71E+02,-6684,2377,-4016,269,21,19,1,7,11
6.91E+02,-6385,2384,-4040,-20,9,-271,1,7,11
7.16E+02,-6358,2384,-4049,-63,32,-300,1,7,11
7.43E+02,-6361,2375,-4052,-106,70,-319,1,7,11
7.70E+02,-6384,2365,-4035,117,100,-328,1,7,11
7.92E+02,-6658,2341,-4014,100,110,-337,1,7,11
8.03E+02,-6673,2326,-3994,99,100,-351,1,7,11
8.01E+02,-6686,2310,-4223,96,80,-366,1,7,11
7.85E+02,-6701,2025,-4213,95,51,-131,1,7,11
7.59E+02,-6702,2017,-4210,100,19,-141,1,7,11
7.25E+02,-6665,2012,-4224,104,0,-133,1,7,11
6.95E+02,-6364,2001,-3990,105,21,-377,1,7,11
6.79E+02,-6342,1995,-4007,102,82,-351,1,7,11
6.80E+02,-6346,1990,-4004,109,-110,-318,1,7,11
6.89E+02,-6355,1993,-4000,-126,-65,-277,1,7,11
6.95E+02,-6369,2009,-4013,-96,-37,20,1,7,11
6.97E+02,-6661,2024,-4005,-72,-21,61,1,7,11
7.00E+02,-6684,2031,-4017,-45,-40,110,1,7,11
7.06E+02,-6689,2038,-4025,-22,-71,-111,1,7,11
7.14E+02,-6704,2041,-4025,-8,-105,-99,1,7,11
7.18E+02,-6720,2308,-4017,260,104,-104,1,7,11
7.15E+02,-6722,2312,-4023,267,57,127,1,7,11
7.11E+02,-6733,2328,-4032,263,17,86,1,7,11
7.20E+02,-6723,2333,-4043,-7,-286,39,1,7,11
7.47E+02,-6711,2337,-4042,-34,-322,-286,1,7,11
7.80E+02,-6715,2325,-4035,-73,-347,-364,1,7,11
8.03E+02,-6718,2305,-4016,-113,-372,-185,1,7,11
8.02E+02,-6721,2022,-3987,111,-140,-514,1,7,11
7.87E+02,-6731,2001,-4209,89,-166,-583,1,7,11
7.73E+02,-6725,1963,-4168,70,-193,-386,1,7,11
7.75E+02,-6706,1930,-4111,64,-204,-436,1,7,11
7.91E+02,-6669,2162,-4098,66,-202,-465,1,7,11
8.13E+02,-6384,2143,-3821,65,-171,-484,1,7,11
8.30E+02,-6356,2137,-3821,57,-367,-491,1,7,11
8.40E+02,-6340,2132,-3832,36,-283,-486,1,7,11
8.45E+02,-6380,2122,-3835,3,-124,-472,1,7,11
8.49E+02,-6678,2123,-4107,-284,-32,-454,1,7,11
8.55E+02,-6693,2136,-4142,-290,290,-431,1,7,11
8.60E+02,-6708,2146,-4182,-297,358,-417,1,7,11
8.62E+02,-6725,2143,-4224,-318,164,-412,1,7,11
8.61E+02,-6746,2129,-4003,-344,212,-429,1,7,11
8.56E+02,-6766,2109,-4030,-364,241,-465,1,7,11
8.50E+02,-6760,2087,-4066,-376,251,-512,1,7,11
8.45E+02,-6747,2072,-4353,-146,523,-822,1,7,11
8.42E+02,-6742,1791,-4367,-176,546,-865,1,7,11
8.40E+02,-6734,1769,-4373,-205,566,-891,1,7,11
8.37E+02,-6753,1745,-4373,-220,587,-652,1,7,11
8.33E+02,-6780,1716,-4359,-222,582,-662,1,7,11
8.26E+02,-6539,1697,-4088,-203,550,-679,1,7,11
8.17E+02,-6566,1679,-4043,-196,530,-702,1,7,11
8.05E+02,-6569,1883,-3993,-186,173,-726,1,7,11
7.90E+02,-6762,1495,-4193,-188,349,-765,1,7,11
7.74E+02,-6700,1563,-4110,-157,327,-1107,1,7,11
7.56E+02,-6394,1187,-3799,12,346,-950,1,7,11
7.39E+02,-6317,1396,-3805,242,142,-1303,1,7,11
7.26E+02,-6275,1402,-4100,594,250,-1394,1,7,11
7.19E+02,-6518,1180,-4173,647,389,-1204,1,7,11
7.17E+02,-6278,1230,-4013,1380,797,-1233,1,7,11
7.17E+02,-6315,1538,-4367,1245,686,-1241,1,7,11
7.14E+02,-6347,1568,-4458,1266,1056,-1224,1,7,11
7.11E+02,-6400,1583,-4298,1209,1143,-1198,1,7,11
7.15E+02,-6712,1578,-4632,1342,940,-1160,1,7,11
7.30E+02,-6774,1556,-4693,923,940,-1362,1,7,11
7.49E+02,-6567,1279,-4494,741,1144,-1302,1,7,11
7.67E+02,-6605,1257,-4541,808,1050,-964,1,7,11
7.75E+02,-6604,1225,-4574,604,669,-1115,1,7,11
7.76E+02,-6590,1181,-4597,143,789,-754,1,7,11
7.75E+02,-6579,1383,-4593,-49,401,-659,1,7,11
7.77E+02,-6546,1326,-4592,29,513,-830,1,7,11
7.83E+02,-6755,1000,-4586,-130,379,-510,1,7,11
7.90E+02,-6710,939,-4573,-518,279,-471,1,7,11
7.99E+02,-6683,1143,-4554,-624,-43,-442,1,7,11
8.08E+02,-6396,1091,-4544,-449,-85,-418,1,7,11
8.18E+02,-6369,1060,-4518,-504,-103,-398,1,7,11
8.28E+02,-6360,1030,-4491,-796,-109,-625,1,7,11
8.37E+02,-6372,754,-4711,-808,-115,-587,1,7,11
8.40E+02,-6389,733,-4688,-804,-128,-530,1,7,11
8.33E+02,-6397,719,-4675,-786,104,-206,1,7,11
8.14E+02,-6670,718,-4653,-508,87,-137,1,7,11
7.91E+02,-6677,719,-4629,-479,66,-312,1,7,11
7.72E+02,-6672,723,-4607,-446,30,21,1,7,11
7.67E+02,-6399,729,-4343,-410,-257,89,1,7,11
7.73E+02,-6365,744,-4348,-629,-280,-111,1,7,11
7.84E+02,-6315,1034,-4363,-596,-281,-72,1,7,11
7.95E+02,-6285,1096,-4655,-580,16,-37,1,7,11
8.03E+02,-6277,923,-4708,-601,77,257,1,7,11
8.11E+02,-6329,1371,-4509,-415,-112,303,1,7,11
8.20E+02,-6378,1248,-4550,-822,-68,362,1,7,11
8.29E+02,-6405,1612,-4588,-1050,-58,190,1,7,11
8.35E+02,-6687,1414,-4591,-1336,-65,538,1,7,11
8.37E+02,-6682,1408,-4549,-1815,-81,411,1,7,11
8.33E+02,-6392,1619,-4504,-2077,-127,449,1,7,11
8.25E+02,-6332,1568,-4720,-2011,76,426,1,7,11
8.15E+02,-6277,1261,-4689,-2387,40,619,1,7,11
8.04E+02,-6500,1228,-4658,-2429,49,536,1,7,11
7.94E+02,-6481,1209,-4350,-2390,84,204,1,7,11
7.86E+02,-6481,1233,-4316,-2006,-112,146,1,7,11
7.80E+02,-6501,1262,-4282,-2073,-54,376,1,7,11
7.77E+02,-6522,1554,-4264,-1845,-11,371,1,7,11
7.76E+02,-6277,1595,-4258,-1586,275,378,1,7,11
7.78E+02,-6304,1624,-4242,-1320,296,380,1,7,11
7.83E+02,-6336,1427,-4473,-1056,296,368,1,7,11
7.90E+02,-6366,1452,-4458,-804,266,347,1,7,11
8.02E+02,-6356,1476,-4457,-566,-56,324,1,7,11
8.18E+02,-6304,1511,-4243,-345,126,290,1,7,11
8.36E+02,-6473,1556,-4296,97,72,-10,1,7,11
8.54E+02,-6143,1850,-4350,-28,69,-58,1,7,11
8.73E+02,-6107,1877,-4645,290,116,-93,1,7,11
8.88E+02,-6402,1885,-4653,303,-73,-116,1,7,11
8.98E+02,-6471,1879,-4662,290,-14,-124,1,7,11
9.00E+02,-6309,1880,-4647,275,263,-116,1,7,11
8.94E+02,-6398,1879,-4636,265,-29,-93,1,7,11
8.83E+02,-6717,1886,-4618,272,-107,-61,1,7,11
8.72E+02,-6739,1893,-4344,311,48,-18,1,7,11
8.62E+02,-6720,1909,-4339,344,-313,283,1,7,11
8.55E+02,-6665,1912,-4341,361,-149,320,1,7,11
8.49E+02,-6344,1902,-4342,137,-203,337,1,7,11
8.46E+02,-6296,1882,-4331,177,-219,337,1,7,11
8.43E+02,-6517,1868,-4318,205,-209,331,1,7,11
8.38E+02,-6497,1842,-4269,234,-183,318,1,7,11
8.29E+02,-6488,1840,-4267,526,-152,303,1,7,11
8.15E+02,-6486,1844,-4260,559,-371,292,1,7,11
7.97E+02,-6490,1851,-4268,581,-327,286,1,7,11
7.78E+02,-6512,1860,-4280,592,-279,289,1,7,11
7.60E+02,-6293,1861,-4275,598,21,301,1,7,11
7.47E+02,-6339,1860,-4253,611,41,320,1,7,11
7.43E+02,-6368,1856,-4253,628,29,342,1,7,11
7.51E+02,-6374,1862,-4244,398,-264,354,1,7,11
7.66E+02,-6340,1872,-4263,427,-311,356,1,7,11
7.85E+02,-6282,1873,-4301,429,-347,346,1,7,11
8.01E+02,-6490,1867,-4334,417,-347,317,1,7,11
8.16E+02,-6476,1864,-4348,388,-316,290,1,7,11
8.26E+02,-6479,1862,-4351,605,-273,274,1,7,11
8.33E+02,-6504,1857,-4339,568,26,275,1,7,11
8.37E+02,-6279,1858,-4335,543,57,290,1,7,11
8.36E+02,-6313,1861,-4325,519,68,309,1,7,11
8.32E+02,-6351,1857,-4322,241,65,321,1,7,11
8.26E+02,-6380,1862,-4317,230,46,324,1,7,11
8.18E+02,-6382,1872,-4324,228,19,318,1,7,11
8.12E+02,-6387,1889,-4327,225,-261,300,1,7,11
8.08E+02,-6395,1897,-4332,210,-288,279,1,7,11
8.03E+02,-6378,1890,-4337,195,-334,-2,1,7,11
7.93E+02,-6344,1868,-4345,174,-381,-40,1,7,11
7.77E+02,-6324,1832,-4611,151,-157,-86,1,7,11
7.59E+02,-6293,1532,-4626,132,-183,-128,1,7,11
7.47E+02,-6276,1501,-4622,374,-186,99,1,7,11
7.44E+02,-6277,1471,-4352,369,-166,96,1,7,11
7.46E+02,-6293,1449,-4314,383,-135,125,1,7,11
7.41E+02,-6329,1438,-4313,157,-358,-74,1,7,11
7.23E+02,-6368,1424,-4295,197,-335,259,1,7,11
6.98E+02,-6385,1425,-4288,254,-333,332,1,7,11
6.74E+02,-6399,1433,-4283,566,-341,132,1,7,11
6.56E+02,-6675,1457,-4271,608,-351,170,1,7,11
6.43E+02,-6699,1472,-4252,639,-370,196,1,7,11
6.31E+02,-6719,1494,-4240,405,-146,211,1,7,11
6.20E+02,-6715,1506,-4229,420,-186,210,1,7,11
6.10E+02,-6709,1525,-4470,420,-222,186,1,7,11
6.01E+02,-6708,1531,-4452,400,-246,147,1,7,11
5.94E+02,-6694,1517,-4452,626,-530,364,1,7,11
5.89E+02,-6400,1510,-4455,595,-559,314,1,7,11
5.87E+02,-6368,1486,-4461,552,-562,265,1,7,11
5.87E+02,-6354,1446,-4443,512,-530,-22,1,7,11
5.91E+02,-6338,1425,-4441,246,-233,-26,1,7,11
5.98E+02,-6323,1419,-4427,514,-177,-1,1,7,11
6.09E+02,-6330,1413,-4431,538,-366,308,1,7,11
6.23E+02,-6355,1412,-4447,575,-298,364,1,7,11
6.40E+02,-6381,1413,-4452,625,15,163,1,7,11
6.60E+02,-6663,1422,-4455,421,53,203,1,7,11
6.82E+02,-6692,1436,-4456,460,72,225,1,7,11
7.05E+02,-6727,1451,-4445,493,63,229,1,7,11
7.25E+02,-6721,1464,-4460,768,1,190,1,7,11
7.37E+02,-6675,1478,-4229,769,-304,134,1,7,11
7.41E+02,-6368,1489,-4255,450,-326,314,1,7,11
7.38E+02,-6339,1494,-4268,621,-306,-26,1,7,11
7.33E+02,-6348,1491,-4269,253,-262,-96,1,7,11
7.25E+02,-6364,1477,-4251,137,36,107,1,7,11
7.17E+02,-6383,1465,-4244,280,65,66,1,7,11
7.11E+02,-6681,1445,-4227,-93,86,35,1,7,11
7.07E+02,-6733,1423,-4468,67,90,13,1,7,11
7.08E+02,-6540,1414,-4447,-261,84,7,1,7,11
7.16E+02,-6559,1417,-4429,-304,48,22,1,7,11
7.25E+02,-6534,1414,-4421,-329,13,44,1,7,11
7.26E+02,-6749,1652,-4425,-341,-261,61,1,7,11
7.13E+02,-6713,1631,-4433,-337,-264,62,1,7,11
6.94E+02,-6683,1610,-4436,-319,-257,53,1,7,11
6.80E+02,-6670,1596,-4431,-285,11,38,1,7,11
6.78E+02,-6666,1584,-4422,7,26,26,1,7,11
6.86E+02,-6396,1572,-4417,51,41,27,1,7,11
7.02E+02,-6389,1569,-4408,95,61,37,1,7,11
7.22E+02,-6391,1574,-4414,-120,82,57,1,7,11
7.39E+02,-6392,1594,-4448,-91,105,82,1,7,11
7.49E+02,-6677,1614,-4467,-90,-113,113,1,7,11
7.50E+02,-6704,1630,-4237,-101,-103,-106,1,7,11
7.49E+02,-6717,1638,-4255,123,-118,-85,1,7,11
7.50E+02,-6740,1638,-4248,87,120,-82,1,7,11
7.56E+02,-6751,1644,-4253,55,76,-87,1,7,11
7.62E+02,-6744,1654,-4258,34,39,-100,1,7,11
7.67E+02,-6757,1660,-4252,15,13,-110,1,7,11
7.68E+02,-6775,1658,-4239,9,5,-115,1,7,11
7.67E+02,-6542,1652,-4465,14,-268,-124,1,7,11
7.68E+02,-6557,1640,-4427,31,-296,114,1,7,11
7.71E+02,-6553,1622,-4397,45,-341,87,1,7,11
7.74E+02,-6773,1610,-4374,61,-132,49,1,7,11
7.77E+02,-6723,1599,-4364,72,-154,10,1,7,11
7.76E+02,-6681,1598,-4363,69,-140,-271,1,7,11
7.70E+02,-6399,1583,-4355,57,-349,-277,1,7,11
7.58E+02,-6400,1584,-4088,51,-288,1,1,7,11
7.40E+02,-6662,1577,-4085,55,25,48,1,7,11
7.23E+02,-6673,1574,-4086,78,78,108,1,7,11
7.16E+02,-6699,1588,-4079,111,-124,-78,1,7,11
7.23E+02,-6734,1608,-4090,-110,-82,-5,1,7,11
7.36E+02,-6758,1639,-4360,-80,-66,320,1,7,11
7.51E+02,-6772,1417,-4373,-62,-70,362,1,7,11
7.62E+02,-6532,1446,-4383,-64,-87,376,1,7,11
7.71E+02,-6529,1475,-4394,-81,-120,366,1,7,11
7.81E+02,-6780,1502,-4402,-108,104,332,1,7,11
7.91E+02,-6762,1518,-4401,107,73,288,1,7,11
7.99E+02,-6751,1523,-4393,65,54,-18,1,7,11
7.99E+02,-6736,1517,-4389,21,34,-62,1,7,11
7.89E+02,-6708,1504,-4391,-275,18,-111,1,7,11
7.75E+02,-6685,1493,-4404,-320,28,94,1,7,11
7.60E+02,-6662,1482,-4425,-352,56,52,1,7,11
7.50E+02,-6392,1465,-4449,-380,106,16,1,7,11
7.47E+02,-6667,1456,-4447,-141,-85,-263,1,7,11
7.50E+02,-6726,1447,-4434,-137,-37,-266,1,7,11
7.57E+02,-6533,1434,-4409,-374,-26,2,1,7,11
7.65E+02,-6594,1421,-4379,-340,-53,21,1,7,11
7.70E+02,-6622,1415,-4080,-294,-116,42,1,7,11
7.66E+02,-6580,1428,-4076,12,23,61,1,7,11
7.59E+02,-6777,1435,-4080,48,-274,66,1,7,11
7.55E+02,-6708,1445,-4358,49,-279,64,1,7,11
7.59E+02,-6389,1452,-4381,29,11,54,1,7,11
7.66E+02,-6350,1450,-4394,-259,78,49,1,7,11
7.66E+02,-6351,1435,-4396,-286,-97,48,1,7,11
7.50E+02,-6378,1420,-4391,-310,-22,47,1,7,11
7.24E+02,-6692,1663,-4374,-319,288,60,1,7,11
7.00E+02,-6742,1410,-4372,-305,306,85,1,7,11
6.86E+02,-6759,1425,-4385,-279,301,118,1,7,11
6.75E+02,-6766,1446,-4407,0,291,-109,1,7,11
6.56E+02,-6776,1468,-4430,4,287,-90,1,7,11
6.26E+02,-6549,1519,-4419,-286,-28,-103,1,7,11
6.00E+02,-6535,1530,-4399,-310,-80,-122,1,7,11
5.88E+02,-6763,1527,-4390,-338,-128,107,1,7,11
5.84E+02,-6716,1515,-4384,-363,93,74,1,7,11
5.78E+02,-6669,1501,-4385,-136,87,39,1,7,11
5.67E+02,-6376,1478,-4392,-157,108,6,1,7,11
5.59E+02,-6355,1456,-4387,-161,-111,-272,1,7,11
5.57E+02,-6352,1437,-4390,-151,-58,-279,1,7,11
5.55E+02,-6358,1435,-4381,-139,-6,-266,1,7,11
5.51E+02,-6380,1436,-4394,-363,294,22,1,7,11
5.46E+02,-6659,1459,-4415,-289,331,62,1,7,11
5.42E+02,-6694,1482,-4442,9,355,103,1,7,11
5.39E+02,-6737,1510,-4460,44,357,-117,1,7,11
5.36E+02,-6757,1797,-4474,62,326,-92,1,7,11
5.32E+02,-6759,1830,-4476,62,274,-89,1,7,11
5.28E+02,-6744,1867,-4231,40,-39,-105,1,7,11
5.26E+02,-6721,1905,-4239,-268,-80,124,1,7,11
5.25E+02,-6685,1677,-4233,-355,-114,105,1,7,11
5.22E+02,-6391,1691,-4232,-221,126,78,1,7,11
5.17E+02,-6360,1692,-4232,-625,-122,51,1,7,11
5.14E+02,-6333,1672,-4232,-784,-91,16,1,7,11
5.14E+02,-6311,1905,-4241,-670,-40,-281,1,7,11
5.15E+02,-6298,1897,-4254,-1036,277,-315,1,7,11
5.15E+02,-6311,1892,-4262,-1123,352,-348,1,7,11
5.14E+02,-6365,1881,-4238,-920,160,-370,1,7,11
5.12E+02,-6687,1854,-4451,-931,179,-376,1,7,11
5.11E+02,-6754,1810,-4373,-1141,147,-130,1,7,11
5.10E+02,-6549,1799,-4094,-1049,330,-141,1,7,11
5.11E+02,-6557,1527,-4062,-661,-31,-141,1,7,11
5.13E+02,-6760,1530,-4067,-770,127,-138,1,7,11
5.15E+02,-6681,1533,-4082,-390,78,-142,1,7,11
5.15E+02,-6350,1801,-4375,-547,83,-151,1,7,11
5.14E+02,-6294,1816,-4414,-221,-124,-170,1,7,11
5.15E+02,-6285,1825,-4451,-178,-45,-200,1,7,11
5.17E+02,-6337,1831,-4459,-143,277,-229,1,7,11
5.16E+02,-6675,1840,-4475,-353,291,-239,1,7,11
5.13E+02,-6746,1841,-4241,-307,-7,-233,1,7,11
5.11E+02,-6577,1844,-4230,-258,-84,-216,1,7,11
5.09E+02,-6915,1855,-4226,66,51,-183,1,7,11
5.06E+02,-6982,1900,-4478,-97,-364,-141,1,7,11
5.04E+02,-6791,1912,-4468,-1,-539,-329,1,7,11
5.05E+02,-6800,1668,-4475,367,-484,6,1,7,11
5.08E+02,-6803,1668,-4458,227,-684,73,1,7,11
5.13E+02,-6994,1854,-4460,602,-899,120,1,7,11
5.18E+02,-6649,1813,-4467,462,-1351,97,1,7,11
5.19E+02,-6579,1462,-4462,827,-1247,-258,1,7,11
5.21E+02,-6778,1626,-4441,672,-1623,-159,1,7,11
5.28E+02,-6734,1542,-4401,751,-1447,-607,1,7,11
5.39E+02,-6744,1231,-4075,1074,-1479,-800,1,7,11
5.42E+02,-6774,1163,-4219,1129,-1501,-696,1,7,11
5.40E+02,-6554,1315,-4152,930,-1513,-1054,1,7,11
5.44E+02,-6593,998,-3838,982,-1496,-1121,1,7,11
5.56E+02,-6919,929,-3758,1009,-1457,-1126,1,7,11
5.64E+02,-7026,1115,-3946,1282,-1410,-1091,1,7,11
5.60E+02,-6892,1052,-3868,1298,-1646,-748,1,7,11
5.52E+02,-7264,744,-3541,1324,-1661,-873,1,7,11
5.53E+02,-7070,706,-3518,1378,-1480,-447,1,7,11
5.60E+02,-7096,685,-3522,1177,-1832,-523,1,7,11
5.64E+02,-7469,686,-3462,1214,-1891,-332,1,7,11
5.62E+02,-7405,765,-3660,1838,-2383,729,1,7,11
5.52E+02,-7344,748,-3673,1676,-2292,1309,1,7,11
5.38E+02,-7306,740,-3680,1778,-2683,1275,1,7,11
5.32E+02,-7551,761,-3651,2118,-2528,1423,1,7,11
5.41E+02,-7528,1083,-3610,1931,-2874,1528,1,7,11
5.51E+02,-7465,914,-3317,1972,-2941,1863,1,7,11
5.53E+02,-7167,990,-3281,1973,-2694,1914,1,7,11
5.53E+02,-7144,1321,-3246,1969,-2917,1714,1,7,11
5.57E+02,-7116,1387,-3204,1959,-2853,1786,1,7,11
5.65E+02,-7075,1204,-3373,1944,-2500,2099,1,7,11
5.72E+02,-7092,1246,-3020,1921,-2635,2114,1,7,11
5.76E+02,-7155,1270,-3169,2139,-2255,2077,1,7,11
5.77E+02,-7503,1557,-2800,2091,-2411,1727,1,7,11
5.75E+02,-7309,1600,-2697,1787,-2357,1862,1,7,11
5.74E+02,-7592,1842,-2266,1412,-2176,1321,1,7,11
5.76E+02,-7630,1897,-2420,1560,-2155,1293,1,7,11
5.79E+02,-7633,1668,-2332,1170,-2125,990,1,7,11
5.82E+02,-7639,1678,-1993,1283,-2094,906,1,7,11
5.84E+02,-7632,1706,-1928,1112,-2068,1059,1,7,11
5.85E+02,-7620,1736,-2134,760,-1772,681,1,7,11
5.85E+02,-7633,1746,-2069,660,-1691,790,1,7,11
5.83E+02,-7660,1757,-1756,837,-1833,636,1,7,11
5.82E+02,-7667,1765,-1702,770,-1458,215,1,7,11
5.81E+02,-7951,1751,-1860,431,-1586,290,1,7,11
5.79E+02,-7987,1733,-1487,613,-1239,119,1,7,11
5.77E+02,-8014,1700,-1664,550,-1210,-266,1,7,11
5.73E+02,-8040,1679,-1590,225,-1207,-348,1,7,11
5.72E+02,-8030,1669,-1566,165,-1236,-358,1,7,11
5.74E+02,-7970,1918,-1568,348,-1255,-308,1,7,11
5.82E+02,-7647,1907,-1562,-1,-1215,23,1,7,11
5.93E+02,-7592,1886,-1271,-83,-1379,112,1,7,11
6.00E+02,-7558,1863,-1226,115,-999,-67,1,7,11
6.04E+02,-7788,1834,-1178,84,-1120,-36,1,7,11
6.10E+02,-7556,1813,-1385,85,-721,-59,1,7,11
6.20E+02,-7601,1820,-1335,120,-860,-106,1,7,11
6.36E+02,-7606,1843,-1324,-77,-772,93,1,7,11
6.59E+02,-7611,1875,-1328,-23,-414,19,1,7,11
6.87E+02,-7606,1889,-1325,263,-569,-315,1,7,11
7.17E+02,-7593,1870,-1362,284,-212,-154,1,7,11
7.45E+02,-7575,1846,-1392,297,-364,-539,1,7,11
7.68E+02,-7609,1813,-1157,307,0,-433,1,7,11
7.83E+02,-7643,1506,-1181,319,78,-820,1,7,11
7.89E+02,-7670,1456,-1219,312,-128,-678,1,7,11
7.88E+02,-7955,1634,-1255,265,-94,-1036,1,7,11
7.82E+02,-7986,1562,-1569,-57,-59,-1130,1,7,11
7.73E+02,-8030,1253,-1618,127,259,-954,1,7,11
7.61E+02,-7843,1216,-1428,59,331,-1003,1,7,11
7.46E+02,-7908,1179,-1522,-264,145,-1016,1,7,11
7.27E+02,-8208,1383,-1858,-347,204,-1005,1,7,11
7.03E+02,-8267,1291,-1872,-195,248,-1018,1,7,11
6.74E+02,-8091,934,-1831,-534,218,-1304,1,7,11
6.47E+02,-8456,1098,-1458,-570,366,-1351,1,7,11
6.28E+02,-8531,1049,-1602,-541,-98,-1372,1,7,11
6.16E+02,-8544,758,-1228,-238,-362,-1366,1,7,11
6.12E+02,-8525,757,-1390,-181,-606,-1349,1,7,11
6.12E+02,-8465,753,-1324,-133,-812,-1299,1,7,11
6.17E+02,-8095,738,-1306,-355,-699,-972,1,7,11
6.26E+02,-8230,722,-1297,-352,-749,-924,1,7,11
6.37E+02,-7866,684,-1294,-130,-723,-897,1,7,11
6.49E+02,-8052,887,-1304,-156,-646,-1147,1,7,11
6.58E+02,-8030,831,-1315,-176,-801,-902,1,7,11
6.61E+02,-8025,773,-1317,-185,-444,-914,1,7,11
6.58E+02,-8059,481,-1314,-156,-599,-922,1,7,11
6.53E+02,-7836,450,-1331,-361,-519,-1147,1,7,11
6.49E+02,-7850,432,-1370,-278,-181,-1094,1,7,11
6.46E+02,-7890,435,-1168,54,-333,-765,1,7,11
6.45E+02,-8209,429,-1195,109,37,-677,1,7,11
6.44E+02,-8260,426,-1212,-99,125,-837,1,7,11
6.42E+02,-8319,411,-1210,-62,-70,-490,1,7,11
6.42E+02,-8102,389,-1210,-17,-54,-393,1,7,11
6.42E+02,-8107,633,-1198,287,-69,-559,1,7,11
6.44E+02,-8095,624,-1198,338,-90,-230,1,7,11
6.48E+02,-8308,395,-1216,144,-107,-171,1,7,11
6.54E+02,-8299,437,-1220,193,-102,-378,1,7,11
6.64E+02,-8313,475,-1188,206,-81,-313,1,7,11
6.77E+02,-8082,506,-1158,173,-94,-276,1,7,11
6.94E+02,-8087,814,-1159,159,-117,-260,1,7,11
7.11E+02,-8319,842,-1156,357,92,12,1,7,11
7.29E+02,-8297,851,-1405,268,46,14,1,7,11
7.44E+02,-8307,832,-1382,-95,15,-261,1,7,11
7.57E+02,-8313,806,-1355,62,-264,-281,1,7,11
7.68E+02,-8288,768,-1353,-312,-306,-309,1,7,11
7.75E+02,-8275,478,-1343,-382,-305,-334,1,7,11
7.80E+02,-8256,418,-1330,-207,-315,-355,1,7,11
7.83E+02,-8240,615,-1320,-525,-325,-141,1,7,11
7.84E+02,-8256,558,-1297,-572,-325,-192,1,7,11
7.84E+02,-8279,518,-1282,-592,-335,-228,1,7,11
7.84E+02,-8282,239,-1282,-596,-348,-244,1,7,11
7.84E+02,-8276,207,-1016,-613,-339,-244,1,7,11
7.84E+02,-8282,189,-1013,-628,-322,-235,1,7,11
7.84E+02,-8300,165,-998,-391,-302,-218,1,7,11
7.82E+02,-8067,151,-996,-399,-294,-205,1,7,11
7.79E+02,-8089,151,-992,-405,-294,-185,1,7,11
7.75E+02,-8082,157,-983,-414,-306,-154,1,7,11
7.68E+02,-8090,164,-965,-423,-308,-372,1,7,11
7.60E+02,-8102,180,-920,-421,-306,-313,1,7,11
7.51E+02,-8111,209,-1140,-406,-303,18,1,7,11
7.44E+02,-8108,240,-1105,-389,-299,110,1,7,11
7.39E+02,-8078,249,-1085,-631,-292,-59,1,7,11
7.33E+02,-8291,250,-1072,-604,-268,256,1,7,11
7.27E+02,-8268,532,-1050,-563,33,276,1,7,11
7.19E+02,-8240,565,-1036,-256,78,279,1,7,11
7.10E+02,-8238,622,-1043,-203,-125,271,1,7,11
7.02E+02,-8228,418,-1050,-173,-73,264,1,7,11
6.96E+02,-8223,447,-1064,-167,-17,-7,1,7,11
6.89E+02,-8215,477,-1102,-157,286,-37,1,7,11
6.83E+02,-8227,769,-1140,-157,336,-72,1,7,11
6.79E+02,-8254,780,-910,-177,381,-104,1,7,11
6.78E+02,-8262,768,-930,-192,151,124,1,7,11
6.80E+02,-8273,510,-959,-191,166,88,1,7,11
6.82E+02,-8283,502,-1004,-193,186,32,1,7,11
6.84E+02,-8281,504,-1291,-193,205,-263,1,7,11
6.86E+02,-8274,507,-1315,-193,229,-302,1,7,11
6.89E+02,-8259,500,-1333,-210,522,-339,1,7,11
6.91E+02,-8245,493,-1329,-235,560,-384,1,7,11
6.95E+02,-8222,477,-1313,-522,598,-187,1,7,11
6.98E+02,-8213,467,-1287,-558,394,-256,1,7,11
7.03E+02,-7935,467,-1003,-603,439,-586,1,7,11
7.08E+02,-7890,444,-1009,-406,476,-407,1,7,11
7.13E+02,-7840,401,-1300,-480,788,-497,1,7,11
7.20E+02,-8059,591,-1347,-820,869,-856,1,7,11
7.26E+02,-8031,514,-1406,-880,707,-713,1,7,11
7.32E+02,-8018,214,-1228,-896,1077,-1077,1,7,11
7.36E+02,-8008,189,-1585,-888,957,-1148,1,7,11
7.39E+02,-8035,163,-1412,-881,1376,-943,1,7,11
7.40E+02,-7848,142,-1458,-868,1260,-963,1,7,11
7.43E+02,-7899,367,-1505,-832,1577,-954,1,7,11
7.49E+02,-7913,326,-1818,-781,1571,-940,1,7,11
7.59E+02,-7900,291,-1902,-462,1272,-945,1,7,11
7.75E+02,-7904,287,-1739,-397,1221,-972,1,7,11
7.89E+02,-7880,284,-2069,-614,1155,-980,1,7,11
7.98E+02,-7860,257,-2173,-613,1346,-990,1,7,11
8.03E+02,-7858,-52,-1957,-385,1293,-996,1,7,11
8.04E+02,-7880,108,-1990,-420,971,-992,1,7,11
8.03E+02,-7952,40,-1990,-452,1145,-977,1,7,11
8.01E+02,-8256,-293,-2008,-494,708,-1152,1,7,11
7.99E+02,-8315,-360,-2023,-503,823,-1061,1,7,11
7.97E+02,-8116,-173,-2039,-499,429,-681,1,7,11
7.98E+02,-8456,-223,-2016,-439,537,-510,1,7,11
7.99E+02,-8511,-249,-1978,-567,350,-543,1,7,11
8.00E+02,-8552,-522,-1935,-136,-123,-283,1,7,11
8.01E+02,-8562,-525,-2132,69,-370,-4,1,7,11
8.01E+02,-8549,-521,-2073,289,-623,525,1,7,11
7.99E+02,-8511,-243,-1766,514,-870,776,1,7,11
7.96E+02,-8183,-209,-1733,458,-1084,743,1,7,11
7.90E+02,-8317,-171,-1720,888,-999,931,1,7,11
7.83E+02,-7921,-378,-1712,1026,-1342,1329,1,7,11
7.72E+02,-7840,-318,-1689,1136,-1330,1185,1,7,11
7.57E+02,-7817,11,-1901,980,-1012,1570,1,7,11
7.34E+02,-7831,92,-1860,1328,-929,1478,1,7,11
7.08E+02,-7857,-67,-1830,1156,-1101,1684,1,7,11
6.87E+02,-7888,294,-1797,1225,-1032,2171,1,7,11
6.77E+02,-7922,131,-1506,1272,-733,2421,1,7,11
6.78E+02,-8205,223,-1486,1559,-730,2678,1,7,11
6.86E+02,-7934,547,-1474,1561,-759,2919,1,7,11
7.00E+02,-8194,626,-1472,1562,-1044,3104,1,7,11
7.16E+02,-7925,755,-1655,1547,-956,3375,1,7,11
7.34E+02,-7922,918,-1621,1580,-988,3339,1,7,11
7.57E+02,-7898,1346,-1598,1597,-1281,3030,1,7,11
7.89E+02,-7859,1235,-1570,1555,-1300,2951,1,7,11
8.30E+02,-7814,1572,-1270,1202,-1297,3075,1,7,11
8.76E+02,-8035,1646,-1232,1379,-1005,2872,1,7,11
9.19E+02,-8019,1490,-1187,1322,-943,2632,1,7,11
9.55E+02,-7996,1859,-1153,1004,-1123,2397,1,7,11
9.82E+02,-7987,1701,-1355,918,-1027,1923,1,7,11
1.00E+03,-7968,1768,-1308,1059,-684,1726,1,7,11
1.03E+03,-7969,2068,-1007,688,-859,1535,1,7,11
1.05E+03,-7977,2119,-986,841,-799,1612,1,7,11
1.07E+03,-7982,2172,-969,481,-495,1186,1,7,11
1.09E+03,-7983,1978,-944,630,-446,1295,1,7,11
1.09E+03,-7967,2028,-942,255,-389,926,1,7,11
1.09E+03,-7958,2329,-942,130,-566,1090,1,7,11
1.09E+03,-7953,2370,-958,257,-221,759,1,7,11
1.08E+03,-7977,2402,-957,120,-375,684,1,7,11
1.08E+03,-7984,2407,-943,-261,-286,862,1,7,11
1.07E+03,-7994,2406,-934,-369,34,777,1,7,11
1.06E+03,-8002,2407,-928,-189,80,418,1,7,11
1.05E+03,-8026,2415,-931,-240,113,572,1,7,11
1.04E+03,-8039,2425,-945,-525,-126,228,1,7,11
1.03E+03,-8049,2217,-988,-549,-99,148,1,7,11
1.02E+03,-8004,2238,-1306,-586,-68,324,1,7,11
1.01E+03,-7980,2229,-1352,-394,-13,-42,1,7,11
9.90E+02,-7992,2206,-1384,-479,310,8,1,7,11
9.67E+02,-8041,2177,-1377,-813,365,-315,1,7,11
9.40E+02,-7837,2388,-1376,-870,376,-196,1,7,11
9.12E+02,-7882,2345,-1374,-891,328,-232,1,7,11
8.90E+02,-7915,2045,-1380,-890,270,-219,1,7,11
8.76E+02,-8200,2017,-1376,-865,-12,-174,1,7,11
8.69E+02,-8208,1988,-1374,-827,-69,-362,1,7,11
8.67E+02,-8201,1955,-1356,-793,106,-294,1,7,11
8.68E+02,-7933,2171,-1315,-508,63,9,1,7,11
8.67E+02,-7905,2135,-1012,-465,25,45,1,7,11
8.57E+02,-7885,2124,-979,-426,17,59,1,7,11
8.36E+02,-7860,2157,-953,-635,26,87,1,7,11
8.13E+02,-7822,1956,-911,-599,44,-127,1,7,11
7.98E+02,-8064,2005,-1114,-594,71,-87,1,7,11
7.92E+02,-7818,2011,-1033,-625,76,-45,1,7,11
7.91E+02,-7812,1999,-731,-637,38,-19,1,7,11
7.96E+02,-8015,1992,-725,-385,-274,-13,1,7,11
8.02E+02,-7970,1996,-730,-640,-306,-22,1,7,11
8.11E+02,-7667,1994,-755,-395,-307,-31,1,7,11
8.22E+02,-7667,1993,-767,-405,-267,-32,1,7,11
8.40E+02,-7959,1989,-757,-408,33,-11,1,7,11
8.65E+02,-7954,1967,-756,-390,52,271,1,7,11
8.95E+02,-7954,1963,-750,-610,80,272,1,7,11
9.24E+02,-7952,1965,-738,-567,101,261,1,7,11
9.46E+02,-7953,1990,-742,-252,120,-18,1,7,11
9.55E+02,-7940,2037,-756,-199,-123,-39,1,7,11
9.56E+02,-7950,2341,-767,-158,-98,-52,1,7,11
9.50E+02,-7979,2377,-751,-138,-81,-50,1,7,11
9.42E+02,-7987,2400,-746,-383,-94,-37,1,7,11
9.36E+02,-7962,2415,-759,-378,-119,-26,1,7,11
9.33E+02,-7678,2420,-1027,-381,-125,-33,1,7,11
9.34E+02,-7676,2407,-759,-138,-105,-53,1,7,11
9.40E+02,-7955,2393,-731,-378,-87,-67,1,7,11
9.50E+02,-7960,2369,-712,-341,-89,-81,1,7,11
9.58E+02,-7988,2365,-693,-278,-89,-103,1,7,11
9.61E+02,-8014,2391,-676,61,-107,-111,1,7,11
9.52E+02,-8025,2399,-660,-122,-127,-110,1,7,11
9.34E+02,-8044,2406,-650,-52,118,-107,1,7,11
9.12E+02,-8045,2420,-648,267,95,-102,1,7,11
8.91E+02,-8044,2190,-662,315,82,-116,1,7,11
8.75E+02,-8039,2220,-691,337,69,-128,1,7,11
8.66E+02,-8024,2248,-716,317,70,116,1,7,11
8.62E+02,-8001,2257,-756,-3,86,104,1,7,11
8.61E+02,-7970,2247,-1069,-99,127,82,1,7,11
8.63E+02,-7946,2237,-1119,32,-65,43,1,7,11
8.66E+02,-7678,2247,-1141,-355,268,-258,1,7,11
8.70E+02,-7938,2251,-1129,-221,337,-292,1,7,11
8.77E+02,-7975,2252,-1087,-580,134,-316,1,7,11
8.84E+02,-8014,2245,-1046,-392,140,-327,1,7,11
8.94E+02,-8025,2242,-1028,-426,370,-332,1,7,11
9.05E+02,-8024,2244,-767,-443,345,-346,1,7,11
9.17E+02,-7996,2248,-1030,-456,328,-364,1,7,11
9.30E+02,-7959,2242,-1048,-487,337,-141,1,7,11
9.44E+02,-7939,2222,-1033,-807,372,-192,1,7,11
9.59E+02,-7673,2179,-747,-885,154,-250,1,7,11
9.75E+02,-7938,2395,-702,-694,200,-560,1,7,11
9.91E+02,-7947,2392,-677,-726,252,-570,1,7,11
1.01E+03,-7669,2403,-686,-745,574,-528,1,7,11
1.02E+03,-7644,2412,-727,-766,417,-197,1,7,11
1.04E+03,-7609,2414,-1036,-1060,809,-367,1,7,11
1.04E+03,-7802,2224,-1327,-965,1226,-325,1,7,11
1.04E+03,-7571,2268,-1398,-1285,1630,-384,1,7,11
1.02E+03,-7628,2293,-1194,-1374,1486,-191,1,7,11
1.00E+03,-7949,2288,-1240,-1219,1803,-245,1,7,11
9.66E+02,-8000,2274,-1252,-1549,1800,-543,1,7,11
9.23E+02,-8018,2260,-1567,-1601,1503,-577,1,7,11
8.74E+02,-8015,2239,-1592,-1641,1450,-598,1,7,11
8.26E+02,-7988,2200,-1629,-1419,1652,-614,1,7,11
7.86E+02,-7946,2411,-1430,-1435,1605,-634,1,7,11
7.58E+02,-7671,2352,-1483,-1439,1576,-414,1,7,11
7.42E+02,-7671,2038,-1504,-1414,1539,-443,1,7,11
7.33E+02,-7678,1988,-1818,-1580,1218,-457,1,7,11
7.30E+02,-7673,1981,-1851,-1239,1173,-429,1,7,11
7.29E+02,-7945,1979,-1860,-1156,1387,-637,1,7,11
7.29E+02,-7961,1991,-1869,-1323,1333,-566,1,7,11
7.28E+02,-7979,2011,-1888,-975,999,-227,1,7,11
7.28E+02,-7994,2028,-1907,-1142,907,-142,1,7,11
7.32E+02,-7994,2042,-1675,-1051,1052,-313,1,7,11
7.42E+02,-7972,2323,-1706,-703,681,33,1,7,11
7.60E+02,-7661,2362,-1749,-874,845,122,1,7,11
7.87E+02,-7576,2194,-2075,-816,799,-52,1,7,11
8.25E+02,-7755,2565,-2161,-843,824,266,1,7,11
8.73E+02,-7689,2457,-1991,-720,654,324,1,7,11
9.21E+02,-7344,2861,-2323,-971,1065,147,1,7,11
9.57E+02,-7547,2714,-2357,-1597,1300,237,1,7,11
9.80E+02,-7522,2764,-2343,-2049,1585,620,1,7,11
9.94E+02,-7484,2723,-2030,-2270,1879,509,1,7,11
1.00E+03,-7449,2845,-1934,-2718,2138,845,1,7,11
1.00E+03,-7519,2468,-2099,-3017,2326,510,1,7,11
1.01E+03,-7391,2679,-1778,-3419,2358,608,1,7,11
1.01E+03,-7706,2668,-1760,-3433,1981,204,1,7,11
1.02E+03,-7421,2434,-2055,-3345,2062,329,1,7,11
1.03E+03,-7360,2673,-2094,-2982,1665,-27,1,7,11
1.04E+03,-7322,2632,-2117,-3076,1833,-114,1,7,11
1.05E+03,-7339,2642,-2154,-2827,1505,60,1,7,11
1.06E+03,-7322,2436,-1946,-2279,1410,8,1,7,11
1.06E+03,-7524,2500,-2007,-1986,1564,-308,1,7,11
1.05E+03,-7491,2818,-2048,-1736,1244,-140,1,7,11
1.05E+03,-7485,2860,-2313,-1799,1215,-239,1,7,11
1.05E+03,-7494,2884,-2308,-1635,1196,-593,1,7,11
1.05E+03,-7498,2916,-2313,-1207,1157,-429,1,7,11
1.05E+03,-7497,2702,-2319,-1304,1360,-771,1,7,11
1.05E+03,-7504,2731,-2338,-903,1296,-837,1,7,11
1.03E+03,-7499,2736,-2373,-1034,962,-889,1,7,11
1.00E+03,-7494,2723,-2416,-663,1137,-683,1,7,11
9.65E+02,-7486,2703,-2205,-816,1046,-726,1,7,11
9.15E+02,-7461,2918,-2263,-459,680,-756,1,7,11
8.56E+02,-7162,2852,-2583,-625,837,-1043,1,7,11
7.94E+02,-7147,2531,-2626,-536,769,-1069,1,7,11
7.40E+02,-7162,2481,-2662,-189,464,-1070,1,7,11
7.00E+02,-7432,2439,-2678,-345,414,-1045,1,7,11
6.72E+02,-7445,2669,-2681,18,621,-737,1,7,11
6.52E+02,-7436,2666,-2684,-124,568,-656,1,7,11
6.40E+02,-7434,2660,-2688,-23,532,-820,1,7,11
6.33E+02,-7469,2650,-2677,329,250,-481,1,7,11
6.30E+02,-7495,2652,-2667,174,207,-399,1,7,11
6.33E+02,-7496,2654,-2667,531,150,-585,1,7,11
6.39E+02,-7485,2667,-2683,628,359,-540,1,7,11
6.46E+02,-7455,2666,-2460,441,325,-249,1,7,11
6.54E+02,-7165,2668,-2500,509,314,-242,1,7,11
6.62E+02,-7134,2671,-2529,812,320,-514,1,7,11
6.69E+02,-7123,2656,-2560,844,337,-554,1,7,11
6.75E+02,-7113,2632,-2852,870,344,-618,1,7,11
6.80E+02,-7126,2604,-2875,880,353,-443,1,7,11
6.84E+02,-7168,2301,-2881,878,346,-777,1,7,11
6.87E+02,-7476,2238,-2880,888,305,-836,1,7,11
6.91E+02,-7519,2429,-2888,657,-22,-862,1,7,11
6.95E+02,-7533,2355,-2902,688,-103,-861,1,7,11
7.00E+02,-7523,2034,-2921,730,85,-837,1,7,11
7.08E+02,-7512,1985,-2926,1026,39,-788,1,7,11
7.16E+02,-7522,1940,-2928,1093,2,-409,1,7,11
7.22E+02,-7519,2175,-2929,1136,-270,-544,1,7,11
7.25E+02,-7518,2157,-2913,930,-275,-146,1,7,11
7.27E+02,-7508,2156,-2920,982,-286,-260,1,7,11
7.29E+02,-7500,2167,-2927,1007,-296,125,1,7,11
7.32E+02,-7492,2155,-2924,1004,-306,-12,1,7,11
7.35E+02,-7513,2154,-2907,1002,-346,339,1,7,11
7.36E+02,-7535,2158,-2891,984,-146,377,1,7,11
7.36E+02,-7301,2167,-2897,973,-218,148,1,7,11
7.35E+02,-7531,1949,-2927,961,-547,186,1,7,11
7.34E+02,-7447,1977,-2734,913,-575,223,1,7,11
7.32E+02,-7139,1986,-2761,1089,-254,235,1,7,11
7.30E+02,-7125,1994,-2760,746,-157,239,1,7,11
7.28E+02,-7117,2000,-2765,669,-325,230,1,7,11
7.26E+02,-7143,2020,-2750,853,17,207,1,7,11
7.23E+02,-7440,2313,-2740,786,87,189,1,7,11
7.20E+02,-7489,2355,-2724,469,-124,184,1,7,11
7.16E+02,-7523,2379,-2701,407,-116,190,1,7,11
7.08E+02,-7551,2384,-2930,603,119,181,1,7,11
6.94E+02,-7304,2377,-2907,556,68,162,1,7,11
6.75E+02,-7515,2383,-2922,532,-264,378,1,7,11
6.61E+02,-7441,2377,-2939,238,-316,313,1,7,11
6.53E+02,-7112,2348,-2691,172,-316,-23,1,7,11
6.49E+02,-7088,2320,-2937,353,-264,-104,1,7,11
6.48E+02,-7100,2044,-2914,278,65,98,1,7,11
6.45E+02,-7134,2034,-2894,-40,-117,79,1,7,11
6.40E+02,-7151,2038,-2894,-81,-56,102,1,7,11
6.29E+02,-7425,2312,-2892,-111,270,-102,1,7,11
6.14E+02,-7440,2319,-2889,126,338,-33,1,7,11
5.99E+02,-7429,2311,-2909,117,129,279,1,7,11
5.89E+02,-7433,2039,-2921,115,175,293,1,7,11
5.84E+02,-7444,2031,-2938,118,188,282,1,7,11
5.81E+02,-7434,2022,-2711,125,170,-8,1,7,11
5.80E+02,-7162,2028,-2747,121,150,-55,1,7,11
5.79E+02,-7147,2033,-2775,99,140,-92,1,7,11
5.77E+02,-7154,2039,-2790,61,147,-118,1,7,11
5.72E+02,-7456,2312,-2793,24,151,125,1,7,11
5.62E+02,-7489,2322,-2796,-264,371,-119,1,7,11
5.49E+02,-7486,2332,-2804,-293,318,-110,1,7,11
5.34E+02,-7469,2345,-2809,-329,270,-107,1,7,11
5.17E+02,-7428,2352,-3096,-374,-37,-111,1,7,11
5.01E+02,-7119,2356,-3137,-183,-57,120,1,7,11
4.96E+02,-7080,2347,-3156,-533,-44,88,1,7,11
5.21E+02,-7078,2331,-3153,-633,-8,51,1,7,11
5.76E+02,-7092,2307,-3132,-468,287,29,1,7,11
6.36E+02,-7095,2029,-3107,-804,305,29,1,7,11
6.79E+02,-7111,2010,-3079,-873,327,36,1,7,11
6.99E+02,-7142,1995,-2800,-664,340,50,1,7,11
7.00E+02,-7426,1993,-2780,-681,331,74,1,7,11
6.86E+02,-7451,2008,-2759,-673,313,100,1,7,11
6.61E+02,-7464,2019,-2742,-645,286,126,1,7,11
6.30E+02,-7449,2033,-2737,-848,-9,-119,1,7,11
5.99E+02,-7434,2304,-2722,-793,-42,-120,1,7,11
5.83E+02,-7144,2316,-2738,-470,-82,121,1,7,11
5.84E+02,-7106,2331,-2754,-403,-109,90,1,7,11
5.86E+02,-7062,2334,-2773,-600,-119,59,1,7,11
5.69E+02,-7287,2336,-2800,-549,-107,19,1,7,11
5.41E+02,-7289,2324,-3073,-250,-85,-270,1,7,11
5.17E+02,-7052,2315,-3091,-207,-69,-288,1,7,11
5.07E+02,-7063,2307,-3103,-159,-65,-284,1,7,11
5.11E+02,-7083,2309,-3120,-366,-56,0,1,7,11
5.25E+02,-7098,2313,-3122,-314,-50,66,1,7,11
5.38E+02,-7089,2324,-3129,4,-50,-109,1,7,11
5.46E+02,-7088,2348,-3117,63,-36,-29,1,7,11
5.50E+02,-7122,2381,-3106,110,-23,307,1,7,11
5.52E+02,-7149,2414,-3100,-110,-39,373,1,7,11
5.51E+02,-7153,2196,-3101,-91,-79,156,1,7,11
5.48E+02,-7148,2232,-3104,-94,-125,161,1,7,11
5.46E+02,-7128,2263,-3116,-120,87,136,1,7,11
5.43E+02,-7104,2285,-3111,89,55,347,1,7,11
5.42E+02,-7087,2563,-3083,22,47,289,1,7,11
5.42E+02,-7066,2561,-3082,-305,41,-66,1,7,11
5.40E+02,-7287,2278,-2810,-379,44,119,1,7,11
5.37E+02,-7277,2237,-2791,-187,85,51,1,7,11
5.32E+02,-7273,2203,-2775,-230,123,3,1,7,11
5.25E+02,-7275,2427,-2757,-246,-113,-266,1,7,11
5.19E+02,-7287,2403,-2730,-244,-65,-270,1,7,11
5.18E+02,-7053,2388,-2715,-224,-24,14,1,7,11
5.21E+02,-7060,2378,-2705,-181,268,67,1,7,11
5.23E+02,-7057,2376,-2697,-379,296,-122,1,7,11
5.11E+02,-7041,2400,-2732,-301,316,-52,1,7,11
4.94E+02,-7296,2184,-2768,36,337,261,1,7,11
4.93E+02,-7059,2228,-2809,89,367,321,1,7,11
5.05E+02,-7085,2267,-3099,119,371,340,1,7,11
5.14E+02,-7123,2564,-3124,109,339,344,1,7,11
5.17E+02,-7109,2623,-3146,83,271,345,1,7,11
5.27E+02,-7089,2634,-3155,35,-48,340,1,7,11
5.41E+02,-7043,2648,-3156,-286,-91,329,1,7,11
5.45E+02,-7253,2636,-3159,-352,-102,313,1,7,11
5.37E+02,-7241,2625,-3145,-153,-75,284,1,7,11
5.27E+02,-7231,2623,-3133,-194,-36,263,1,7,11
5.26E+02,-7225,2623,-3122,-221,271,-18,1,7,11
5.27E+02,-7236,2626,-3113,-235,322,-32,1,7,11
5.27E+02,-7241,2624,-3112,-238,356,-32,1,7,11
5.30E+02,-7253,2633,-3112,-231,374,-34,1,7,11
5.43E+02,-7046,2631,-3103,-213,354,-51,1,7,11
5.66E+02,-7084,2635,-3088,-178,286,-65,1,7,11
5.97E+02,-7081,2646,-3098,-132,-76,-78,1,7,11
6.35E+02,-7295,2646,-3118,-347,75,-93,1,7,11
6.77E+02,-7248,2638,-3124,-315,10,-119,1,7,11
7.22E+02,-7221,2634,-3124,-283,-280,120,1,7,11
7.68E+02,-7196,2631,-3119,7,-286,113,1,7,11
8.12E+02,-7182,2623,-3099,37,-268,117,1,7,11
8.53E+02,-7169,2605,-3075,70,15,-127,1,7,11
8.89E+02,-7172,2593,-2809,108,52,-116,1,7,11
9.21E+02,-7175,2590,-3076,-113,82,-99,1,7,11
9.51E+02,-7183,2601,-3090,-92,117,-88,1,7,11
9.79E+02,-7209,2615,-3097,-86,-109,-89,1,7,11
1.01E+03,-7249,2635,-3118,-90,-102,-100,1,7,11
1.03E+03,-7271,2663,-3136,-104,-116,-114,1,7,11
1.05E+03,-7042,2681,-3147,127,119,-128,1,7,11
1.07E+03,-7057,2439,-3143,98,94,118,1,7,11
1.08E+03,-7064,2437,-3140,83,56,115,1,7,11
1.08E+03,-7059,2686,-3140,87,20,114,1,7,11
1.08E+03,-7293,2665,-3133,110,-266,113,1,7,11
1.06E+03,-7269,2653,-3139,-100,-278,107,1,7,11
1.04E+03,-7247,2632,-3139,-44,-269,105,1,7,11
1.01E+03,-7232,2625,-3133,283,6,106,1,7,11
9.79E+02,-7220,2636,-3135,362,23,120,1,7,11
9.55E+02,-7222,2649,-3136,170,29,124,1,7,11
9.41E+02,-7223,2674,-3153,213,29,-122,1,7,11
9.33E+02,-7225,2432,-3184,223,24,-126,1,7,11
9.27E+02,-7263,2450,-3180,207,22,114,1,7,11
9.19E+02,-7042,2454,-3148,176,-265,101,1,7,11
9.06E+02,-7078,2449,-3129,140,-322,89,1,7,11
8.92E+02,-7087,2443,-3118,366,-151,89,1,7,11
8.82E+02,-7061,2679,-3123,332,-235,90,1,7,11
8.76E+02,-7280,2650,-3111,291,-547,80,1,7,11
8.75E+02,-7261,2608,-3101,-2,-576,70,1,7,11
8.75E+02,-7269,2583,-3075,-17,-578,61,1,7,11
8.75E+02,-7280,2568,-2791,-9,-569,75,1,7,11
8.75E+02,-7268,2564,-2780,285,-554,106,1,7,11
8.76E+02,-7272,2582,-2767,326,-256,-118,1,7,11
8.78E+02,-7296,2604,-2757,361,-213,-75,1,7,11
8.81E+02,-7052,2626,-2749,131,-185,-33,1,7,11
8.85E+02,-7058,2641,-2738,144,-165,-6,1,7,11
8.88E+02,-7085,2659,-2708,145,-155,266,1,7,11
8.90E+02,-7087,2662,-2695,140,-173,271,1,7,11
8.91E+02,-7077,2672,-2944,131,-194,258,1,7,11
8.93E+02,-7294,2673,-2690,358,-206,-19,1,7,11
8.96E+02,-7267,2665,-2699,317,-190,-59,1,7,11
9.03E+02,-7258,2644,-2692,266,-152,-106,1,7,11
9.13E+02,-7238,2622,-2692,-36,-369,107,1,7,11
9.27E+02,-7230,2603,-2689,-81,-311,70,1,7,11
9.42E+02,-7246,2582,-2942,-117,12,46,1,7,11
9.53E+02,-7277,2578,-2937,120,68,45,1,7,11
9.60E+02,-7042,2589,-2944,119,114,64,1,7,11
9.66E+02,-7046,2613,-2700,121,-102,95,1,7,11
9.71E+02,-7078,2648,-2721,111,-50,-125,1,7,11
9.76E+02,-7111,2666,-2720,87,-40,-113,1,7,11
9.82E+02,-7110,2667,-2727,58,-70,-116,1,7,11
9.91E+02,-7099,2661,-2743,29,-109,113,1,7,11
1.00E+03,-7075,2641,-2749,1,107,68,1,7,11
1.01E+03,-7054,2618,-2751,-274,80,20,1,7,11
1.02E+03,-7291,2589,-2762,-284,80,-274,1,7,11
1.04E+03,-7289,2565,-2754,-280,94,-295,1,7,11
1.04E+03,-7045,2294,-2757,-257,112,-297,1,7,11
1.05E+03,-7055,2281,-2753,34,127,-277,1,7,11
1.06E+03,-7073,2283,-2745,73,-112,14,1,7,11
1.06E+03,-7082,2297,-2745,118,-101,65,1,7,11
1.05E+03,-7087,2574,-2750,-108,-88,122,1,7,11
1.05E+03,-7090,2595,-2751,-100,-75,-80,1,7,11
1.04E+03,-7100,2611,-2753,-119,-74,-36,1,7,11
1.03E+03,-7114,2628,-2750,101,-84,-6,1,7,11
1.01E+03,-7107,2639,-2733,50,-118,269,1,7,11
9.91E+02,-7093,2647,-2725,-268,107,267,1,7,11
9.70E+02,-7051,2636,-2720,-334,77,256,1,7,11
9.49E+02,-7262,2615,-2720,-138,67,-31,1,7,11
9.29E+02,-7271,2593,-2700,-175,95,-66,1,7,11
9.10E+02,-7273,2577,-2703,-171,118,-85,1,7,11
8.90E+02,-7276,2568,-2703,-143,-107,-95,1,7,11
8.68E+02,-7292,2565,-2693,-350,-73,-89,1,7,11
8.44E+02,-7042,2575,-2689,6,-45,-71,1,7,11
8.22E+02,-7054,2598,-2690,79,-39,-63,1,7,11
8.04E+02,-7064,2631,-2709,-111,-51,-56,1,7,11
7.90E+02,-7066,2667,-2735,-74,-73,-55,1,7,11
7.81E+02,-7071,2449,-2752,-70,-96,-59,1,7,11
7.75E+02,-7085,2477,-2757,-97,-127,-62,1,7,11
7.72E+02,-7079,2489,-2757,117,88,-74,1,7,11
7.71E+02,-7284,2498,-2773,72,47,-88,1,7,11
7.73E+02,-7221,2483,-2786,24,44,-111,1,7,11
7.75E+02,-7187,2446,-2788,-277,97,112,1,7,11
7.79E+02,-7198,2671,-2765,-304,-83,78,1,7,11
7.83E+02,-7239,2647,-2737,-300,-22,54,1,7,11
7.90E+02,-7265,2638,-2726,-265,259,52,1,7,11
8.01E+02,-7286,2648,-2724,35,277,68,1,7,11
8.18E+02,-7281,2667,-2746,72,287,101,1,7,11
8.38E+02,-7282,2683,-2758,86,301,-127,1,7,11
8.57E+02,-7047,2455,-2765,78,308,-110,1,7,11
8.71E+02,-7073,2490,-2770,50,288,-104,1,7,11
8.81E+02,-7086,2512,-2768,12,-20,-115,1,7,11
8.89E+02,-7057,2526,-2789,-285,-88,118,1,7,11
8.96E+02,-7265,2527,-2808,-331,-128,83,1,7,11
9.05E+02,-7235,2508,-2808,-380,-126,45,1,7,11
9.16E+02,-7219,2480,-2809,-156,-99,12,1,7,11
9.31E+02,-7228,2443,-2800,-165,-64,-273,1,7,11
9.52E+02,-7251,2674,-2788,-144,-39,-293,1,7,11
9.76E+02,-7256,2662,-2794,-354,-33,-290,1,7,11
1.00E+03,-7255,2671,-2803,-307,-26,-271,1,7,11
1.03E+03,-7238,2669,-2812,-278,-12,24,1,7,11
1.05E+03,-7228,2682,-3085,-257,266,52,1,7,11
1.07E+03,-7235,2685,-3090,6,284,72,1,7,11
1.09E+03,-7240,2447,-3098,16,290,74,1,7,11
1.11E+03,-7257,2470,-3103,18,283,73,1,7,11
1.13E+03,-7264,2483,-3108,3,265,72,1,7,11
1.14E+03,-7281,2481,-3106,-282,-19,54,1,7,11
1.14E+03,-7048,2480,-3093,-313,-61,24,1,7,11
1.14E+03,-7078,2476,-3080,-346,-111,-263,1,7,11
1.12E+03,-7091,2474,-3074,-374,85,-285,1,7,11
1.08E+03,-7076,2472,-2807,-140,38,-295,1,7,11
1.03E+03,-7047,2463,-2791,-160,16,-292,1,7,11
9.69E+02,-7263,2436,-2778,-164,13,-287,1,7,11
9.14E+02,-7231,2650,-2756,-152,37,-286,1,7,11
8.70E+02,-7228,2615,-2735,-370,73,-287,1,7,11
8.35E+02,-7233,2597,-2713,-314,104,-285,1,7,11
8.07E+02,-7224,2587,-2710,9,118,-274,1,7,11
7.85E+02,-7221,2594,-2720,79,-116,-257,1,7,11
7.64E+02,-7243,2617,-2732,-123,-86,32,1,7,11
7.45E+02,-7264,2657,-2755,-83,-70,81,1,7,11
7.25E+02,-7293,2445,-2781,-66,-67,-125,1,7,11
7.06E+02,-7292,2469,-2796,-80,-92,-69,1,7,11
6.89E+02,-7287,2488,-2786,-114,-123,-60,1,7,11
6.75E+02,-7262,2494,-2802,101,97,-66,1,7,11
6.64E+02,-7209,2494,-3078,60,76,-83,1,7,11
6.56E+02,-7174,2478,-3094,16,97,-113,1,7,11
6.50E+02,-6903,2456,-3097,-269,-111,110,1,7,11
6.47E+02,-7174,2438,-3104,-285,-55,70,1,7,11
6.49E+02,-7200,2679,-3102,-277,-8,37,1,7,11
6.56E+02,-7238,2671,-3100,2,274,14,1,7,11
6.71E+02,-7269,2678,-3108,37,278,4,1,7,11
6.95E+02,-7289,2433,-3122,76,264,9,1,7,11
7.24E+02,-7055,2448,-3137,102,-16,19,1,7,11
7.50E+02,-7087,2456,-3136,111,-56,41,1,7,11
7.69E+02,-7097,2457,-3143,120,-124,70,1,7,11
7.82E+02,-7080,2454,-3139,125,54,100,1,7,11
7.93E+02,-7290,2443,-3130,-125,-275,124,1,7,11
8.03E+02,-7234,2677,-3124,-113,-319,-120,1,7,11
8.15E+02,-7205,2653,-3116,-99,-322,-123,1,7,11
8.29E+02,-7190,2635,-3099,-76,-306,127,1,7,11
8.45E+02,-7189,2631,-3082,-52,-285,122,1,7,11
8.62E+02,-7199,2647,-2813,-38,-260,122,1,7,11
8.78E+02,-7216,2660,-2809,-39,21,-126,1,7,11
8.92E+02,-7241,2678,-2800,-53,46,-107,1,7,11
9.05E+02,-7264,2446,-2796,-86,60,-84,1,7,11
9.15E+02,-7269,2458,-2790,125,61,-63,1,7,11
9.24E+02,-7292,2466,-2768,72,57,-52,1,7,11
9.32E+02,-7057,2477,-2738,29,34,-48,1,7,11
9.38E+02,-7060,2485,-2728,1,-259,-44,1,7,11
9.44E+02,-7275,2486,-2727,-260,-287,-38,1,7,11
9.48E+02,-7231,2480,-2724,13,-273,-44,1,7,11
9.52E+02,-7203,2465,-2724,44,32,-62,1,7,11
9.54E+02,-7189,2453,-2731,92,91,-90,1,7,11
9.54E+02,-7192,2466,-2744,-108,-108,-124,1,7,11
9.53E+02,-7192,2479,-2758,-66,-62,94,1,7,11
9.48E+02,-7194,2486,-2783,-59,-32,45,1,7,11
9.39E+02,-7178,2494,-2809,-89,-26,-296,1,7,11
9.25E+02,-6904,2500,-3104,114,-32,-166,1,7,11
9.05E+02,-6859,2519,-3134,47,-23,-580,1,7,11
8.78E+02,-6908,2547,-3117,-279,287,-479,1,7,11
8.44E+02,-7210,2550,-3109,-336,316,-831,1,7,11
8.01E+02,-7245,2544,-3096,-374,331,-883,1,7,11
7.47E+02,-7286,2510,-3101,-141,334,-892,1,7,11
6.79E+02,-7057,2433,-3100,-147,315,-871,1,7,11
5.98E+02,-7066,2639,-3112,-383,261,-846,1,7,11
5.22E+02,-7048,2596,-3132,-360,-33,-821,1,7,11
4.67E+02,-7290,2564,-3156,-337,-57,-814,1,7,11
4.23E+02,-7280,2300,-3172,-322,-69,-827,1,7,11
3.81E+02,-7282,2560,-3187,-317,-65,-854,1,7,11
3.45E+02,-7290,2562,-3196,-327,-62,-892,1,7,11
3.21E+02,-7046,2297,-3189,-344,-70,-695,1,7,11
3.07E+02,-7063,2298,-3168,-360,-85,-1031,1,7,11
2.95E+02,-7072,2301,-3148,-380,-109,-1110,1,7,11
2.83E+02,-7066,2289,-3137,-151,118,-927,1,7,11
2.81E+02,-7061,2272,-3125,-183,102,-1003,1,7,11
2.91E+02,-7050,2242,-3114,-228,101,-1317,1,7,11
3.01E+02,-7295,2195,-3102,-536,117,-1361,1,7,11
3.10E+02,-7060,2400,-3075,-587,-109,-1403,1,7,11
3.17E+02,-7075,2339,-2802,-623,-89,-1172,1,7,11
3.23E+02,-7085,2040,-2792,-390,-76,-1194,1,7,11
3.29E+02,-7089,1994,-2784,-410,-52,-1206,1,7,11
3.35E+02,-7082,1947,-2794,-424,-25,-1206,1,7,11
3.44E+02,-7101,2145,-2808,-435,280,-1191,1,7,11
3.58E+02,-7130,2099,-3073,-453,365,-1159,1,7,11
3.79E+02,-7164,2060,-2815,-457,155,-1373,1,7,11
4.11E+02,-7442,1747,-2804,-462,189,-1323,1,7,11
4.56E+02,-7477,1699,-2787,-447,201,-1018,1,7,11
5.09E+02,-7519,1909,-2772,-422,190,-972,1,7,11
5.62E+02,-7546,1876,-2757,-637,158,-922,1,7,11
5.93E+02,-7534,1877,-2779,-579,378,-1122,1,7,11
5.81E+02,-7494,1885,-3077,-537,368,-1059,1,7,11
5.40E+02,-7449,1890,-3115,-521,141,-731,1,7,11
5.19E+02,-7160,1879,-3141,-516,204,-663,1,7,11
5.33E+02,-7158,1865,-3158,-254,529,-851,1,7,11
5.56E+02,-7161,1856,-3166,-247,590,-779,1,7,11
5.65E+02,-7157,1854,-3176,-246,634,-459,1,7,11
5.63E+02,-7157,1861,-3200,-524,413,-402,1,7,11
5.53E+02,-7146,1868,-2966,-570,440,-616,1,7,11
5.35E+02,-7144,1862,-2974,-386,471,-588,1,7,11
5.12E+02,-7148,1862,-2979,-469,498,-584,1,7,11
4.89E+02,-7134,1841,-2990,-812,503,-587,1,7,11
4.71E+02,-7114,1819,-2999,-892,505,-618,1,7,11
4.61E+02,-7116,1804,-3019,-700,510,-412,1,7,11
4.57E+02,-7128,1526,-3026,-741,507,-446,1,7,11
4.57E+02,-7137,1511,-3044,-753,504,-472,1,7,11
4.61E+02,-7153,1503,-3331,-747,503,-472,1,7,11
4.67E+02,-7430,1490,-3336,-732,506,-459,1,7,11
4.74E+02,-7448,1477,-3333,-702,496,-444,1,7,11
4.82E+02,-7462,1467,-3340,-657,465,-431,1,7,11
4.93E+02,-7467,1466,-3348,-862,424,-415,1,7,11
5.07E+02,-7456,1486,-3365,-813,631,-386,1,7,11
5.16E+02,-7443,1531,-3412,-791,590,-609,1,7,11
5.17E+02,-7164,1840,-3436,-827,563,-568,1,7,11
5.16E+02,-7136,1889,-3208,-655,549,-515,1,7,11
5.20E+02,-7116,1675,-3225,-1036,551,-199,1,7,11
5.32E+02,-7083,1725,-3254,-937,563,-378,1,7,11
5.46E+02,-7050,2049,-3301,-1383,589,-286,1,7,11
5.47E+02,-7285,2122,-3591,-1637,636,73,1,7,11
5.18E+02,-7269,1921,-3599,-1686,436,-82,1,7,11
4.87E+02,-7277,1952,-3316,-2020,487,-2,1,7,11
5.01E+02,-7293,1933,-3267,-2605,777,326,1,7,11
5.49E+02,-7049,2147,-3214,-2873,775,365,1,7,11
5.95E+02,-7065,2110,-3412,-2803,488,354,1,7,11
6.20E+02,-7071,2082,-3364,-3167,430,318,1,7,11
6.30E+02,-7052,2091,-3339,-3174,604,258,1,7,11
6.31E+02,-7262,2119,-3351,-3123,537,-60,1,7,11
6.29E+02,-7211,2165,-3363,-2768,512,-123,1,7,11
6.26E+02,-6911,1953,-3386,-2900,530,81,1,7,11
6.23E+02,-6863,2013,-3408,-2478,574,27,1,7,11
6.20E+02,-6847,2326,-3419,-2296,397,-290,1,7,11
6.17E+02,-6867,2365,-3400,-2355,471,-346,1,7,11
6.15E+02,-6887,2384,-3353,-2144,509,-146,1,7,11
6.13E+02,-6908,2382,-3051,-1916,772,-216,1,7,11
6.10E+02,-7175,2385,-3009,-1422,493,-561,1,7,11
6.07E+02,-7175,2398,-2977,-1182,456,-394,1,7,11
6.02E+02,-6885,2179,-2968,-948,420,-473,1,7,11
5.97E+02,-6845,2228,-2972,-750,420,-794,1,7,11
5.89E+02,-6823,2260,-2961,-870,465,-852,1,7,11
5.80E+02,-6859,2281,-3173,-777,787,-650,1,7,11
5.70E+02,-6906,2290,-3132,-444,842,-684,1,7,11
5.67E+02,-7225,2303,-3103,-629,884,-694,1,7,11
5.75E+02,-7045,2577,-3082,-571,674,-665,1,7,11
5.89E+02,-7105,2608,-3083,-525,715,-847,1,7,11
6.00E+02,-7285,2600,-3145,-241,719,-481,1,7,11
6.07E+02,-6935,2227,-3039,-579,1094,-459,1,7,11
6.12E+02,-6916,2373,-3363,-425,982,-831,1,7,11
6.17E+02,-6963,2011,-3427,-480,1330,-662,1,7,11
6.25E+02,-6964,1921,-3271,-500,1360,-707,1,7,11
6.38E+02,-6946,2083,-3637,-771,1388,-728,1,7,11
6.51E+02,-6922,1755,-3528,-493,1390,-717,1,7,11
6.56E+02,-6649,1699,-3932,-457,1385,-688,1,7,11
6.46E+02,-6645,1908,-3813,-408,1361,-645,1,7,11
6.30E+02,-6926,1895,-4175,-599,1317,-845,1,7,11
6.18E+02,-6984,1895,-3973,-525,998,-512,1,7,11
6.13E+02,-6800,1881,-3984,-176,1149,-400,1,7,11
6.11E+02,-6868,1858,-4218,-310,750,-526,1,7,11
6.08E+02,-6904,1834,-4174,109,825,-137,1,7,11
6.03E+02,-6879,1822,-4134,306,630,-271,1,7,11
5.97E+02,-6825,1819,-4114,515,207,88,1,7,11
5.91E+02,-7027,1795,-3791,450,352,-82,1,7,11
5.84E+02,-6956,1476,-3722,657,263,-14,1,7,11
5.78E+02,-6646,1419,-3921,918,-48,274,1,7,11
5.70E+02,-6598,1638,-3850,1209,-78,302,1,7,11
5.61E+02,-6758,1585,-3553,1530,-104,346,1,7,11
5.49E+02,-6380,1553,-3572,2133,-91,375,1,7,11
5.38E+02,-6278,1560,-3902,2211,-24,374,1,7,11
5.33E+02,-6458,1598,-3760,2489,346,364,1,7,11
5.38E+02,-6439,1661,-4128,2705,515,347,1,7,11
5.54E+02,-6491,1472,-3973,3108,439,335,1,7,11
5.82E+02,-6312,1528,-4058,2945,841,346,1,7,11
6.14E+02,-6373,1808,-4414,2964,673,364,1,7,11
6.42E+02,-6693,1524,-4241,3186,725,350,1,7,11
6.58E+02,-6754,1502,-4316,3123,725,299,1,7,11
6.55E+02,-6554,1461,-4609,2758,703,-34,1,7,11
6.30E+02,-6599,1440,-4643,2905,654,-117,1,7,11
5.99E+02,-6597,1434,-4675,2524,835,88,1,7,11
5.84E+02,-6581,1419,-4708,2620,792,59,1,7,11
5.87E+02,-6594,1655,-4694,2181,790,60,1,7,11
5.95E+02,-6621,1617,-4639,2012,775,96,1,7,11
5.99E+02,-6632,1593,-4350,2139,452,-103,1,7,11
6.03E+02,-6581,1574,-4614,1765,600,-29,1,7,11
6.11E+02,-6710,1545,-4645,1891,229,286,1,7,11
6.15E+02,-6299,1218,-4678,1452,167,290,1,7,11
6.04E+02,-6464,1375,-4690,1266,181,-35,1,7,11
5.82E+02,-6446,1304,-4696,1404,230,106,1,7,11
5.68E+02,-6451,1291,-4713,1362,255,1,1,7,11
5.62E+02,-6417,1292,-4527,1328,252,-320,1,7,11
5.61E+02,-6109,1001,-4600,1001,525,-365,1,7,11
5.62E+02,-6104,952,-4894,917,589,-160,1,7,11
5.65E+02,-6413,918,-4933,1107,399,-202,1,7,11
5.65E+02,-6487,901,-4979,1059,429,-226,1,7,11
5.62E+02,-6317,901,-4750,757,417,-221,1,7,11
5.53E+02,-6384,1140,-4775,691,620,-171,1,7,11
5.36E+02,-6669,1116,-4820,871,540,-355,1,7,11
5.16E+02,-6676,1093,-4859,790,198,-288,1,7,11
5.03E+02,-6674,1092,-5135,445,370,33,1,7,11
5.02E+02,-6680,1094,-5136,609,280,101,1,7,11
5.17E+02,-6677,1095,-5121,513,-65,-80,1,7,11
5.38E+02,-6683,1090,-4833,161,96,257,1,7,11
5.45E+02,-6670,1076,-4782,324,1,331,1,7,11
5.40E+02,-6388,1057,-4981,-17,-355,135,1,7,11
5.42E+02,-6344,759,-4931,-84,-192,167,1,7,11
5.58E+02,-6294,733,-4873,122,-254,165,1,7,11
5.76E+02,-6491,719,-4584,88,-547,140,1,7,11
5.86E+02,-6462,708,-4551,53,-545,349,1,7,11
5.90E+02,-6468,698,-4506,15,-255,302,1,7,11
5.88E+02,-6472,687,-4733,-272,-215,268,1,7,11
5.85E+02,-6462,679,-4733,-296,-170,-20,1,7,11
5.82E+02,-6464,691,-4489,-320,-358,-48,1,7,11
5.80E+02,-6487,706,-4507,-353,-275,-52,1,7,11
5.80E+02,-6517,727,-4514,-132,67,-28,1,7,11
5.80E+02,-6293,745,-4513,-162,-111,274,1,7,11
5.74E+02,-6335,757,-4504,-185,-49,329,1,7,11
5.59E+02,-6368,761,-4493,-191,-26,128,1,7,11
5.33E+02,-6372,765,-4523,-188,-37,155,1,7,11
5.03E+02,-6381,1042,-4532,-189,-56,146,1,7,11
4.90E+02,-6675,1056,-4531,-193,-111,353,1,7,11
4.96E+02,-6704,1077,-4517,-193,76,320,1,7,11
5.00E+02,-6684,1092,-4509,-196,-275,294,1,7,11
4.92E+02,-6378,1094,-4510,-212,-366,264,1,7,11
4.80E+02,-6335,1097,-4511,-245,-171,-26,1,7,11
4.69E+02,-6316,1100,-4499,-545,-196,-51,1,7,11
4.57E+02,-6297,1105,-4492,-600,-192,-60,1,7,11
4.46E+02,-6283,1112,-4485,-399,-166,-58,1,7,11
4.35E+02,-6289,1127,-4732,-450,-378,-42,1,7,11
4.26E+02,-6299,1147,-4733,-485,-327,-20,1,7,11
4.17E+02,-6307,913,-4735,-503,-283,269,1,7,11
4.10E+02,-6336,932,-4724,-512,10,297,1,7,11
4.04E+02,-6371,944,-4710,-503,24,328,1,7,11
4.00E+02,-6393,947,-4697,-477,3,347,1,7,11
3.98E+02,-6385,951,-4699,-437,-301,348,1,7,11
4.02E+02,-6363,959,-4706,-394,-356,335,1,7,11
4.44E+02,-6336,967,-4710,-612,-140,311,1,7,11
5.43E+02,-6317,982,-4712,-573,-158,287,1,7,11
6.36E+02,-6298,998,-4703,-537,-151,270,1,7,11
6.42E+02,-6304,1009,-4686,-224,-362,267,1,7,11
5.60E+02,-6305,1022,-4688,-178,-326,269,1,7,11
4.84E+02,-6312,1281,-4677,-135,-287,260,1,7,11
4.52E+02,-6334,1021,-4656,-343,10,-20,1,7,11
4.29E+02,-6381,1285,-4647,-282,38,-57,1,7,11
4.06E+02,-6682,1309,-4624,31,40,-87,1,7,11
3.94E+02,-6718,1330,-4615,84,7,-112,1,7,11
4.05E+02,-6728,1343,-4340,111,-307,127,1,7,11
4.53E+02,-6702,1335,-4346,124,-379,105,1,7,11
5.34E+02,-6663,1332,-4347,123,-169,75,1,7,11
6.10E+02,-6360,1316,-4338,108,-182,52,1,7,11
6.42E+02,-6323,1304,-4323,86,-149,40,1,7,11
6.22E+02,-6316,1297,-4305,71,-331,54,1,7,11
5.67E+02,-6335,1293,-4287,69,8,88,1,7,11
5.09E+02,-6369,1281,-4272,77,87,125,1,7,11
5.12E+02,-6667,1288,-4247,102,-120,-93,1,7,11
5.83E+02,-6711,1308,-4239,-125,-104,-65,1,7,11
6.44E+02,-6726,1327,-4237,-99,-124,-43,1,7,11
6.17E+02,-6687,1343,-4259,-79,86,-32,1,7,11
5.32E+02,-6368,1355,-4291,-79,58,-40,1,7,11
4.65E+02,-6309,1361,-4335,-94,69,-66,1,7,11
4.40E+02,-6292,1362,-4347,-116,125,-92,1,7,11
4.45E+02,-6278,1356,-4614,-126,-66,-106,1,7,11
4.67E+02,-6302,1348,-4623,-127,265,-118,1,7,11
4.94E+02,-6364,1342,-4621,-112,328,-120,1,7,11
5.13E+02,-6687,1354,-4622,-78,341,-113,1,7,11
5.25E+02,-6736,1369,-4628,-49,319,-111,1,7,11
5.32E+02,-6770,1382,-4647,-33,268,-115,1,7,11
5.36E+02,-6776,1399,-4663,-39,-61,-127,1,7,11
5.40E+02,-6758,1154,-4664,-69,109,107,1,7,11
5.45E+02,-6739,1160,-4644,-126,27,77,1,7,11
5.52E+02,-6725,1402,-4616,53,-308,47,1,7,11
5.57E+02,-6720,1377,-4326,-291,-374,18,1,7,11
5.58E+02,-6715,1361,-4285,-378,-173,5,1,7,11
5.56E+02,-6690,1362,-4268,-205,-211,12,1,7,11
5.51E+02,-6392,1364,-4270,-541,-217,37,1,7,11
5.41E+02,-6348,1364,-4265,-629,-175,69,1,7,11
5.26E+02,-6341,1369,-4259,-456,-339,105,1,7,11
5.08E+02,-6373,1384,-4243,-775,25,-101,1,7,11
4.94E+02,-6663,1407,-4245,-802,108,-40,1,7,11
4.88E+02,-6697,1174,-4244,-796,-52,306,1,7,11
4.86E+02,-6722,1190,-4246,-773,-31,362,1,7,11
4.89E+02,-6739,1202,-4250,-482,-45,136,1,7,11
4.95E+02,-6747,1216,-4261,-442,-94,140,1,7,11
5.06E+02,-6713,1236,-4305,-399,88,370,1,7,11
5.21E+02,-6660,1257,-4347,-626,20,320,1,7,11
5.33E+02,-6341,1549,-4647,-622,-270,267,1,7,11
5.41E+02,-6305,1587,-4693,-400,2,-41,1,7,11
5.45E+02,-6335,1411,-4723,-462,61,-78,1,7,11
5.48E+02,-6399,1795,-4500,-836,105,-87,1,7,11
5.50E+02,-6723,1676,-4508,-1036,109,-56,1,7,11
5.53E+02,-6537,2104,-4527,-1308,79,277,1,7,11
5.58E+02,-6555,1954,-4524,-1801,-257,196,1,7,11
5.58E+02,-6529,2003,-4488,-1937,-331,586,1,7,11
5.52E+02,-6733,1993,-4692,-2588,-136,427,1,7,11
5.41E+02,-6703,1938,-4609,-2689,-177,458,1,7,11
5.31E+02,-6667,2130,-4251,-2955,-222,431,1,7,11
5.23E+02,-6368,2062,-4418,-3370,-528,609,1,7,11
5.16E+02,-6332,1758,-4080,-3415,-554,252,1,7,11
5.08E+02,-6305,1712,-3997,-3367,-539,152,1,7,11
5.04E+02,-6312,1683,-4176,-2964,-239,319,1,7,11
5.09E+02,-6338,1669,-4112,-2736,-186,-7,1,7,11
5.22E+02,-6373,1676,-3796,-2443,-136,-59,1,7,11
5.34E+02,-6683,1711,-3752,-2358,-355,-92,1,7,11
5.42E+02,-6736,2059,-3761,-1740,-341,-104,1,7,11
5.46E+02,-6530,1975,-3793,-1421,-346,-108,1,7,11
5.50E+02,-6568,2398,-3800,-1237,-374,-81,1,7,11
5.52E+02,-6588,2260,-3802,-1184,-178,-29,1,7,11
5.56E+02,-6591,2579,-3787,-1186,-253,280,1,7,11
5.62E+02,-6546,2607,-3768,-1218,-593,319,1,7,11
5.71E+02,-6744,2597,-3750,-1241,-401,329,1,7,11
5.85E+02,-6693,2571,-3964,-1243,-430,311,1,7,11
6.04E+02,-6666,2279,-3913,-1206,-419,277,1,7,11
6.23E+02,-6679,2251,-3855,-1369,-640,-30,1,7,11
6.36E+02,-6715,2235,-3549,-967,-612,-78,1,7,11
6.41E+02,-6745,2242,-3510,-1032,-593,-112,1,7,11
6.39E+02,-6773,2262,-3479,-812,-574,-126,1,7,11
6.33E+02,-6535,2297,-3462,-577,-552,-119,1,7,11
6.24E+02,-6553,2592,-3461,-362,-528,-101,1,7,11
6.16E+02,-6562,2641,-3465,79,-253,-85,1,7,11
6.07E+02,-6574,2434,-3474,-32,-248,-78,1,7,11
5.99E+02,-6563,2471,-3486,319,-254,-70,1,7,11
5.89E+02,-6535,2496,-3503,374,-524,-65,1,7,11
5.76E+02,-6754,2511,-3519,136,-521,-71,1,7,11
5.59E+02,-6715,2516,-3536,129,-242,-79,1,7,11
5.39E+02,-6681,2513,-3553,359,-195,-90,1,7,11
5.19E+02,-6683,2497,-3552,330,-129,-98,1,7,11
5.03E+02,-6726,2482,-3533,309,-309,-101,1,7,11
4.91E+02,-6536,2488,-3511,311,2,-84,1,7,11
4.82E+02,-6588,2494,-3492,337,25,-5,1,7,11
4.77E+02,-6597,2496,-3490,160,56,314,1,7,11
4.78E+02,-6596,2494,-3497,231,71,365,1,7,11
4.86E+02,-6592,2483,-3495,575,73,134,1,7,11
5.05E+02,-6585,2471,-3497,424,66,136,1,7,11
5.34E+02,-6583,2453,-3500,792,49,372,1,7,11
5.72E+02,-6573,2439,-3509,644,24,336,1,7,11
6.06E+02,-6555,2676,-3522,752,-265,295,1,7,11
6.34E+02,-6781,2656,-3552,1096,-289,260,1,7,11
6.61E+02,-6754,2641,-3842,904,-286,-26,1,7,11
6.93E+02,-6750,2637,-3864,939,-259,-40,1,7,11
7.28E+02,-6759,2628,-3884,950,34,-37,1,7,11
7.59E+02,-6777,2627,-3894,947,70,-22,1,7,11
7.76E+02,-6550,2638,-3898,924,98,263,1,7,11
7.82E+02,-6580,2645,-3891,1145,109,294,1,7,11
7.78E+02,-6603,2660,-3892,1101,98,322,1,7,11
7.66E+02,-6615,2673,-3895,1048,72,348,1,7,11
7.50E+02,-6621,2436,-3902,725,31,363,1,7,11
7.35E+02,-6618,2444,-3901,646,-271,363,1,7,11
7.26E+02,-6592,2445,-3906,815,-321,357,1,7,11
7.31E+02,-6560,2433,-3923,465,-365,333,1,7,11
7.50E+02,-6534,2674,-3937,616,-129,298,1,7,11
7.71E+02,-6764,2660,-3942,250,-381,262,1,7,11
7.86E+02,-6757,2649,-3930,142,-350,-19,1,7,11
7.98E+02,-6772,2650,-3914,305,-302,-25,1,7,11
8.07E+02,-6539,2644,-3888,-37,4,-14,1,7,11
8.16E+02,-6565,2638,-3864,-99,43,261,1,7,11
8.26E+02,-6587,2636,-3843,114,58,270,1,7,11
8.37E+02,-6594,2631,-3573,87,55,265,1,7,11
8.43E+02,-6563,2630,-3576,79,34,-11,1,7,11
8.36E+02,-6773,2622,-3855,77,20,-44,1,7,11
8.06E+02,-6722,2611,-3887,76,37,-82,1,7,11
7.46E+02,-6691,2597,-3897,82,85,-117,1,7,11
6.61E+02,-6701,2584,-3903,100,-104,120,1,7,11
5.84E+02,-6742,2576,-3895,-117,-40,119,1,7,11
5.46E+02,-6539,2577,-3879,-59,-2,-115,1,7,11
5.55E+02,-6564,2584,-3878,274,256,-79,1,7,11
6.10E+02,-6562,2616,-3900,357,-19,-45,1,7,11
6.91E+02,-6564,2648,-3921,150,-30,-24,1,7,11
7.65E+02,-6590,2675,-3924,167,-39,-16,1,7,11
8.08E+02,-6607,2446,-3935,166,-73,-17,1,7,11
8.15E+02,-6585,2467,-3960,154,-116,-42,1,7,11
7.95E+02,-6559,2487,-3734,370,107,-92,1,7,11
7.62E+02,-6535,2492,-3737,300,84,89,1,7,11
7.33E+02,-6767,2467,-3745,-52,59,-268,1,7,11
7.19E+02,-6736,2687,-3747,89,41,-134,1,7,11
7.16E+02,-6731,2644,-3735,-293,38,-513,1,7,11
7.18E+02,-6745,2600,-3717,-164,41,-611,1,7,11
7.22E+02,-6751,2293,-3941,-533,52,-411,1,7,11
7.28E+02,-6766,2239,-3916,-627,83,-427,1,7,11
7.35E+02,-6549,2187,-3892,-436,116,-408,1,7,11
7.42E+02,-6602,2395,-3875,-460,-124,-616,1,7,11
7.44E+02,-6618,2358,-3855,-443,117,-533,1,7,11
7.30E+02,-6612,2332,-3854,-390,96,-177,1,7,11
6.91E+02,-6617,2317,-3849,-564,96,-319,1,7,11
6.40E+02,-6619,2312,-3580,-187,99,69,1,7,11
6.01E+02,-6611,2328,-3847,-285,105,-55,1,7,11
5.88E+02,-6595,2362,-3865,-116,125,322,1,7,11
6.04E+02,-6598,2408,-3886,305,-113,161,1,7,11
6.47E+02,-6603,2201,-3911,184,-101,220,1,7,11
7.02E+02,-6602,2237,-3916,543,-103,239,1,7,11
7.53E+02,-6598,2279,-3920,630,-127,218,1,7,11
7.89E+02,-6591,2572,-3935,428,87,158,1,7,11
8.09E+02,-6577,2604,-3943,446,34,322,1,7,11
8.16E+02,-6569,2630,-3939,432,-272,-39,1,7,11
8.13E+02,-6558,2638,-3941,385,-318,116,1,7,11
8.02E+02,-6534,2633,-3944,574,-356,26,1,7,11
7.86E+02,-6761,2611,-3960,224,-370,-305,1,7,11
7.68E+02,-6752,2585,-3713,368,-352,-356,1,7,11
7.49E+02,-6755,2564,-3961,257,-314,-370,1,7,11
7.30E+02,-6766,2277,-3932,-96,-263,-342,1,7,11
7.14E+02,-6555,2236,-3912,93,82,17,1,7,11
7.04E+02,-6585,2214,-3896,67,-125,114,1,7,11
7.05E+02,-6597,2197,-3885,92,-96,-52,1,7,11
7.15E+02,-6622,2191,-3881,-122,-81,262,1,7,11
7.25E+02,-6626,2205,-3867,-70,-95,292,1,7,11
7.34E+02,-6599,2217,-3869,-14,124,291,1,7,11
7.41E+02,-6550,2231,-3899,279,88,264,1,7,11
7.46E+02,-6765,2237,-3928,297,73,-43,1,7,11
7.52E+02,-6745,2243,-3947,297,85,-99,1,7,11
7.56E+02,-6728,2254,-3719,285,118,112,1,7,11
7.61E+02,-6723,2259,-3741,259,-80,74,1,7,11
7.66E+02,-6755,2259,-3744,-32,-7,47,1,7,11
7.72E+02,-6545,2243,-3732,-65,293,24,1,7,11
7.78E+02,-6591,2229,-3716,-91,302,-263,1,7,11
7.85E+02,-6639,2227,-3955,-112,278,-292,1,7,11
7.94E+02,-6918,2223,-3937,-120,-35,-307,1,7,11
8.02E+02,-6643,2225,-3958,127,-105,-309,1,7,11
8.10E+02,-6580,2214,-3719,104,93,-302,1,7,11
8.15E+02,-6553,2185,-3729,66,84,-293,1,7,11
8.17E+02,-6541,2396,-3717,44,94,-273,1,7,11
8.17E+02,-6549,2358,-3952,58,107,19,1,7,11
8.16E+02,-6541,2334,-3938,114,112,75,1,7,11
8.15E+02,-6547,2323,-3929,-62,-128,-122,1,7,11
8.14E+02,-6564,2324,-3932,275,-109,-57,1,7,11
8.15E+02,-6571,2335,-3937,354,-105,259,1,7,11
8.17E+02,-6563,2358,-3961,170,-111,301,1,7,11
8.17E+02,-6545,2386,-3734,226,-116,328,1,7,11
8.17E+02,-6783,2410,-3773,530,-111,333,1,7,11
8.18E+02,-6777,2186,-3791,555,-92,322,1,7,11
8.21E+02,-6530,2199,-3793,566,-85,294,1,7,11
8.26E+02,-6546,2208,-3795,570,-93,-13,1,7,11
8.34E+02,-6550,2212,-3791,566,-122,-74,1,7,11
8.41E+02,-6775,2202,-3796,546,96,115,1,7,11
8.47E+02,-6749,2187,-3814,250,79,48,1,7,11
8.50E+02,-6734,2431,-3827,188,82,-262,1,7,11
8.53E+02,-6737,2411,-3832,363,106,-289,1,7,11
8.57E+02,-6746,2379,-3807,277,-119,-290,1,7,11
8.63E+02,-6782,2367,-3787,-44,-82,24,1,7,11
8.71E+02,-6550,2360,-3774,-104,-72,95,1,7,11
8.80E+02,-6574,2360,-3767,-120,-71,-84,1,7,11
8.88E+02,-6584,2365,-3761,-126,-87,-20,1,7,11
8.94E+02,-6592,2376,-3753,-128,-113,272,1,7,11
9.00E+02,-6590,2383,-3746,-123,108,275,1,7,11
9.04E+02,-6573,2404,-3746,-116,64,257,1,7,11
9.08E+02,-6778,2421,-3766,-118,23,-34,1,7,11
9.11E+02,-6720,2430,-3781,118,13,-86,1,7,11
9.14E+02,-6689,2421,-3801,77,38,106,1,7,11
9.19E+02,-6695,2407,-3802,32,78,46,1,7,11
9.25E+02,-6719,2402,-3810,-258,118,12,1,7,11
9.34E+02,-6731,2393,-3815,-274,-102,10,1,7,11
9.45E+02,-6751,2390,-3825,-274,-57,29,1,7,11
9.56E+02,-6778,2380,-3823,0,-22,60,1,7,11
9.64E+02,-6543,2378,-3825,36,-10,91,1,7,11
9.69E+02,-6571,2387,-3824,76,-12,111,1,7,11
9.73E+02,-6593,2406,-3823,111,-37,125,1,7,11
9.75E+02,-6600,2429,-3816,-121,-87,119,1,7,11
9.77E+02,-6587,2181,-3815,-116,108,95,1,7,11
9.78E+02,-6564,2192,-3814,123,51,55,1,7,11
9.80E+02,-6540,2197,-3802,88,12,3,1,7,11
9.82E+02,-6768,2201,-3789,38,-268,-300,1,7,11
9.85E+02,-6719,2187,-3794,-282,-276,-339,1,7,11
9.89E+02,-6692,2409,-3797,-357,10,-380,1,7,11
9.94E+02,-6690,2374,-3778,-169,65,-160,1,7,11
1.00E+03,-6707,2338,-3751,-213,112,-180,1,7,11
1.01E+03,-6727,2313,-3747,-232,-97,-180,1,7,11
1.01E+03,-6767,2303,-3742,-226,-54,-153,1,7,11
1.02E+03,-6532,2046,-3761,-195,-32,-358,1,7,11
1.02E+03,-6546,2314,-3777,-143,-20,-302,1,7,11
1.02E+03,-6571,2320,-3777,-349,-5,14,1,7,11
1.02E+03,-6596,2322,-3788,-257,-15,88,1,7,11
1.02E+03,-6595,2329,-3799,55,-47,106,1,7,11
1.02E+03,-6581,2342,-3808,98,-86,94,1,7,11
1.02E+03,-6562,2364,-3818,126,-123,61,1,7,11
1.02E+03,-6537,2385,-3831,-123,103,23,1,7,11
1.02E+03,-6781,2395,-4097,111,90,-272,1,7,11
1.02E+03,-6530,2388,-3833,71,87,-307,1,7,11
1.02E+03,-6537,2379,-3819,23,77,-338,1,7,11
1.02E+03,-6531,2359,-3802,-282,62,-366,1,7,11
1.01E+03,-6766,2338,-3799,-319,57,-135,1,7,11
1.01E+03,-6748,2321,-3792,-350,74,-149,1,7,11
1.01E+03,-6750,2044,-3795,-363,106,-147,1,7,11
1.01E+03,-6770,2033,-3779,-355,-114,-382,1,7,11
1.01E+03,-6538,2022,-3786,-323,-87,-351,1,7,11
1.00E+03,-6567,2025,-3788,-278,-74,-307,1,7,11
9.99E+02,-6568,2036,-3801,30,-83,0,1,7,11
9.90E+02,-6567,2038,-3801,70,-100,44,1,7,11
9.79E+02,-6551,2040,-3804,102,127,73,1,7,11
9.67E+02,-6545,2040,-3810,126,99,82,1,7,11
9.58E+02,-6555,2313,-3811,-109,71,89,1,7,11
9.51E+02,-6540,2325,-3831,-90,36,107,1,7,11
9.47E+02,-6782,2351,-4104,-79,32,-127,1,7,11
9.43E+02,-6531,2366,-4102,-83,49,-101,1,7,11
9.39E+02,-6538,2364,-4111,-90,52,-83,1,7,11
9.36E+02,-6529,2360,-4116,-96,46,-89,1,7,11
9.35E+02,-6532,2382,-4122,-103,44,-109,1,7,11
9.35E+02,-6543,2397,-4125,-124,37,121,1,7,11
9.36E+02,-6561,2403,-4115,111,40,100,1,7,11
9.37E+02,-6590,2399,-4098,76,34,70,1,7,11
9.40E+02,-6624,2396,-3812,37,12,33,1,7,11
9.43E+02,-6635,2387,-3787,1,-284,-266,1,7,11
9.46E+02,-6607,2371,-3767,-287,-330,-306,1,7,11
9.50E+02,-6588,2341,-3728,-328,-346,-345,1,7,11
9.53E+02,-6581,2307,-3955,-361,-348,-372,1,7,11
9.57E+02,-6569,2023,-3918,-381,-355,-138,1,7,11
9.61E+02,-6549,1991,-3895,-136,-345,-155,1,7,11
9.65E+02,-6542,1961,-3881,-138,-315,-164,1,7,11
9.69E+02,-6537,1950,-3877,-379,-277,-155,1,7,11
9.73E+02,-6540,1944,-3882,-361,31,-129,1,7,11
9.77E+02,-6552,1948,-3894,-329,91,-340,1,7,11
9.82E+02,-6571,1963,-3902,-285,-112,-275,1,7,11
9.86E+02,-6592,1981,-3931,21,-69,55,1,7,11
9.91E+02,-6606,2002,-3954,76,-41,-122,1,7,11
9.96E+02,-6594,2021,-3734,-123,-31,-56,1,7,11
1.00E+03,-6588,2306,-3771,-73,-25,-14,1,7,11
1.01E+03,-6580,2334,-3800,-39,-29,-1,1,7,11
1.01E+03,-6576,2363,-3818,-26,-42,-21,1,7,11
1.02E+03,-6580,2384,-3847,-31,-67,-57,1,7,11
1.03E+03,-6578,2399,-4107,-54,-102,-110,1,7,11
1.05E+03,-6571,2408,-4111,-96,-128,88,1,7,11
1.06E+03,-6567,2400,-4104,109,103,37,1,7,11
1.06E+03,-6555,2391,-4103,63,84,-264,1,7,11
1.07E+03,-6563,2359,-3822,16,81,-301,1,7,11
1.08E+03,-6575,2321,-3804,-270,77,-332,1,7,11
1.09E+03,-6590,2040,-3789,-275,68,-353,1,7,11
1.09E+03,-6588,2020,-3786,-260,49,-365,1,7,11
1.10E+03,-6593,2009,-3788,23,36,-368,1,7,11
1.10E+03,-6596,2001,-3782,52,22,-366,1,7,11
1.10E+03,-6629,2004,-3785,88,4,-361,1,7,11
1.11E+03,-6926,2033,-3782,-122,-281,-344,1,7,11
1.11E+03,-6946,2333,-3794,-78,-323,-318,1,7,11
1.11E+03,-6953,2376,-3801,-64,-349,-292,1,7,11
1.11E+03,-6971,2415,-3808,-75,-379,-278,1,7,11
1.11E+03,-6968,2409,-3831,-119,-195,-287,1,7,11
1.10E+03,-6916,2353,-4140,68,-532,-354,1,7,11
1.10E+03,-6944,2036,-4125,-288,-575,-220,1,7,11
1.10E+03,-7031,1977,-3728,-364,-392,-598,1,7,11
1.10E+03,-6850,1931,-3933,-136,-778,-429,1,7,11
1.09E+03,-6873,2124,-3562,-138,-675,-474,1,7,11
1.09E+03,-6828,2051,-3476,-375,-1059,-492,1,7,11
1.09E+03,-6994,1723,-3680,-350,-1118,-508,1,7,11
1.09E+03,-6655,1889,-3631,-337,-1087,-795,1,7,11
1.09E+03,-6557,1812,-3617,-318,-743,-856,1,7,11
1.09E+03,-6747,1489,-3617,-313,-855,-697,1,7,11
1.08E+03,-6747,1435,-3624,-309,-400,-1059,1,7,11
1.08E+03,-6560,1415,-3612,-302,-178,-1146,1,7,11
1.08E+03,-6645,1408,-3609,-259,24,-911,1,7,11
1.08E+03,-7040,1428,-3613,54,-43,-1145,1,7,11
1.07E+03,-6825,1414,-3607,97,383,-1085,1,7,11
1.07E+03,-6894,1641,-3313,-80,241,-767,1,7,11
1.07E+03,-7183,1655,-3304,325,539,-711,1,7,11
1.07E+03,-6869,1461,-3632,635,238,-851,1,7,11
1.06E+03,-6786,1528,-3705,822,231,-483,1,7,11
1.06E+03,-6976,1852,-3522,719,520,-605,1,7,11
1.06E+03,-6946,1894,-3578,1099,566,-196,1,7,11
1.05E+03,-6936,1906,-3882,943,597,-302,1,7,11
1.05E+03,-6956,1913,-3919,1289,604,75,1,7,11
1.04E+03,-6987,1671,-3720,1361,576,-77,1,7,11
1.04E+03,-7003,1677,-3779,1398,534,268,1,7,11
1.04E+03,-7024,1687,-4107,1400,245,342,1,7,11
1.03E+03,-6804,1694,-4172,1369,221,148,1,7,11
1.03E+03,-6848,1689,-4215,1305,191,194,1,7,11
1.02E+03,-6880,1664,-3993,960,135,217,1,7,11
1.01E+03,-6904,1884,-4007,1116,318,209,1,7,11
1.01E+03,-7169,1849,-4007,751,-26,178,1,7,11
9.97E+02,-6884,1815,-4010,645,117,383,1,7,11
9.88E+02,-6856,1792,-4010,783,16,308,1,7,11
9.81E+02,-6856,1499,-3981,396,-329,-21,1,7,11
9.74E+02,-6866,1464,-4192,528,-161,-76,1,7,11
9.69E+02,-6873,1417,-4136,159,-245,-109,1,7,11
9.65E+02,-6855,1626,-3819,324,-580,-117,1,7,11
9.61E+02,-6819,1579,-3753,-5,-628,-116,1,7,11
9.56E+02,-6793,1540,-3950,-55,-640,-103,1,7,11
9.50E+02,-7027,1257,-3887,-78,-630,-77,1,7,11
9.42E+02,-7017,1253,-3851,-69,-597,-43,1,7,11
9.32E+02,-7038,1277,-3553,-57,-543,258,1,7,11
9.21E+02,-6813,1560,-3520,-47,-235,312,1,7,11
9.09E+02,-6834,1582,-3495,-41,-202,373,1,7,11
8.98E+02,-6831,1597,-3487,-32,-177,169,1,7,11
8.88E+02,-6794,1613,-3495,-25,-157,195,1,7,11
8.79E+02,-6996,1624,-3526,-22,-376,186,1,7,11
8.70E+02,-6936,1630,-3576,-26,-312,154,1,7,11
8.62E+02,-6917,1631,-3868,-37,42,359,1,7,11
8.55E+02,-6935,1630,-3887,-45,-107,307,1,7,11
8.48E+02,-6985,1632,-3919,-36,-24,256,1,7,11
8.41E+02,-7014,1654,-3938,270,317,-9,1,7,11
8.35E+02,-6786,1420,-3963,307,349,258,1,7,11
8.28E+02,-6814,1457,-3738,337,370,281,1,7,11
8.22E+02,-6836,1485,-3761,333,376,307,1,7,11
8.16E+02,-6854,1498,-3777,305,359,319,1,7,11
8.10E+02,-6871,1496,-3784,258,310,303,1,7,11
8.04E+02,-6883,1502,-3780,-49,-16,261,1,7,11
7.97E+02,-6893,1506,-3762,-105,-101,-49,1,7,11
7.90E+02,-6912,1508,-3754,89,66,-94,1,7,11
7.81E+02,-6890,1492,-3732,31,-281,-120,1,7,11
7.72E+02,-6815,1463,-3729,-272,-352,113,1,7,11
7.63E+02,-7020,1410,-3715,-304,-372,87,1,7,11
7.53E+02,-7000,1620,-3949,-298,-354,65,1,7,11
7.42E+02,-7005,1594,-3921,-265,-311,57,1,7,11
7.32E+02,-7015,1573,-3902,55,-266,76,1,7,11
7.22E+02,-7023,1577,-3895,-117,34,112,1,7,11
7.12E+02,-6806,1595,-3883,-31,77,-95,1,7,11
7.03E+02,-6839,1624,-3881,303,90,-40,1,7,11
6.95E+02,-6852,1658,-3890,362,80,258,1,7,11
6.87E+02,-6856,1442,-3895,132,59,286,1,7,11
6.77E+02,-6830,1474,-3910,131,26,297,1,7,11
6.66E+02,-6803,1504,-3923,353,2,282,1,7,11
6.53E+02,-7037,1521,-3916,289,-269,-9,1,7,11
6.39E+02,-7017,1531,-3918,-49,-276,-52,1,7,11
6.27E+02,-7007,1529,-3926,118,-271,-98,1,7,11
6.16E+02,-6997,1529,-3937,36,7,107,1,7,11
6.07E+02,-7002,1517,-3935,-304,51,66,1,7,11
5.98E+02,-7024,1494,-3929,-377,94,28,1,7,11
5.91E+02,-7034,1469,-3926,-168,120,-263,1,7,11
5.87E+02,-6793,1442,-3913,-199,-107,-298,1,7,11
5.84E+02,-6813,1421,-3914,-208,-88,-322,1,7,11
5.80E+02,-6832,1659,-3902,-204,-89,-333,1,7,11
5.76E+02,-6833,1652,-3905,-182,-98,-329,1,7,11
5.69E+02,-6832,1642,-3902,-152,-101,-315,1,7,11
5.62E+02,-6814,1634,-3908,-369,-103,-294,1,7,11
5.53E+02,-6805,1628,-3903,-330,-95,-276,1,7,11
5.46E+02,-6785,1626,-3916,-284,-98,1,1,7,11
5.41E+02,-7027,1636,-3923,7,-90,9,1,7,11
5.39E+02,-7029,1632,-3924,29,-81,11,1,7,11
5.38E+02,-7029,1645,-3936,49,-78,11,1,7,11
5.38E+02,-7032,1661,-3968,62,-72,19,1,7,11
5.38E+02,-7037,1416,-3729,68,-64,31,1,7,11
5.38E+02,-7038,1422,-3743,64,-54,48,1,7,11
5.42E+02,-7036,1426,-3747,58,-41,64,1,7,11
5.54E+02,-6805,1422,-3746,50,-29,80,1,7,11
5.77E+02,-6822,1415,-3740,54,-50,82,1,7,11
6.08E+02,-6819,1417,-3753,65,-86,77,1,7,11
6.34E+02,-6819,1423,-3763,74,-118,61,1,7,11
6.45E+02,-6831,1426,-3760,74,109,49,1,7,11
6.46E+02,-6838,1431,-3745,70,81,42,1,7,11
6.45E+02,-6836,1433,-3736,62,54,36,1,7,11
6.49E+02,-6830,1429,-3726,49,32,26,1,7,11
6.56E+02,-6841,1424,-3967,27,20,10,1,7,11
6.64E+02,-6847,1422,-3936,4,2,0,1,7,11
6.73E+02,-6845,1421,-3919,-273,-279,-261,1,7,11
6.81E+02,-6824,1408,-3908,-296,-296,-264,1,7,11
6.87E+02,-6800,1646,-3899,-316,-300,-269,1,7,11
6.92E+02,-7033,1626,-3886,-331,-284,-275,1,7,11
6.95E+02,-7034,1611,-3871,-333,2,-275,1,7,11
6.95E+02,-6804,1603,-3845,-322,31,-268,1,7,11
6.94E+02,-6828,1608,-3581,-307,40,13,1,7,11
6.92E+02,-6837,1616,-3572,-288,38,49,1,7,11
6.88E+02,-6841,1624,-3570,-278,29,91,1,7,11
6.79E+02,-6839,1632,-3574,-270,15,123,1,7,11
6.63E+02,-6855,1651,-3579,-266,13,-104,1,7,11
6.43E+02,-6834,1415,-3854,1,-260,-73,1,7,11
6.28E+02,-6804,1439,-3885,8,11,-53,1,7,11
6.20E+02,-6795,1457,-3899,8,58,-33,1,7,11
6.18E+02,-7040,1463,-3910,13,96,-21,1,7,11
6.20E+02,-7038,1462,-3923,26,-127,-32,1,7,11
6.21E+02,-6787,1454,-3917,48,-101,-55,1,7,11
6.18E+02,-6786,1457,-3920,79,-89,-90,1,7,11
6.11E+02,-7035,1475,-3939,115,-80,-126,1,7,11
6.01E+02,-7038,1492,-3954,-119,-59,101,1,7,11
5.90E+02,-6797,1499,-3966,-113,-30,80,1,7,11
5.86E+02,-6825,1501,-3964,-114,-16,65,1,7,11
5.89E+02,-6830,1510,-3967,-114,-28,55,1,7,11
5.90E+02,-6826,1504,-3721,127,-50,39,1,7,11
5.79E+02,-6824,1496,-3724,96,-69,18,1,7,11
5.66E+02,-6857,1478,-3959,56,-93,-264,1,7,11
5.66E+02,-6876,1473,-3944,16,126,-282,1,7,11
5.78E+02,-6893,1451,-3910,-270,78,-286,1,7,11
5.87E+02,-6885,1429,-3899,-292,26,-279,1,7,11
5.83E+02,-6839,1653,-3899,-303,-275,-278,1,7,11
5.74E+02,-6798,1626,-3896,-309,-283,-279,1,7,11
5.67E+02,-6797,1597,-3882,-297,-263,-277,1,7,11
5.64E+02,-6806,1581,-3863,-266,15,-267,1,7,11
5.63E+02,-6811,1571,-3864,40,33,19,1,7,11
5.63E+02,-6813,1573,-3860,110,44,76,1,7,11
5.62E+02,-6831,1594,-3860,-72,54,-128,1,7,11
5.62E+02,-6846,1614,-3867,31,65,-70,1,7,11
5.62E+02,-6859,1637,-3875,313,64,-43,1,7,11
5.62E+02,-6880,1408,-3884,346,52,263,1,7,11
5.62E+02,-6888,1438,-3884,361,25,295,1,7,11
5.58E+02,-6859,1469,-3896,354,-261,304,1,7,11
5.56E+02,-6843,1494,-3900,324,-282,299,1,7,11
5.58E+02,-6835,1521,-3904,277,-281,279,1,7,11
5.63E+02,-6824,1527,-3895,-34,-268,257,1,7,11
5.66E+02,-6825,1520,-3870,-101,5,-34,1,7,11
5.65E+02,-6835,1511,-3861,94,20,-81,1,7,11
5.63E+02,-6827,1503,-3859,48,23,117,1,7,11
5.62E+02,-6822,1489,-3842,0,25,53,1,7,11
5.64E+02,-6814,1458,-3571,-305,27,-263,1,7,11
5.69E+02,-6816,1424,-3573,-347,25,-339,1,7,11
5.78E+02,-6832,1652,-3562,-371,33,-366,1,7,11
5.87E+02,-6829,1626,-3566,-370,35,-366,1,7,11
5.94E+02,-6819,1620,-3565,-350,48,-343,1,7,11
5.96E+02,-6819,1613,-3564,-313,92,-290,1,7,11
5.94E+02,-6825,1614,-3565,-231,-95,25,1,7,11
5.89E+02,-6855,1613,-3568,84,-56,84,1,7,11
5.88E+02,-6861,1632,-3582,-109,-47,-123,1,7,11
5.89E+02,-6868,1658,-3860,-67,-42,-96,1,7,11
5.92E+02,-6870,1431,-3864,-46,-48,-81,1,7,11
5.94E+02,-6860,1462,-3878,-45,-63,-78,1,7,11
5.92E+02,-6866,1491,-3895,-70,-70,-89,1,7,11
5.84E+02,-6867,1510,-3898,-114,-81,-114,1,7,11
5.77E+02,-6868,1518,-3891,86,-98,110,1,7,11
5.78E+02,-6836,1508,-3894,28,125,73,1,7,11
5.86E+02,-6811,1490,-3895,-292,113,24,1,7,11
5.98E+02,-6808,1455,-3873,-350,120,-281,1,7,11
6.08E+02,-6797,1419,-3865,-381,125,-315,1,7,11
6.12E+02,-6792,1651,-3856,-133,-111,-335,1,7,11
6.13E+02,-6787,1637,-3852,-372,-82,-334,1,7,11
6.12E+02,-6796,1631,-3852,-343,-37,-314,1,7,11
6.11E+02,-6828,1629,-3858,-307,268,-276,1,7,11
6.06E+02,-6864,1643,-3871,-266,301,21,1,7,11
5.99E+02,-6892,1657,-3874,27,301,51,1,7,11
5.95E+02,-6908,1417,-3879,57,267,64,1,7,11
5.99E+02,-6885,1434,-3889,74,-43,63,1,7,11
6.05E+02,-6838,1447,-3906,74,-96,48,1,7,11
6.04E+02,-6791,1453,-3919,47,-112,22,1,7,11
5.94E+02,-7031,1440,-3920,6,-100,-260,1,7,11
5.82E+02,-7015,1421,-3927,-283,-78,-280,1,7,11
5.76E+02,-7011,1411,-3918,-306,-47,-293,1,7,11
5.76E+02,-7035,1654,-3906,-323,-12,-296,1,7,11
5.79E+02,-6803,1642,-3911,-327,264,-289,1,7,11
5.84E+02,-6803,1627,-3926,-325,269,-278,1,7,11
5.89E+02,-7037,1614,-3949,-314,268,-267,1,7,11
5.91E+02,-7013,1592,-3960,-299,279,-257,1,7,11
5.90E+02,-7021,1577,-3968,-267,308,11,1,7,11
5.86E+02,-7036,1583,-3715,40,328,37,1,7,11
5.83E+02,-6807,1596,-3723,98,338,73,1,7,11
5.82E+02,-6845,1620,-3732,-104,331,117,1,7,11
5.80E+02,-6882,1636,-3733,-67,292,-98,1,7,11
5.78E+02,-6908,1427,-3742,-41,-33,-75,1,7,11
5.79E+02,-6898,1457,-3751,-47,101,-81,1,7,11
5.85E+02,-6870,1489,-3749,-78,34,-107,1,7,11
5.94E+02,-6847,1507,-3732,124,-265,114,1,7,11
6.02E+02,-6817,1505,-3952,59,-294,75,1,7,11
6.05E+02,-6792,1487,-3918,3,-305,34,1,7,11
6.03E+02,-7026,1456,-3874,-296,-297,-264,1,7,11
5.96E+02,-7002,1426,-3843,-324,-273,-300,1,7,11
5.87E+02,-6961,1410,-3583,-339,26,-326,1,7,11
5.82E+02,-6925,1654,-3849,-356,95,-350,1,7,11
5.80E+02,-6654,1654,-3871,-384,-64,-367,1,7,11
5.83E+02,-6925,1417,-3901,-163,299,-372,1,7,11
5.88E+02,-6950,1451,-3936,-204,137,-345,1,7,11
5.95E+02,-6971,1503,-3733,-530,210,-305,1,7,11
6.02E+02,-6994,1813,-3791,-639,526,-260,1,7,11
6.04E+02,-6790,1875,-3824,-798,564,32,1,7,11
6.00E+02,-6837,1692,-4105,-731,558,68,1,7,11
5.90E+02,-6867,1778,-4123,-961,521,117,1,7,11
5.80E+02,-6872,2153,-4155,-1233,229,-63,1,7,11
5.75E+02,-6882,2318,-4201,-1831,222,290,1,7,11
5.77E+02,-6898,2260,-4221,-2017,237,183,1,7,11
5.85E+02,-6878,2655,-3971,-2818,523,397,1,7,11
5.97E+02,-6845,2683,-4181,-3433,584,871,1,7,11
6.11E+02,-6809,2587,-3838,-3770,629,1030,1,7,11
6.24E+02,-7023,2198,-3765,-4226,612,1052,1,7,11
6.37E+02,-6964,2350,-3716,-4511,523,679,1,7,11
6.46E+02,-6621,1969,-3916,-4913,151,466,1,7,11
6.48E+02,-6557,2164,-3855,-4921,315,192,1,7,11
6.38E+02,-6547,2115,-3522,-4535,-9,-84,1,7,11
6.22E+02,-6560,2111,-3458,-4259,-74,-332,1,7,11
6.12E+02,-6573,2116,-3652,-4137,-125,-533,1,7,11
6.14E+02,-6580,2142,-3614,-3696,84,-428,1,7,11
6.21E+02,-6576,1941,-3600,-2966,41,-796,1,7,11
6.25E+02,-6594,2017,-3595,-2275,32,-886,1,7,11
6.28E+02,-6633,2335,-3323,-2139,58,-885,1,7,11
6.35E+02,-6945,2377,-3291,-1526,87,-851,1,7,11
6.48E+02,-7001,2402,-3259,-1207,97,-798,1,7,11
6.56E+02,-7040,2413,-3230,-916,75,-478,1,7,11
6.49E+02,-6787,2428,-3456,-658,21,-429,1,7,11
6.27E+02,-7035,2428,-3438,-447,-302,-397,1,7,11
6.04E+02,-7026,2425,-3444,-520,-373,-623,1,7,11
5.92E+02,-7025,2430,-3446,-354,-182,-582,1,7,11
5.86E+02,-7011,2191,-3447,51,-245,-516,1,7,11
5.81E+02,-6992,2201,-3445,-89,-556,-183,1,7,11
5.78E+02,-6789,2236,-3418,265,-591,-360,1,7,11
5.78E+02,-6804,2589,-3447,372,-422,29,1,7,11
5.84E+02,-7038,2442,-3239,173,-480,-66,1,7,11
5.93E+02,-7040,2550,-3254,175,-467,377,1,7,11
6.03E+02,-6788,2878,-3247,156,-434,595,1,7,11
6.15E+02,-7025,2897,-3242,142,-411,794,1,7,11
6.27E+02,-6795,2877,-3209,150,-634,667,1,7,11
6.38E+02,-6864,2854,-3401,212,-640,739,1,7,11
6.48E+02,-7169,2846,-3337,596,-451,1028,1,7,11
6.57E+02,-6912,2863,-3042,778,-817,1045,1,7,11
6.63E+02,-6871,2920,-3014,724,-654,1060,1,7,11
6.70E+02,-6815,2702,-3007,1150,-707,1076,1,7,11
6.77E+02,-6799,2707,-2993,1297,-722,1066,1,7,11
6.85E+02,-6788,2921,-2967,1179,-733,1024,1,7,11
6.94E+02,-6798,2840,-3181,1604,-753,676,1,7,11
7.03E+02,-6828,2516,-3155,1836,-1055,808,1,7,11
7.12E+02,-6860,2442,-3143,2099,-1112,441,1,7,11
7.18E+02,-6877,2621,-3136,2404,-915,616,1,7,11
7.21E+02,-6874,2575,-3163,2474,-970,552,1,7,11
7.19E+02,-6876,2283,-2950,2772,-1004,517,1,7,11
7.09E+02,-6899,2262,-2994,3023,-1019,243,1,7,11
6.95E+02,-7204,2240,-3034,3229,-1290,250,1,7,11
6.78E+02,-7269,2227,-3045,3647,-1330,549,1,7,11
6.62E+02,-7043,2225,-3065,3516,-1406,629,1,7,11
6.46E+02,-7043,2232,-3354,3845,-1243,472,1,7,11
6.29E+02,-7261,2234,-3389,3856,-1583,834,1,7,11
6.14E+02,-7244,2253,-3415,3547,-1627,688,1,7,11
6.05E+02,-7228,2270,-3426,3691,-1645,1059,1,7,11
6.05E+02,-7231,2279,-3420,3287,-1639,907,1,7,11
6.08E+02,-7246,2299,-3396,3379,-1631,1004,1,7,11
6.05E+02,-7244,2566,-3373,2947,-1637,1351,1,7,11
6.00E+02,-7245,2574,-3350,2769,-1632,1163,1,7,11
6.00E+02,-7244,2587,-3332,2855,-1625,1216,1,7,11
6.10E+02,-7225,2598,-3070,2440,-1619,1254,1,7,11
6.21E+02,-7202,2621,-3064,2286,-1594,1267,1,7,11
6.24E+02,-7203,2640,-3044,2378,-1548,1259,1,7,11
6.20E+02,-7229,2663,-3018,1966,-1244,1245,1,7,11
6.19E+02,-7240,2679,-3000,2073,-1203,1236,1,7,11
6.23E+02,-7226,2440,-2992,1681,-1163,1214,1,7,11
6.22E+02,-7206,2462,-2985,1813,-1362,1167,1,7,11
6.06E+02,-7222,2485,-2953,1434,-1293,1361,1,7,11
5.85E+02,-7240,2501,-3183,1576,-988,1298,1,7,11
5.74E+02,-7253,2520,-3157,1210,-957,980,1,7,11
5.79E+02,-7249,2529,-3132,1355,-942,917,1,7,11
5.86E+02,-7254,2533,-3097,988,-925,1112,1,7,11
5.87E+02,-7251,2525,-2809,1135,-917,1061,1,7,11
5.89E+02,-7227,2507,-2769,1031,-902,754,1,7,11
5.98E+02,-7202,2491,-2742,687,-1127,695,1,7,11
6.13E+02,-7173,2487,-2731,865,-1062,883,1,7,11
6.26E+02,-6895,2491,-2725,794,-719,807,1,7,11
6.33E+02,-6903,2508,-2729,464,-861,467,1,7,11
6.36E+02,-7226,2540,-2704,635,-482,384,1,7,11
6.36E+02,-7042,2825,-2938,543,-403,583,1,7,11
6.35E+02,-7125,2847,-2893,182,-618,536,1,7,11
6.36E+02,-7461,2857,-2841,333,-625,253,1,7,11
6.35E+02,-7504,2847,-2516,-12,-426,242,1,7,11
6.30E+02,-7503,2557,-2463,-84,-510,235,1,7,11
6.18E+02,-7475,2522,-2682,-123,-846,223,1,7,11
6.00E+02,-7433,2493,-2639,119,-652,197,1,7,11
5.87E+02,-7138,2462,-2608,118,-686,164,1,7,11
5.80E+02,-7120,2438,-2577,-123,-694,134,1,7,11
5.78E+02,-7115,2681,-2304,-93,-682,376,1,7,11
5.77E+02,-7112,2683,-2287,-52,-656,379,1,7,11
5.76E+02,-7109,2687,-2289,-13,-868,143,1,7,11
5.79E+02,-7107,2441,-2563,280,-812,169,1,7,11
5.88E+02,-7117,2452,-2567,314,-494,194,1,7,11
6.02E+02,-7124,2466,-2596,339,-437,219,1,7,11
6.18E+02,-7139,2484,-2609,356,-635,230,1,7,11
6.35E+02,-7152,2497,-2626,367,-593,231,1,7,11
6.57E+02,-7165,2506,-2632,371,-570,217,1,7,11
6.86E+02,-7445,2512,-2626,381,-557,189,1,7,11
7.15E+02,-7458,2531,-2633,142,-563,155,1,7,11
7.28E+02,-7447,2558,-2658,151,-578,375,1,7,11
7.10E+02,-7440,2842,-2653,139,-577,331,1,7,11
6.76E+02,-7442,2858,-2645,353,-569,287,1,7,11
6.52E+02,-7461,2875,-2633,300,-567,-36,1,7,11
6.58E+02,-7489,2887,-2600,-24,-561,-67,1,7,11
6.76E+02,-7500,2884,-2567,-94,-571,-75,1,7,11
6.83E+02,-7500,2875,-2262,81,-584,-64,1,7,11
6.72E+02,-7489,2853,-2203,54,-600,-39,1,7,11
6.62E+02,-7485,2831,-2414,48,-607,-13,1,7,11
6.70E+02,-7476,2559,-2362,56,-613,265,1,7,11
6.91E+02,-7481,2557,-2309,70,-615,282,1,7,11
7.04E+02,-7485,2820,-2001,86,-621,310,1,7,11
6.93E+02,-7476,2835,-1968,112,-631,349,1,7,11
6.65E+02,-7441,2861,-1966,-117,-627,137,1,7,11
6.37E+02,-7148,2883,-1972,-99,-584,174,1,7,11
6.16E+02,-7122,2915,-1994,-88,-253,203,1,7,11
6.02E+02,-7123,2691,-2011,-92,-152,213,1,7,11
5.90E+02,-7147,2723,-2005,-109,-307,204,1,7,11
5.82E+02,-7439,2747,-2000,121,18,180,1,7,11
5.80E+02,-7467,2757,-1992,90,46,147,1,7,11
5.81E+02,-7460,2751,-2015,63,41,368,1,7,11
5.86E+02,-7436,2737,-2042,44,37,327,1,7,11
5.91E+02,-7425,2716,-2327,29,59,279,1,7,11
5.98E+02,-7427,2712,-2346,20,101,-17,1,7,11
6.05E+02,-7168,2708,-2363,21,-118,-35,1,7,11
6.14E+02,-7163,2717,-2373,26,-77,-36,1,7,11
6.26E+02,-7160,2720,-2383,30,-29,-18,1,7,11
6.38E+02,-7137,2734,-2423,41,272,269,1,7,11
6.45E+02,-7124,2761,-2201,38,332,292,1,7,11
6.42E+02,-7458,2780,-2424,16,147,296,1,7,11
6.36E+02,-7506,2805,-2398,9,382,299,1,7,11
6.39E+02,-7530,3073,-2387,16,297,288,1,7,11
6.54E+02,-7521,3083,-2384,21,-66,262,1,7,11
6.67E+02,-7469,3087,-2398,18,92,-27,1,7,11
6.64E+02,-7147,2809,-2423,0,37,-78,1,7,11
6.47E+02,-7104,2772,-2180,-282,44,114,1,7,11
6.35E+02,-7108,2737,-2428,-303,94,50,1,7,11
6.39E+02,-7130,2713,-2412,-301,-117,6,1,7,11
6.48E+02,-7152,2700,-2402,-280,-81,-265,1,7,11
6.44E+02,-7434,2692,-2379,5,-45,4,1,7,11
6.24E+02,-7466,2690,-2374,46,-26,42,1,7,11
6.01E+02,-7504,2706,-2360,97,-31,91,1,7,11
5.86E+02,-7535,2749,-2364,-112,-61,-107,1,7,11
5.77E+02,-7547,2804,-2373,-84,-122,-41,1,7,11
5.73E+02,-7532,3103,-2371,-91,72,272,1,7,11
5.71E+02,-7508,3144,-2367,-127,11,308,1,7,11
5.70E+02,-7465,3155,-2351,70,-307,317,1,7,11
5.68E+02,-7138,3133,-2347,6,-356,298,1,7,11
5.69E+02,-7079,3091,-2348,-304,-357,-12,1,7,11
5.72E+02,-7068,2803,-2336,-343,-316,-81,1,7,11
5.75E+02,-7067,2770,-2327,-354,-266,116,1,7,11
5.76E+02,-7066,2747,-2327,-338,50,75,1,7,11
5.76E+02,-7084,2742,-2323,-313,-122,57,1,7,11
5.79E+02,-7148,2761,-2313,-273,-40,71,1,7,11
5.84E+02,-7431,2794,-2325,35,-5,118,1,7,11
5.88E+02,-7457,3089,-2342,65,272,-94,1,7,11
5.87E+02,-7475,3123,-2350,67,265,-61,1,7,11
5.80E+02,-7477,3149,-2361,44,-28,-53,1,7,11
5.68E+02,-7479,3184,-2359,-258,-80,-73,1,7,11
5.56E+02,-7460,3188,-2358,-314,110,-102,1,7,11
5.51E+02,-7160,3190,-2357,-374,53,112,1,7,11
5.53E+02,-7113,3163,-2345,-180,30,73,1,7,11
5.55E+02,-7083,3110,-2330,-225,46,33,1,7,11
5.58E+02,-7078,2791,-2318,-230,82,0,1,7,11
5.66E+02,-7080,2733,-2324,-199,125,-275,1,7,11
5.80E+02,-7082,2721,-2320,-145,-81,-278,1,7,11
6.00E+02,-7093,2722,-2340,-334,-23,-265,1,7,11
6.20E+02,-7130,2741,-2347,-268,302,27,1,7,11
6.38E+02,-7167,2776,-2364,63,350,87,1,7,11
6.50E+02,-7465,3094,-2373,126,366,-101,1,7,11
6.52E+02,-7488,3156,-2368,-100,345,-36,1,7,11
6.45E+02,-7474,2954,-2381,-107,289,260,1,7,11
6.29E+02,-7445,2991,-2382,106,-34,259,1,7,11
6.11E+02,-7144,3012,-2391,48,-98,-33,1,7,11
6.01E+02,-7085,3009,-2413,-280,116,-93,1,7,11
6.04E+02,-7285,2949,-2425,-358,121,82,1,7,11
6.12E+02,-7262,3179,-2421,-163,-85,-267,1,7,11
6.15E+02,-7272,3135,-2409,-189,-17,-343,1,7,11
6.15E+02,-7289,3103,-2398,-189,306,-131,1,7,11
6.18E+02,-7065,3074,-2399,-167,374,-144,1,7,11
6.26E+02,-7129,3075,-2387,-137,172,-379,1,7,11
6.33E+02,-7479,3119,-2400,-347,185,-327,1,7,11
6.33E+02,-7491,3159,-2421,-300,153,-257,1,7,11
6.28E+02,-7496,3198,-2177,-276,328,99,1,7,11
6.28E+02,-7475,2968,-2191,-299,268,-124,1,7,11
6.35E+02,-7444,2969,-2194,-340,-61,-128,1,7,11
6.43E+02,-7126,2951,-2208,-384,-125,100,1,7,11
6.43E+02,-7065,3173,-2208,-169,104,49,1,7,11
6.37E+02,-7041,3108,-2181,-188,-125,-295,1,7,11
6.35E+02,-7296,3078,-2431,-154,-97,-323,1,7,11
6.38E+02,-7046,2806,-2432,-368,-53,-334,1,7,11
6.41E+02,-7096,2815,-2429,-318,261,-326,1,7,11
6.35E+02,-7141,3097,-2190,-264,289,-286,1,7,11
6.22E+02,-7146,3125,-2209,17,289,14,1,7,11
6.14E+02,-7166,3162,-2215,10,283,42,1,7,11
6.16E+02,-7162,2944,-2222,-276,-6,56,1,7,11
6.24E+02,-7148,2964,-2224,-331,-53,56,1,7,11
6.34E+02,-7118,2982,-2209,-140,-92,46,1,7,11
6.43E+02,-7085,2979,-2189,-212,-109,30,1,7,11
6.51E+02,-7056,2975,-2422,-536,-103,12,1,7,11
6.55E+02,-7290,2985,-2407,-599,-74,-260,1,7,11
6.55E+02,-7257,3056,-2235,-415,-37,-273,1,7,11
6.46E+02,-7178,3231,-2637,-853,285,-296,1,7,11
6.32E+02,-6910,3700,-2474,-1015,184,-339,1,7,11
6.22E+02,-7179,3852,-2504,-1889,618,-338,1,7,11
6.26E+02,-7182,3943,-2514,-2583,786,-290,1,7,11
6.36E+02,-6890,3958,-2508,-3046,717,60,1,7,11
6.42E+02,-6900,3909,-2687,-3963,958,-71,1,7,11
6.42E+02,-6889,3545,-2601,-4249,1163,336,1,7,11
6.42E+02,-6861,3642,-2253,-4908,1588,153,1,7,11
6.48E+02,-6873,3276,-2414,-5124,1466,354,1,7,11
6.60E+02,-7172,3220,-2325,-5194,1803,-33,1,7,11
6.72E+02,-7216,3440,-1962,-5135,1833,59,1,7,11
6.82E+02,-7253,3410,-2108,-4974,1813,-363,1,7,11
6.90E+02,-7274,3392,-1790,-4719,1486,-521,1,7,11
6.97E+02,-7258,3370,-1739,-4410,1633,-407,1,7,11
7.05E+02,-7214,3369,-1754,-3805,1260,-790,1,7,11
7.11E+02,-6906,3387,-1778,-3682,1168,-687,1,7,11
7.14E+02,-6893,3403,-1777,-3066,1378,-768,1,7,11
7.14E+02,-7193,3438,-1761,-2726,1390,-1073,1,7,11
7.10E+02,-7219,3216,-1756,-2484,1369,-1080,1,7,11
7.02E+02,-7239,3253,-1762,-1924,1329,-1080,1,7,11
6.93E+02,-7280,3294,-1783,-1790,1304,-1067,1,7,11
6.84E+02,-7044,3325,-2058,-1805,971,-1026,1,7,11
6.78E+02,-7280,3597,-2091,-1584,1052,-704,1,7,11
6.71E+02,-7245,3590,-2122,-1387,688,-884,1,7,11
6.56E+02,-7210,3314,-2142,-957,854,-806,1,7,11
6.33E+02,-7191,3275,-2151,-1051,780,-483,1,7,11
6.18E+02,-7191,3236,-2155,-797,458,-420,1,7,11
6.23E+02,-7209,3208,-2156,-616,395,-610,1,7,11
6.37E+02,-7221,3213,-2176,-424,583,-532,1,7,11
6.38E+02,-7207,3256,-1979,-244,519,-185,1,7,11
6.22E+02,-7195,3313,-2308,-115,221,-355,1,7,11
6.08E+02,-7204,3615,-2368,-56,217,-281,1,7,11
6.16E+02,-7228,3649,-2404,-45,223,19,1,7,11
6.36E+02,-7257,3670,-2413,-63,212,28,1,7,11
6.47E+02,-7287,3689,-2401,-85,180,20,1,7,11
6.40E+02,-7055,3709,-2391,-97,155,12,1,7,11
6.28E+02,-7055,3468,-2395,-120,348,12,1,7,11
6.25E+02,-7275,3462,-2392,97,259,29,1,7,11
6.33E+02,-7203,3694,-2407,74,-37,51,1,7,11
6.41E+02,-6873,3663,-2410,57,-42,63,1,7,11
6.45E+02,-6819,3637,-2413,52,-11,72,1,7,11
6.45E+02,-6788,3634,-2415,63,285,72,1,7,11
6.41E+02,-6795,3651,-2408,69,333,75,1,7,11
6.34E+02,-6849,3661,-2383,64,354,85,1,7,11
6.27E+02,-7176,3660,-2353,56,362,102,1,7,11
6.20E+02,-7243,3658,-2323,50,274,120,1,7,11
6.13E+02,-7268,3651,-2044,73,-92,-102,1,7,11
6.07E+02,-7224,3631,-2315,113,37,-49,1,7,11
6.01E+02,-6889,3596,-2346,-88,-297,-1,1,7,11
5.95E+02,-6825,3307,-2368,-24,-303,297,1,7,11
5.90E+02,-6797,3281,-2386,319,-267,324,1,7,11
5.84E+02,-6819,3294,-2400,179,27,349,1,7,11
5.74E+02,-6862,3588,-2412,563,45,132,1,7,11
5.64E+02,-6911,3609,-2413,436,36,196,1,7,11
5.58E+02,-7227,3629,-2395,828,-266,526,1,7,11
5.57E+02,-7291,3639,-2363,719,-363,600,1,7,11
5.58E+02,-7072,3619,-2334,1141,-518,407,1,7,11
5.66E+02,-7062,3322,-2326,1334,-449,443,1,7,11
5.86E+02,-7269,3286,-2345,1560,-887,457,1,7,11
6.22E+02,-7208,3243,-2378,1805,-1039,455,1,7,11
6.59E+02,-6891,3201,-2415,2052,-1140,449,1,7,11
6.83E+02,-6847,3434,-2200,2038,-937,442,1,7,11
6.89E+02,-6809,3439,-2244,2251,-951,442,1,7,11
6.86E+02,-6804,3206,-2271,2675,-931,456,1,7,11
6.84E+02,-6815,3242,-2304,2537,-902,477,1,7,11
6.85E+02,-6835,3290,-2584,2857,-1120,506,1,7,11
6.88E+02,-6856,3593,-2599,2864,-1088,794,1,7,11
6.93E+02,-6888,3635,-2598,2820,-1069,824,1,7,11
6.99E+02,-6906,3661,-2591,2483,-1081,849,1,7,11
7.02E+02,-7179,3679,-2589,2627,-1116,860,1,7,11
7.03E+02,-7175,3687,-2586,2241,-912,862,1,7,11
6.97E+02,-6874,3683,-2599,2355,-971,861,1,7,11
6.83E+02,-6813,3675,-2618,1944,-997,849,1,7,11
6.62E+02,-7021,3658,-2621,1782,-973,833,1,7,11
6.42E+02,-6990,3649,-2619,1878,-908,821,1,7,11
6.31E+02,-6977,3644,-2616,1657,-762,801,1,7,11
6.27E+02,-7009,3667,-2591,1269,-654,793,1,7,11
6.28E+02,-6785,3706,-2582,1153,-823,795,1,7,11
6.30E+02,-6809,3479,-2571,1296,-500,798,1,7,11
6.34E+02,-6831,3501,-2299,938,-456,792,1,7,11
6.41E+02,-6858,3523,-2283,1103,-437,775,1,7,11
6.49E+02,-6873,3530,-2259,763,-448,492,1,7,11
6.56E+02,-6873,3521,-2252,683,-476,451,1,7,11
6.62E+02,-6844,3494,-2248,871,-769,401,1,7,11
6.68E+02,-6812,3469,-2254,812,-794,597,1,7,11
6.75E+02,-7037,3697,-2260,504,-787,527,1,7,11
6.82E+02,-7024,3676,-2257,459,-495,210,1,7,11
6.89E+02,-7025,3676,-2264,419,-437,166,1,7,11
6.92E+02,-7040,3692,-2265,635,-623,146,1,7,11
6.94E+02,-6824,3462,-2246,593,-556,145,1,7,11
7.01E+02,-6839,3504,-2241,553,-256,159,1,7,11
7.16E+02,-6853,3527,-2231,240,-232,174,1,7,11
7.33E+02,-6876,3538,-2205,175,-230,174,1,7,11
7.43E+02,-6900,3536,-2427,362,-516,164,1,7,11
7.46E+02,-6908,3528,-2394,306,-574,145,1,7,11
7.42E+02,-6893,3507,-2373,267,-386,380,1,7,11
7.32E+02,-6855,3478,-2369,-8,-431,358,1,7,11
7.18E+02,-6822,3706,-2369,-10,-432,340,1,7,11
7.03E+02,-6800,3676,-2364,264,-403,329,1,7,11
6.87E+02,-6794,3656,-2355,297,-605,322,1,7,11
6.72E+02,-6811,3674,-2349,343,-535,319,1,7,11
6.57E+02,-6866,3491,-2344,130,-197,336,1,7,11
6.46E+02,-6880,3541,-2356,146,-180,359,1,7,11
6.43E+02,-6900,3571,-2354,375,-183,378,1,7,11
6.53E+02,-6894,3571,-2350,339,-219,137,1,7,11
6.67E+02,-6866,3558,-2359,308,-521,132,1,7,11
6.80E+02,-6834,3509,-2354,275,-554,358,1,7,11
6.88E+02,-6820,3472,-2357,258,-565,312,1,7,11
7.00E+02,-6809,3694,-2346,-4,-561,268,1,7,11
7.21E+02,-6810,3669,-2332,263,-541,-25,1,7,11
7.51E+02,-6826,3667,-2312,290,-251,-43,1,7,11
7.79E+02,-6839,3686,-2043,317,-211,-40,1,7,11
7.96E+02,-6865,3459,-2033,338,-176,-26,1,7,11
7.99E+02,-6881,3496,-2031,341,-148,-3,1,7,11
7.90E+02,-6892,3529,-2032,322,-130,276,1,7,11
7.73E+02,-6886,3541,-2030,287,-378,288,1,7,11
7.51E+02,-6870,3544,-2040,-9,-378,285,1,7,11
7.33E+02,-6860,3525,-2311,-53,-380,269,1,7,11
7.24E+02,-6859,3499,-2314,-92,-375,-15,1,7,11
7.25E+02,-6861,3472,-2044,-122,-362,-43,1,7,11
7.32E+02,-6862,3709,-2011,126,-352,-64,1,7,11
7.37E+02,-6866,3707,-1994,-113,-338,-76,1,7,11
7.39E+02,-6875,3469,-1995,-92,-315,-74,1,7,11
7.36E+02,-6873,3492,-1988,-74,-288,-62,1,7,11
7.32E+02,-6870,3527,-1987,-69,1,-53,1,7,11
7.26E+02,-6867,3563,-1984,-89,37,-50,1,7,11
7.20E+02,-6880,3851,-1966,-128,58,-56,1,7,11
7.16E+02,-6884,3869,-1937,82,57,-66,1,7,11
7.12E+02,-6888,3883,-1935,34,37,-83,1,7,11
7.07E+02,-6864,3871,-1948,-269,-259,-95,1,7,11
7.00E+02,-6828,3577,-1970,-322,-282,-118,1,7,11
6.91E+02,-6825,3518,-1978,-371,-276,100,1,7,11
6.84E+02,-6855,3476,-1984,-383,-281,71,1,7,11
6.79E+02,-6872,3458,-1988,-358,-298,66,1,7,11
6.77E+02,-6862,3464,-2010,-307,-297,88,1,7,11
6.77E+02,-6873,3480,-2019,16,-266,-127,1,7,11
6.78E+02,-6884,3523,-2017,91,35,-76,1,7,11
6.80E+02,-6901,3578,-2026,-85,70,-36,1,7,11
6.83E+02,-6884,3876,-2035,-22,73,-27,1,7,11
6.87E+02,-6872,3915,-2013,269,57,-80,1,7,11
6.90E+02,-6871,3960,-1987,271,22,78,1,7,11
6.93E+02,-6856,3961,-1962,-8,-293,-286,1,7,11
6.95E+02,-6845,3937,-2169,-69,-338,-136,1,7,11
6.94E+02,-6851,3886,-2128,111,-370,-215,1,7,11
6.92E+02,-6843,3559,-2104,41,-143,-523,1,7,11
6.88E+02,-6834,3485,-2090,-293,-379,-527,1,7,11
6.85E+02,-6842,3681,-2078,-314,-331,-240,1,7,11
6.87E+02,-6848,3631,-2070,-305,-268,-177,1,7,11
6.97E+02,-6866,3598,-2079,-270,62,-352,1,7,11
7.16E+02,-6887,3585,-2098,42,-120,1,1,7,11
7.34E+02,-6908,3592,-2124,114,-51,93,1,7,11
7.42E+02,-7176,3615,-2148,-73,272,-85,1,7,11
7.40E+02,-7191,3668,-1942,-15,331,-26,1,7,11
7.34E+02,-7207,3480,-2001,273,380,271,1,7,11
7.30E+02,-7226,3553,-2042,279,151,293,1,7,11
7.30E+02,-7246,3855,-2323,-8,154,285,1,7,11
7.33E+02,-7262,3892,-2335,-51,374,-8,1,7,11
7.37E+02,-7267,3912,-2337,-101,299,-77,1,7,11
7.40E+02,-7253,3911,-2334,100,-54,92,1,7,11
7.40E+02,-7223,3897,-2315,48,101,0,1,7,11
7.39E+02,-7173,3859,-2029,-266,14,-336,1,7,11
7.35E+02,-6875,3552,-1990,-319,-295,-143,1,7,11
7.32E+02,-6842,3491,-1959,-359,-316,-177,1,7,11
7.27E+02,-6821,3685,-1930,-376,-314,-186,1,7,11
7.21E+02,-6808,3633,-2161,-370,-290,-163,1,7,11
7.13E+02,-6807,3594,-2140,-332,7,-372,1,7,11
7.02E+02,-6820,3585,-2151,-269,60,-298,1,7,11
6.88E+02,-6826,3593,-1928,56,114,49,1,7,11
6.74E+02,-6847,3621,-1953,127,-85,-116,1,7,11
6.63E+02,-6884,3657,-1981,-72,-49,-34,1,7,11
6.56E+02,-7179,3706,-2012,-21,-40,286,1,7,11
6.53E+02,-7196,3507,-2316,273,-63,338,1,7,11
6.55E+02,-7206,3554,-2349,290,-87,366,1,7,11
6.62E+02,-7219,3859,-2369,292,-117,372,1,7,11
6.76E+02,-7214,3886,-2381,282,90,355,1,7,11
6.94E+02,-7216,3896,-2379,-1,44,301,1,7,11
7.09E+02,-7206,3906,-2377,-31,-265,-28,1,7,11
7.21E+02,-7190,3902,-2363,-77,-311,-120,1,7,11
7.32E+02,-7178,3883,-2333,118,-340,40,1,7,11
7.43E+02,-7170,3853,-2044,50,-363,-301,1,7,11
7.54E+02,-6895,3551,-2001,-270,-382,-367,1,7,11
7.65E+02,-6884,3505,-1933,-333,-384,-158,1,7,11
7.73E+02,-6877,3701,-2120,-129,-374,-181,1,7,11
7.75E+02,-6855,3654,-2049,-157,-348,-179,1,7,11
7.69E+02,-6852,3620,-1702,-162,-306,-144,1,7,11
7.50E+02,-6846,3604,-1685,-140,0,-336,1,7,11
7.23E+02,-6840,3600,-1915,-351,56,5,1,7,11
7.02E+02,-6825,3627,-1920,-286,125,112,1,7,11
6.97E+02,-6824,3662,-1686,35,-45,-44,1,7,11
7.05E+02,-6815,3702,-1767,102,299,297,1,7,11
7.17E+02,-6797,3498,-2103,-92,141,348,1,7,11
7.28E+02,-6809,3557,-1926,-53,242,353,1,7,11
7.33E+02,-6859,3878,-1987,-49,572,308,1,7,11
7.30E+02,-7174,3941,-2032,-87,601,-14,1,7,11
7.25E+02,-7248,3957,-2322,113,569,-91,1,7,11
7.25E+02,-7253,3938,-2344,45,236,86,1,7,11
7.36E+02,-7222,3895,-2368,-301,343,-276,1,7,11
7.49E+02,-7173,3579,-2391,-346,273,-339,1,7,11
7.55E+02,-6864,3513,-2400,-379,-11,-140,1,7,11
7.48E+02,-6833,3711,-2403,-142,-1,-180,1,7,11
7.32E+02,-6828,3665,-2388,-140,284,-198,1,7,11
7.14E+02,-6841,3657,-2374,-378,313,-184,1,7,11
6.97E+02,-6869,3662,-2357,-364,329,-142,1,7,11
6.82E+02,-6906,3689,-2333,-343,319,-334,1,7,11
6.73E+02,-7180,3470,-2320,-330,278,-265,1,7,11
6.69E+02,-7181,3491,-2043,-334,-32,49,1,7,11
6.68E+02,-6910,3500,-2025,-339,-93,83,1,7,11
6.68E+02,-6874,3489,-2022,-339,104,95,1,7,11
6.65E+02,-6840,3475,-2020,-330,74,79,1,7,11
6.59E+02,-6819,3710,-2032,-311,79,56,1,7,11
6.53E+02,-6807,3694,-2307,-273,115,35,1,7,11
6.49E+02,-6817,3687,-2312,22,-78,21,1,7,11
6.48E+02,-6834,3690,-2324,70,-21,14,1,7,11
6.54E+02,-6860,3701,-2329,115,284,10,1,7,11
6.66E+02,-6890,3474,-2340,-107,314,12,1,7,11
6.80E+02,-7187,3510,-2351,-95,314,17,1,7,11
6.93E+02,-7210,3545,-2376,-104,276,30,1,7,11
7.04E+02,-7229,3560,-2382,116,-36,51,1,7,11
7.13E+02,-7227,3562,-2367,75,-111,85,1,7,11
7.20E+02,-7182,3539,-2374,42,58,120,1,7,11
7.24E+02,-6863,3487,-2381,16,6,-123,1,7,11
7.26E+02,-6824,3686,-2366,5,0,112,1,7,11
7.26E+02,-6833,3663,-2329,19,12,82,1,7,11
7.26E+02,-6853,3647,-2042,54,20,59,1,7,11
7.25E+02,-6866,3642,-2028,104,28,55,1,7,11
7.24E+02,-6884,3674,-2030,-104,41,73,1,7,11
7.23E+02,-6894,3711,-2026,-77,55,100,1,7,11
7.23E+02,-6889,3498,-2019,-79,64,-125,1,7,11
7.22E+02,-6892,3530,-2014,-116,77,-108,1,7,11
7.19E+02,-6896,3558,-2004,82,71,-107,1,7,11
7.14E+02,-6879,3570,-1987,19,43,-115,1,7,11
7.06E+02,-6847,3553,-1981,-297,18,127,1,7,11
6.94E+02,-6812,3516,-1988,-335,11,108,1,7,11
6.78E+02,-6792,3478,-1993,-342,34,91,1,7,11
6.57E+02,-6796,3698,-1985,-330,80,80,1,7,11
6.34E+02,-6810,3680,-1988,-291,-127,79,1,7,11
6.12E+02,-6815,3685,-1990,20,-79,89,1,7,11
5.94E+02,-6824,3456,-2002,78,-28,110,1,7,11
5.81E+02,-6829,3504,-2032,123,275,-120,1,7,11
5.74E+02,-6831,3861,-2335,-117,318,-90,1,7,11
5.72E+02,-6835,3921,-2355,69,376,-87,1,7,11
5.71E+02,-6839,3954,-2362,-286,136,-108,1,7,11
5.71E+02,-6820,3726,-2382,-145,130,107,1,7,11
5.69E+02,-7033,3740,-2396,-535,130,44,1,7,11
5.63E+02,-7022,3719,-2379,-428,165,-291,1,7,11
5.52E+02,-7026,3925,-2363,-814,198,-363,1,7,11
5.38E+02,-6790,3886,-2370,-659,222,-160,1,7,11
5.30E+02,-6799,3852,-2388,-740,235,-183,1,7,11
5.28E+02,-7034,3841,-2432,-1058,516,-173,1,7,11
5.27E+02,-6991,3881,-2250,-1125,570,-136,1,7,11
5.23E+02,-6973,3967,-2570,-986,410,-358,1,7,11
5.17E+02,-6941,4116,-2667,-1185,500,-324,1,7,11
5.13E+02,-6920,4023,-2473,-1523,885,-322,1,7,11
5.10E+02,-6933,4444,-2491,-1985,1032,-322,1,7,11
5.10E+02,-6633,4301,-2468,-2547,915,-310,1,7,11
5.10E+02,-6585,4325,-2644,-3434,1343,-347,1,7,11
5.10E+02,-6551,4263,-2269,-3795,1265,-173,1,7,11
5.11E+02,-6562,4408,-2368,-4317,1424,-587,1,7,11
5.11E+02,-6611,4028,-1961,-4961,1519,-796,1,7,11
5.09E+02,-6649,4151,-2089,-5193,1532,-1030,1,7,11
5.07E+02,-6939,3780,-1738,-5018,1499,-1012,1,7,11
5.05E+02,-6941,3928,-1675,-5223,1447,-1214,1,7,11
5.03E+02,-6934,3840,-1889,-4813,1416,-1651,1,7,11
5.03E+02,-6976,3535,-1843,-4574,1429,-1802,1,7,11
5.05E+02,-7038,3508,-1811,-4259,1435,-1873,1,7,11
5.13E+02,-6799,3511,-1815,-4128,1417,-1856,1,7,11
5.18E+02,-6810,3526,-1834,-3469,1424,-1794,1,7,11
5.20E+02,-6851,3538,-1827,-3338,1451,-1452,1,7,11
5.18E+02,-7174,3553,-1804,-2699,1458,-1610,1,7,11
5.16E+02,-7198,3573,-1808,-2576,1660,-1248,1,7,11
5.16E+02,-7220,3853,-1815,-1974,1595,-1168,1,7,11
5.19E+02,-7226,3862,-1832,-1919,1244,-1352,1,7,11
5.27E+02,-7208,3862,-1861,-1650,1397,-1286,1,7,11
5.43E+02,-6902,3849,-1891,-1166,1304,-962,1,7,11
5.67E+02,-6850,3570,-1681,-974,982,-904,1,7,11
5.90E+02,-6791,3571,-1746,-1076,944,-1107,1,7,11
6.12E+02,-7001,3581,-2072,-724,953,-1069,1,7,11
6.37E+02,-7021,3849,-2110,-683,999,-1035,1,7,11
6.69E+02,-6799,3869,-2147,-673,1292,-731,1,7,11
6.83E+02,-6851,3885,-2166,-685,1317,-676,1,7,11
6.49E+02,-6907,3885,-1922,-710,1311,-871,1,7,11
5.62E+02,-7226,3883,-2165,-729,1015,-813,1,7,11
4.77E+02,-7251,3860,-2169,-723,927,-498,1,7,11
4.37E+02,-7234,3844,-2176,-700,1079,-454,1,7,11
4.34E+02,-7195,3555,-1938,-670,732,-421,1,7,11
4.57E+02,-7178,3517,-1954,-871,664,-404,1,7,11
4.96E+02,-6899,3492,-1984,-785,866,-639,1,7,11
5.38E+02,-6879,3479,-2020,-429,839,-621,1,7,11
5.76E+02,-6844,3478,-2306,-571,822,-593,1,7,11
6.00E+02,-6796,3473,-2331,-211,819,-577,1,7,11
6.11E+02,-6794,3488,-2366,-382,828,-586,1,7,11
6.13E+02,-6816,3496,-2376,-318,827,-607,1,7,11
6.08E+02,-6851,3502,-2392,-270,803,-624,1,7,11
6.00E+02,-6865,3494,-2421,28,490,-622,1,7,11
5.92E+02,-6858,3468,-2193,61,429,-617,1,7,11
5.82E+02,-6864,3677,-2201,101,634,-613,1,7,11
5.68E+02,-6881,3608,-2430,-94,575,-609,1,7,11
5.51E+02,-7185,3223,-2359,273,512,-613,1,7,11
5.39E+02,-7204,3337,-2325,518,156,-612,1,7,11
5.39E+02,-7202,3165,-2318,646,307,-603,1,7,11
5.49E+02,-7186,3115,-2328,1373,-38,-576,1,7,11
5.65E+02,-6905,2800,-2367,1909,-112,-536,1,7,11
5.81E+02,-6899,2779,-2183,2181,108,-226,1,7,11
5.94E+02,-7169,2770,-2262,2932,93,-161,1,7,11
6.01E+02,-6897,2781,-2621,3369,65,-350,1,7,11
6.00E+02,-6863,2794,-2457,3462,48,-303,1,7,11
5.90E+02,-6844,3073,-2556,3717,46,-268,1,7,11
5.79E+02,-6841,3096,-2931,4134,48,16,1,7,11
5.72E+02,-6847,3161,-2757,4212,50,53,1,7,11
5.71E+02,-6853,2952,-3096,4207,53,103,1,7,11
5.73E+02,-6855,2994,-3150,4116,64,-88,1,7,11
5.76E+02,-6858,3025,-3188,3947,83,-16,1,7,11
5.77E+02,-6864,3042,-2972,3465,98,305,1,7,11
5.77E+02,-6879,3046,-2997,3053,104,374,1,7,11
5.78E+02,-6901,3041,-3010,2743,89,139,1,7,11
5.78E+02,-7176,3028,-3023,2675,50,150,1,7,11
5.73E+02,-6896,2997,-3039,2353,-258,153,1,7,11
5.65E+02,-6857,2948,-3064,1780,-299,135,1,7,11
5.61E+02,-6826,3160,-3342,1485,-319,363,1,7,11
5.61E+02,-6791,3109,-3362,1459,-315,344,1,7,11
5.63E+02,-7031,2804,-3373,942,-284,326,1,7,11
5.67E+02,-7030,2761,-3369,700,10,315,1,7,11
5.72E+02,-7033,2732,-3368,485,38,313,1,7,11
5.78E+02,-6794,2727,-3363,558,67,313,1,7,11
5.84E+02,-6812,2736,-3362,137,91,321,1,7,11
5.90E+02,-6817,2747,-3356,-6,107,325,1,7,11
5.95E+02,-6818,2752,-3342,124,118,311,1,7,11
6.00E+02,-6833,2746,-3061,13,116,267,1,7,11
6.03E+02,-6834,2730,-3025,-320,84,-59,1,7,11
6.03E+02,-6831,2716,-2992,-369,43,108,1,7,11
5.99E+02,-6826,2691,-2969,-148,11,23,1,7,11
5.94E+02,-6797,2920,-2952,-165,-263,-300,1,7,11
5.88E+02,-7037,2891,-2945,-178,14,-348,1,7,11
5.83E+02,-7023,2862,-2949,-174,51,-370,1,7,11
5.81E+02,-7015,2842,-2970,-169,102,-378,1,7,11
5.87E+02,-6997,2826,-2995,-164,-95,-368,1,7,11
6.00E+02,-7001,2816,-3009,-166,-21,-357,1,7,11
6.18E+02,-7038,2558,-3020,-163,302,-329,1,7,11
6.35E+02,-6821,2817,-3021,-153,339,-290,1,7,11
6.47E+02,-6862,2823,-3008,-142,348,2,1,7,11
6.53E+02,-6887,2829,-2995,-381,330,32,1,7,11
6.60E+02,-6898,2839,-2986,-362,290,50,1,7,11
6.69E+02,-6888,2862,-2991,-342,-6,56,1,7,11
6.80E+02,-6860,2878,-2999,-330,-28,56,1,7,11
6.87E+02,-6830,2891,-2997,-327,-28,48,1,7,11
6.83E+02,-6800,2912,-3005,-331,-5,33,1,7,11
6.73E+02,-7026,2930,-3022,-353,290,5,1,7,11
6.62E+02,-7010,2700,-3055,-142,339,-296,1,7,11
6.55E+02,-7014,2733,-3329,-229,135,-348,1,7,11
6.51E+02,-7037,2779,-3351,-605,170,-144,1,7,11
6.50E+02,-6787,3111,-3387,-772,180,-177,1,7,11
6.49E+02,-7030,2953,-3207,-759,181,-192,1,7,11
6.49E+02,-7008,3064,-3284,-1370,192,-187,1,7,11
6.49E+02,-6996,3408,-3596,-1826,227,-163,1,7,11
6.52E+02,-6984,3231,-3624,-2340,530,-361,1,7,11
6.59E+02,-6948,3259,-3625,-2901,592,-260,1,7,11
6.68E+02,-6936,3245,-3315,-3444,432,95,1,7,11
6.77E+02,-6931,3203,-3215,-3909,770,-56,1,7,11
6.86E+02,-6656,3436,-3379,-4043,821,277,1,7,11
6.93E+02,-6931,3384,-3030,-4341,863,285,1,7,11
7.00E+02,-6961,3340,-3177,-4523,863,-11,1,7,11
7.07E+02,-6998,3036,-2799,-4588,837,-92,1,7,11
7.15E+02,-6788,3003,-2932,-4524,788,54,1,7,11
7.26E+02,-6823,2991,-2818,-4339,451,-331,1,7,11
7.38E+02,-6844,2995,-2479,-4060,616,-190,1,7,11
7.54E+02,-6826,3002,-2674,-3963,521,-532,1,7,11
7.73E+02,-6785,3004,-2645,-3317,194,-589,1,7,11
7.95E+02,-6964,3010,-2633,-3163,149,-622,1,7,11
8.19E+02,-6641,3023,-2616,-2503,158,-393,1,7,11
8.42E+02,-6607,3026,-2608,-2378,214,-410,1,7,11
8.62E+02,-6613,3052,-2597,-1751,540,-409,1,7,11
8.76E+02,-6623,3357,-2598,-1655,608,-386,1,7,11
8.87E+02,-6922,3445,-2607,-939,442,-576,1,7,11
8.97E+02,-6953,3250,-2621,-688,476,-518,1,7,11
9.09E+02,-6987,3311,-2632,-490,482,-217,1,7,11
9.20E+02,-7011,3610,-2638,-605,455,-181,1,7,11
9.27E+02,-7020,3621,-2636,-244,392,-162,1,7,11
9.30E+02,-7016,3639,-2650,-166,566,-167,1,7,11
9.29E+02,-6986,3662,-2677,-368,233,-176,1,7,11
9.27E+02,-6946,3681,-2454,-338,183,-186,1,7,11
9.21E+02,-6915,3686,-2489,-328,171,-188,1,7,11
9.14E+02,-6635,3689,-2523,-315,189,-167,1,7,11
9.05E+02,-6616,3690,-2558,-303,231,-134,1,7,11
8.93E+02,-6612,3699,-2856,-288,534,-350,1,7,11
8.77E+02,-6620,3703,-2895,-277,583,-316,1,7,11
8.57E+02,-6913,3700,-2911,-265,621,-303,1,7,11
8.33E+02,-6950,3699,-2910,2,627,-305,1,7,11
8.12E+02,-6985,3689,-2894,14,600,-324,1,7,11
8.02E+02,-6999,3679,-2880,36,542,-356,1,7,11
8.11E+02,-6990,3671,-2877,67,210,-135,1,7,11
8.30E+02,-6953,3660,-2900,93,139,-165,1,7,11
8.49E+02,-6645,3641,-2922,110,358,-197,1,7,11
8.67E+02,-6606,3619,-2692,115,353,-230,1,7,11
8.89E+02,-6578,3601,-2713,121,370,-516,1,7,11
9.24E+02,-6571,3585,-2742,119,143,-545,1,7,11
9.75E+02,-6601,3311,-2745,127,179,-571,1,7,11
1.02E+03,-6649,3290,-2750,-106,193,-577,1,7,11
1.03E+03,-6960,3262,-2748,-62,173,-577,1,7,11
1.01E+03,-7014,3222,-2755,263,374,-573,1,7,11
9.76E+02,-6818,3449,-2776,362,292,-575,1,7,11
9.26E+02,-7169,3398,-2753,233,-59,-573,1,7,11
8.69E+02,-7258,3356,-2710,442,45,-546,1,7,11
8.15E+02,-7042,3061,-2694,1147,-534,-207,1,7,11
7.72E+02,-7294,2999,-2935,1225,-505,-138,1,7,11
7.44E+02,-7269,3143,-2904,1850,-727,-354,1,7,11
7.25E+02,-7249,2763,-2865,2022,-931,-360,1,7,11
7.16E+02,-7216,2873,-2833,2515,-1385,-148,1,7,11
7.20E+02,-7180,2492,-2831,3332,-1563,-229,1,7,11
7.43E+02,-6836,2652,-2906,3950,-1474,-570,1,7,11
7.89E+02,-6999,2611,-2775,4288,-1839,-426,1,7,11
8.60E+02,-6996,2612,-3162,4784,-1857,-805,1,7,11
9.33E+02,-6805,2618,-2999,5416,-1839,-884,1,7,11
9.83E+02,-6873,2631,-3345,5669,-1850,-661,1,7,11
1.01E+03,-7203,2635,-3419,5521,-1874,-668,1,7,11
1.02E+03,-7292,2637,-3210,5736,-1911,-659,1,7,11
1.02E+03,-7108,2633,-3213,5304,-1720,-887,1,7,11
1.03E+03,-7149,2600,-3455,5009,-2053,-843,1,7,11
1.03E+03,-7167,2289,-3411,4887,-2106,-815,1,7,11
1.03E+03,-7157,2216,-3335,4455,-2137,-801,1,7,11
1.04E+03,-7135,2393,-2998,3767,-2136,-815,1,7,11
1.03E+03,-7118,2342,-3180,3608,-2092,-837,1,7,11
1.01E+03,-7078,2019,-3123,3179,-1760,-838,1,7,11
9.88E+02,-7274,1920,-3086,2476,-1897,-845,1,7,11
9.55E+02,-7268,2070,-2745,2026,-1468,-882,1,7,11
9.17E+02,-7133,1691,-2832,1849,-1264,-687,1,7,11
8.81E+02,-7499,1903,-2505,1611,-1174,-896,1,7,11
8.57E+02,-7119,1666,-2846,1184,-1385,-482,1,7,11
8.49E+02,-7121,1683,-2885,961,-1145,-607,1,7,11
8.53E+02,-7160,1685,-2890,747,-858,-154,1,7,11
8.64E+02,-7460,1901,-2866,808,-580,48,1,7,11
8.79E+02,-7530,1844,-2823,386,-338,-38,1,7,11
8.94E+02,-7350,1532,-2523,227,116,359,1,7,11
9.06E+02,-7394,1516,-2514,146,-79,374,1,7,11
9.15E+02,-7398,1511,-2523,332,-61,370,1,7,11
9.24E+02,-7351,1498,-2555,264,-61,357,1,7,11
9.32E+02,-7330,1496,-2831,-59,-38,327,1,7,11
9.41E+02,-7332,1479,-2853,-121,-13,303,1,7,11
9.50E+02,-7384,1473,-2848,99,267,273,1,7,11
9.59E+02,-7713,1465,-2841,84,-1,272,1,7,11
9.68E+02,-7735,1468,-2842,96,-50,306,1,7,11
9.75E+02,-7736,1494,-2852,122,-94,351,1,7,11
9.82E+02,-7724,1501,-2859,-111,127,146,1,7,11
9.87E+02,-7725,1527,-2874,-93,98,189,1,7,11
9.88E+02,-7740,1808,-2866,-80,73,228,1,7,11
9.86E+02,-7754,1829,-2860,-72,34,522,1,7,11
9.79E+02,-7760,1848,-2832,-68,-272,554,1,7,11
9.68E+02,-7751,1857,-2534,-61,-332,583,1,7,11
9.59E+02,-7730,1865,-2492,-46,-145,609,1,7,11
9.59E+02,-7710,1872,-2465,-15,-213,632,1,7,11
9.72E+02,-7414,1877,-2464,281,-526,403,1,7,11
9.98E+02,-7350,1893,-2463,326,-561,433,1,7,11
1.03E+03,-7301,1915,-2458,357,-552,447,1,7,11
1.04E+03,-7541,1668,-2450,382,-254,446,1,7,11
1.03E+03,-7525,1678,-2463,152,-213,441,1,7,11
9.94E+02,-7541,1702,-2484,177,-163,416,1,7,11
9.38E+02,-7311,1740,-2491,176,-370,639,1,7,11
8.77E+02,-7360,1779,-2483,157,-337,604,1,7,11
8.26E+02,-7388,2077,-2481,376,-331,575,1,7,11
8.00E+02,-7396,2108,-2480,321,-332,546,1,7,11
8.17E+02,-7365,2104,-2483,-2,-341,255,1,7,11
8.75E+02,-7321,2093,-2486,-60,-337,199,1,7,11
9.28E+02,-7545,2076,-2481,-107,-294,382,1,7,11
9.61E+02,-7550,2069,-2472,120,60,285,1,7,11
9.80E+02,-7306,2065,-2458,107,122,-16,1,7,11
9.92E+02,-7324,2070,-2463,114,-81,-46,1,7,11
1.00E+03,-7334,2076,-2468,114,-45,-65,1,7,11
1.01E+03,-7355,2090,-2481,103,-24,-85,1,7,11
1.02E+03,-7383,2102,-2479,75,-14,-111,1,7,11
1.01E+03,-7418,2109,-2464,27,-30,126,1,7,11
1.00E+03,-7695,2104,-2443,-273,-78,116,1,7,11
9.88E+02,-7684,2097,-2687,-301,113,119,1,7,11
9.76E+02,-7366,2076,-2685,-320,56,-128,1,7,11
9.66E+02,-7549,1789,-2447,-327,50,123,1,7,11
9.59E+02,-7515,1757,-2453,-323,90,104,1,7,11
9.55E+02,-7501,1736,-2452,-298,-114,78,1,7,11
9.56E+02,-7524,1753,-2463,-257,-54,48,1,7,11
9.61E+02,-7306,1780,-2483,32,-3,44,1,7,11
9.69E+02,-7349,2080,-2512,51,293,58,1,7,11
9.80E+02,-7388,2118,-2529,44,311,84,1,7,11
9.92E+02,-7422,2136,-2530,14,299,108,1,7,11
1.00E+03,-7712,2143,-2512,-278,-1,126,1,7,11
1.01E+03,-7411,2139,-2501,-311,-126,-113,1,7,11
1.02E+03,-7345,2104,-2488,-322,74,-123,1,7,11
1.01E+03,-7540,2077,-2488,-308,62,105,1,7,11
1.00E+03,-7499,2056,-2479,-287,97,68,1,7,11
9.86E+02,-7476,1785,-2466,1,-99,20,1,7,11
9.71E+02,-7484,2056,-2465,44,-27,-280,1,7,11
9.61E+02,-7496,2083,-2474,73,297,-315,1,7,11
9.59E+02,-7502,2121,-2478,71,348,-349,1,7,11
9.61E+02,-7495,2109,-2666,43,157,-156,1,7,11
9.67E+02,-7534,1765,-2258,67,219,-520,1,7,11
9.75E+02,-7520,1685,-2406,301,234,-391,1,7,11
9.82E+02,-7135,1664,-2182,452,522,-824,1,7,11
9.89E+02,-7055,1733,-2250,922,455,-1102,1,7,11
9.94E+02,-7097,2141,-2570,1602,1025,-1400,1,7,11
9.97E+02,-7483,2311,-2608,1906,1348,-1633,1,7,11
9.96E+02,-7323,2193,-2640,2074,1590,-1796,1,7,11
9.91E+02,-7338,2214,-2678,2059,1477,-1680,1,7,11
9.85E+02,-7475,2313,-2507,1877,1524,-2121,1,7,11
9.80E+02,-7287,2048,-2889,1578,1798,-2188,1,7,11
9.75E+02,-6887,1480,-2735,928,1862,-2902,1,7,11
9.71E+02,-6861,1207,-3074,799,1693,-3379,1,7,11
9.68E+02,-6867,980,-3186,186,1759,-3472,1,7,11
9.65E+02,-6825,758,-3366,119,2055,-3881,1,7,11
9.62E+02,-6968,808,-3612,-154,2129,-3897,1,7,11
9.60E+02,-7017,618,-3534,-392,2343,-3855,1,7,11
9.57E+02,-7235,224,-3849,-805,2560,-3679,1,7,11
9.54E+02,-7447,369,-3876,-855,2620,-3373,1,7,11
9.50E+02,-7368,297,-3868,-816,2303,-2763,1,7,11
9.45E+02,-7684,267,-3869,-484,2371,-2645,1,7,11
9.36E+02,-7334,-2,-3902,-427,2110,-2320,1,7,11
9.26E+02,-7482,-2,-3950,-419,1880,-2102,1,7,11
9.18E+02,-7101,278,-3776,-458,1425,-1697,1,7,11
9.13E+02,-7263,327,-4126,-784,1557,-1844,1,7,11
9.10E+02,-6909,377,-4205,-656,1217,-1479,1,7,11
9.09E+02,-7040,378,-4038,-1075,1160,-1631,1,7,11
