timestamp,ax,ay,az,gx,gy,gz,Label1,Label2,Label3
6.59E+02,-7641,3049,-155,-696,662,525,1,7,11
6.71E+02,-7609,3067,-161,-681,751,226,1,7,11
6.85E+02,-7616,3351,-180,-664,1029,157,1,7,11
6.99E+02,-7568,3358,-211,-663,759,311,1,7,11
7.09E+02,-7556,3390,-527,-654,757,-110,1,7,11
7.11E+02,-7584,3432,-588,-684,756,-292,1,7,11
7.05E+02,-7609,3432,-634,-752,729,-196,1,7,11
6.96E+02,-7630,3408,-408,-1094,693,-603,1,7,11
6.86E+02,-7644,3361,-421,-940,659,-478,1,7,11
6.78E+02,-7680,3038,-421,-1299,886,-846,1,7,11
6.69E+02,-7965,2965,-421,-1386,846,-666,1,7,11
6.60E+02,-7986,3156,-406,-1192,801,-712,1,7,11
6.55E+02,-8001,3086,-636,-1239,492,-717,1,7,11
6.58E+02,-8040,2766,-602,-1267,427,-696,1,7,11
6.69E+02,-7815,2702,-573,-1539,581,-647,1,7,11
6.82E+02,-7814,2879,-552,-1538,196,-842,1,7,11
6.89E+02,-7849,2818,-535,-1237,335,-800,1,7,11
6.92E+02,-7876,2543,-531,-1408,-32,-494,1,7,11
6.95E+02,-8196,2829,-513,-1292,-121,-432,1,7,11
7.04E+02,-7906,2841,-208,-926,0,-570,1,7,11
7.13E+02,-7840,2850,-173,-1027,-361,-217,1,7,11
7.15E+02,-7900,2870,-341,-877,-154,-374,1,7,11
7.07E+02,-7857,2844,22,-476,-545,30,1,7,11
6.94E+02,-7951,2530,74,-549,-465,-120,1,7,11
6.86E+02,-7777,2520,107,-331,-839,-92,1,7,11
6.86E+02,-7361,2816,-124,-114,-656,-69,1,7,11
6.93E+02,-7489,2863,-124,336,-681,-48,1,7,11
7.03E+02,-7161,2921,119,231,-641,-3,1,7,11
7.14E+02,-7426,2688,109,590,-804,301,1,7,11
7.24E+02,-7503,2699,92,400,-413,320,1,7,11
7.32E+02,-7347,2705,70,441,-531,310,1,7,11
7.37E+02,-7423,2704,16,473,-366,-35,1,7,11
7.34E+02,-7569,2726,-280,480,99,89,1,7,11
7.21E+02,-7988,2729,-301,451,323,-313,1,7,11
7.03E+02,-7916,2720,-287,386,521,-189,1,7,11
6.92E+02,-8303,2925,-268,557,386,-553,1,7,11
6.97E+02,-8149,2879,-258,227,467,-409,1,7,11
7.12E+02,-8190,2553,25,128,498,-490,1,7,11
7.25E+02,-8151,2623,100,-9,503,-891,1,7,11
7.28E+02,-8075,2294,99,-55,493,-646,1,7,11
7.26E+02,-7893,2207,87,-127,478,-874,1,7,11
7.28E+02,-7983,2373,82,38,782,-866,1,7,11
7.43E+02,-7622,2028,84,-324,865,-843,1,7,11
7.65E+02,-7760,2108,56,-174,661,-795,1,7,11
7.88E+02,-7763,1784,19,-232,718,-495,1,7,11
8.07E+02,-7756,1760,-343,-226,751,-421,1,7,11
8.17E+02,-7555,2052,-248,-155,908,-582,1,7,11
8.20E+02,-7606,2100,-446,-151,1331,-170,1,7,11
8.12E+02,-7973,2140,-876,-175,1560,-303,1,7,11
7.99E+02,-7933,1948,-719,-187,1794,40,1,7,11
7.86E+02,-8181,2033,-745,-154,1683,-113,1,7,11
7.80E+02,-8402,2178,-758,-278,1679,291,1,7,11
7.84E+02,-8713,2585,-1062,-122,1506,234,1,7,11
7.94E+02,-8386,2446,-1148,286,1541,611,1,7,11
8.05E+02,-8495,2529,-996,173,1322,602,1,7,11
8.16E+02,-8283,2820,-1372,549,1124,201,1,7,11
8.24E+02,-7878,2843,-1189,400,761,-97,1,7,11
8.27E+02,-8054,2870,-1227,479,685,-143,1,7,11
8.25E+02,-7985,2861,-1254,770,862,-398,1,7,11
8.19E+02,-7978,2832,-1272,771,802,-847,1,7,11
8.12E+02,-8015,2523,-1273,494,482,-694,1,7,11
8.05E+02,-7834,2487,-1276,477,635,-692,1,7,11
8.01E+02,-7894,2435,-1271,436,216,-847,1,7,11
8.00E+02,-7857,2633,-1538,388,-9,-416,1,7,11
8.04E+02,-8047,2292,-1268,533,29,-233,1,7,11
8.12E+02,-7953,2400,-1209,134,-164,-341,1,7,11
8.22E+02,-7586,2025,-1172,320,-592,-260,1,7,11
8.31E+02,-7725,1943,-1403,265,-468,35,1,7,11
8.38E+02,-7367,2129,-1386,-52,-790,43,1,7,11
8.42E+02,-7344,2082,-1329,-118,-790,23,1,7,11
8.42E+02,-7417,1774,-960,89,-484,-269,1,7,11
8.38E+02,-7671,1745,-918,94,-616,-324,1,7,11
8.31E+02,-8105,1775,-1045,-124,-222,-315,1,7,11
8.24E+02,-8532,1760,-665,-79,-586,-78,1,7,11
8.17E+02,-8316,1720,-668,317,-775,378,1,7,11
8.12E+02,-7920,1757,-676,249,-797,192,1,7,11
8.11E+02,-8035,2083,-704,422,-800,530,1,7,11
8.13E+02,-7646,1936,-1051,852,-783,598,1,7,11
8.18E+02,-7595,2321,-949,737,-418,392,1,7,11
8.25E+02,-7661,2235,-1316,1092,-238,446,1,7,11
8.30E+02,-7973,2439,-1396,896,-331,782,1,7,11
8.34E+02,-8044,2924,-1159,906,70,818,1,7,11
8.36E+02,-7835,3083,-1387,1059,127,813,1,7,11
8.37E+02,-7885,3146,-1338,877,102,449,1,7,11
8.39E+02,-7857,3090,-1326,638,-279,524,1,7,11
8.42E+02,-7984,2698,-1331,166,-164,-28,1,7,11
8.45E+02,-7807,2543,-1356,-6,-216,-161,1,7,11
8.48E+02,-7763,2662,-1334,-109,-139,-808,1,7,11
8.49E+02,-7761,2238,-1283,58,-302,-1052,1,7,11
8.46E+02,-7567,2013,-927,49,53,-969,1,7,11
8.37E+02,-7969,2001,-1094,-69,90,-1321,1,7,11
8.22E+02,-8029,1667,-1095,174,-257,-1289,1,7,11
8.03E+02,-8029,1535,-1132,492,-363,-982,1,7,11
7.86E+02,-8021,1498,-958,1119,-178,-917,1,7,11
7.76E+02,-7974,1831,-1349,1179,-185,-1108,1,7,11
7.73E+02,-7944,1745,-1229,1598,-346,-1026,1,7,11
7.75E+02,-8007,2134,-1279,1252,93,-646,1,7,11
7.82E+02,-7859,1945,-1269,1288,262,-473,1,7,11
7.92E+02,-8245,1973,-1233,763,368,-536,1,7,11
8.03E+02,-8082,1960,-1186,470,179,-331,1,7,11
8.15E+02,-8085,1921,-1176,193,225,-122,1,7,11
8.25E+02,-8268,2110,-1177,-60,551,309,1,7,11
8.29E+02,-8219,2074,-1180,-277,405,161,1,7,11
8.24E+02,-7918,1784,-1203,-209,511,230,1,7,11
8.09E+02,-8242,2053,-1178,-423,649,253,1,7,11
7.88E+02,-8280,2056,-1157,-522,648,532,1,7,11
7.69E+02,-8119,2071,-1401,-829,869,550,1,7,11
7.56E+02,-8322,2090,-1324,-870,870,569,1,7,11
7.50E+02,-8392,2062,-938,-690,454,456,1,7,11
7.50E+02,-7926,1777,-1112,-769,-44,817,1,7,11
7.53E+02,-7612,2125,-1120,-601,5,874,1,7,11
7.62E+02,-7060,2859,-1377,256,-516,1349,1,7,11
7.80E+02,-7137,2695,-1189,313,-193,1390,1,7,11
8.06E+02,-7301,2798,-1225,368,-359,1373,1,7,11
8.29E+02,-7617,3066,-1397,202,-590,926,1,7,11
8.36E+02,-7574,3046,-1346,377,-620,1077,1,7,11
8.13E+02,-7780,3006,-1023,273,-635,669,1,7,11
7.66E+02,-7722,2990,-944,-69,-414,487,1,7,11
7.18E+02,-7412,2996,-1125,97,-448,570,1,7,11
6.88E+02,-7388,3041,-1067,29,-471,188,1,7,11
6.78E+02,-7346,3342,-766,-305,-494,134,1,7,11
6.80E+02,-7337,3348,-708,-151,-476,352,1,7,11
6.89E+02,-7379,3338,-895,-232,-433,324,1,7,11
7.01E+02,-7682,3063,-837,-528,-403,298,1,7,11
7.12E+02,-7698,3351,-827,-209,-392,-2,1,7,11
7.21E+02,-7735,3025,-479,-565,-600,-71,1,7,11
7.29E+02,-7808,2974,-387,-531,-558,80,1,7,11
7.39E+02,-7798,2950,-616,-520,-515,74,1,7,11
7.48E+02,-7751,3172,-612,-238,-206,102,1,7,11
7.48E+02,-7397,3176,-395,-160,-372,-115,1,7,11
7.29E+02,-7321,3015,-784,-524,139,-8,1,7,11
6.93E+02,-7314,2970,-841,-407,547,-6,1,7,11
6.59E+02,-7375,3186,-875,-458,471,-64,1,7,11
6.48E+02,-7713,3035,-767,-437,856,-108,1,7,11
6.60E+02,-7731,3387,-934,-824,689,127,1,7,11
6.82E+02,-7596,3223,-994,-1095,1046,56,1,7,11
7.03E+02,-8049,3223,-1124,-1245,1052,53,1,7,11
7.14E+02,-7925,3352,-701,-1811,861,-108,1,7,11
7.07E+02,-8197,2979,-807,-1901,562,268,1,7,11
6.79E+02,-7903,3148,-473,-1809,-3,161,1,7,11
6.47E+02,-7412,2996,-834,99,-228,1142,1,7,11
6.31E+02,-7353,3336,-660,-23,-203,1140,1,7,11
6.32E+02,-7302,3587,-695,-367,115,155,1,7,11
6.40E+02,-7544,3296,-674,-181,-111,270,1,7,11
6.46E+02,-7346,3410,-797,-201,148,-133,1,7,11
6.48E+02,-7324,3372,-796,-131,173,-366,1,7,11
6.48E+02,-7338,3369,-830,-295,219,-340,1,7,11
6.46E+02,-7359,3403,-888,31,253,-289,1,7,11
6.44E+02,-7356,3451,-706,69,537,40,1,7,11
6.42E+02,-7362,3269,-767,84,576,114,1,7,11
6.39E+02,-7384,3315,-1074,23,607,-64,1,7,11
6.35E+02,-7384,3596,-1116,-318,615,-16,1,7,11
6.32E+02,-7419,3624,-1120,-142,616,-12,1,7,11
6.28E+02,-7414,3632,-1139,-202,556,-29,1,7,11
6.23E+02,-7387,3624,-907,-238,234,-69,1,7,11
6.18E+02,-7380,3616,-911,-253,202,-122,1,7,11
6.12E+02,-7382,3615,-917,-518,167,85,1,7,11
6.07E+02,-7372,3601,-923,-533,139,45,1,7,11
6.03E+02,-7371,3593,-923,-561,379,-260,1,7,11
6.03E+02,-7385,3325,-916,-610,370,-302,1,7,11
6.08E+02,-7386,3290,-900,-417,357,-317,1,7,11
6.18E+02,-7394,3249,-1124,-457,356,-340,1,7,11
6.28E+02,-7393,3223,-1111,-485,346,-348,1,7,11
6.34E+02,-7418,3411,-1068,-785,352,-286,1,7,11
6.31E+02,-7686,3410,-1061,-493,332,-264,1,7,11
6.26E+02,-7704,3413,-1058,-475,309,30,1,7,11
6.23E+02,-7733,3428,-1042,-439,268,73,1,7,11
6.24E+02,-7765,3210,-1060,-402,-65,121,1,7,11
6.29E+02,-7762,3221,-1065,-399,101,-83,1,7,11
6.38E+02,-7762,3240,-1061,-638,9,-49,1,7,11
6.50E+02,-7729,3249,-1075,-634,-346,-21,1,7,11
6.65E+02,-7417,3253,-1083,-632,-152,257,1,7,11
6.84E+02,-7343,3238,-1099,-402,-175,276,1,7,11
7.07E+02,-7316,3202,-1047,-431,-135,-20,1,7,11
7.34E+02,-7330,3222,-748,-397,-354,-69,1,7,11
7.60E+02,-7339,3270,-706,-538,-305,-112,1,7,11
7.83E+02,-7342,3285,-682,-227,-276,-110,1,7,11
7.97E+02,-7344,3285,-676,-180,5,-101,1,7,11
8.00E+02,-7352,3281,-668,-377,27,-94,1,7,11
7.93E+02,-7369,3287,-675,-322,38,-94,1,7,11
7.76E+02,-7366,3293,-686,-282,27,-73,1,7,11
7.52E+02,-7378,3307,-690,22,27,-52,1,7,11
7.28E+02,-7402,3321,-673,41,24,-5,1,7,11
7.12E+02,-7417,3597,-669,37,-260,296,1,7,11
7.05E+02,-7416,3602,-667,27,-302,324,1,7,11
7.04E+02,-7370,3624,-683,38,-338,348,1,7,11
7.03E+02,-7346,3649,-697,44,-329,370,1,7,11
7.04E+02,-7319,3670,-696,43,-311,156,1,7,11
7.04E+02,-7549,3661,-662,13,-275,188,1,7,11
7.06E+02,-7524,3690,-655,24,7,201,1,7,11
7.07E+02,-7492,3460,-892,9,29,192,1,7,11
7.06E+02,-7478,3469,-879,-282,54,165,1,7,11
7.03E+02,-7447,3502,-651,-299,70,377,1,7,11
7.03E+02,-7162,3515,-678,-354,102,339,1,7,11
7.13E+02,-7167,3486,-681,-161,-89,302,1,7,11
7.33E+02,-7447,3474,-690,-168,-36,-1,1,7,11
7.59E+02,-7455,3499,-726,-139,256,-20,1,7,11
7.81E+02,-7478,3495,-726,-141,299,-15,1,7,11
7.95E+02,-7500,3506,-711,-377,324,-2,1,7,11
8.05E+02,-7529,3521,-711,-359,325,257,1,7,11
8.13E+02,-7317,3542,-694,-348,306,-16,1,7,11
8.23E+02,-7339,3544,-689,-334,-11,-56,1,7,11
8.32E+02,-7362,3551,-679,-313,-77,-128,1,7,11
8.32E+02,-7378,3576,-684,-299,121,99,1,7,11
8.20E+02,-7368,3842,-678,-305,72,78,1,7,11
7.97E+02,-7357,3854,-686,-319,44,75,1,7,11
7.76E+02,-7340,3582,-653,-332,41,71,1,7,11
7.67E+02,-7341,3871,-893,-338,34,64,1,7,11
7.73E+02,-7341,3582,-857,-131,33,95,1,7,11
7.87E+02,-7340,3558,-821,-152,34,80,1,7,11
8.01E+02,-7325,3508,-776,-166,18,66,1,7,11
8.10E+02,-7300,3498,-500,-153,16,27,1,7,11
8.15E+02,-7549,3494,-493,-130,32,8,1,7,11
8.14E+02,-7305,3486,-486,-380,79,14,1,7,11
8.08E+02,-7552,3709,-467,-139,112,41,1,7,11
8.01E+02,-7543,3690,-457,-135,-108,65,1,7,11
7.98E+02,-7539,3670,-457,-383,-66,96,1,7,11
8.02E+02,-7529,3691,-473,-349,-32,-102,1,7,11
8.12E+02,-7516,3686,-495,-345,274,-11,1,7,11
8.22E+02,-7519,3708,-789,-332,327,322,1,7,11
8.28E+02,-7508,3505,-842,-333,363,367,1,7,11
8.29E+02,-7484,3858,-642,-346,138,157,1,7,11
8.26E+02,-7460,3929,-670,-140,148,199,1,7,11
8.21E+02,-7454,3722,-700,-190,140,235,1,7,11
8.16E+02,-7522,3734,-892,-221,-93,200,1,7,11
8.12E+02,-7512,3725,-863,-152,48,146,1,7,11
8.09E+02,-7475,3721,-846,-315,-306,338,1,7,11
8.09E+02,-7426,3715,-839,39,-377,275,1,7,11
8.13E+02,-7110,3960,-845,-127,-166,-27,1,7,11
8.19E+02,-7072,3714,-842,-22,-171,-86,1,7,11
8.27E+02,-7059,3757,-841,309,-158,111,1,7,11
8.38E+02,-7048,3760,-844,338,-131,67,1,7,11
8.52E+02,-7052,3768,-850,360,-354,-267,1,7,11
8.69E+02,-7099,3787,-865,365,-325,-356,1,7,11
8.88E+02,-7431,3761,-889,-35,-257,-522,1,7,11
9.05E+02,-7456,3967,-859,-78,17,-574,1,7,11
9.17E+02,-7485,3912,-851,-110,28,-616,1,7,11
9.20E+02,-7511,3868,-831,-123,36,-398,1,7,11
9.13E+02,-7521,3572,-833,-125,29,-417,1,7,11
9.01E+02,-7514,3538,-849,125,30,-416,1,7,11
8.87E+02,-7523,3511,-858,119,56,-407,1,7,11
8.74E+02,-7310,3517,-870,117,78,-394,1,7,11
8.64E+02,-7348,3541,-649,102,87,-623,1,7,11
8.57E+02,-7378,3583,-654,49,85,-595,1,7,11
8.55E+02,-7400,3580,-894,-325,86,-540,1,7,11
8.58E+02,-7397,3561,-860,-191,72,-215,1,7,11
8.62E+02,-7386,3525,-825,-542,65,-152,1,7,11
8.65E+02,-7374,3463,-801,-600,59,-356,1,7,11
8.67E+02,-7370,3697,-782,-624,49,-330,1,7,11
8.66E+02,-7328,3702,-769,-597,35,-333,1,7,11
8.64E+02,-7304,3705,-510,-591,41,-318,1,7,11
8.62E+02,-7512,3689,-512,-604,59,-287,1,7,11
8.59E+02,-7494,3695,-484,-625,106,-266,1,7,11
8.57E+02,-7469,3710,-478,-630,-117,20,1,7,11
8.56E+02,-7456,3704,-494,-389,-86,96,1,7,11
8.55E+02,-7471,3487,-509,-622,-33,123,1,7,11
8.55E+02,-7490,3566,-800,-552,308,-90,1,7,11
8.56E+02,-7502,3851,-821,-583,353,-41,1,7,11
8.56E+02,-7523,3581,-813,-413,381,-55,1,7,11
8.56E+02,-7547,3547,-782,-482,360,113,1,7,11
8.51E+02,-7332,3568,-492,-484,304,-266,1,7,11
8.41E+02,-7333,3858,-482,-479,-41,-347,1,7,11
8.27E+02,-7304,3878,-503,-480,126,-165,1,7,11
8.13E+02,-7531,3873,-505,-498,64,-244,1,7,11
8.03E+02,-7482,3906,-793,-484,29,-563,1,7,11
8.00E+02,-7453,3910,-796,-512,38,-598,1,7,11
8.04E+02,-7437,3887,-784,-783,71,-618,1,7,11
8.14E+02,-7450,3883,-506,-777,115,-625,1,7,11
8.28E+02,-7462,3842,-454,-806,-87,-584,1,7,11
8.43E+02,-7470,3520,-403,-819,-36,-531,1,7,11
8.52E+02,-7469,3463,-630,-801,278,-227,1,7,11
8.52E+02,-7473,3674,-616,-501,368,-179,1,7,11
8.44E+02,-7470,3655,-622,-442,231,-380,1,7,11
8.34E+02,-7494,3677,-637,-391,632,-302,1,7,11
8.29E+02,-7530,3676,-393,-624,779,54,1,7,11
8.32E+02,-7331,3681,-406,-599,888,-114,1,7,11
8.39E+02,-7386,3463,-443,-564,685,-40,1,7,11
8.49E+02,-7402,3499,-773,-550,684,280,1,7,11
8.56E+02,-7702,3542,-816,-548,667,307,1,7,11
8.63E+02,-7731,3843,-862,-555,859,328,1,7,11
8.68E+02,-7716,3851,-891,-554,497,337,1,7,11
8.74E+02,-7395,3884,-718,-255,556,-35,1,7,11
8.80E+02,-7402,3930,-751,-229,198,102,1,7,11
8.85E+02,-7419,3947,-745,-231,370,15,1,7,11
8.88E+02,-7422,3920,-703,-244,283,-318,1,7,11
8.87E+02,-7375,3859,-660,-253,-62,-382,1,7,11
8.84E+02,-7303,3529,-875,-243,127,-187,1,7,11
8.78E+02,-7502,3464,-843,-236,107,-229,1,7,11
8.71E+02,-7479,3678,-807,-224,-115,-241,1,7,11
8.62E+02,-7471,3648,-781,-225,-71,-236,1,7,11
8.53E+02,-7467,3619,-502,-224,-5,-190,1,7,11
8.45E+02,-7456,3591,-499,-202,335,-370,1,7,11
8.39E+02,-7463,3321,-495,-162,177,-285,1,7,11
8.35E+02,-7467,3592,-770,-360,254,71,1,7,11
8.32E+02,-7469,3621,-814,-303,582,-89,1,7,11
8.31E+02,-7471,3669,-858,1,637,-1,1,7,11
8.34E+02,-7469,3692,-642,26,410,323,1,7,11
8.40E+02,-7457,3476,-694,58,410,329,1,7,11
8.52E+02,-7444,3533,-742,81,400,315,1,7,11
8.67E+02,-7445,3853,-1039,96,392,282,1,7,11
8.83E+02,-7433,3893,-1084,97,629,-6,1,7,11
8.94E+02,-7441,3938,-1102,109,618,-50,1,7,11
8.95E+02,-7161,3947,-1134,108,600,-80,1,7,11
8.88E+02,-7156,3960,-1145,126,590,120,1,7,11
8.76E+02,-7160,3716,-908,125,573,62,1,7,11
8.63E+02,-7143,3960,-910,103,542,21,1,7,11
8.51E+02,-7135,3725,-947,96,532,-285,1,7,11
8.42E+02,-7151,3764,-974,49,542,-267,1,7,11
8.36E+02,-7441,3746,-980,-271,567,48,1,7,11
8.34E+02,-7450,3723,-978,-319,588,100,1,7,11
8.33E+02,-7457,3919,-966,-137,598,-105,1,7,11
8.31E+02,-7468,3890,-959,-142,584,-101,1,7,11
8.27E+02,-7469,3880,-964,-139,542,-121,1,7,11
8.21E+02,-7468,3854,-971,-140,255,121,1,7,11
8.19E+02,-7473,3577,-969,-371,214,101,1,7,11
8.23E+02,-7470,3565,-967,-327,173,81,1,7,11
8.37E+02,-7471,3560,-976,0,135,60,1,7,11
8.54E+02,-7462,3583,-995,70,360,60,1,7,11
8.70E+02,-7469,3848,-994,105,353,116,1,7,11
8.81E+02,-7486,3868,-989,121,336,-59,1,7,11
8.85E+02,-7485,3863,-1005,-128,298,288,1,7,11
8.87E+02,-7483,3850,-1024,-115,257,334,1,7,11
8.87E+02,-7455,3923,-1295,7,111,280,1,7,11
8.88E+02,-7446,3921,-1016,-312,63,-8,1,7,11
8.88E+02,-7155,3928,-1008,-331,4,-44,1,7,11
8.87E+02,-7090,3953,-1010,-328,-308,-85,1,7,11
8.85E+02,-7059,3945,-990,-320,-311,-91,1,7,11
8.82E+02,-7293,3925,-970,-304,-291,-93,1,7,11
8.80E+02,-7285,3911,-950,-265,-268,-118,1,7,11
8.80E+02,-7292,3893,-941,34,1,102,1,7,11
8.82E+02,-7290,3904,-940,89,10,76,1,7,11
8.86E+02,-7285,3898,-955,112,40,61,1,7,11
8.90E+02,-7062,3931,-963,125,95,41,1,7,11
8.92E+02,-7094,3946,-975,85,-104,48,1,7,11
8.93E+02,-7122,3952,-1002,45,-73,40,1,7,11
8.90E+02,-7136,3939,-1284,10,-62,-263,1,7,11
8.83E+02,-7145,3918,-1289,-273,-49,-340,1,7,11
8.72E+02,-7508,3559,-1008,-361,-285,-431,1,7,11
8.60E+02,-7503,3539,-992,-361,-322,-460,1,7,11
8.50E+02,-7534,3600,-1121,-296,-176,-423,1,7,11
8.47E+02,-7512,3307,-1109,0,-173,-632,1,7,11
8.50E+02,-7543,3243,-1037,-15,14,98,1,7,11
8.55E+02,-7551,3252,-1027,-8,11,-112,1,7,11
8.58E+02,-7304,3275,-748,-1,-278,-72,1,7,11
8.58E+02,-7357,3286,-690,-31,-304,-36,1,7,11
8.58E+02,-7688,3304,-894,-40,-362,269,1,7,11
8.58E+02,-7724,3314,-857,-23,-194,344,1,7,11
8.62E+02,-7763,3645,-837,298,-537,157,1,7,11
8.67E+02,-7754,3705,-825,340,-623,522,1,7,11
8.72E+02,-7714,3504,-823,376,-430,393,1,7,11
8.75E+02,-7377,3545,-822,139,-464,778,1,7,11
8.75E+02,-7158,3871,-872,177,-619,669,1,7,11
8.73E+02,-7101,3892,-888,187,-518,877,1,7,11
8.73E+02,-7056,3919,-660,200,-134,788,1,7,11
8.75E+02,-7042,3945,-685,217,6,414,1,7,11
8.79E+02,-7046,3715,-717,249,-125,558,1,7,11
8.82E+02,-7294,3722,-760,544,-22,203,1,7,11
8.79E+02,-7042,3740,-1067,589,334,369,1,7,11
8.71E+02,-7052,3751,-1115,615,156,278,1,7,11
8.61E+02,-7058,3746,-942,629,210,-74,1,7,11
8.53E+02,-7057,3749,-998,630,250,81,1,7,11
8.52E+02,-7051,3754,-1315,629,537,-263,1,7,11
8.56E+02,-7049,3756,-1368,602,571,-333,1,7,11
8.64E+02,-7042,3734,-1154,564,601,-381,1,7,11
8.74E+02,-7288,3952,-1202,539,620,-166,1,7,11
8.84E+02,-7279,3933,-1245,250,632,-213,1,7,11
8.93E+02,-7283,3923,-1538,227,637,-233,1,7,11
8.98E+02,-7043,3921,-1571,203,637,-236,1,7,11
8.99E+02,-7066,3938,-1613,164,624,-225,1,7,11
8.96E+02,-7083,3942,-1648,361,610,-183,1,7,11
8.88E+02,-7112,3939,-1415,308,585,-151,1,7,11
8.77E+02,-7140,3946,-1427,262,539,-131,1,7,11
8.65E+02,-7153,3955,-1438,-49,216,-372,1,7,11
8.54E+02,-7129,3942,-1453,-116,136,-375,1,7,11
8.47E+02,-7118,3910,-1467,67,334,-137,1,7,11
8.44E+02,-7111,3876,-1488,-275,303,-165,1,7,11
8.45E+02,-7130,3847,-1514,-363,300,-188,1,7,11
8.50E+02,-7436,3562,-1526,-219,321,-211,1,7,11
8.57E+02,-7509,3527,-1499,-599,352,-215,1,7,11
8.65E+02,-7547,3465,-1457,-464,349,-192,1,7,11
8.69E+02,-7310,3658,-1428,-807,329,-168,1,7,11
8.70E+02,-7318,3618,-1644,-885,294,-137,1,7,11
8.67E+02,-7334,3321,-1587,-685,257,-333,1,7,11
8.64E+02,-7334,3285,-1239,-708,-93,91,1,7,11
8.64E+02,-7352,3300,-1174,-675,118,-43,1,7,11
8.68E+02,-7348,3308,-1366,-875,42,336,1,7,11
8.72E+02,-7332,3592,-1313,-778,-301,182,1,7,11
8.76E+02,-7545,3647,-1024,-410,-135,525,1,7,11
8.78E+02,-7491,3703,-991,-567,-218,591,1,7,11
8.77E+02,-7434,3509,-961,-216,-536,386,1,7,11
8.75E+02,-7121,3570,-931,-383,-568,420,1,7,11
8.72E+02,-7081,3874,-909,-313,-568,455,1,7,11
8.69E+02,-7041,3918,-1149,-261,-554,487,1,7,11
8.67E+02,-7259,3966,-1121,39,-525,501,1,7,11
8.66E+02,-7223,3751,-1107,80,-222,508,1,7,11
8.64E+02,-7201,3808,-1110,126,-164,504,1,7,11
8.56E+02,-7170,4117,-1107,-120,-356,504,1,7,11
8.39E+02,-6896,4151,-1112,-127,-284,495,1,7,11
8.12E+02,-6875,4172,-1130,100,34,467,1,7,11
7.82E+02,-6851,4162,-899,62,105,422,1,7,11
7.54E+02,-6798,4136,-945,6,-74,612,1,7,11
7.31E+02,-7019,4141,-1014,-282,291,229,1,7,11
7.15E+02,-6841,4003,-1320,-342,174,316,1,7,11
7.06E+02,-7211,4379,-1309,-211,253,-24,1,7,11
7.04E+02,-7043,4444,-1017,-611,237,-19,1,7,11
7.08E+02,-7102,4432,-965,-501,162,292,1,7,11
7.16E+02,-7112,4085,-900,-821,295,346,1,7,11
7.27E+02,-7068,4015,-1124,-770,95,130,1,7,11
7.42E+02,-7280,4203,-1092,-395,4,379,1,7,11
7.59E+02,-7241,4158,-1077,-218,-308,348,1,7,11
7.78E+02,-7212,4139,-1070,-258,-341,314,1,7,11
7.98E+02,-7183,4143,-1079,-42,-360,269,1,7,11
8.17E+02,-6912,4169,-1105,160,-364,-40,1,7,11
8.35E+02,-6893,4212,-904,565,-359,-76,1,7,11
8.49E+02,-6870,3998,-942,636,-326,-101,1,7,11
8.59E+02,-6871,4039,-976,388,-268,-117,1,7,11
8.67E+02,-6883,4058,-994,601,48,-121,1,7,11
8.74E+02,-6889,4068,-1016,530,95,-127,1,7,11
8.78E+02,-6896,4059,-1290,172,-105,-116,1,7,11
8.80E+02,-6904,4054,-1301,316,-46,-96,1,7,11
8.79E+02,-7171,4031,-1310,-63,271,-53,1,7,11
8.74E+02,-7176,3976,-1312,71,326,-15,1,7,11
8.66E+02,-7171,4183,-1323,-266,370,258,1,7,11
8.54E+02,-7179,4162,-1332,-307,157,-16,1,7,11
8.41E+02,-7178,4144,-1326,-316,186,-47,1,7,11
8.27E+02,-7192,4154,-1322,-281,211,-87,1,7,11
8.19E+02,-7238,4176,-1304,3,222,-117,1,7,11
8.19E+02,-7236,4207,-1329,28,178,-93,1,7,11
8.28E+02,-7200,3994,-1194,43,263,262,1,7,11
8.42E+02,-7202,4002,-1205,50,-29,282,1,7,11
8.56E+02,-7209,4027,-1203,50,-71,309,1,7,11
8.65E+02,-7195,4019,-1193,45,-116,333,1,7,11
8.69E+02,-7171,4027,-1204,55,99,342,1,7,11
8.65E+02,-6889,4016,-1196,75,73,343,1,7,11
8.53E+02,-6874,4020,-1192,123,58,327,1,7,11
8.35E+02,-6853,4045,-1175,-96,34,300,1,7,11
8.19E+02,-6850,4043,-1161,-81,27,280,1,7,11
8.11E+02,-6827,4085,-1182,-30,-257,256,1,7,11
8.13E+02,-6808,4387,-1199,-31,4,-3,1,7,11
8.20E+02,-6812,4392,-1201,-71,26,273,1,7,11
8.26E+02,-6816,4423,-1203,-104,37,283,1,7,11
8.28E+02,-6822,4410,-1199,91,49,312,1,7,11
8.26E+02,-6813,4398,-1194,48,62,341,1,7,11
8.22E+02,-6816,4388,-1177,9,78,361,1,7,11
8.20E+02,-6801,4388,-1171,-270,84,131,1,7,11
8.18E+02,-6797,4387,-1160,-300,91,144,1,7,11
8.14E+02,-6789,4387,-1407,-324,106,152,1,7,11
8.06E+02,-7031,4396,-1389,-335,113,134,1,7,11
7.95E+02,-7011,4416,-1383,-324,118,349,1,7,11
7.86E+02,-6999,4442,-1380,-312,-128,323,1,7,11
7.83E+02,-7008,4449,-1374,-333,-97,308,1,7,11
7.88E+02,-7009,4467,-1384,-356,-86,281,1,7,11
7.97E+02,-6988,4462,-1376,-377,-80,-18,1,7,11
8.07E+02,-6626,4440,-1199,-366,-85,-98,1,7,11
8.15E+02,-6557,4382,-1219,-379,-47,-91,1,7,11
8.24E+02,-6623,4393,-1194,-369,340,-343,1,7,11
8.34E+02,-6997,4437,-1388,-290,227,-818,1,7,11
8.49E+02,-6851,4228,-1360,4,216,-716,1,7,11
8.64E+02,-6897,4468,-1353,19,149,-1043,1,7,11
8.78E+02,-7176,4451,-1368,41,327,-1062,1,7,11
8.85E+02,-7185,4415,-1390,40,263,-1027,1,7,11
8.85E+02,-7186,4362,-1166,20,-38,-688,1,7,11
8.80E+02,-7190,4044,-1181,2,-63,-836,1,7,11
8.76E+02,-7210,3997,-1188,-259,-80,-459,1,7,11
8.76E+02,-7223,3979,-1201,0,-93,-585,1,7,11
8.79E+02,-7236,4217,-1213,-273,-96,-200,1,7,11
8.83E+02,-7251,4197,-1196,-290,-111,-317,1,7,11
8.84E+02,-7250,4181,-1185,-271,107,70,1,7,11
8.83E+02,-7242,4185,-1180,7,68,-80,1,7,11
8.80E+02,-7222,4161,-1159,37,18,264,1,7,11
8.78E+02,-7191,4159,-1154,97,-288,307,1,7,11
8.77E+02,-6896,4177,-1408,-103,-316,322,1,7,11
8.79E+02,-6878,4189,-1407,-51,-317,309,1,7,11
8.81E+02,-6885,4220,-1397,263,-315,287,1,7,11
8.83E+02,-6872,3997,-1408,305,-331,273,1,7,11
8.83E+02,-6871,4033,-1166,326,-339,-6,1,7,11
8.76E+02,-6874,4072,-1188,311,-330,-36,1,7,11
8.57E+02,-6872,4067,-1181,256,-327,-62,1,7,11
8.23E+02,-6872,4077,-1178,-32,-337,-98,1,7,11
7.81E+02,-6856,4079,-1180,-58,-359,-121,1,7,11
7.43E+02,-6842,4090,-1192,-72,-377,126,1,7,11
7.19E+02,-6830,4089,-1194,-88,-370,-112,1,7,11
7.06E+02,-6829,4088,-1193,-85,-357,-92,1,7,11
6.95E+02,-6833,4087,-1182,-71,-343,-80,1,7,11
6.82E+02,-6849,4095,-1173,-52,-343,-86,1,7,11
6.79E+02,-6846,4360,-1181,-27,-371,-111,1,7,11
7.01E+02,-6838,4374,-1190,-5,-145,112,1,7,11
7.51E+02,-6825,4376,-1196,-20,-151,88,1,7,11
8.05E+02,-6830,4374,-1188,-32,-149,64,1,7,11
8.39E+02,-6836,4373,-1187,-46,-160,46,1,7,11
8.34E+02,-6846,4356,-1167,-56,-166,26,1,7,11
8.04E+02,-6845,4092,-1156,-66,-169,12,1,7,11
7.71E+02,-6848,4077,-1406,-71,-165,8,1,7,11
7.55E+02,-6854,4069,-1390,-77,-157,16,1,7,11
7.54E+02,-6858,4069,-1383,-88,-153,33,1,7,11
7.61E+02,-6859,4072,-1379,-115,-145,44,1,7,11
7.66E+02,-6866,4063,-1366,112,-137,53,1,7,11
7.70E+02,-6874,4061,-1359,106,-137,54,1,7,11
7.78E+02,-6880,4065,-1360,103,-146,49,1,7,11
7.93E+02,-6873,4054,-1361,96,-144,52,1,7,11
8.10E+02,-6877,4048,-1340,113,-133,45,1,7,11
8.23E+02,-6882,4033,-1330,118,-383,45,1,7,11
8.23E+02,-6893,4023,-1306,-125,-129,43,1,7,11
8.11E+02,-6884,4043,-1282,105,-168,-287,1,7,11
7.96E+02,-6867,4032,-1282,73,-162,-322,1,7,11
7.91E+02,-7213,4013,-939,70,60,-136,1,7,11
8.00E+02,-7225,4018,-973,92,56,-343,1,7,11
8.16E+02,-7240,4016,-986,90,55,-305,1,7,11
8.30E+02,-7254,4028,-992,94,36,-276,1,7,11
8.35E+02,-7229,4021,-1013,95,2,-259,1,7,11
8.33E+02,-7218,4026,-1019,85,-271,0,1,7,11
8.28E+02,-7216,4020,-1011,66,-292,-276,1,7,11
8.25E+02,-7226,4019,-1009,56,-326,-340,1,7,11
8.24E+02,-7239,4042,-1017,58,-374,-170,1,7,11
8.23E+02,-7248,4035,-1001,35,-169,-523,1,7,11
8.20E+02,-7244,4052,-1002,16,-219,-615,1,7,11
8.14E+02,-7246,4033,-972,-290,-250,-440,1,7,11
8.04E+02,-7260,4031,-958,-332,-535,-769,1,7,11
7.92E+02,-7245,4003,-939,-367,-569,-821,1,7,11
7.78E+02,-7236,4210,-913,-137,-582,-872,1,7,11
7.63E+02,-7228,4153,-1138,-149,-589,-671,1,7,11
7.49E+02,-7240,3835,-1108,-166,-563,-724,1,7,11
7.37E+02,-7260,3773,-1066,-183,-526,-759,1,7,11
7.25E+02,-7278,3953,-1028,-188,-234,-1052,1,7,11
7.12E+02,-7285,3915,-768,-160,-189,-1086,1,7,11
6.98E+02,-7261,3867,-765,-164,-375,-1053,1,7,11
6.84E+02,-7266,3534,-731,-148,-265,-759,1,7,11
6.69E+02,-7286,3532,-714,-307,92,-732,1,7,11
6.57E+02,-7046,3535,-716,23,-56,-656,1,7,11
6.50E+02,-7094,3545,-716,84,303,-841,1,7,11
6.51E+02,-7138,3553,-728,-115,364,-777,1,7,11
6.56E+02,-7436,3849,-756,-33,141,-485,1,7,11
6.61E+02,-7465,3901,-1054,279,148,-447,1,7,11
6.64E+02,-7492,3952,-1100,316,148,-421,1,7,11
6.76E+02,-7501,3734,-1125,316,138,-637,1,7,11
7.07E+02,-7491,3734,-1142,294,373,-605,1,7,11
7.52E+02,-7479,3733,-900,265,354,-590,1,7,11
8.00E+02,-7486,3720,-1152,-24,334,-587,1,7,11
8.36E+02,-7487,3713,-1150,-49,305,-606,1,7,11
8.53E+02,-7529,3751,-913,-97,273,-393,1,7,11
8.53E+02,-7517,3761,-950,68,-40,-452,1,7,11
8.40E+02,-7500,3734,-982,-342,-74,-805,1,7,11
8.17E+02,-7466,3962,-1013,-251,-90,-682,1,7,11
7.93E+02,-7441,3924,-1305,-454,-77,-1079,1,7,11
7.77E+02,-7165,3851,-1338,-686,-36,-961,1,7,11
7.76E+02,-7426,3512,-1325,-900,288,-1367,1,7,11
7.86E+02,-7451,3670,-1304,-1346,362,-1256,1,7,11
7.96E+02,-7508,3296,-991,-1232,162,-1653,1,7,11
7.96E+02,-7514,3447,-941,-1559,172,-1513,1,7,11
7.88E+02,-7519,3353,-903,-1554,184,-1874,1,7,11
7.82E+02,-7542,3041,-1121,-1206,198,-1920,1,7,11
7.84E+02,-7319,3016,-1091,-1329,230,-1885,1,7,11
7.96E+02,-7349,2976,-1071,-941,528,-1505,1,7,11
8.07E+02,-7369,3190,-1094,-1056,581,-1592,1,7,11
8.08E+02,-7352,3152,-906,-654,639,-1167,1,7,11
7.96E+02,-7366,3140,-988,-511,468,-1281,1,7,11
7.79E+02,-7688,3123,-1021,-401,808,-1152,1,7,11
7.68E+02,-7798,3095,-1020,-562,850,-1046,1,7,11
7.70E+02,-7643,3092,-1023,-201,804,-702,1,7,11
7.79E+02,-7975,3101,-1284,-359,420,-879,1,7,11
7.88E+02,-8021,3125,-1323,-282,244,-797,1,7,11
7.92E+02,-8000,3135,-1381,24,301,-447,1,7,11
7.88E+02,-7963,3145,-1223,42,-128,-622,1,7,11
7.78E+02,-7652,3123,-1578,-266,9,-551,1,7,11
7.60E+02,-7618,2806,-1599,-353,-303,-521,1,7,11
7.41E+02,-7650,2763,-1571,-174,-336,-527,1,7,11
7.28E+02,-7973,2717,-1229,-244,-146,-541,1,7,11
7.26E+02,-8053,2923,-1386,-554,-521,-560,1,7,11
7.28E+02,-7872,2866,-1001,-596,-439,-576,1,7,11
7.25E+02,-7908,2557,-1151,-599,-668,-587,1,7,11
7.13E+02,-7878,2537,-1075,-548,-908,-601,1,7,11
6.96E+02,-7818,2522,-750,-227,-1353,-593,1,7,11
6.80E+02,-8024,2512,-689,-150,-1218,-567,1,7,11
6.68E+02,-7960,2504,-893,-327,-1540,-533,1,7,11
6.59E+02,-7654,2483,-823,3,-1562,-518,1,7,11
6.50E+02,-7614,2479,-498,111,-1558,-542,1,7,11
6.42E+02,-7573,2515,-461,-22,-1540,-576,1,7,11
6.35E+02,-7556,2818,-452,328,-1239,-611,1,7,11
6.31E+02,-7562,2867,-458,143,-1182,-390,1,7,11
6.31E+02,-7568,2902,-465,169,-1376,-420,1,7,11
6.36E+02,-7582,2905,-446,146,-1301,-448,1,7,11
6.46E+02,-7614,2922,-418,362,-977,-483,1,7,11
6.62E+02,-7664,2916,-390,274,-924,-498,1,7,11
6.84E+02,-7938,2890,-633,-86,-901,-769,1,7,11
7.10E+02,-7961,2890,-626,66,-1126,-791,1,7,11
7.40E+02,-7985,2887,-597,-300,-1086,-486,1,7,11
7.73E+02,-7985,2858,-551,-161,-1042,-414,1,7,11
8.05E+02,-7988,2823,-239,-532,-723,-600,1,7,11
8.32E+02,-7981,2516,-196,-605,-700,-529,1,7,11
8.51E+02,-7964,2454,-166,-401,-688,-234,1,7,11
8.65E+02,-7959,2687,-138,-401,-652,-220,1,7,11
8.73E+02,-7967,2432,-374,-629,-854,-203,1,7,11
8.76E+02,-7971,2435,-325,-600,-784,-171,1,7,11
8.75E+02,-7979,2435,-294,-584,-450,-378,1,7,11
8.68E+02,-7992,2440,1,-560,-627,-315,1,7,11
8.56E+02,-7996,2670,43,-254,-221,59,1,7,11
8.40E+02,-8001,2668,43,-216,-161,65,1,7,11
8.26E+02,-7854,2500,85,-156,-133,-149,1,7,11
8.18E+02,-7877,2494,108,-196,-165,-217,1,7,11
8.20E+02,-7889,2616,259,-403,-638,-440,1,7,11
8.28E+02,-7856,2562,286,-424,-627,-433,1,7,11
8.35E+02,-7915,2032,245,-357,-328,-605,1,7,11
8.36E+02,-8193,2037,246,16,-306,-550,1,7,11
8.32E+02,-8262,2393,176,146,-326,67,1,7,11
8.28E+02,-8252,2419,161,161,-357,-116,1,7,11
8.29E+02,-8280,2416,226,443,-415,149,1,7,11
8.35E+02,-8271,2413,226,825,-774,177,1,7,11
8.43E+02,-8256,2420,231,701,-863,210,1,7,11
8.46E+02,-8232,2188,229,1093,-688,515,1,7,11
8.40E+02,-8223,2214,241,968,-740,578,1,7,11
8.24E+02,-8194,2251,238,1349,-1040,408,1,7,11
8.00E+02,-7889,2275,252,1168,-1067,487,1,7,11
7.68E+02,-7840,2566,514,1204,-1065,779,1,7,11
7.34E+02,-7823,2609,246,1224,-1046,771,1,7,11
7.06E+02,-8051,2645,244,1224,-763,468,1,7,11
6.91E+02,-7972,2493,196,1248,-730,396,1,7,11
6.84E+02,-7967,2848,168,1269,-646,567,1,7,11
6.79E+02,-7939,2904,155,1211,-803,529,1,7,11
6.74E+02,-7673,2694,144,1399,-428,512,1,7,11
6.74E+02,-7939,2693,151,1289,-546,253,1,7,11
6.85E+02,-7672,2691,163,915,-169,230,1,7,11
7.04E+02,-7958,2708,156,1057,-313,193,1,7,11
7.22E+02,-7979,2698,178,686,81,170,1,7,11
7.30E+02,-7994,2873,512,778,121,147,1,7,11
7.29E+02,-8062,2552,555,623,-87,264,1,7,11
7.26E+02,-8057,2554,536,556,94,-116,1,7,11
7.31E+02,-8040,2843,239,233,47,34,1,7,11
7.46E+02,-8006,2871,201,168,37,-270,1,7,11
7.72E+02,-8005,2883,183,327,80,-281,1,7,11
8.10E+02,-8045,2868,201,-35,-126,-264,1,7,11
8.53E+02,-8063,2851,201,-111,-123,18,1,7,11
8.92E+02,-8057,2841,190,68,115,24,1,7,11
9.17E+02,-8036,2834,158,-266,107,29,1,7,11
9.20E+02,-8025,2818,149,-360,-125,25,1,7,11
9.07E+02,-8043,2547,170,-196,-85,17,1,7,11
8.91E+02,-8056,2554,172,-517,-57,-257,1,7,11
8.80E+02,-8053,2830,148,-566,-39,-263,1,7,11
8.78E+02,-8024,2867,357,-597,-10,8,1,7,11
8.83E+02,-8023,2900,325,-634,297,22,1,7,11
8.89E+02,-8004,2912,311,-409,346,46,1,7,11
8.92E+02,-8013,2915,304,-431,143,57,1,7,11
8.89E+02,-7869,2545,380,-510,145,-369,1,7,11
8.79E+02,-7884,2498,151,-503,318,-224,1,7,11
8.60E+02,-7918,2485,171,-468,-16,-618,1,7,11
8.34E+02,-7930,2440,208,-458,-98,-468,1,7,11
8.08E+02,-8200,2651,229,-422,83,-814,1,7,11
7.88E+02,-7933,2586,246,-396,8,-896,1,7,11
7.79E+02,-7887,2250,522,-628,-311,-717,1,7,11
7.76E+02,-7849,2430,520,-587,-340,-1070,1,7,11
7.71E+02,-7831,2391,538,-530,-327,-898,1,7,11
7.62E+02,-7819,2390,532,-194,-299,-948,1,7,11
7.52E+02,-7829,2417,247,-134,2,-973,1,7,11
7.45E+02,-7855,2176,234,-368,49,-957,1,7,11
7.45E+02,-7877,2428,211,-348,93,-914,1,7,11
7.50E+02,-7933,2216,173,-293,-116,-1101,1,7,11
7.60E+02,-8242,2294,132,4,-85,-739,1,7,11
7.73E+02,-8258,2608,347,0,-84,-847,1,7,11
7.89E+02,-8243,2628,313,-297,-102,-458,1,7,11
8.05E+02,-8215,2598,308,-366,119,-637,1,7,11
8.19E+02,-8206,2303,332,-174,66,-628,1,7,11
8.28E+02,-8224,2564,371,-195,-267,-403,1,7,11
8.32E+02,-8224,2609,163,-212,-377,-411,1,7,11
8.28E+02,-8194,2601,194,-256,-230,-390,1,7,11
8.19E+02,-7918,2582,239,-540,-564,-626,1,7,11
8.12E+02,-7932,2287,559,-553,-598,-592,1,7,11
8.11E+02,-8194,2263,603,-513,-629,-544,1,7,11
8.18E+02,-7895,2221,627,-184,-403,-242,1,7,11
8.29E+02,-7859,2430,408,-380,-386,-228,1,7,11
8.38E+02,-7892,2396,458,-323,-572,-250,1,7,11
8.40E+02,-8261,2378,487,-272,-252,-542,1,7,11
8.37E+02,-8269,2357,495,34,-236,-583,1,7,11
8.32E+02,-8277,2328,504,59,-227,-391,1,7,11
8.29E+02,-8290,2029,772,50,-217,-464,1,7,11
8.28E+02,-8314,1987,504,30,-223,-797,1,7,11
8.26E+02,-8313,1793,487,-249,-566,-996,1,7,11
8.20E+02,-8316,1465,492,-535,-557,-998,1,7,11
8.11E+02,-8065,1632,772,-568,-521,-1009,1,7,11
8.04E+02,-8315,1554,804,-589,-231,-1288,1,7,11
8.03E+02,-8067,1243,883,-587,-189,-1322,1,7,11
8.12E+02,-8105,1219,685,-537,-155,-1318,1,7,11
8.27E+02,-8099,1226,687,-194,-138,-990,1,7,11
8.42E+02,-8315,1212,654,-147,-345,-1128,1,7,11
8.52E+02,-8272,1177,876,-370,27,-761,1,7,11
8.58E+02,-8287,1179,842,-325,-47,-665,1,7,11
8.60E+02,-8304,1201,844,-290,150,-809,1,7,11
8.61E+02,-8100,1254,888,-266,580,-423,1,7,11
8.61E+02,-8451,1548,718,-267,417,-256,1,7,11
8.59E+02,-8470,1574,1034,4,638,-312,1,7,11
8.53E+02,-8482,1614,1042,32,561,121,1,7,11
8.41E+02,-8163,1413,721,61,203,302,1,7,11
8.28E+02,-8078,1446,658,60,151,175,1,7,11
8.17E+02,-8214,1825,410,-264,535,232,1,7,11
8.12E+02,-8253,1874,437,-313,455,207,1,7,11
8.12E+02,-8245,1500,617,-469,824,293,1,7,11
8.15E+02,-7878,1483,575,-780,670,-80,1,7,11
8.14E+02,-8232,1654,372,-1059,1252,-612,1,7,11
8.11E+02,-8228,1648,293,-1183,1601,-418,1,7,11
8.06E+02,-8425,1206,-123,-1441,1405,-293,1,7,11
8.04E+02,-8420,1182,123,-1541,911,51,1,7,11
8.04E+02,-8378,1166,95,-1354,683,120,1,7,11
8.04E+02,-8572,1160,74,-904,484,-90,1,7,11
8.00E+02,-8515,1404,60,-707,581,-68,1,7,11
7.87E+02,-8467,1401,50,-503,201,-68,1,7,11
7.71E+02,-8161,1155,50,-540,360,-84,1,7,11
7.57E+02,-8142,1188,47,-335,293,-112,1,7,11
7.51E+02,-8125,1483,-329,366,102,116,1,7,11
7.52E+02,-8100,1495,-345,315,72,111,1,7,11
7.58E+02,-8069,1457,-371,-330,114,-274,1,7,11
7.69E+02,-8316,1653,-334,-143,111,-273,1,7,11
7.82E+02,-8079,1603,-297,-164,122,-291,1,7,11
7.95E+02,-8115,1587,-263,-148,124,-302,1,7,11
8.04E+02,-8134,1584,15,-380,104,-286,1,7,11
8.03E+02,-8148,1583,49,-349,74,14,1,7,11
7.88E+02,-8135,1575,61,-309,38,99,1,7,11
7.64E+02,-8081,1568,15,-266,16,-64,1,7,11
7.49E+02,-8289,1567,10,18,39,263,1,7,11
7.55E+02,-8274,1599,-258,39,107,321,1,7,11
7.82E+02,-8266,1603,-257,36,-74,134,1,7,11
8.16E+02,-8260,1608,-268,25,260,207,1,7,11
8.42E+02,-8272,1624,-277,18,337,523,1,7,11
8.54E+02,-8298,1415,-280,6,147,582,1,7,11
8.56E+02,-8313,1434,-288,6,185,388,1,7,11
8.56E+02,-8089,1491,-300,-259,205,448,1,7,11
8.60E+02,-8113,1792,-339,-298,192,772,1,7,11
8.67E+02,-8116,1825,-349,-347,148,834,1,7,11
8.72E+02,-8116,1853,-354,-143,351,876,1,7,11
8.70E+02,-8096,1861,-363,-182,284,894,1,7,11
8.60E+02,-8073,1910,-377,-196,-32,885,1,7,11
8.48E+02,-8311,1675,-373,-207,-75,868,1,7,11
8.39E+02,-8277,1703,-369,-206,-96,855,1,7,11
8.36E+02,-8266,1729,-361,-202,-100,841,1,7,11
8.39E+02,-8239,1753,-344,-198,-106,834,1,7,11
8.45E+02,-8235,2048,-338,-191,-92,828,1,7,11
8.52E+02,-8235,2083,-321,-208,-79,853,1,7,11
8.56E+02,-8202,2096,-315,-234,-71,641,1,7,11
8.59E+02,-7932,2113,-307,-523,-47,680,1,7,11
8.59E+02,-7918,2150,-304,-558,-9,734,1,7,11
8.56E+02,-7906,2170,-296,-592,288,1053,1,7,11
8.52E+02,-7894,1931,-283,-632,326,1106,1,7,11
8.49E+02,-7874,1944,-299,-409,351,1141,1,7,11
8.47E+02,-7848,1973,-341,-420,383,1143,1,7,11
8.40E+02,-7839,2037,-379,-413,166,1119,1,7,11
8.21E+02,-7837,2364,-160,-418,198,1092,1,7,11
7.81E+02,-7861,2405,-174,-450,218,1035,1,7,11
7.28E+02,-7897,2196,-179,-478,196,697,1,7,11
6.88E+02,-7922,2257,-195,-493,382,860,1,7,11
6.83E+02,-7899,2292,-205,-777,281,783,1,7,11
7.06E+02,-7889,2593,-219,-781,-53,444,1,7,11
7.37E+02,-7856,2648,-234,-785,-112,405,1,7,11
7.60E+02,-7811,2687,-250,-798,110,400,1,7,11
7.73E+02,-8025,2438,-243,-814,116,411,1,7,11
7.84E+02,-8049,2449,-220,-815,-93,417,1,7,11
7.99E+02,-8044,2456,-191,-801,-67,445,1,7,11
8.17E+02,-8013,2456,-171,-782,-40,477,1,7,11
8.35E+02,-7990,2447,-158,-504,261,500,1,7,11
8.51E+02,-7962,2441,-146,-492,311,501,1,7,11
8.61E+02,-7950,2434,-383,-468,132,482,1,7,11
8.68E+02,-7940,2435,-346,-433,208,452,1,7,11
8.73E+02,-7939,2678,-320,-403,512,396,1,7,11
8.77E+02,-7655,2680,-319,-608,530,577,1,7,11
8.82E+02,-7662,2491,-353,-230,575,181,1,7,11
8.87E+02,-7669,2819,-140,-186,620,128,1,7,11
8.91E+02,-7651,2878,-181,-185,409,344,1,7,11
8.96E+02,-7650,2691,-231,-200,461,309,1,7,11
8.99E+02,-7624,2737,-535,-513,508,276,1,7,11
9.02E+02,-7601,2782,-596,-593,811,-30,1,7,11
9.04E+02,-7555,3077,-618,-448,868,-79,1,7,11
9.04E+02,-7796,3129,-401,-794,700,-104,1,7,11
9.04E+02,-7790,3180,-454,-867,1061,-70,1,7,11
9.00E+02,-7783,2951,-498,-691,923,-20,1,7,11
8.87E+02,-7787,2953,-771,-1032,1294,260,1,7,11
8.60E+02,-7574,2962,-779,-1098,1390,-46,1,7,11
8.14E+02,-7586,2976,-803,-897,1183,115,1,7,11
7.62E+02,-7596,2991,-830,-969,1215,-269,1,7,11
7.22E+02,-7577,2995,-849,-1323,1246,-135,1,7,11
6.97E+02,-7569,2993,-871,-1180,1536,-247,1,7,11
6.85E+02,-7564,2980,-889,-1576,1578,-585,1,7,11
6.80E+02,-7564,2948,-665,-1465,1616,-632,1,7,11
6.80E+02,-7557,3159,-711,-1854,1643,-406,1,7,11
6.79E+02,-7789,3151,-731,-1738,1408,-425,1,7,11
6.75E+02,-7806,3116,-737,-2158,1451,-428,1,7,11
6.70E+02,-7805,3077,-744,-2032,1470,-408,1,7,11
6.67E+02,-7805,3075,-1044,-2382,1490,-620,1,7,11
6.66E+02,-7797,2799,-1081,-2251,1530,-460,1,7,11
6.66E+02,-7580,2811,-1104,-2655,1856,-345,1,7,11
6.66E+02,-7612,3102,-1118,-2483,1861,47,1,7,11
6.68E+02,-7640,3126,-1127,-2539,1836,-81,1,7,11
6.73E+02,-7662,3176,-1145,-2551,1513,279,1,7,11
6.81E+02,-7657,2948,-1143,-2545,1420,371,1,7,11
6.96E+02,-7648,2980,-902,-2500,1580,172,1,7,11
7.19E+02,-7638,2999,-1145,-2445,1219,194,1,7,11
7.50E+02,-7620,3014,-1136,-2621,1356,159,1,7,11
7.81E+02,-7585,3047,-1132,-2277,960,339,1,7,11
8.08E+02,-7786,3061,-1145,-2202,1076,-14,1,7,11
8.28E+02,-7749,3053,-1135,-2407,718,-123,1,7,11
8.42E+02,-7734,3060,-1131,-2365,890,24,1,7,11
8.50E+02,-7722,3064,-1131,-2350,826,-309,1,7,11
8.54E+02,-7728,3054,-1123,-2335,782,-366,1,7,11
8.53E+02,-7748,3049,-1112,-2045,495,-148,1,7,11
8.49E+02,-7790,3042,-1086,-2010,462,-164,1,7,11
8.41E+02,-7579,3046,-1055,-1962,410,-164,1,7,11
8.31E+02,-7582,3037,-1033,-2164,587,-148,1,7,11
8.18E+02,-7556,3037,-758,-2079,522,-137,1,7,11
8.03E+02,-7778,3055,-739,-1725,218,-381,1,7,11
7.88E+02,-7751,3067,-735,-1892,186,-356,1,7,11
7.71E+02,-7719,3348,-739,-1527,153,-330,1,7,11
7.52E+02,-7703,3350,-726,-1435,129,-326,1,7,11
7.32E+02,-7702,3339,-702,-1606,357,-346,1,7,11
7.13E+02,-7717,3338,-673,-1238,309,-149,1,7,11
6.94E+02,-7746,3361,-654,-1378,-15,-214,1,7,11
6.78E+02,-7742,3367,-886,-993,95,-543,1,7,11
6.62E+02,-7737,3337,-881,-950,57,-542,1,7,11
6.43E+02,-7576,3013,-807,-828,2,-168,1,7,11
6.22E+02,-7575,3040,-791,-482,-330,-340,1,7,11
6.05E+02,-7558,3062,-792,-385,-150,-262,1,7,11
5.95E+02,-7806,3353,-795,-532,-228,62,1,7,11
5.91E+02,-7575,3450,-408,-259,-877,-101,1,7,11
5.93E+02,-7772,3213,-389,32,-765,110,1,7,11
5.98E+02,-7332,3427,-155,-349,-913,-386,1,7,11
6.03E+02,-7332,3403,-350,-330,-1143,-467,1,7,11
6.06E+02,-7792,2963,-93,350,-778,-1106,1,7,11
6.08E+02,-7600,3160,-46,204,-394,-919,1,7,11
6.11E+02,-7659,3096,-4,551,-532,-1003,1,7,11
6.14E+02,-8006,2768,286,614,-170,-1352,1,7,11
6.17E+02,-7830,2688,345,627,-349,-1174,1,7,11
6.20E+02,-7896,2556,355,628,-302,-1274,1,7,11
6.22E+02,-7914,2477,355,594,-278,-1548,1,7,11
6.21E+02,-7915,2621,362,534,-267,-1280,1,7,11
6.18E+02,-7916,2264,371,202,-262,-1245,1,7,11
6.15E+02,-8217,2199,375,163,-259,-1181,1,7,11
6.12E+02,-8224,2185,327,147,-294,-1325,1,7,11
6.09E+02,-8199,2184,261,371,-323,-923,1,7,11
6.07E+02,-8215,2417,-42,335,-317,-767,1,7,11
6.06E+02,-8254,2181,-99,326,-298,-851,1,7,11
6.05E+02,-8287,2200,119,269,-282,-422,1,7,11
6.04E+02,-8310,2426,125,-45,-298,-546,1,7,11
6.03E+02,-8308,2177,116,-37,-357,-203,1,7,11
6.02E+02,-8276,2424,107,-26,-170,-374,1,7,11
6.00E+02,-8263,2197,91,-10,-216,-298,1,7,11
5.98E+02,-8251,2195,83,-1,-252,55,1,7,11
5.96E+02,-8282,2213,85,288,-529,-115,1,7,11
5.97E+02,-8320,2199,113,331,-542,-47,1,7,11
5.98E+02,-8148,2242,-118,177,-570,-34,1,7,11
5.99E+02,-8454,2255,-114,245,-638,-57,1,7,11
5.96E+02,-8461,2257,-116,551,-449,-100,1,7,11
5.94E+02,-8179,2247,-110,574,-510,100,1,7,11
5.95E+02,-8127,2243,-112,614,-815,41,1,7,11
6.00E+02,-8318,2236,-120,617,-852,1,1,7,11
6.05E+02,-8220,2190,-125,638,-644,-310,1,7,11
6.07E+02,-7834,2389,107,417,-668,-159,1,7,11
6.10E+02,-8017,2383,75,483,-650,-559,1,7,11
6.15E+02,-7993,2418,45,501,-872,-433,1,7,11
6.23E+02,-8045,2188,73,471,-816,-499,1,7,11
6.33E+02,-7879,2185,-106,400,-779,-490,1,7,11
6.41E+02,-8226,2386,-2,558,-792,-403,1,7,11
6.46E+02,-8261,2004,347,210,-843,-516,1,7,11
6.50E+02,-8306,2134,174,222,-879,-149,1,7,11
6.56E+02,-8117,2104,231,394,-689,-344,1,7,11
6.65E+02,-8102,2073,252,858,-1045,-273,1,7,11
6.78E+02,-8079,2071,530,1092,-1121,54,1,7,11
6.90E+02,-8291,2094,542,1318,-942,-117,1,7,11
6.98E+02,-8236,2133,553,1268,-1002,-20,1,7,11
6.97E+02,-8205,2150,596,1658,-1296,352,1,7,11
6.93E+02,-7922,1978,603,1809,-1345,199,1,7,11
6.96E+02,-7900,2334,607,1872,-1387,559,1,7,11
7.10E+02,-7838,2392,608,1893,-1175,427,1,7,11
7.32E+02,-7992,2430,590,1884,-1189,800,1,7,11
7.56E+02,-7612,2181,578,1843,-1393,647,1,7,11
7.79E+02,-7776,2414,574,1813,-1020,704,1,7,11
7.98E+02,-7722,2180,572,1518,-1119,707,1,7,11
8.14E+02,-7699,2386,604,1658,-670,699,1,7,11
8.24E+02,-7700,2365,629,1622,-470,653,1,7,11
8.28E+02,-7695,2385,602,1638,-514,848,1,7,11
8.29E+02,-7678,2380,578,1626,-292,808,1,7,11
8.25E+02,-7423,2383,563,1414,-57,488,1,7,11
8.17E+02,-7702,2198,227,1510,172,397,1,7,11
8.06E+02,-7736,2242,148,1849,630,549,1,7,11
7.91E+02,-7803,2568,314,1703,807,180,1,7,11
7.73E+02,-7655,2621,-47,2070,674,346,1,7,11
7.53E+02,-8051,2456,54,1921,720,-15,1,7,11
7.31E+02,-7996,2479,-290,1989,658,-124,1,7,11
7.07E+02,-8088,2520,-131,2374,385,-278,1,7,11
6.84E+02,-8130,2509,-198,2428,134,-344,1,7,11
6.64E+02,-8132,2492,-525,2232,117,-137,1,7,11
6.51E+02,-8079,2683,-613,2280,-621,-209,1,7,11
6.45E+02,-8282,2616,-600,2230,-775,-228,1,7,11
6.52E+02,-8250,2569,-563,2428,-871,-227,1,7,11
6.69E+02,-8207,2247,-253,2355,-680,-180,1,7,11
6.98E+02,-7897,2415,-186,2025,-718,-374,1,7,11
7.33E+02,-7863,2326,-145,1981,-715,-291,1,7,11
7.64E+02,-7831,2000,-383,1995,-667,63,1,7,11
7.84E+02,-7857,1994,-380,2315,-818,-81,1,7,11
7.93E+02,-7914,2010,-383,2390,-450,320,1,7,11
7.94E+02,-8215,2029,-154,2239,-622,198,1,7,11
7.88E+02,-8254,2324,-205,2620,-581,550,1,7,11
7.80E+02,-8286,2380,-536,2489,-584,593,1,7,11
7.73E+02,-8308,2187,-599,2854,-618,578,1,7,11
7.69E+02,-8314,2254,-412,2936,-436,525,1,7,11
7.69E+02,-8069,2302,-454,2730,-778,192,1,7,11
7.68E+02,-8067,2580,-477,2727,-870,368,1,7,11
7.66E+02,-8307,2575,-492,2705,-724,258,1,7,11
7.62E+02,-8292,2568,-486,2925,-1085,-124,1,7,11
7.58E+02,-8260,2283,-457,2853,-928,25,1,7,11
7.56E+02,-8202,2228,-416,2521,-1009,-298,1,7,11
7.54E+02,-7870,2407,-629,2438,-1325,-342,1,7,11
7.47E+02,-7830,2354,-587,2632,-1340,-362,1,7,11
7.35E+02,-8048,2306,-561,2580,-1326,-340,1,7,11
7.20E+02,-8035,2039,-556,2564,-1024,-293,1,7,11
7.11E+02,-8021,2043,-545,2279,-961,59,1,7,11
7.11E+02,-8008,2046,-543,2241,-1142,-62,1,7,11
7.12E+02,-8007,2312,-521,2196,-1070,347,1,7,11
7.00E+02,-8003,2325,-519,2412,-756,240,1,7,11
6.70E+02,-8030,2362,-523,2377,-699,628,1,7,11
6.38E+02,-7814,2431,-525,2341,-664,493,1,7,11
6.21E+02,-7820,2260,-551,2042,-653,866,1,7,11
6.24E+02,-8008,2665,-390,2169,-823,1065,1,7,11
6.34E+02,-7978,2466,-401,2085,-487,1135,1,7,11
6.44E+02,-8042,2483,-612,968,-278,150,1,7,11
6.50E+02,-7836,2452,-556,1089,13,295,1,7,11
6.50E+02,-7893,2442,-256,721,1,-49,1,7,11
6.44E+02,-7909,2674,-235,878,-281,-84,1,7,11
6.37E+02,-7906,2663,-210,820,-286,-70,1,7,11
6.32E+02,-7884,2658,-194,787,-270,256,1,7,11
6.27E+02,-7861,2686,-181,791,29,367,1,7,11
6.16E+02,-7842,2478,-178,506,78,251,1,7,11
6.02E+02,-7823,2484,-166,432,103,621,1,7,11
5.96E+02,-7812,2532,-158,405,106,411,1,7,11
6.04E+02,-8056,2804,-201,607,81,588,1,7,11
6.15E+02,-8011,3079,-230,545,61,249,1,7,11
6.20E+02,-8047,2774,-176,-120,-95,-124,1,7,11
6.16E+02,-8034,2732,-168,94,-119,-112,1,7,11
6.11E+02,-8001,2704,-162,73,122,-82,1,7,11
6.07E+02,-7979,2692,-153,75,120,-31,1,7,11
6.03E+02,-7566,2746,-186,264,59,170,1,7,11
5.96E+02,-7783,2778,-206,285,44,194,1,7,11
5.87E+02,-7745,2804,-239,263,44,195,1,7,11
5.80E+02,-7720,3085,-513,-49,53,161,1,7,11
5.75E+02,-7706,3093,-532,-116,68,342,1,7,11
5.69E+02,-7728,3083,-523,67,86,-20,1,7,11
5.62E+02,-7783,3076,-520,2,109,126,1,7,11
5.55E+02,-7594,2794,-244,-322,-121,44,1,7,11
5.52E+02,-7669,2755,-216,-130,-95,2,1,7,11
5.52E+02,-7969,2716,-211,-170,-74,-272,1,7,11
5.53E+02,-7964,2923,-220,-183,-45,-264,1,7,11
5.52E+02,-7959,2921,-231,-173,-9,6,1,7,11
5.47E+02,-7962,2930,-239,-158,278,16,1,7,11
5.40E+02,-7964,2721,-523,-382,293,27,1,7,11
5.43E+02,-7967,2764,-554,-359,302,53,1,7,11
5.57E+02,-7977,2801,-565,-360,303,96,1,7,11
5.66E+02,-7976,2800,-561,-379,288,-114,1,7,11
5.59E+02,-7989,2803,-543,-372,-1,-93,1,7,11
5.47E+02,-7985,2812,-527,-356,-43,-79,1,7,11
5.41E+02,-7986,3072,-253,-343,-90,-67,1,7,11
5.39E+02,-7982,2798,-238,-318,118,-70,1,7,11
5.39E+02,-7977,2800,-230,-269,77,-100,1,7,11
5.38E+02,-7969,2802,-218,38,40,125,1,7,11
5.36E+02,-7966,2809,-212,89,23,91,1,7,11
5.34E+02,-7976,2808,-200,121,12,63,1,7,11
5.38E+02,-7975,2773,-186,-87,0,16,1,7,11
5.47E+02,-7964,2753,-184,-67,-261,-265,1,7,11
5.50E+02,-7971,2746,-171,-50,-263,-282,1,7,11
5.45E+02,-7964,2753,-171,-29,-286,-279,1,7,11
5.35E+02,-7946,2727,-172,-9,-309,-264,1,7,11
5.25E+02,-8011,2740,-149,288,-313,15,1,7,11
5.21E+02,-7957,2725,-171,306,-371,71,1,7,11
5.24E+02,-7964,2722,-191,331,-133,94,1,7,11
5.28E+02,-7677,2688,-196,340,-154,-126,1,7,11
5.26E+02,-7948,2690,-196,134,-142,-121,1,7,11
5.21E+02,-7976,2706,-195,189,-131,-106,1,7,11
5.15E+02,-8008,2715,-184,234,-133,-69,1,7,11
5.10E+02,-8014,2711,-173,541,-142,-22,1,7,11
5.06E+02,-8023,2725,-177,610,-151,274,1,7,11
5.04E+02,-8049,2736,-166,422,-152,314,1,7,11
5.03E+02,-8048,2784,-201,484,-181,368,1,7,11
5.03E+02,-8045,3079,-213,808,-210,189,1,7,11
5.04E+02,-8043,3118,-225,846,-236,244,1,7,11
5.07E+02,-7663,3146,-249,872,-569,576,1,7,11
5.11E+02,-7638,3167,-525,876,-585,552,1,7,11
5.16E+02,-7590,3195,-542,847,-612,253,1,7,11
5.17E+02,-7571,2944,-553,796,-600,182,1,7,11
5.12E+02,-7624,3150,-527,605,-237,-24,1,7,11
5.12E+02,-7651,3125,-518,545,-198,-70,1,7,11
5.41E+02,-7660,3090,-520,209,-162,-110,1,7,11
5.98E+02,-7943,2787,-237,136,-363,117,1,7,11
6.59E+02,-7981,2746,-211,350,-326,102,1,7,11
7.03E+02,-7997,2714,-194,340,-323,96,1,7,11
7.27E+02,-8005,2721,-196,359,-323,111,1,7,11
7.36E+02,-8000,2703,-186,360,-322,-109,1,7,11
7.33E+02,-7994,2688,-173,378,-328,-98,1,7,11
7.22E+02,-7659,2880,-208,137,3,46,1,7,11
7.04E+02,-7977,2877,-161,177,0,50,1,7,11
6.83E+02,-7998,2892,-136,242,-304,81,1,7,11
6.63E+02,-7968,2933,-158,573,-378,124,1,7,11
6.45E+02,-7659,2730,-192,625,-162,-86,1,7,11
6.31E+02,-7561,3118,-525,595,-326,303,1,7,11
6.22E+02,-7777,3150,-558,485,27,319,1,7,11
6.14E+02,-7798,3199,-590,130,-94,283,1,7,11
6.05E+02,-7578,2995,-619,-8,301,-7,1,7,11
5.91E+02,-7595,3004,-386,82,175,-50,1,7,11
5.75E+02,-7620,2991,-399,-340,553,-117,1,7,11
5.63E+02,-7638,2967,-410,-249,394,72,1,7,11
5.56E+02,-7578,3166,-427,-405,455,11,1,7,11
5.54E+02,-7421,3168,-847,-429,768,-247,1,7,11
5.55E+02,-7411,3180,-885,-404,496,-201,1,7,11
5.57E+02,-7706,3185,-660,-395,505,-148,1,7,11
5.57E+02,-7779,2946,-700,-405,800,-356,1,7,11
5.61E+02,-7610,2972,-728,-455,844,-311,1,7,11
5.70E+02,-7952,2976,-747,-784,873,-291,1,7,11
5.81E+02,-8006,2981,-1039,-844,881,-316,1,7,11
5.90E+02,-8043,2989,-1075,-893,877,-135,1,7,11
5.92E+02,-8050,2982,-1085,-712,853,-245,1,7,11
5.88E+02,-8016,3197,-1090,-1026,800,-394,1,7,11
5.80E+02,-7951,3176,-1107,-1061,476,-818,1,7,11
5.76E+02,-7632,3143,-1112,-1121,427,-686,1,7,11
5.83E+02,-7625,2771,-1049,-946,403,-1062,1,7,11
5.99E+02,-7664,2689,-736,-970,638,-1069,1,7,11
6.18E+02,-7945,2856,-670,-950,600,-1063,1,7,11
6.38E+02,-7987,2531,-870,-901,559,-1075,1,7,11
6.55E+02,-8032,2490,-828,-1097,240,-1069,1,7,11
6.67E+02,-8054,2462,-809,-1025,157,-1050,1,7,11
6.73E+02,-7825,2451,-801,-711,336,-761,1,7,11
6.71E+02,-7809,2453,-796,-669,-18,-712,1,7,11
6.60E+02,-8040,2456,-775,-893,-109,-672,1,7,11
6.47E+02,-8021,2453,-490,-889,58,-885,1,7,11
6.35E+02,-8029,2659,-412,-653,-272,-880,1,7,11
6.27E+02,-8005,2649,-605,-643,-371,-656,1,7,11
6.19E+02,-7612,2674,-580,-840,-238,-1110,1,7,11
6.09E+02,-7591,2677,-549,-879,-207,-970,1,7,11
6.01E+02,-7591,2630,-237,-677,-154,-1362,1,7,11
5.94E+02,-7749,2040,-7,-904,-83,-1954,1,7,11
5.90E+02,-7753,2006,310,-1147,331,-2198,1,7,11
5.86E+02,-7736,2324,345,-1092,247,-2666,1,7,11
5.82E+02,-7419,2333,314,-1135,476,-2849,1,7,11
5.77E+02,-7411,2023,268,-1008,1044,-2804,1,7,11
5.74E+02,-7728,1931,-42,-1187,1372,-3048,1,7,11
5.71E+02,-7615,2122,-106,-1655,1436,-3306,1,7,11
5.69E+02,-8038,1787,81,-1893,1680,-3520,1,7,11
5.71E+02,-8204,1727,6,-2119,2106,-3924,1,7,11
5.80E+02,-8090,1681,-321,-2318,1954,-3960,1,7,11
5.92E+02,-8495,1872,-344,-2232,1997,-3882,1,7,11
6.00E+02,-8385,1793,-384,-2603,1940,-3674,1,7,11
6.01E+02,-8718,1456,-212,-2656,1780,-3363,1,7,11
5.97E+02,-8431,1541,-388,-2447,1504,-2825,1,7,11
5.95E+02,-8398,1175,-507,-2686,1622,-2204,1,7,11
5.95E+02,-8403,1304,-832,-2674,1269,-2089,1,7,11
5.95E+02,-8425,928,-868,-2602,1164,-1455,1,7,11
5.93E+02,-8439,1080,-887,-2232,1012,-1350,1,7,11
5.95E+02,-8721,667,-642,-2336,1077,-708,1,7,11
6.04E+02,-8750,453,-732,-1623,576,42,1,7,11
6.18E+02,-8774,423,-766,-992,286,349,1,7,11
6.31E+02,-8782,560,-745,-880,11,491,1,7,11
6.42E+02,-8767,247,-740,-381,-522,1092,1,7,11
6.48E+02,-8714,435,-1128,516,-892,960,1,7,11
6.51E+02,-8778,805,-1119,800,-923,1316,1,7,11
6.50E+02,-8727,897,-1109,1075,-1560,955,1,7,11
6.51E+02,-8801,908,-878,886,-1693,1110,1,7,11
6.55E+02,-8756,1147,-637,797,-2009,1088,1,7,11
6.60E+02,-8448,1141,-140,463,-2298,714,1,7,11
6.65E+02,-8352,961,27,492,-2528,833,1,7,11
6.71E+02,-8569,1317,-58,490,-2901,430,1,7,11
6.78E+02,-8566,1376,335,451,-2694,619,1,7,11
6.89E+02,-8520,1381,203,472,-2901,436,1,7,11
6.96E+02,-8485,1193,517,491,-2854,405,1,7,11
6.92E+02,-8491,1251,613,488,-2506,463,1,7,11
6.72E+02,-8494,1586,438,819,-2476,834,1,7,11
6.49E+02,-8126,1445,440,876,-2494,869,1,7,11
6.38E+02,-7881,1706,371,879,-2678,873,1,7,11
6.43E+02,-7394,3112,-166,-5831,-2016,-360,1,7,11
6.52E+02,-7888,-21,1152,-8231,-2238,-287,1,7,11
6.57E+02,-8241,130,1536,-2231,-3172,-1077,1,7,11
6.59E+02,-8193,1822,680,900,-3499,-1389,1,7,11
6.61E+02,-7606,1858,778,1257,-2993,-507,1,7,11
6.65E+02,-7944,1202,696,1700,-1474,187,1,7,11
6.68E+02,-8237,1561,1058,2881,-585,1182,1,7,11
6.72E+02,-8302,1896,725,2883,363,2073,1,7,11
6.73E+02,-8308,1657,1138,2313,613,2566,1,7,11
6.70E+02,-8486,1594,1304,2330,468,2509,1,7,11
6.61E+02,-8138,1670,1108,2438,556,2553,1,7,11
6.50E+02,-8126,1740,1084,2177,158,2213,1,7,11
6.41E+02,-8150,2051,1077,2628,-55,2008,1,7,11
6.34E+02,-8396,1996,1103,3138,-609,2050,1,7,11
6.30E+02,-8270,2598,483,3172,-1134,1982,1,7,11
6.28E+02,-7862,2433,460,2435,-967,1716,1,7,11
6.28E+02,-8050,2699,392,2035,-996,1798,1,7,11
6.27E+02,-7615,2723,634,1623,-938,1412,1,7,11
6.29E+02,-7660,2874,791,1363,-1109,980,1,7,11
6.34E+02,-8046,3027,391,1205,-965,932,1,7,11
6.45E+02,-7661,3026,619,702,-935,1405,1,7,11
6.57E+02,-7994,3188,474,179,-758,1255,1,7,11
6.61E+02,-7818,3393,618,365,-1106,1546,1,7,11
6.53E+02,-8081,3354,822,-153,-1064,1241,1,7,11
6.38E+02,-7865,3339,502,-605,-943,1507,1,7,11
6.23E+02,-7819,3198,853,-444,-1105,1378,1,7,11
6.13E+02,-8060,3393,830,-391,-1093,899,1,7,11
6.11E+02,-8000,3024,718,-710,-1075,1103,1,7,11
6.13E+02,-7982,3117,1151,-1114,-1089,725,1,7,11
6.17E+02,-7641,2718,1316,-1137,-1137,771,1,7,11
6.20E+02,-7624,2689,1173,-1026,-937,243,1,7,11
6.24E+02,-7781,2878,1224,-703,-1023,309,1,7,11
6.30E+02,-7784,2712,1200,-801,-1023,77,1,7,11
6.38E+02,-7783,2731,1206,-827,-961,-314,1,7,11
6.48E+02,-7553,2745,1197,-809,-1144,-152,1,7,11
6.59E+02,-7776,2688,1186,-676,-1035,-356,1,7,11
6.68E+02,-7637,2899,1206,-722,-868,-157,1,7,11
6.75E+02,-7657,2475,1544,-1070,-797,-231,1,7,11
6.81E+02,-8039,2864,1255,-1051,-489,-216,1,7,11
6.89E+02,-7826,2937,1233,-1017,-451,84,1,7,11
7.03E+02,-7627,2715,1361,-1479,-387,569,1,7,11
7.16E+02,-7710,2441,1188,-2418,-224,555,1,7,11
7.22E+02,-7762,2635,1542,-2181,-133,313,1,7,11
7.17E+02,-7580,2686,1558,-2191,-309,183,1,7,11
7.08E+02,-7596,2601,1579,-2242,15,437,1,7,11
7.04E+02,-7635,2425,1427,-2349,69,453,1,7,11
7.07E+02,-7943,2426,1482,-1894,84,538,1,7,11
7.13E+02,-7661,2186,1798,-1213,20,159,1,7,11
7.17E+02,-7645,2421,1870,-1086,-275,332,1,7,11
7.16E+02,-7642,2226,1889,-421,-337,-13,1,7,11
7.10E+02,-7578,2277,1859,-342,-152,-74,1,7,11
7.00E+02,-7765,2565,1808,-49,-165,86,1,7,11
6.87E+02,-7698,2614,1479,203,-130,-308,1,7,11
6.74E+02,-7382,2450,1643,479,-286,-535,1,7,11
6.60E+02,-7396,2519,1596,843,65,-408,1,7,11
6.49E+02,-7406,2825,1279,863,-94,-495,1,7,11
6.39E+02,-7689,2841,1251,826,284,-813,1,7,11
6.31E+02,-7742,2866,1251,795,149,-865,1,7,11
6.23E+02,-7801,2907,1251,785,245,-642,1,7,11
6.16E+02,-7596,2942,1218,483,573,-889,1,7,11
6.09E+02,-7612,2935,1188,409,630,-887,1,7,11
6.07E+02,-7656,2889,1394,548,471,-661,1,7,11
6.09E+02,-8002,2522,1383,153,851,-747,1,7,11
6.13E+02,-7865,2681,1362,317,697,-911,1,7,11
6.15E+02,-8251,2571,1340,-25,1029,-1371,1,7,11
6.13E+02,-8312,2219,1291,-101,1050,-1570,1,7,11
6.02E+02,-8305,2362,990,33,1052,-1493,1,7,11
5.87E+02,-8087,1974,1013,-374,1087,-1881,1,7,11
5.79E+02,-8176,2087,1335,-251,1076,-1693,1,7,11
5.84E+02,-8547,1707,1384,-552,727,-1695,1,7,11
6.04E+02,-8367,1886,1378,-514,816,-1879,1,7,11
6.39E+02,-8420,1849,1321,-178,391,-1485,1,7,11
6.75E+02,-8432,1824,1293,-328,512,-1248,1,7,11
6.97E+02,-8398,1812,967,38,176,-950,1,7,11
6.93E+02,-8368,1510,945,97,152,-664,1,7,11
6.81E+02,-8325,1442,936,-97,383,-438,1,7,11
6.85E+02,-8559,1616,959,-22,355,-533,1,7,11
7.14E+02,-8536,1568,954,367,337,-210,1,7,11
7.53E+02,-8528,1578,900,550,339,-178,1,7,11
7.83E+02,-8455,1596,1058,470,357,-154,1,7,11
7.94E+02,-8123,1440,655,659,186,-382,1,7,11
7.88E+02,-8068,1520,509,722,592,-281,1,7,11
7.71E+02,-8308,1510,442,894,785,82,1,7,11
7.49E+02,-8080,1494,398,818,688,-110,1,7,11
7.23E+02,-8082,1517,637,477,1032,-80,1,7,11
6.98E+02,-8086,1504,635,601,1056,-35,1,7,11
6.77E+02,-8094,1524,389,521,731,281,1,7,11
6.60E+02,-8071,1875,614,200,652,369,1,7,11
6.52E+02,-8317,1890,396,352,835,225,1,7,11
6.50E+02,-8319,1693,433,290,773,620,1,7,11
6.49E+02,-8067,2077,409,348,457,802,1,7,11
6.47E+02,-8310,1926,636,157,444,1029,1,7,11
6.43E+02,-8279,2305,584,243,468,988,1,7,11
6.36E+02,-8259,2386,551,560,779,1393,1,7,11
6.29E+02,-8230,2393,557,558,805,1179,1,7,11
6.26E+02,-7933,2356,564,569,793,1332,1,7,11
6.30E+02,-8205,2335,563,581,782,1091,1,7,11
6.37E+02,-7903,2363,520,630,474,805,1,7,11
6.44E+02,-7858,2391,214,389,431,527,1,7,11
6.52E+02,-7828,2411,177,635,453,330,1,7,11
6.70E+02,-7815,2199,147,626,787,-37,1,7,11
7.07E+02,-8060,2183,138,577,892,-50,1,7,11
7.53E+02,-8054,2397,379,522,794,-44,1,7,11
7.90E+02,-8032,2319,370,215,1134,-48,1,7,11
7.98E+02,-8062,1978,372,195,945,-113,1,7,11
7.79E+02,-7839,1925,363,211,980,42,1,7,11
7.51E+02,-7866,2165,358,517,1004,-309,1,7,11
7.37E+02,-7918,2137,379,568,1000,-137,1,7,11
7.39E+02,-7931,2119,355,635,963,-178,1,7,11
7.47E+02,-7935,2158,269,564,927,-204,1,7,11
7.53E+02,-8197,1972,-101,659,918,-196,1,7,11
7.51E+02,-8248,2042,20,695,927,-159,1,7,11
7.39E+02,-8310,2349,-376,683,923,-346,1,7,11
7.16E+02,-8115,2382,-527,649,1147,1,1,7,11
6.90E+02,-8149,2377,-631,849,1084,109,1,7,11
6.72E+02,-8174,2395,-470,822,745,-42,1,7,11
6.71E+02,-8192,2412,-794,769,647,332,1,7,11
6.80E+02,-8450,2426,-832,458,786,213,1,7,11
6.87E+02,-8179,2378,-829,420,384,608,1,7,11
6.86E+02,-8169,2363,-808,385,224,434,1,7,11
6.82E+02,-8146,2353,-785,398,298,477,1,7,11
6.82E+02,-8135,2347,-493,423,117,478,1,7,11
6.89E+02,-8123,2321,-447,436,-317,464,1,7,11
6.97E+02,-8090,2039,-413,508,-252,413,1,7,11
7.03E+02,-8316,2030,-408,875,-430,574,1,7,11
7.04E+02,-8313,2044,-399,728,-840,200,1,7,11
7.01E+02,-8294,2343,-417,1083,-736,354,1,7,11
6.93E+02,-8251,2390,-437,1135,-1102,275,1,7,11
6.85E+02,-8201,2421,-448,1139,-1145,-21,1,7,11
6.80E+02,-7928,2197,-437,1118,-1132,-37,1,7,11
6.78E+02,-7887,2237,-429,1078,-1088,-8,1,7,11
6.78E+02,-7841,2275,-405,759,-753,302,1,7,11
6.75E+02,-8052,2566,-389,645,-647,362,1,7,11
6.68E+02,-8018,2585,-622,498,-781,147,1,7,11
6.62E+02,-7976,2613,-610,585,-639,142,1,7,11
6.59E+02,-7985,2646,-582,147,-223,349,1,7,11
6.59E+02,-8007,2659,-550,-50,-339,271,1,7,11
6.58E+02,-8009,2643,-537,-272,26,-115,1,7,11
6.54E+02,-8034,2631,-529,-199,-119,-282,1,7,11
6.50E+02,-7816,2616,-523,-600,-17,-190,1,7,11
6.50E+02,-7832,2596,-516,-470,319,-573,1,7,11
6.55E+02,-7842,2574,-513,-843,139,-405,1,7,11
6.60E+02,-7824,2271,-518,-702,206,-453,1,7,11
6.65E+02,-7812,2234,-530,-1038,535,-485,1,7,11
6.68E+02,-7825,2227,-552,-1074,610,-505,1,7,11
6.73E+02,-7831,2237,-574,-1105,409,-487,1,7,11
6.79E+02,-8062,2237,-586,-1137,456,-439,1,7,11
6.90E+02,-8038,2239,-583,-898,510,-630,1,7,11
7.06E+02,-8051,2232,-571,-926,806,-549,1,7,11
7.25E+02,-8062,2211,-565,-962,809,-201,1,7,11
7.41E+02,-8062,2222,-569,-993,801,-129,1,7,11
7.47E+02,-7819,2218,-552,-1322,799,-311,1,7,11
7.41E+02,-8059,2230,-557,-1394,790,-287,1,7,11
7.31E+02,-8038,2232,-570,-1229,773,-293,1,7,11
7.21E+02,-8023,2254,-574,-1570,775,-334,1,7,11
7.14E+02,-8046,2268,-560,-1436,803,-384,1,7,11
7.06E+02,-7826,2265,-540,-1874,829,-136,1,7,11
6.97E+02,-7853,2267,-556,-1699,824,-381,1,7,11
6.86E+02,-7847,2245,-571,-1784,801,-349,1,7,11
6.72E+02,-7825,2177,-557,-2138,787,-296,1,7,11
6.56E+02,-7837,2351,-254,-1938,505,-269,1,7,11
6.46E+02,-7849,2035,-203,-1931,464,-261,1,7,11
6.46E+02,-7865,2010,-178,-2108,412,-259,1,7,11
6.54E+02,-7875,2015,-154,-1737,617,9,1,7,11
6.59E+02,-7859,2020,-148,-1859,558,34,1,7,11
6.50E+02,-7852,2337,-162,-1444,517,55,1,7,11
6.36E+02,-7840,2402,-154,-1591,228,98,1,7,11
6.29E+02,-7842,2240,-152,-1261,191,127,1,7,11
6.35E+02,-7816,2561,-149,-1249,383,-117,1,7,11
6.39E+02,-8005,2609,-161,-1254,323,115,1,7,11
6.32E+02,-7966,2657,-145,-1278,308,79,1,7,11
6.18E+02,-7938,2436,-134,-1563,308,48,1,7,11
6.14E+02,-7938,2457,-370,-1626,325,29,1,7,11
6.26E+02,-7943,2455,-339,-1431,354,26,1,7,11
6.46E+02,-7946,2466,-308,-1464,382,18,1,7,11
6.64E+02,-7960,2461,-286,-1489,160,5,1,7,11
6.77E+02,-7938,2446,-259,-1492,181,-265,1,7,11
6.85E+02,-7679,2672,23,-1465,222,-307,1,7,11
6.89E+02,-7952,2669,39,-1654,519,-362,1,7,11
6.89E+02,-7990,2662,56,-1581,545,-163,1,7,11
6.89E+02,-8036,2657,68,-1243,544,-212,1,7,11
6.90E+02,-7832,2650,76,-1162,518,-256,1,7,11
6.90E+02,-7860,2654,75,-1344,204,-549,1,7,11
6.89E+02,-7863,2645,66,-1292,139,-575,1,7,11
6.86E+02,-7859,2603,77,-1008,343,-589,1,7,11
6.79E+02,-7870,2585,95,-979,301,-618,1,7,11
6.70E+02,-7872,2295,117,-965,267,-385,1,7,11
6.57E+02,-7879,2268,-118,-946,-8,-397,1,7,11
6.43E+02,-7886,2258,-86,-931,-20,-635,1,7,11
6.31E+02,-7910,2241,-59,-932,-11,-574,1,7,11
6.26E+02,-8196,2243,-30,-914,258,-233,1,7,11
6.35E+02,-8207,2254,-11,-1152,263,-132,1,7,11
6.51E+02,-8219,2246,259,-1129,269,-294,1,7,11
6.60E+02,-8212,2261,265,-1088,273,33,1,7,11
6.52E+02,-8216,2275,269,-1033,286,76,1,7,11
6.35E+02,-8218,2571,272,-722,304,104,1,7,11
6.22E+02,-8206,2572,285,-707,326,-108,1,7,11
6.18E+02,-8227,2592,294,-683,342,-81,1,7,11
6.19E+02,-8232,2601,295,-666,344,-47,1,7,11
6.20E+02,-8225,2612,293,-650,347,-34,1,7,11
6.19E+02,-8216,2609,298,-896,350,-29,1,7,11
6.13E+02,-8216,2604,300,-888,354,-38,1,7,11
6.04E+02,-8217,2606,317,-880,351,-48,1,7,11
5.97E+02,-8199,2605,307,-879,339,-41,1,7,11
5.93E+02,-7931,2622,293,-875,335,-29,1,7,11
5.88E+02,-7894,2613,298,-889,340,260,1,7,11
5.79E+02,-7871,2632,288,-889,347,288,1,7,11
5.69E+02,-7848,2617,285,-643,360,350,1,7,11
5.67E+02,-7845,2631,282,-886,354,362,1,7,11
5.70E+02,-7853,2661,261,-867,336,368,1,7,11
5.74E+02,-7844,2448,-11,-841,313,383,1,7,11
5.74E+02,-7849,2494,-29,-818,292,153,1,7,11
5.78E+02,-7832,2529,-42,-798,261,190,1,7,11
5.92E+02,-7814,2548,-49,-787,-24,234,1,7,11
6.07E+02,-8059,2817,-58,-775,-56,246,1,7,11
6.10E+02,-8058,2855,-61,-497,-90,234,1,7,11
6.03E+02,-8062,2892,-71,-489,-121,213,1,7,11
6.02E+02,-8056,2931,-67,-487,107,201,1,7,11
6.16E+02,-8043,2703,-64,-487,83,194,1,7,11
6.35E+02,-8024,2733,-80,-496,64,192,1,7,11
6.45E+02,-8017,2735,-76,-772,56,188,1,7,11
6.43E+02,-8010,2740,-71,-791,47,175,1,7,11
6.36E+02,-8011,2739,-58,-821,43,145,1,7,11
6.31E+02,-8007,2742,-51,-847,37,351,1,7,11
6.30E+02,-8020,2758,-24,-876,39,296,1,7,11
6.36E+02,-8038,2761,-11,-651,46,263,1,7,11
6.49E+02,-8043,2751,260,-664,45,-15,1,7,11
6.65E+02,-8030,2731,259,-668,57,-17,1,7,11
6.78E+02,-8029,2733,257,-660,80,-22,1,7,11
6.86E+02,-8015,2734,256,-666,105,-10,1,7,11
6.89E+02,-8001,2713,266,-671,-122,264,1,7,11
6.88E+02,-7995,2696,271,-657,-92,277,1,7,11
6.90E+02,-7987,2698,264,-883,-77,297,1,7,11
7.03E+02,-7962,2698,260,-869,-65,325,1,7,11
7.28E+02,-7668,2693,-9,-852,-51,351,1,7,11
7.53E+02,-7663,2693,-19,-842,-28,355,1,7,11
7.60E+02,-7651,2688,-18,-830,-5,360,1,7,11
7.42E+02,-7653,2696,-39,-807,265,356,1,7,11
7.12E+02,-7651,2717,-73,-782,281,353,1,7,11
6.83E+02,-7668,2732,-98,-785,308,345,1,7,11
6.67E+02,-7942,2748,-112,-804,321,336,1,7,11
6.66E+02,-7949,2746,-111,-825,325,330,1,7,11
6.82E+02,-7970,2755,-111,-823,330,328,1,7,11
7.09E+02,-7989,2765,-124,-802,325,344,1,7,11
7.33E+02,-8027,2771,-122,-769,322,379,1,7,11
7.42E+02,-8054,2762,-116,-471,307,166,1,7,11
7.40E+02,-7819,2763,-114,-406,271,189,1,7,11
7.36E+02,-8041,2750,-103,-605,-43,208,1,7,11
7.37E+02,-8036,2751,-83,-551,-108,199,1,7,11
7.47E+02,-8029,2780,-80,-239,62,161,1,7,11
7.62E+02,-8005,3090,-89,-197,-287,135,1,7,11
7.82E+02,-7956,3154,-97,-185,-364,134,1,7,11
8.04E+02,-7663,2946,-103,-200,-153,148,1,7,11
8.26E+02,-7623,2988,-85,-243,-165,176,1,7,11
8.43E+02,-7590,2983,-68,-567,-162,202,1,7,11
8.54E+02,-7592,2994,-44,-629,-148,186,1,7,11
8.56E+02,-7609,3005,-14,-418,-142,152,1,7,11
8.47E+02,-7615,3022,267,-453,-149,364,1,7,11
8.28E+02,-7615,3030,273,-464,-146,314,1,7,11
8.06E+02,-7606,3018,280,-481,-134,291,1,7,11
7.91E+02,-7633,3006,316,-468,-368,-34,1,7,11
7.91E+02,-7660,2999,339,-417,-348,-74,1,7,11
7.99E+02,-7656,2971,352,-391,-364,-107,1,7,11
8.07E+02,-7662,3196,129,-606,-363,102,1,7,11
8.06E+02,-7658,3165,158,-566,-371,54,1,7,11
7.92E+02,-7642,3144,172,-247,-371,5,1,7,11
7.65E+02,-7623,3135,177,-164,-360,-298,1,7,11
7.28E+02,-7616,3140,188,-319,-338,-325,1,7,11
6.88E+02,-7601,3136,193,27,-309,-347,1,7,11
6.57E+02,-7590,3143,178,104,-283,-380,1,7,11
6.44E+02,-7599,3171,164,-95,6,-187,1,7,11
6.41E+02,-7597,3187,152,-69,26,-253,1,7,11
6.39E+02,-7602,2951,377,-60,28,-601,1,7,11
6.37E+02,-7573,3186,333,-98,23,-463,1,7,11
6.42E+02,-7792,3154,284,121,45,-880,1,7,11
6.63E+02,-7782,3121,-8,88,113,-1066,1,7,11
6.93E+02,-7737,2807,-48,68,-52,-987,1,7,11
7.19E+02,-7759,2742,-21,79,367,-1168,1,7,11
7.35E+02,-7610,2689,317,122,544,-1557,1,7,11
7.40E+02,-7841,2888,215,-65,636,-1601,1,7,11
7.41E+02,-8231,2854,528,356,551,-1547,1,7,11
7.42E+02,-8066,2539,555,217,129,-1202,1,7,11
7.46E+02,-8114,2495,532,599,-91,-1365,1,7,11
7.59E+02,-8119,2466,210,451,-318,-1006,1,7,11
7.83E+02,-8085,2441,134,786,-247,-1146,1,7,11
8.10E+02,-8066,2673,334,843,-632,-1031,1,7,11
8.29E+02,-8291,2642,307,874,-474,-655,1,7,11
8.33E+02,-8264,2600,312,875,-808,-792,1,7,11
8.22E+02,-8223,2569,321,840,-879,-443,1,7,11
8.07E+02,-7922,2580,314,817,-691,-389,1,7,11
7.97E+02,-7851,2583,322,511,-717,-603,1,7,11
7.95E+02,-7837,2604,353,466,-697,-582,1,7,11
7.96E+02,-7823,2645,374,417,-669,-534,1,7,11
7.95E+02,-7819,2667,149,590,-879,-202,1,7,11
7.89E+02,-7814,2674,178,246,-808,-359,1,7,11
7.80E+02,-7827,2673,217,173,-476,-269,1,7,11
7.70E+02,-7816,2683,226,361,-411,76,1,7,11
7.58E+02,-8035,2686,227,293,-592,-100,1,7,11
7.44E+02,-8012,2445,221,-16,-221,-38,1,7,11
7.24E+02,-8012,2465,236,-80,-351,273,1,7,11
6.99E+02,-8039,2486,254,117,25,292,1,7,11
6.76E+02,-7809,2517,524,58,108,292,1,7,11
6.59E+02,-7841,2546,532,-259,-93,271,1,7,11
6.52E+02,-7864,2847,542,-311,-66,-25,1,7,11
6.57E+02,-7864,2880,535,-133,-60,-61,1,7,11
6.71E+02,-7858,2884,526,-228,-53,-101,1,7,11
6.89E+02,-7857,2878,521,-586,-52,99,1,7,11
7.04E+02,-7856,2881,520,-419,-56,33,1,7,11
7.10E+02,-7852,2862,523,-783,-59,-279,1,7,11
7.10E+02,-7852,2830,541,-878,-58,-327,1,7,11
7.08E+02,-7854,2524,559,-726,-59,-369,1,7,11
7.05E+02,-7853,2452,584,-1086,-61,-156,1,7,11
7.02E+02,-7844,2641,607,-897,-62,-216,1,7,11
6.97E+02,-7838,2599,616,-936,-67,-530,1,7,11
6.90E+02,-7833,2570,624,-963,-63,-564,1,7,11
6.84E+02,-7840,2277,631,-977,-54,-567,1,7,11
6.78E+02,-7860,2265,390,-972,-39,-534,1,7,11
6.75E+02,-7876,2254,387,-990,-20,-216,1,7,11
6.75E+02,-7892,2211,397,-1014,259,-154,1,7,11
6.78E+02,-7912,2189,402,-1013,274,-367,1,7,11
6.81E+02,-7919,2183,408,-1005,279,-335,1,7,11
6.78E+02,-7926,2420,421,-997,287,-299,1,7,11
6.69E+02,-8197,2425,411,-971,283,-277,1,7,11
6.56E+02,-8202,2423,423,-953,280,13,1,7,11
6.43E+02,-7936,2407,430,-930,272,47,1,7,11
6.32E+02,-8201,2396,445,-905,262,67,1,7,11
6.26E+02,-8196,2379,452,-1131,-6,89,1,7,11
6.26E+02,-7936,2369,458,-1083,-9,88,1,7,11
6.29E+02,-7923,2370,469,-754,-9,75,1,7,11
6.34E+02,-7907,2378,482,-669,-7,73,1,7,11
6.39E+02,-7900,2375,495,-851,258,79,1,7,11
6.41E+02,-7900,2369,509,-510,266,85,1,7,11
6.38E+02,-7896,2371,774,-403,266,94,1,7,11
6.38E+02,-7884,2378,765,-535,267,107,1,7,11
6.44E+02,-7880,2406,495,-150,266,119,1,7,11
6.55E+02,-7884,2204,481,-279,266,-109,1,7,11
6.60E+02,-7907,2256,468,-128,267,-79,1,7,11
6.53E+02,-7930,2567,463,-49,-11,-57,1,7,11
6.46E+02,-7928,2618,456,258,-53,-40,1,7,11
6.54E+02,-7905,2668,430,283,-101,-29,1,7,11
6.79E+02,-7835,2663,437,276,114,-39,1,7,11
7.06E+02,-8005,2434,403,292,96,-82,1,7,11
7.18E+02,-7947,2451,394,284,122,126,1,7,11
7.16E+02,-7680,2468,396,286,-80,82,1,7,11
7.07E+02,-7968,2482,423,285,-28,51,1,7,11
7.02E+02,-7994,2477,434,290,257,20,1,7,11
6.99E+02,-8021,2462,431,298,277,-280,1,7,11
6.89E+02,-7818,2455,444,312,290,-349,1,7,11
6.68E+02,-7869,2463,446,327,278,-170,1,7,11
6.44E+02,-7925,2477,437,338,-3,-238,1,7,11
6.33E+02,-8220,2465,432,324,-40,-554,1,7,11
6.36E+02,-8267,2444,444,311,-81,-618,1,7,11
6.41E+02,-8074,2678,460,305,114,-427,1,7,11
6.39E+02,-8128,2643,498,282,21,-497,1,7,11
6.31E+02,-8468,2594,815,-3,-352,-843,1,7,11
6.20E+02,-8547,2574,859,-10,-545,-689,1,7,11
6.11E+02,-8335,2578,875,-38,-781,-1027,1,7,11
6.06E+02,-8548,2590,835,-74,-1029,-1073,1,7,11
6.06E+02,-8476,2593,806,95,-950,-1076,1,7,11
6.10E+02,-8152,2303,818,-281,-1300,-1030,1,7,11
6.16E+02,-8087,2214,877,-134,-1334,-699,1,7,11
6.21E+02,-8290,2355,720,-180,-1338,-888,1,7,11
6.28E+02,-8229,1952,1098,-148,-1333,-827,1,7,11
6.36E+02,-7900,2129,904,-303,-1014,-498,1,7,11
6.45E+02,-7843,2074,953,-76,-937,-446,1,7,11
6.54E+02,-8054,1782,983,369,-1081,-406,1,7,11
6.61E+02,-8031,1746,1007,560,-691,-625,1,7,11
6.61E+02,-8041,1725,1020,498,-800,-607,1,7,11
6.49E+02,-7829,1714,1292,684,-400,-608,1,7,11
6.33E+02,-7881,1722,1017,1123,-544,-619,1,7,11
6.27E+02,-7914,1750,972,1011,-199,-629,1,7,11
6.36E+02,-8193,1774,934,1349,-372,-637,1,7,11
6.51E+02,-8229,1785,900,1374,-296,-386,1,7,11
6.59E+02,-8272,1787,1136,1353,24,-390,1,7,11
6.61E+02,-8308,1789,1106,1312,57,-390,1,7,11
6.59E+02,-8072,1787,1087,988,73,-635,1,7,11
6.60E+02,-8076,1787,1059,898,75,-613,1,7,11
6.60E+02,-8072,1768,1044,1056,74,-570,1,7,11
6.59E+02,-8316,1732,767,709,73,-525,1,7,11
6.55E+02,-8296,1702,749,889,74,-224,1,7,11
6.55E+02,-8286,1669,740,823,83,-179,1,7,11
6.61E+02,-8290,1898,736,777,93,-140,1,7,11
6.71E+02,-8306,1886,746,494,92,-351,1,7,11
6.73E+02,-8067,1876,758,481,77,-295,1,7,11
6.63E+02,-8318,1875,757,492,38,28,1,7,11
6.50E+02,-8285,1871,744,769,-261,99,1,7,11
6.49E+02,-8260,1867,731,800,-289,-103,1,7,11
6.61E+02,-8250,1882,716,841,-304,-66,1,7,11
6.74E+02,-8245,1909,701,882,-313,-39,1,7,11
6.77E+02,-8251,1686,689,664,-319,-24,1,7,11
6.73E+02,-8245,1733,655,698,-336,-12,1,7,11
6.74E+02,-8239,1780,870,704,-347,263,1,7,11
6.86E+02,-8214,2067,848,677,-347,278,1,7,11
7.00E+02,-8200,2080,834,888,-334,280,1,7,11
7.05E+02,-8210,2094,828,836,-318,274,1,7,11
6.93E+02,-8220,2107,819,781,-315,262,1,7,11
6.77E+02,-8237,2119,819,479,-316,257,1,7,11
6.69E+02,-8245,2119,823,430,-321,274,1,7,11
6.69E+02,-8254,2109,831,397,-331,304,1,7,11
6.64E+02,-8229,2094,834,623,-345,350,1,7,11
6.46E+02,-8223,2070,852,611,-345,143,1,7,11
6.24E+02,-8213,2059,865,624,-354,201,1,7,11
6.10E+02,-8213,2061,881,395,-370,520,1,7,11
6.08E+02,-8212,2063,889,441,-384,592,1,7,11
6.05E+02,-8235,2073,662,772,-143,405,1,7,11
5.93E+02,-8246,2101,676,874,-174,477,1,7,11
5.79E+02,-8232,2124,678,730,-215,795,1,7,11
5.71E+02,-8216,2154,680,1102,-248,824,1,7,11
5.67E+02,-8197,1945,662,976,-545,831,1,7,11
5.57E+02,-7903,1997,877,1334,-584,825,1,7,11
5.49E+02,-7874,2037,842,1158,-590,806,1,7,11
5.74E+02,-7878,2353,824,1230,-576,786,1,7,11
6.43E+02,-7880,2395,808,1261,-560,774,1,7,11
7.26E+02,-7888,2185,806,1545,-559,498,1,7,11
7.84E+02,-7891,2234,788,1557,-564,476,1,7,11
7.92E+02,-7886,2268,782,1552,-565,459,1,7,11
7.73E+02,-7891,2561,772,1279,-571,430,1,7,11
7.54E+02,-7875,2566,507,1245,-589,399,1,7,11
7.57E+02,-7872,2573,508,1218,-598,602,1,7,11
7.73E+02,-7869,2581,510,1196,-611,548,1,7,11
7.85E+02,-7868,2568,772,1173,-619,239,1,7,11
7.80E+02,-7870,2303,779,1169,-618,190,1,7,11
7.65E+02,-7869,2283,787,1177,-619,150,1,7,11
7.51E+02,-7889,2258,776,1193,-609,368,1,7,11
7.50E+02,-7910,2254,503,1230,-583,333,1,7,11
7.56E+02,-8202,2264,468,1251,-537,333,1,7,11
7.59E+02,-8233,2573,437,1261,-221,359,1,7,11
7.53E+02,-8287,2601,441,1163,-165,162,1,7,11
7.41E+02,-8316,2569,437,1287,-172,239,1,7,11
7.33E+02,-8273,2263,437,951,-223,249,1,7,11
7.35E+02,-8294,2285,426,953,-254,195,1,7,11
7.43E+02,-8255,2654,604,1012,-559,172,1,7,11
7.49E+02,-8260,2468,559,996,-535,194,1,7,11
7.48E+02,-8235,2501,550,985,-255,242,1,7,11
7.44E+02,-8236,2530,535,985,-217,514,1,7,11
7.42E+02,-7869,2542,254,1004,-189,245,1,7,11
7.47E+02,-7856,2854,240,1020,-348,205,1,7,11
7.57E+02,-7814,2900,218,1008,-268,176,1,7,11
7.63E+02,-8030,2932,202,967,82,132,1,7,11
7.63E+02,-8023,2699,178,906,-72,336,1,7,11
7.58E+02,-8028,2725,155,1092,275,283,1,7,11
7.53E+02,-8019,2737,141,745,336,-25,1,7,11
7.52E+02,-8038,2713,149,889,138,-79,1,7,11
7.53E+02,-8064,2933,172,778,178,-119,1,7,11
7.55E+02,-7818,2861,200,407,185,102,1,7,11
7.54E+02,-7822,2508,231,569,182,48,1,7,11
7.50E+02,-7838,2685,514,536,173,-277,1,7,11
7.44E+02,-7854,2616,540,561,148,-353,1,7,11
7.35E+02,-7843,2571,542,404,367,-164,1,7,11
7.21E+02,-7814,2303,521,799,353,-243,1,7,11
7.02E+02,-8050,2570,512,646,372,-544,1,7,11
6.77E+02,-7840,2589,520,693,160,-554,1,7,11
6.52E+02,-7893,2620,518,682,169,-242,1,7,11
6.34E+02,-7909,2641,255,870,142,-136,1,7,11
6.25E+02,-7857,2590,246,429,347,-124,1,7,11
6.22E+02,-7847,2296,231,385,318,-33,1,7,11
6.23E+02,-7839,2300,216,399,315,257,1,7,11
6.28E+02,-7871,2573,206,449,319,274,1,7,11
6.36E+02,-7875,2598,179,489,325,292,1,7,11
6.48E+02,-7874,2620,146,788,295,295,1,7,11
6.65E+02,-7898,2674,362,836,260,272,1,7,11
6.87E+02,-7892,2660,345,846,-46,-4,1,7,11
7.11E+02,-7867,2633,321,844,-94,-96,1,7,11
7.32E+02,-7882,2652,311,872,-124,6,1,7,11
7.48E+02,-7866,2467,274,659,91,-140,1,7,11
7.53E+02,-7857,2523,-19,859,69,-514,1,7,11
7.45E+02,-7865,2551,-44,747,62,-609,1,7,11
7.22E+02,-7862,2823,-79,612,50,-459,1,7,11
6.98E+02,-7843,2861,-128,544,32,-825,1,7,11
6.94E+02,-8054,2858,79,365,30,-683,1,7,11
7.17E+02,-8019,2856,28,-90,67,-1042,1,7,11
7.49E+02,-7976,2534,7,-315,-102,-1128,1,7,11
7.65E+02,-7679,2452,11,-557,266,-969,1,7,11
7.54E+02,-7651,2610,11,-882,131,-1342,1,7,11
7.30E+02,-7969,2575,28,-1025,512,-1220,1,7,11
7.13E+02,-8030,2578,29,-1142,599,-1269,1,7,11
7.16E+02,-7830,2567,32,-993,403,-1255,1,7,11
7.28E+02,-7874,2301,15,-1342,457,-1175,1,7,11
7.35E+02,-7892,2255,-259,-1198,770,-1303,1,7,11
7.31E+02,-7887,2232,-327,-1550,820,-907,1,7,11
7.19E+02,-7870,2228,-132,-1465,895,-1028,1,7,11
7.06E+02,-7904,2202,-144,-1716,736,-642,1,7,11
6.93E+02,-8244,2202,-132,-1999,1044,-784,1,7,11
6.80E+02,-8087,2196,-339,-2581,1025,-441,1,7,11
6.66E+02,-8174,2215,-292,-2902,660,-630,1,7,11
6.56E+02,-8467,2196,14,-2960,488,-571,1,7,11
6.57E+02,-8463,2411,50,-3231,563,-521,1,7,11
6.70E+02,-8454,2346,106,-3711,163,-218,1,7,11
6.85E+02,-8164,2009,-93,-3882,293,-173,1,7,11
6.88E+02,-8122,2169,-14,-3724,-51,-142,1,7,11
6.76E+02,-8106,2085,330,-3745,-90,-367,1,7,11
6.62E+02,-8106,1741,188,-3933,-118,-325,1,7,11
6.55E+02,-8110,1675,558,-3507,115,-279,1,7,11
6.57E+02,-8087,1889,421,-3254,89,40,1,7,11
6.59E+02,-8314,1874,445,-3192,82,111,1,7,11
6.58E+02,-8280,1855,505,-2846,96,-74,1,7,11
6.56E+02,-8243,1834,787,-2221,-128,-17,1,7,11
6.55E+02,-8213,1814,824,-2088,-76,261,1,7,11
6.54E+02,-8228,1804,854,-1430,23,-26,1,7,11
6.50E+02,-8246,1822,875,-1054,325,-56,1,7,11
6.40E+02,-8254,1841,888,-631,350,-85,1,7,11
6.29E+02,-8232,1886,863,41,380,-105,1,7,11
6.30E+02,-8227,1867,880,142,168,-105,1,7,11
6.44E+02,-7935,1445,685,471,208,-106,1,7,11
6.62E+02,-7836,1228,715,983,237,98,1,7,11
6.73E+02,-7978,1384,895,1741,585,-299,1,7,11
6.76E+02,-7950,1396,786,2491,511,-215,1,7,11
6.75E+02,-7826,1235,413,3375,689,-427,1,7,11
6.74E+02,-8275,1471,246,3579,740,-884,1,7,11
6.78E+02,-8160,2049,288,3748,649,-725,1,7,11
6.93E+02,-8503,2041,105,3569,485,-697,1,7,11
7.18E+02,-8551,2214,-275,3435,545,-825,1,7,11
7.40E+02,-8517,2570,-365,2934,354,-611,1,7,11
7.44E+02,-8469,2610,-165,2390,-32,-345,1,7,11
7.26E+02,-8165,2594,-196,1839,-99,-50,1,7,11
7.03E+02,-8116,2272,-213,1317,-124,232,1,7,11
6.91E+02,-8294,2394,-212,851,-114,452,1,7,11
6.98E+02,-8221,2019,-212,245,-58,810,1,7,11
7.15E+02,-7934,2174,-188,-18,278,815,1,7,11
7.34E+02,-8210,2142,-191,27,132,449,1,7,11
7.50E+02,-8229,2149,-216,-310,181,620,1,7,11
7.57E+02,-8208,2171,-517,-338,207,532,1,7,11
7.51E+02,-8196,1933,-575,-349,238,190,1,7,11
7.36E+02,-8214,1944,-620,-369,522,382,1,7,11
7.18E+02,-8253,1930,-388,-129,524,343,1,7,11
7.06E+02,-8277,1920,-399,-367,218,299,1,7,11
7.01E+02,-8296,2165,-409,-335,131,-1,1,7,11
6.96E+02,-8310,2143,-392,-309,282,-20,1,7,11
6.88E+02,-8313,2146,-387,3,-94,-19,1,7,11
6.75E+02,-8313,2153,-640,56,47,262,1,7,11
6.59E+02,-8307,2172,-634,106,-309,311,1,7,11
6.40E+02,-8302,1954,-625,-97,-380,380,1,7,11
6.26E+02,-8317,2028,-616,-57,-182,219,1,7,11
6.20E+02,-8281,2334,-590,-53,-228,617,1,7,11
6.19E+02,-8252,2371,-553,-67,-253,491,1,7,11
6.12E+02,-8248,2382,-236,-98,-253,857,1,7,11
5.97E+02,-8211,2385,-168,-126,-514,686,1,7,11
5.81E+02,-7863,2378,-365,-120,-516,699,1,7,11
5.73E+02,-7832,2428,-336,-68,-215,640,1,7,11
5.72E+02,-8047,2228,-342,-55,-139,838,1,7,11
5.75E+02,-8011,2256,-355,-90,32,448,1,7,11
5.84E+02,-7810,2239,-321,103,-111,571,1,7,11
6.02E+02,-7816,2269,-337,109,-80,171,1,7,11
6.30E+02,-7843,2301,-367,113,-55,284,1,7,11
6.59E+02,-7919,2567,-358,103,-27,-99,1,7,11
6.81E+02,-8246,2582,-360,101,-46,58,1,7,11
6.96E+02,-8297,2579,-352,87,-78,-258,1,7,11
7.06E+02,-8273,2572,-372,84,-127,-270,1,7,11
7.15E+02,-8234,2300,-137,71,120,-281,1,7,11
7.23E+02,-7926,2289,-168,48,-117,-281,1,7,11
7.31E+02,-7884,2291,-188,37,-72,-285,1,7,11
7.39E+02,-7838,2290,-192,12,-23,-287,1,7,11
7.48E+02,-7831,2293,-165,-274,277,-288,1,7,11
7.56E+02,-7841,2570,-146,-296,290,7,1,7,11
7.63E+02,-7842,2584,-146,-318,268,47,1,7,11
7.69E+02,-7817,2576,-145,-352,-33,74,1,7,11
7.74E+02,-8064,2586,-148,-355,-74,73,1,7,11
7.76E+02,-8062,2596,-136,-365,-105,67,1,7,11
7.75E+02,-8050,2594,-382,-365,117,51,1,7,11
7.75E+02,-8056,2600,-381,-369,101,26,1,7,11
7.77E+02,-8043,2582,-370,-138,95,28,1,7,11
7.78E+02,-8046,2301,-343,-158,119,17,1,7,11
7.72E+02,-8050,2280,-334,-173,-112,0,1,7,11
7.54E+02,-8052,2261,-318,-187,-90,-283,1,7,11
7.24E+02,-8057,2263,-311,-201,-81,-297,1,7,11
6.96E+02,-8033,2258,-331,-231,-72,-297,1,7,11
6.81E+02,-8054,2268,-338,-517,-43,-293,1,7,11
6.76E+02,-7821,2279,-330,-572,-21,12,1,7,11
6.70E+02,-7827,2271,-318,-623,-19,75,1,7,11
6.57E+02,-7833,2254,-302,-418,-12,124,1,7,11
6.42E+02,-7864,2248,-283,-451,-17,-105,1,7,11
6.33E+02,-7855,2250,-271,-475,-54,-77,1,7,11
6.34E+02,-7849,2263,-267,-495,-81,-59,1,7,11
6.38E+02,-7842,2288,-271,-782,-103,-32,1,7,11
6.42E+02,-7832,2563,-264,-818,-120,263,1,7,11
6.46E+02,-8047,2606,22,-686,-127,350,1,7,11
6.52E+02,-8034,2607,29,-728,-122,369,1,7,11
6.59E+02,-8027,2605,50,-764,-101,131,1,7,11
6.61E+02,-8007,2624,55,-1043,-81,158,1,7,11
6.56E+02,-8001,2631,80,-1063,-43,199,1,7,11
6.47E+02,-7996,2645,104,-1076,-20,246,1,7,11
6.46E+02,-7997,2661,115,-1053,-17,531,1,7,11
6.59E+02,-8021,2463,124,-746,-30,541,1,7,11
6.72E+02,-8038,2521,-127,-706,-59,554,1,7,11
6.72E+02,-8049,2822,-108,-674,-103,562,1,7,11
6.57E+02,-8036,2851,-93,-645,102,558,1,7,11
6.44E+02,-8015,2860,-73,-864,62,535,1,7,11
6.46E+02,-7985,2879,-65,-822,38,243,1,7,11
6.58E+02,-7956,2885,-50,-793,32,196,1,7,11
6.63E+02,-7676,2923,-37,-500,49,155,1,7,11
6.51E+02,-7645,2943,-37,-490,76,132,1,7,11
6.37E+02,-7642,2721,-28,-479,120,366,1,7,11
6.38E+02,-7634,2724,-17,-495,-111,355,1,7,11
6.54E+02,-7665,2767,265,-500,-94,316,1,7,11
6.71E+02,-7967,2785,282,-771,-96,268,1,7,11
6.80E+02,-7968,2783,298,-808,-123,-2,1,7,11
6.84E+02,-7979,2758,326,-820,108,-26,1,7,11
6.92E+02,-7982,2748,355,-816,96,-43,1,7,11
7.07E+02,-7973,2724,362,-786,89,-57,1,7,11
7.23E+02,-7940,2723,373,-494,100,-74,1,7,11
7.33E+02,-7665,2751,371,-443,122,-101,1,7,11
7.32E+02,-7641,2752,369,-418,-110,126,1,7,11
7.20E+02,-7642,2762,364,-401,-77,82,1,7,11
6.95E+02,-7649,2756,365,-393,-30,52,1,7,11
6.66E+02,-7659,2769,350,-634,275,28,1,7,11
6.46E+02,-7670,2774,337,-637,318,28,1,7,11
6.47E+02,-7684,2776,325,-409,378,56,1,7,11
6.59E+02,-7962,2775,318,-443,186,107,1,7,11
6.63E+02,-7965,2771,310,-475,230,122,1,7,11
6.50E+02,-7957,2772,299,-511,513,-110,1,7,11
6.34E+02,-7953,2760,291,-816,539,-109,1,7,11
6.33E+02,-7951,2787,274,-840,552,-122,1,7,11
6.46E+02,-7678,2812,-2,-869,561,116,1,7,11
6.61E+02,-7946,3098,-20,-642,575,81,1,7,11
6.67E+02,-7974,3112,-27,-687,583,67,1,7,11
6.69E+02,-8007,3138,-29,-722,579,58,1,7,11
6.73E+02,-8002,3134,-47,-754,541,57,1,7,11
6.82E+02,-7995,3130,-62,-1038,243,39,1,7,11
6.89E+02,-8001,3135,-55,-1044,203,3,1,7,11
6.90E+02,-7996,3133,-52,-1047,156,-285,1,7,11
6.84E+02,-7995,3140,-40,-1039,363,-332,1,7,11
6.76E+02,-8005,3142,-24,-1030,319,-340,1,7,11
6.68E+02,-8007,3147,-9,-756,277,-353,1,7,11
6.63E+02,-8004,3147,-8,-735,-20,-364,1,7,11
6.60E+02,-8010,3134,260,-728,-35,-376,1,7,11
6.58E+02,-8032,3129,277,-711,-35,-158,1,7,11
6.53E+02,-8047,3149,281,-712,-43,-190,1,7,11
6.48E+02,-8049,3142,286,-745,-57,-208,1,7,11
6.48E+02,-8052,3111,299,-1037,-59,-236,1,7,11
6.56E+02,-8062,3083,323,-1068,-66,-521,1,7,11
6.66E+02,-8060,2800,327,-1086,-84,-537,1,7,11
6.73E+02,-8059,2751,353,-1104,-84,-536,1,7,11
6.71E+02,-8052,2696,376,-1083,-81,-542,1,7,11
6.64E+02,-8046,2907,132,-1044,-80,-552,1,7,11
6.50E+02,-8044,2876,143,-740,-79,-563,1,7,11
6.33E+02,-8045,2852,147,-693,-71,-562,1,7,11
6.14E+02,-8044,2834,148,-892,-61,-541,1,7,11
6.02E+02,-8046,2834,154,-836,-46,-245,1,7,11
6.00E+02,-8051,2826,160,-795,-31,-173,1,7,11
6.09E+02,-8063,2543,181,-772,-27,-342,1,7,11
6.22E+02,-8057,2526,194,-486,-45,4,1,7,11
6.34E+02,-8040,2511,200,-451,-56,76,1,7,11
6.42E+02,-8043,2513,197,-406,-68,-126,1,7,11
6.45E+02,-8043,2515,202,-619,-93,-89,1,7,11
6.46E+02,-8050,2553,185,-568,-116,-75,1,7,11
6.47E+02,-8058,2832,176,-541,113,-67,1,7,11
6.49E+02,-7815,2874,160,-248,95,-84,1,7,11
6.51E+02,-7839,2905,147,-221,67,-109,1,7,11
6.54E+02,-7832,2915,141,-217,37,-128,1,7,11
6.57E+02,-7837,2924,143,-225,16,102,1,7,11
6.60E+02,-7831,2935,147,-237,7,73,1,7,11
6.64E+02,-8063,2929,160,-517,-260,64,1,7,11
6.67E+02,-8024,2907,162,-541,-272,82,1,7,11
6.71E+02,-7985,2908,173,-541,-265,102,1,7,11
6.73E+02,-7960,2900,179,-534,18,-128,1,7,11
6.76E+02,-7952,2899,192,-526,49,-106,1,7,11
6.77E+02,-7961,2910,192,-239,87,-81,1,7,11
6.75E+02,-7975,2911,197,-217,121,-65,1,7,11
6.70E+02,-7986,2920,196,-175,-107,-62,1,7,11
6.60E+02,-7975,2933,178,-139,-86,-58,1,7,11
6.50E+02,-7974,2936,165,-351,-62,-65,1,7,11
6.42E+02,-7962,2689,161,-306,-50,-79,1,7,11
6.38E+02,-7982,2698,143,-265,-24,-106,1,7,11
6.37E+02,-7990,2705,379,26,-17,-119,1,7,11
6.37E+02,-8001,2700,358,41,-9,115,1,7,11
6.39E+02,-8023,2693,353,51,-6,79,1,7,11
6.38E+02,-8064,2689,350,63,-19,37,1,7,11
6.35E+02,-7824,2940,339,79,-58,10,1,7,11
6.26E+02,-7823,2941,320,99,-104,-273,1,7,11
6.21E+02,-7822,2937,311,111,106,-295,1,7,11
6.23E+02,-7818,2922,302,119,59,-311,1,7,11
6.34E+02,-7814,2927,298,-119,14,-332,1,7,11
6.51E+02,-8059,2916,302,-101,-287,-348,1,7,11
6.69E+02,-7814,2910,304,-75,-329,-373,1,7,11
6.80E+02,-7818,2908,312,-53,-371,-138,1,7,11
6.83E+02,-7818,2900,325,-38,-156,-153,1,7,11
6.85E+02,-7813,2897,333,-17,-193,-167,1,7,11
6.95E+02,-8049,2899,335,258,-225,-181,1,7,11
7.17E+02,-8044,2899,340,278,-244,-194,1,7,11
7.42E+02,-8038,2905,339,294,-516,-197,1,7,11
7.66E+02,-8043,2910,346,298,-516,-195,1,7,11
7.82E+02,-8050,2915,367,283,-521,-184,1,7,11
7.88E+02,-8049,2896,131,266,-527,-179,1,7,11
7.79E+02,-8050,2889,163,-2,-535,-187,1,7,11
7.59E+02,-8038,2868,181,-23,-544,-200,1,7,11
7.39E+02,-8023,2844,193,-34,-543,-219,1,7,11
7.34E+02,-8025,2820,205,-37,-521,-518,1,7,11
7.43E+02,-8025,2554,221,-30,-241,-548,1,7,11
7.55E+02,-8013,2545,218,-24,-211,-563,1,7,11
7.55E+02,-8013,2543,225,-24,-160,-573,1,7,11
7.39E+02,-8023,2513,236,-44,-367,-569,1,7,11
7.17E+02,-8025,2497,236,-66,-323,-557,1,7,11
7.00E+02,-8027,2471,247,-92,-281,-543,1,7,11
6.92E+02,-8036,2442,247,125,42,-517,1,7,11
6.90E+02,-8039,2675,246,78,87,-243,1,7,11
6.92E+02,-8048,2672,234,51,-114,-219,1,7,11
6.95E+02,-7813,2665,221,17,-56,-191,1,7,11
6.98E+02,-7862,2655,191,-287,281,-138,1,7,11
6.98E+02,-7868,2658,162,-305,299,-363,1,7,11
6.96E+02,-7874,2659,151,-335,325,-339,1,7,11
6.94E+02,-7875,2651,143,-368,345,-309,1,7,11
6.91E+02,-7884,2633,152,-130,353,-283,1,7,11
6.90E+02,-7882,2612,148,-146,347,-259,1,7,11
6.91E+02,-7896,2609,147,-142,341,5,1,7,11
6.95E+02,-7902,2614,147,-139,321,20,1,7,11
7.00E+02,-7905,2608,139,-139,292,29,1,7,11
7.02E+02,-7908,2617,139,-135,264,36,1,7,11
7.03E+02,-7907,2619,152,-134,-24,42,1,7,11
7.08E+02,-7902,2626,158,-383,-56,49,1,7,11
7.20E+02,-7882,2626,160,-377,-87,67,1,7,11
7.35E+02,-7876,2625,159,-375,-105,81,1,7,11
7.50E+02,-7862,2618,158,-363,-120,95,1,7,11
7.59E+02,-7853,2613,171,-342,-123,104,1,7,11
7.61E+02,-7848,2611,170,-316,-120,104,1,7,11
7.53E+02,-7845,2623,172,-287,-119,95,1,7,11
7.38E+02,-7847,2633,176,-264,-116,81,1,7,11
7.19E+02,-7861,2636,181,13,-118,70,1,7,11
7.07E+02,-7887,2630,185,26,-126,62,1,7,11
7.06E+02,-7906,2635,188,55,111,62,1,7,11
7.09E+02,-7910,2627,204,73,77,81,1,7,11
7.08E+02,-7921,2619,196,115,36,108,1,7,11
6.97E+02,-7906,2597,201,-112,-266,-109,1,7,11
6.85E+02,-7874,2580,180,-71,-294,-83,1,7,11
6.82E+02,-7847,2591,142,-23,-308,-67,1,7,11
6.89E+02,-7824,2614,377,263,-294,-57,1,7,11
6.99E+02,-7824,2650,372,281,-261,-53,1,7,11
7.03E+02,-7831,2680,371,293,26,-39,1,7,11
7.02E+02,-7844,2450,376,290,46,-21,1,7,11
7.06E+02,-7868,2476,142,285,57,-6,1,7,11
7.21E+02,-7878,2486,145,280,48,263,1,7,11
7.41E+02,-7863,2494,137,267,25,269,1,7,11
7.52E+02,-7856,2512,140,-10,12,259,1,7,11
7.44E+02,-7848,2524,140,-36,3,-9,1,7,11
7.22E+02,-7834,2538,143,-67,-258,-20,1,7,11
7.01E+02,-7835,2538,155,-95,6,-29,1,7,11
6.91E+02,-7838,2533,164,-114,7,-29,1,7,11
6.90E+02,-7849,2532,184,-127,17,-44,1,7,11
6.92E+02,-7852,2521,206,124,16,-51,1,7,11
6.92E+02,-7849,2520,215,-115,-258,-58,1,7,11
6.88E+02,-7836,2517,213,-99,-277,-65,1,7,11
6.82E+02,-7817,2524,206,-72,-291,-77,1,7,11
6.76E+02,-7811,2535,200,-55,-296,-90,1,7,11
6.74E+02,-7810,2548,202,-46,-301,-95,1,7,11
6.82E+02,-7812,2555,221,-46,-312,-97,1,7,11
6.95E+02,-8062,2538,232,-51,-329,-95,1,7,11
7.07E+02,-8057,2536,233,-42,-350,-90,1,7,11
7.13E+02,-8052,2532,237,-30,-360,-83,1,7,11
7.17E+02,-7819,2539,250,-4,-366,-74,1,7,11
7.25E+02,-7835,2817,516,279,-137,-33,1,7,11
7.43E+02,-7845,2552,532,292,-171,280,1,7,11
7.65E+02,-7820,2558,519,322,-200,333,1,7,11
7.86E+02,-8030,2550,248,333,-213,376,1,7,11
7.99E+02,-7987,2551,236,341,-190,134,1,7,11
8.04E+02,-7957,2820,239,344,-138,381,1,7,11
8.00E+02,-7944,2864,238,347,-325,363,1,7,11
7.87E+02,-7680,2905,240,328,0,359,1,7,11
7.70E+02,-7676,2696,234,299,72,361,1,7,11
7.52E+02,-7676,2730,215,-19,-106,370,1,7,11
7.39E+02,-7952,2773,221,-83,-27,377,1,7,11
7.31E+02,-7975,2799,221,89,283,135,1,7,11
7.24E+02,-7974,2807,212,5,315,143,1,7,11
7.15E+02,-7961,2813,207,-323,336,131,1,7,11
7.03E+02,-7970,3074,203,-382,357,354,1,7,11
6.88E+02,-7967,3074,202,-172,367,319,1,7,11
6.70E+02,-7966,2808,198,-208,370,279,1,7,11
6.55E+02,-7973,3086,207,-197,377,-17,1,7,11
6.50E+02,-7971,2781,227,-237,370,-37,1,7,11
6.59E+02,-7974,2752,232,-201,355,-75,1,7,11
6.77E+02,-7984,2746,234,-164,345,-117,1,7,11
7.01E+02,-8013,2741,240,-381,333,108,1,7,11
7.28E+02,-8029,2744,240,-325,300,91,1,7,11
7.50E+02,-8034,2746,231,-304,278,89,1,7,11
7.62E+02,-7995,2737,225,-293,-5,93,1,7,11
7.63E+02,-7987,2723,228,-285,-8,68,1,7,11
7.57E+02,-7988,2716,232,-261,-9,42,1,7,11
7.45E+02,-7965,2713,225,-259,-10,31,1,7,11
7.32E+02,-7942,2715,218,2,270,22,1,7,11
7.19E+02,-7958,2748,195,22,307,20,1,7,11
7.07E+02,-7981,2751,185,10,334,36,1,7,11
6.97E+02,-8001,2758,169,9,356,44,1,7,11
6.86E+02,-8036,2749,157,2,374,36,1,7,11
6.74E+02,-7831,2744,150,8,374,17,1,7,11
6.57E+02,-7868,2762,135,15,355,6,1,7,11
6.38E+02,-7869,2726,140,-261,321,13,1,7,11
6.20E+02,-7864,2705,142,13,285,0,1,7,11
6.08E+02,-7855,2692,135,40,-12,-261,1,7,11
6.02E+02,-7832,2933,377,78,-59,-270,1,7,11
6.03E+02,-7826,2938,371,121,-87,-273,1,7,11
6.10E+02,-7817,2929,368,-105,-118,0,1,7,11
6.20E+02,-7821,2921,376,-76,108,4,1,7,11
6.33E+02,-7810,2918,375,-45,63,2,1,7,11
6.47E+02,-8045,2908,373,-23,19,-265,1,7,11
6.65E+02,-8019,2905,375,264,-274,-290,1,7,11
6.83E+02,-8000,2906,133,289,-294,-313,1,7,11
6.92E+02,-8006,2908,140,301,-303,-317,1,7,11
6.88E+02,-7993,2901,138,315,-313,-308,1,7,11
6.75E+02,-8013,2890,155,320,-311,-298,1,7,11
6.61E+02,-8032,2888,172,337,-315,-282,1,7,11
6.56E+02,-8029,2898,169,358,-330,2,1,7,11
6.63E+02,-8022,2895,168,365,-334,25,1,7,11
6.80E+02,-8026,2893,176,128,-328,33,1,7,11
7.05E+02,-8021,2886,180,167,-330,32,1,7,11
7.30E+02,-8004,2889,163,212,-323,22,1,7,11
7.44E+02,-8009,2895,149,252,-299,5,1,7,11
7.46E+02,-8010,2917,131,546,-289,-267,1,7,11
7.44E+02,-7987,2934,357,542,-282,-286,1,7,11
7.44E+02,-7982,2941,333,247,-260,-321,1,7,11
7.51E+02,-8001,2695,309,200,15,-362,1,7,11
7.59E+02,-8006,2703,288,141,25,-132,1,7,11
7.64E+02,-8020,2697,279,321,47,-147,1,7,11
7.63E+02,-8027,2925,277,-21,61,-153,1,7,11
7.54E+02,-8061,2914,281,-85,82,-156,1,7,11
7.38E+02,-7831,2877,313,111,86,-146,1,7,11
7.16E+02,-7816,2838,325,57,64,-137,1,7,11
6.96E+02,-7817,2823,332,39,52,-141,1,7,11
6.86E+02,-7825,2554,351,18,59,-135,1,7,11
6.85E+02,-7840,2550,368,13,45,-374,1,7,11
6.86E+02,-7832,2537,372,15,25,-350,1,7,11
6.82E+02,-7819,2535,380,21,11,-328,1,7,11
6.74E+02,-7809,2514,135,14,2,-313,1,7,11
6.60E+02,-7826,2501,159,0,-261,-314,1,7,11
6.45E+02,-7828,2501,159,11,-282,-321,1,7,11
6.37E+02,-7831,2489,177,7,-306,-329,1,7,11
6.43E+02,-7826,2466,196,16,-316,-334,1,7,11
6.58E+02,-7834,2455,206,50,-325,-326,1,7,11
6.69E+02,-7829,2464,214,77,-338,-306,1,7,11
6.66E+02,-7814,2459,227,98,-340,-278,1,7,11
6.55E+02,-8063,2468,233,111,-326,5,1,7,11
6.44E+02,-7810,2484,234,110,-303,36,1,7,11
6.36E+02,-7820,2485,239,91,-276,61,1,7,11
6.28E+02,-7835,2496,247,77,-261,81,1,7,11
6.18E+02,-7840,2513,246,47,4,105,1,7,11
6.11E+02,-7830,2500,244,3,14,-125,1,7,11
6.14E+02,-7846,2496,253,-290,33,-109,1,7,11
6.26E+02,-7871,2505,526,-322,46,-85,1,7,11
6.40E+02,-7889,2505,542,-349,31,-50,1,7,11
6.53E+02,-7880,2498,545,-356,4,-19,1,7,11
6.63E+02,-7864,2504,544,-337,-270,257,1,7,11
6.77E+02,-7850,2515,549,-308,-290,265,1,7,11
6.93E+02,-7849,2524,552,-276,-290,271,1,7,11
7.06E+02,-7855,2530,566,-257,-290,284,1,7,11
7.09E+02,-7866,2537,581,14,-289,297,1,7,11
6.99E+02,-7868,2551,581,31,-293,312,1,7,11
6.81E+02,-7851,2546,575,41,-300,324,1,7,11
6.59E+02,-7861,2559,579,71,-292,325,1,7,11
6.36E+02,-7894,2898,569,109,-303,363,1,7,11
6.20E+02,-7876,2905,564,91,-327,139,1,7,11
6.12E+02,-7875,2934,578,99,-334,141,1,7,11
6.09E+02,-7841,2942,584,67,-356,153,1,7,11
6.08E+02,-7825,2698,595,30,-129,164,1,7,11
6.06E+02,-8020,2690,607,-271,-174,173,1,7,11
6.01E+02,-7992,2697,608,-306,-154,135,1,7,11
5.96E+02,-8041,2933,384,-346,-130,376,1,7,11
5.96E+02,-7998,2919,402,-326,-154,318,1,7,11
6.05E+02,-7996,2906,409,-296,-131,-37,1,7,11
6.14E+02,-8004,2908,424,-257,-137,98,1,7,11
6.12E+02,-7976,2891,449,0,-153,-267,1,7,11
6.04E+02,-7970,2862,451,8,-129,-363,1,7,11
6.13E+02,-7955,2843,437,22,-369,-204,1,7,11
6.53E+02,-7640,2515,438,4,-338,-570,1,7,11
7.07E+02,-7668,2465,491,7,-260,-491,1,7,11
7.50E+02,-7987,2437,808,-262,29,-648,1,7,11
7.67E+02,-8013,2663,827,-261,-282,-1044,1,7,11
7.66E+02,-8044,2437,828,60,-325,-928,1,7,11
7.61E+02,-7846,2493,811,119,-364,-982,1,7,11
7.62E+02,-7884,2483,822,112,-164,-963,1,7,11
7.69E+02,-7903,2436,809,114,-241,-933,1,7,11
7.79E+02,-7915,2656,805,-109,-571,-929,1,7,11
7.89E+02,-7907,2613,811,-78,-632,-915,1,7,11
7.97E+02,-7920,2296,827,-58,-400,-1133,1,7,11
8.02E+02,-8197,2231,858,-7,-413,-1091,1,7,11
8.00E+02,-8239,2195,883,373,-426,-1080,1,7,11
7.92E+02,-8272,2394,699,195,-464,-1055,1,7,11
7.80E+02,-8252,2319,739,593,-788,-1037,1,7,11
7.65E+02,-8242,2332,739,493,-838,-1045,1,7,11
7.49E+02,-8243,2326,755,829,-866,-742,1,7,11
7.35E+02,-8203,2318,766,860,-876,-645,1,7,11
7.27E+02,-8194,2019,1065,851,-839,-509,1,7,11
7.23E+02,-7920,2019,1097,876,-806,-618,1,7,11
7.19E+02,-7871,1971,1121,838,-497,-165,1,7,11
7.13E+02,-7827,1923,1133,803,-415,-275,1,7,11
7.04E+02,-7815,2166,1151,775,-563,61,1,7,11
6.92E+02,-7924,1978,966,450,-150,-125,1,7,11
6.78E+02,-7925,1955,981,574,-325,278,1,7,11
6.65E+02,-7897,1984,1023,248,3,339,1,7,11
6.60E+02,-8019,1949,958,373,52,148,1,7,11
6.61E+02,-8018,2115,1014,278,-107,291,1,7,11
6.65E+02,-7625,2153,1280,104,-84,-50,1,7,11
6.65E+02,-8016,1972,962,-270,291,121,1,7,11
6.63E+02,-7947,2035,1141,-301,314,-28,1,7,11
6.65E+02,-7654,2386,1028,19,158,280,1,7,11
6.76E+02,-7990,2219,714,66,555,132,1,7,11
6.91E+02,-7981,2277,872,-84,627,544,1,7,11
7.08E+02,-7972,2600,784,334,488,438,1,7,11
7.22E+02,-7953,2467,431,544,852,856,1,7,11
7.31E+02,-7944,2865,577,470,702,1042,1,7,11
7.32E+02,-7677,2941,240,832,1062,1011,1,7,11
7.26E+02,-7937,2739,162,662,1149,1180,1,7,11
7.21E+02,-7959,2771,375,684,949,1257,1,7,11
7.26E+02,-7949,2766,338,669,960,1231,1,7,11
7.41E+02,-7660,2800,313,681,929,1336,1,7,11
7.57E+02,-7597,3145,-16,695,1138,1134,1,7,11
7.63E+02,-7776,2979,-109,686,1118,712,1,7,11
7.57E+02,-7765,3055,87,889,897,860,1,7,11
7.42E+02,-7602,3357,92,839,948,810,1,7,11
7.24E+02,-7650,3395,71,801,946,833,1,7,11
7.08E+02,-7625,3425,7,807,901,866,1,7,11
6.98E+02,-7631,3247,-352,833,901,884,1,7,11
6.96E+02,-7648,3326,-212,819,929,693,1,7,11
6.99E+02,-7989,3711,-580,800,975,1058,1,7,11
6.98E+02,-7664,3550,-779,498,951,1004,1,7,11
6.87E+02,-7650,3608,-824,551,901,1337,1,7,11
6.71E+02,-7360,3276,-1040,247,1077,913,1,7,11
6.61E+02,-7637,3218,-1054,-27,962,663,1,7,11
6.60E+02,-7963,3368,-1026,38,922,454,1,7,11
6.63E+02,-7901,3218,-714,11,1132,537,1,7,11
6.62E+02,-8294,3357,-841,-378,688,575,1,7,11
6.57E+02,-8207,3185,-500,-312,626,584,1,7,11
6.52E+02,-7909,3136,-417,109,141,575,1,7,11
6.49E+02,-7887,2794,-552,-2,-85,616,1,7,11
6.49E+02,-7992,2761,-243,163,-343,409,1,7,11
6.54E+02,-7754,2775,-538,589,-534,466,1,7,11
6.60E+02,-7363,3113,-588,486,-557,812,1,7,11
6.60E+02,-7479,3185,-406,837,-224,700,1,7,11
6.49E+02,-7507,2972,-631,646,-332,1078,1,7,11
6.33E+02,-7538,3010,-579,746,-270,904,1,7,11
6.29E+02,-7550,3346,-564,922,-286,906,1,7,11
6.42E+02,-7347,3257,-620,1356,-325,1116,1,7,11
6.53E+02,-7382,3639,-411,1190,-364,1084,1,7,11
6.46E+02,-7390,3545,-484,1257,-147,764,1,7,11
6.21E+02,-7331,3714,-651,1247,-171,737,1,7,11
5.99E+02,-7540,4119,-689,1164,-348,1042,1,7,11
5.88E+02,-7517,4185,-744,1281,28,904,1,7,11
5.85E+02,-7457,4161,-749,904,-115,1019,1,7,11
5.80E+02,-7435,4127,-760,1096,-8,1292,1,7,11
5.76E+02,-7452,4148,-1037,1069,313,996,1,7,11
5.78E+02,-7456,4172,-1043,1044,346,949,1,7,11
5.85E+02,-7432,4156,-767,756,362,902,1,7,11
5.94E+02,-7155,3830,-739,717,367,1082,1,7,11
6.02E+02,-7158,4097,-756,721,354,687,1,7,11
6.06E+02,-7150,4143,-1043,704,335,831,1,7,11
6.06E+02,-7154,4152,-1080,692,302,481,1,7,11
6.03E+02,-7135,4084,-1089,640,312,461,1,7,11
6.00E+02,-7145,3745,-1089,857,338,633,1,7,11
5.99E+02,-7149,3725,-1106,886,339,582,1,7,11
5.98E+02,-7158,3955,-1107,659,337,246,1,7,11
5.97E+02,-7168,3923,-1112,673,336,188,1,7,11
5.98E+02,-7485,3800,-1046,876,353,160,1,7,11
6.00E+02,-7318,3675,-709,830,341,367,1,7,11
6.09E+02,-7540,3647,-699,663,-43,-24,1,7,11
6.28E+02,-7528,3648,-708,761,94,25,1,7,11
6.60E+02,-7544,3682,-713,1101,12,-138,1,7,11
6.92E+02,-7343,3686,-690,1116,-308,-237,1,7,11
7.06E+02,-7349,3668,-703,1074,-142,-544,1,7,11
6.98E+02,-7311,3670,-730,1037,-227,-586,1,7,11
6.81E+02,-7546,3670,-742,736,-530,-386,1,7,11
6.71E+02,-7525,3653,-751,672,-545,-438,1,7,11
6.71E+02,-7517,3636,-758,794,-243,-451,1,7,11
6.74E+02,-7538,3614,-768,437,-199,-459,1,7,11
6.75E+02,-7326,3599,-1025,563,-147,-460,1,7,11
6.73E+02,-7360,3305,-761,159,-364,-459,1,7,11
6.70E+02,-7358,3240,-760,283,-356,-492,1,7,11
6.68E+02,-7345,3207,-1026,-54,-341,-819,1,7,11
6.63E+02,-7408,3223,-765,-128,-301,-865,1,7,11
6.52E+02,-7742,3214,-722,54,-278,-857,1,7,11
6.35E+02,-7559,3223,-678,-265,-274,-819,1,7,11
6.21E+02,-7611,3435,-877,-380,-292,-487,1,7,11
6.14E+02,-7604,3384,-835,-216,-357,-448,1,7,11
6.12E+02,-7568,3359,-799,-544,-168,-475,1,7,11
6.14E+02,-7565,3346,-783,-574,-217,-789,1,7,11
6.16E+02,-7727,3367,-512,-523,-561,-854,1,7,11
6.19E+02,-7359,3070,-790,-517,-592,-651,1,7,11
6.22E+02,-7477,3004,-853,-182,-576,-713,1,7,11
6.29E+02,-7433,3364,-896,-304,-172,-1052,1,7,11
6.43E+02,-7415,3455,-659,-355,95,-725,1,7,11
6.58E+02,-7647,3437,-647,-164,-6,-828,1,7,11
6.66E+02,-7642,3240,-666,-378,313,-449,1,7,11
6.59E+02,-7617,3267,-750,-539,186,-517,1,7,11
6.46E+02,-7303,3256,-963,-771,518,-347,1,7,11
6.45E+02,-7112,3288,-1400,-1101,496,-170,1,7,11
6.59E+02,-7455,3629,-1402,-1540,1083,-211,1,7,11
6.78E+02,-7776,3698,-1009,-1918,1300,-328,1,7,11
6.89E+02,-7970,3672,-1102,-1745,1135,-103,1,7,11
6.90E+02,-7845,3667,-701,-1842,782,284,1,7,11
6.91E+02,-7990,3318,-865,-1655,287,166,1,7,11
6.96E+02,-7742,3418,-819,-1350,-148,142,1,7,11
7.01E+02,-7542,3396,-794,-691,-389,-27,1,7,11
6.97E+02,-7473,3433,-741,-629,-444,46,1,7,11
6.77E+02,-7450,3375,-413,-245,-424,-383,1,7,11
6.55E+02,-7426,3071,-624,-371,-628,-592,1,7,11
6.46E+02,-7524,3046,-607,-270,-524,-790,1,7,11
6.51E+02,-7492,3056,-398,103,-225,-645,1,7,11
6.58E+02,-7508,3361,-442,-49,-136,-736,1,7,11
6.58E+02,-7549,3362,-434,-37,-274,-745,1,7,11
6.54E+02,-7367,3409,-487,276,58,-720,1,7,11
6.59E+02,-7710,3210,-838,317,94,-678,1,7,11
6.76E+02,-7712,3240,-667,320,101,-649,1,7,11
6.98E+02,-7731,3214,-675,-64,124,-666,1,7,11
7.14E+02,-7640,3431,-665,4,-39,-691,1,7,11
7.20E+02,-7604,3021,-742,-217,-57,-644,1,7,11
7.17E+02,-7565,3087,-1117,-425,269,-686,1,7,11
7.08E+02,-7942,2734,-952,-880,517,-725,1,7,11
6.96E+02,-7811,2731,-1335,-1066,794,-643,1,7,11
6.85E+02,-8197,2645,-1350,-1003,743,-786,1,7,11
6.77E+02,-8093,2219,-1358,-1302,1078,-882,1,7,11
6.71E+02,-8474,2386,-1360,-997,714,-1068,1,7,11
6.62E+02,-8568,2325,-1348,-904,463,-1008,1,7,11
6.47E+02,-8332,2346,-1326,-733,139,-1170,1,7,11
6.32E+02,-8524,2345,-991,-866,73,-1198,1,7,11
6.23E+02,-8461,2322,-946,-821,-222,-1406,1,7,11
6.21E+02,-8287,2016,-1131,-799,-439,-1281,1,7,11
6.23E+02,-7849,1955,-1048,-788,-808,-1134,1,7,11
6.25E+02,-7951,2170,-719,-467,-850,-734,1,7,11
6.30E+02,-7633,1962,-874,-606,-810,-812,1,7,11
6.41E+02,-7657,2029,-504,-236,-508,-560,1,7,11
6.59E+02,-7656,2426,-420,-365,-511,2,1,7,11
6.83E+02,-7667,2263,-392,5,-796,306,1,7,11
7.11E+02,-7648,2609,-637,81,-854,556,1,7,11
7.37E+02,-7606,2677,-640,119,-657,450,1,7,11
7.49E+02,-7782,2473,-437,-111,-726,493,1,7,11
7.42E+02,-7697,2510,-468,-125,-747,424,1,7,11
7.23E+02,-7767,2847,-451,92,-685,159,1,7,11
7.06E+02,-7559,2693,-430,37,-874,322,1,7,11
7.02E+02,-7651,2786,-421,-284,-836,-86,1,7,11
7.07E+02,-7980,3100,-408,-372,-798,49,1,7,11
7.14E+02,-8056,3096,-638,-240,-501,-301,1,7,11
7.18E+02,-8052,3085,-632,-615,-468,-384,1,7,11
7.16E+02,-7990,2792,-634,-465,-453,-236,1,7,11
7.06E+02,-7935,2732,-637,-817,-414,-606,1,7,11
6.89E+02,-7984,2921,-603,-644,-563,-484,1,7,11
6.77E+02,-7816,2850,-556,-699,-186,-869,1,7,11
6.79E+02,-7848,2504,-531,-729,-360,-719,1,7,11
6.93E+02,-7930,2680,-249,-718,-286,-1077,1,7,11
7.09E+02,-8211,2611,-192,-683,69,-1139,1,7,11
7.18E+02,-7908,2575,-156,-860,-126,-1141,1,7,11
7.17E+02,-7882,2572,-146,-429,-41,-1123,1,7,11
7.10E+02,-7872,2591,-384,-552,263,-1064,1,7,11
6.99E+02,-7844,2581,-381,-182,300,-768,1,7,11
6.87E+02,-7830,2598,-152,-315,340,-753,1,7,11
6.75E+02,-7829,2624,-177,45,381,-766,1,7,11
6.63E+02,-7827,2641,-185,84,171,-1028,1,7,11
6.51E+02,-7855,2622,-173,73,213,-1043,1,7,11
6.33E+02,-7894,2608,-169,60,209,-1089,1,7,11
6.16E+02,-7889,2587,-188,51,180,-1135,1,7,11
6.09E+02,-7880,2284,-198,31,161,-916,1,7,11
6.14E+02,-7843,2249,-206,27,138,-953,1,7,11
6.13E+02,-7814,2223,-227,11,383,-979,1,7,11
5.92E+02,-7810,2221,-514,-286,381,-993,1,7,11
5.64E+02,-8060,2207,-525,-364,128,-933,1,7,11
5.52E+02,-8051,2429,-254,-524,143,-1137,1,7,11
5.63E+02,-8039,2391,-245,-615,157,-1074,1,7,11
5.80E+02,-8022,2355,-243,-449,172,-740,1,7,11
5.94E+02,-8015,2046,-234,-783,193,-675,1,7,11
6.04E+02,-8027,2038,-207,-839,220,-857,1,7,11
6.10E+02,-8057,2018,-179,-658,227,-507,1,7,11
6.10E+02,-7836,2047,-173,-706,210,-410,1,7,11
5.99E+02,-7841,2336,-188,-761,184,-574,1,7,11
5.81E+02,-7857,2384,-198,-1079,168,-236,1,7,11
5.67E+02,-7852,2417,-188,-904,157,-142,1,7,11
5.66E+02,-7822,2416,-185,-978,129,-326,1,7,11
5.71E+02,-8044,2405,-183,-1022,357,-313,1,7,11
5.77E+02,-8013,2421,-187,-1312,339,-327,1,7,11
5.83E+02,-8008,2431,-165,-1358,337,-340,1,7,11
5.96E+02,-8011,2422,-147,-1404,341,-343,1,7,11
6.15E+02,-8020,2410,-381,-1186,349,-348,1,7,11
6.34E+02,-8042,2377,-361,-1225,370,-354,1,7,11
6.48E+02,-8064,2347,-330,-1237,379,-374,1,7,11
6.56E+02,-8061,2310,-321,-1232,130,-150,1,7,11
6.60E+02,-7821,2020,-307,-1216,166,-195,1,7,11
6.58E+02,-8062,1992,-297,-1200,200,-217,1,7,11
6.47E+02,-8035,1957,-304,-1196,242,-225,1,7,11
6.23E+02,-8036,1956,-328,-1182,568,-229,1,7,11
5.95E+02,-7836,1958,-335,-1182,398,-194,1,7,11
5.78E+02,-7889,1957,-340,-1190,466,-131,1,7,11
5.76E+02,-8198,1946,-334,-1205,510,-315,1,7,11
5.80E+02,-8215,1942,-343,-1207,784,14,1,7,11
5.84E+02,-8210,1928,-360,-1218,778,64,1,7,11
5.92E+02,-8196,1939,-379,-1212,504,86,1,7,11
6.08E+02,-7904,1958,-147,-1205,470,94,1,7,11
6.30E+02,-7880,1989,-157,-1192,443,92,1,7,11
6.53E+02,-7858,2014,-167,-1177,420,108,1,7,11
6.71E+02,-7872,2030,-157,-1155,401,-125,1,7,11
6.86E+02,-7887,2046,-155,-1370,629,-110,1,7,11
6.98E+02,-7895,2325,-139,-1311,582,-105,1,7,11
7.08E+02,-7909,2346,-131,-998,535,-107,1,7,11
7.16E+02,-7923,2375,-137,-926,231,-111,1,7,11
7.22E+02,-7928,2404,-142,-1111,192,-108,1,7,11
7.25E+02,-8199,2184,-152,-1046,172,-93,1,7,11
7.25E+02,-8218,2196,-143,-751,164,-78,1,7,11
7.22E+02,-8233,2186,-377,-710,153,-78,1,7,11
7.17E+02,-8236,2188,-365,-658,379,-97,1,7,11
7.09E+02,-7926,2199,-372,-862,331,115,1,7,11
7.00E+02,-7904,2193,-376,-805,343,83,1,7,11
6.89E+02,-7910,2223,-374,-505,372,55,1,7,11
6.75E+02,-7915,2257,-374,-478,139,63,1,7,11
6.56E+02,-7906,2271,-133,-458,151,101,1,7,11
6.35E+02,-7891,2260,-141,-445,176,-111,1,7,11
6.18E+02,-7882,2250,-139,-433,187,-81,1,7,11
6.08E+02,-7868,2251,-151,-418,182,-79,1,7,11
6.04E+02,-7876,2253,-156,-408,173,-83,1,7,11
6.01E+02,-7894,2276,-150,-638,146,-86,1,7,11
6.00E+02,-7904,2297,-164,-608,357,-73,1,7,11
6.01E+02,-7900,2571,-178,-572,316,-54,1,7,11
6.07E+02,-7890,2576,-202,-541,274,-44,1,7,11
6.16E+02,-7896,2566,-209,-535,-13,-40,1,7,11
6.30E+02,-7925,2271,-189,-546,-45,-60,1,7,11
6.46E+02,-7925,2240,-179,-551,-115,-115,1,7,11
6.61E+02,-8197,2214,-169,-565,78,74,1,7,11
6.75E+02,-8200,2193,-166,-570,10,11,1,7,11
6.91E+02,-8216,2429,-144,-564,-291,-280,1,7,11
7.10E+02,-8248,2402,-372,-559,-322,-273,1,7,11
7.33E+02,-8273,2380,-335,-546,-354,30,1,7,11
7.50E+02,-8301,2343,-283,-517,-134,100,1,7,11
7.52E+02,-8306,2308,15,-207,-180,-90,1,7,11
7.38E+02,-8299,2029,30,-133,-236,-39,1,7,11
7.16E+02,-8275,2019,53,-295,-538,-3,1,7,11
6.93E+02,-8268,2042,71,71,-565,285,1,7,11
6.77E+02,-8247,2323,90,-81,-583,333,1,7,11
6.69E+02,-8239,2330,116,265,-593,371,1,7,11
6.74E+02,-8206,2381,101,363,-617,132,1,7,11
6.81E+02,-7921,2402,92,159,-629,139,1,7,11
6.80E+02,-7912,2431,89,197,-629,373,1,7,11
6.65E+02,-7901,2210,104,228,-623,349,1,7,11
6.46E+02,-7876,2246,101,235,-618,333,1,7,11
6.33E+02,-7850,2266,100,212,-607,315,1,7,11
6.29E+02,-7819,2288,82,183,-575,307,1,7,11
6.26E+02,-7823,2301,97,128,-255,307,1,7,11
6.19E+02,-7825,2297,127,344,-198,321,1,7,11
6.08E+02,-7810,2283,-122,312,-156,338,1,7,11
5.95E+02,-7811,2272,-119,288,-367,353,1,7,11
5.83E+02,-7817,2259,-95,277,-329,358,1,7,11
5.76E+02,-7817,2249,-68,275,-313,357,1,7,11
5.78E+02,-7812,2237,-61,298,-299,335,1,7,11
5.84E+02,-7837,2271,-59,353,-277,294,1,7,11
5.92E+02,-7899,2570,-52,155,-264,263,1,7,11
6.05E+02,-8211,2603,-53,212,-280,-5,1,7,11
6.22E+02,-8226,2644,-80,517,-323,-13,1,7,11
6.41E+02,-8234,2665,-103,541,-359,-14,1,7,11
6.60E+02,-8240,2469,-126,563,-134,-19,1,7,11
6.73E+02,-8219,2505,99,556,-165,-16,1,7,11
6.81E+02,-8204,2532,80,520,-192,-6,1,7,11
6.88E+02,-8193,2553,69,219,-207,-3,1,7,11
6.93E+02,-8195,2817,81,148,-230,-15,1,7,11
6.99E+02,-7913,2819,80,346,-515,-60,1,7,11
7.05E+02,-7884,2545,103,274,-549,-100,1,7,11
7.12E+02,-7850,2536,115,-33,-572,121,1,7,11
7.21E+02,-7814,2508,-119,-75,-569,105,1,7,11
7.29E+02,-8039,2485,-101,-94,-541,102,1,7,11
7.38E+02,-8033,2458,-80,-103,-243,114,1,7,11
7.46E+02,-8025,2683,-63,-95,-211,-127,1,7,11
7.53E+02,-8059,2666,-46,-68,-166,-118,1,7,11
7.57E+02,-7845,2673,-36,-55,-138,-80,1,7,11
7.60E+02,-7861,2681,-36,-45,-133,-30,1,7,11
7.60E+02,-7861,2441,-37,-55,-373,283,1,7,11
7.59E+02,-7848,2452,-41,-70,-350,345,1,7,11
7.55E+02,-7828,2472,-72,-99,-340,133,1,7,11
7.47E+02,-7817,2528,-121,120,-332,140,1,7,11
7.34E+02,-7850,2835,124,96,-337,356,1,7,11
7.17E+02,-7836,2886,92,45,-362,347,1,7,11
6.98E+02,-7824,2925,74,12,-150,329,1,7,11
6.75E+02,-8058,2922,57,-303,-205,320,1,7,11
6.50E+02,-8062,2910,70,-347,-250,304,1,7,11
6.24E+02,-7816,2893,107,-368,-535,287,1,7,11
5.98E+02,-7837,2869,-115,-366,-577,272,1,7,11
5.84E+02,-7815,2844,-96,-346,-397,268,1,7,11
5.83E+02,-7813,2832,-69,-328,-410,-12,1,7,11
5.88E+02,-8062,2838,-35,-291,-430,-26,1,7,11
5.89E+02,-8046,2852,-21,13,-436,-26,1,7,11
5.88E+02,-8018,2852,-23,43,-434,-18,1,7,11
5.95E+02,-7980,2843,-21,57,-414,-11,1,7,11
6.10E+02,-7678,2834,-27,71,-620,-23,1,7,11
6.24E+02,-7641,2816,-43,72,-598,-37,1,7,11
6.26E+02,-7631,2556,-44,74,-533,-83,1,7,11
6.18E+02,-7640,2559,-32,75,-208,101,1,7,11
6.08E+02,-7654,2821,-30,73,-144,67,1,7,11
5.97E+02,-7656,2555,-29,50,-355,49,1,7,11
5.89E+02,-7664,2536,-25,33,-304,31,1,7,11
5.83E+02,-7958,2525,-3,13,32,20,1,7,11
5.74E+02,-7976,2495,258,-272,58,27,1,7,11
5.59E+02,-7997,2474,273,-273,80,23,1,7,11
5.58E+02,-8006,2474,281,-267,93,26,1,7,11
5.99E+02,-7996,2469,296,-258,103,44,1,7,11
6.79E+02,-7977,2461,297,16,111,63,1,7,11
7.62E+02,-7966,2459,296,38,-125,81,1,7,11
8.11E+02,-7966,2470,285,57,-103,84,1,7,11
8.10E+02,-7971,2482,272,74,-79,83,1,7,11
7.83E+02,-8008,2503,264,88,-57,77,1,7,11
7.56E+02,-8049,2530,264,84,-47,96,1,7,11
7.45E+02,-8055,2542,-3,69,-46,-124,1,7,11
7.47E+02,-7818,2545,260,51,-40,-96,1,7,11
7.57E+02,-7825,2541,263,26,-52,-60,1,7,11
7.68E+02,-7843,2525,288,-257,-69,-36,1,7,11
7.73E+02,-7871,2531,320,-259,-101,-31,1,7,11
7.64E+02,-7865,2531,336,2,108,-21,1,7,11
7.38E+02,-7859,2538,348,29,73,-13,1,7,11
7.11E+02,-7835,2555,362,63,56,269,1,7,11
6.97E+02,-8058,2556,133,99,59,303,1,7,11
7.00E+02,-7809,2840,143,-98,75,312,1,7,11
7.09E+02,-8038,2854,143,-72,70,332,1,7,11
7.11E+02,-8010,2855,136,-46,79,333,1,7,11
7.02E+02,-7988,2853,134,-34,106,316,1,7,11
6.86E+02,-7961,2847,132,-27,-102,301,1,7,11
6.66E+02,-7957,2846,128,-31,-42,284,1,7,11
6.47E+02,-7948,2830,137,-42,271,-1,1,7,11
6.31E+02,-7938,2831,382,-36,323,-36,1,7,11
6.21E+02,-7658,2559,374,-35,374,-66,1,7,11
6.16E+02,-7669,2527,366,-6,187,-78,1,7,11
6.16E+02,-7958,2512,347,317,239,-66,1,7,11
6.19E+02,-8003,2496,321,158,521,-29,1,7,11
6.20E+02,-7828,2497,299,550,525,280,1,7,11
6.18E+02,-7889,2466,283,458,215,352,1,7,11
6.17E+02,-7908,2439,261,659,365,149,1,7,11
6.18E+02,-7896,2687,-29,1132,-16,169,1,7,11
6.30E+02,-7882,2449,-72,1332,113,176,1,7,11
6.59E+02,-7855,2463,-95,1249,-261,176,1,7,11
7.07E+02,-7835,2500,-121,1650,-376,167,1,7,11
7.58E+02,-8025,2558,81,1495,-225,185,1,7,11
7.94E+02,-7993,2875,33,1849,-583,196,1,7,11
8.04E+02,-7994,2917,5,1859,-606,221,1,7,11
7.98E+02,-7979,2937,-281,1865,-632,247,1,7,11
7.90E+02,-7977,2700,-286,1879,-391,245,1,7,11
7.90E+02,-7983,2727,-301,1892,-418,230,1,7,11
7.95E+02,-7965,2752,-313,1890,-452,218,1,7,11
7.99E+02,-7940,2765,-342,1881,-466,211,1,7,11
7.93E+02,-7670,2772,-365,1853,-482,197,1,7,11
7.78E+02,-7654,2792,-137,1825,-483,185,1,7,11
7.58E+02,-7646,2791,-154,1517,-470,173,1,7,11
7.35E+02,-7648,2797,-183,1454,-431,157,1,7,11
7.15E+02,-7665,2789,-196,1634,-400,149,1,7,11
7.01E+02,-7677,2785,-204,1570,-634,148,1,7,11
6.97E+02,-7661,2774,-231,1254,-614,154,1,7,11
6.99E+02,-7653,2780,-248,1189,-587,146,1,7,11
7.00E+02,-7646,2792,-522,1371,-560,379,1,7,11
6.96E+02,-7635,2789,-546,1256,-540,339,1,7,11
6.89E+02,-7637,2808,-574,940,-516,287,1,7,11
6.82E+02,-7648,3094,-590,1130,-242,-20,1,7,11
6.77E+02,-7662,3112,-598,1056,-252,-57,1,7,11
6.71E+02,-7676,3110,-606,733,-531,-89,1,7,11
6.64E+02,-7949,3128,-623,688,-567,-127,1,7,11
6.60E+02,-7973,3131,-625,880,-605,85,1,7,11
6.64E+02,-8002,3138,-608,817,-392,24,1,7,11
6.81E+02,-7993,3126,-599,509,-460,-299,1,7,11
7.02E+02,-7983,3108,-591,476,-506,-378,1,7,11
7.17E+02,-7990,3075,-561,443,-789,-214,1,7,11
7.18E+02,-8013,2798,-531,419,-804,-576,1,7,11
7.12E+02,-8039,2771,-254,390,-817,-426,1,7,11
7.04E+02,-8041,2740,-217,623,-820,-789,1,7,11
6.99E+02,-8064,2908,-158,589,-794,-701,1,7,11
6.97E+02,-7835,2824,-353,556,-507,-752,1,7,11
7.01E+02,-7870,2505,-305,554,-477,-1043,1,7,11
7.08E+02,-7872,2445,-283,562,-456,-1059,1,7,11
7.17E+02,-7902,2640,9,581,-426,-1069,1,7,11
7.23E+02,-7912,2600,23,605,-409,-1046,1,7,11
7.25E+02,-8201,2562,42,610,-386,-741,1,7,11
7.24E+02,-8207,2253,65,601,-626,-661,1,7,11
7.19E+02,-8212,2218,86,639,-620,-841,1,7,11
7.10E+02,-8210,2430,86,414,-617,-776,1,7,11
7.01E+02,-8223,2428,93,461,-611,-476,1,7,11
6.91E+02,-8213,2179,89,480,-620,-426,1,7,11
6.84E+02,-7934,2430,97,467,-621,-621,1,7,11
6.83E+02,-7905,2415,102,455,-617,-569,1,7,11
6.89E+02,-7872,2406,91,453,-604,-530,1,7,11
6.95E+02,-7865,2398,98,429,-556,-237,1,7,11
6.94E+02,-7875,2390,87,410,-256,-204,1,7,11
6.86E+02,-7873,2401,61,623,-220,-174,1,7,11
6.77E+02,-7870,2408,54,555,-176,-141,1,7,11
6.74E+02,-7876,2415,50,223,-381,-366,1,7,11
6.73E+02,-7890,2191,27,152,-332,-321,1,7,11
6.69E+02,-7882,2214,3,344,-285,7,1,7,11
6.58E+02,-7881,2250,-272,283,27,82,1,7,11
6.51E+02,-7902,2277,-272,-25,90,-88,1,7,11
6.57E+02,-7885,2274,-284,-81,116,258,1,7,11
6.73E+02,-7862,2564,-296,-112,117,293,1,7,11
6.87E+02,-7850,2609,-306,-118,108,274,1,7,11
6.86E+02,-7862,2651,-304,-128,98,256,1,7,11
6.76E+02,-7853,2674,-304,113,63,-52,1,7,11
6.70E+02,-7815,2684,-317,100,-268,125,1,7,11
6.75E+02,-8061,2684,-324,83,-326,-39,1,7,11
6.85E+02,-7822,2667,-315,51,-364,-170,1,7,11
6.90E+02,-7830,2640,-305,23,-140,-310,1,7,11
6.85E+02,-7841,2585,-277,-271,-174,-454,1,7,11
6.79E+02,-7863,2564,-265,-307,-194,-849,1,7,11
6.78E+02,-7892,2266,-259,-370,-213,-717,1,7,11
6.83E+02,-8193,2222,9,-202,-208,-1088,1,7,11
6.89E+02,-8233,2418,35,-559,-213,-926,1,7,11
6.92E+02,-8280,2358,74,-413,-204,-1014,1,7,11
6.93E+02,-8071,2306,112,-508,-214,-1337,1,7,11
6.93E+02,-8103,1982,-121,-849,-218,-1357,1,7,11
6.94E+02,-8129,2158,-61,-670,-219,-1377,1,7,11
6.93E+02,-8163,2089,262,-746,-215,-1393,1,7,11
6.89E+02,-8449,1774,318,-1048,-220,-1404,1,7,11
6.82E+02,-8475,1702,379,-1071,-234,-1389,1,7,11
6.75E+02,-8492,1899,184,-1070,-247,-1348,1,7,11
6.70E+02,-8485,1856,229,-1034,-526,-988,1,7,11
6.67E+02,-8478,1802,529,-715,-531,-943,1,7,11
6.64E+02,-8460,1518,554,-894,-531,-1104,1,7,11
6.58E+02,-8463,1489,582,-791,-513,-750,1,7,11
6.54E+02,-8450,1460,626,-446,-246,-862,1,7,11
6.55E+02,-8168,1440,398,-591,-253,-770,1,7,11
6.62E+02,-8125,1433,408,-221,-523,-425,1,7,11
6.72E+02,-8107,1421,426,-353,-523,-597,1,7,11
6.80E+02,-8081,1422,457,35,-515,-519,1,7,11
6.88E+02,-8316,1437,473,-82,-243,-180,1,7,11
6.98E+02,-8302,1451,477,293,-206,-346,1,7,11
7.13E+02,-8291,1485,476,151,-162,-265,1,7,11
7.28E+02,-8267,1515,464,242,-133,64,1,7,11
7.36E+02,-8274,1535,460,563,-344,105,1,7,11
7.30E+02,-8302,1844,454,625,-311,-123,1,7,11
7.16E+02,-8287,1884,437,412,-314,-104,1,7,11
7.05E+02,-8282,1913,420,408,-302,-105,1,7,11
7.04E+02,-8288,1692,402,609,-292,-106,1,7,11
7.04E+02,-8305,1709,405,523,-284,-93,1,7,11
6.98E+02,-8312,1701,405,191,-297,-81,1,7,11
6.82E+02,-8298,1725,397,148,-329,-74,1,7,11
6.66E+02,-8288,1719,402,359,-342,-65,1,7,11
6.61E+02,-8270,1728,394,348,-354,-54,1,7,11
6.65E+02,-8257,1719,405,331,-368,-44,1,7,11
6.68E+02,-8254,1718,410,335,-129,-44,1,7,11
6.62E+02,-8242,1708,439,352,-155,-41,1,7,11
6.51E+02,-8241,1748,446,130,-169,-36,1,7,11
6.41E+02,-8220,1773,454,364,-185,275,1,7,11
6.37E+02,-7910,1761,479,315,-197,353,1,7,11
6.38E+02,-7909,1758,773,280,-164,160,1,7,11
6.44E+02,-7906,2051,772,297,-132,234,1,7,11
6.54E+02,-7904,2068,508,324,-342,541,1,7,11
6.66E+02,-7914,1775,778,352,-275,556,1,7,11
6.77E+02,-7883,1731,801,158,31,233,1,7,11
6.85E+02,-7902,1741,806,224,111,361,1,7,11
6.88E+02,-7913,2074,761,540,-81,-17,1,7,11
6.87E+02,-8195,2145,468,532,-15,-119,1,7,11
6.84E+02,-8203,1950,435,227,286,79,1,7,11
6.85E+02,-7934,1984,406,163,321,58,1,7,11
6.90E+02,-7925,2018,631,349,353,43,1,7,11
7.03E+02,-7922,2042,623,-5,375,53,1,7,11
7.23E+02,-7930,2309,608,-114,130,81,1,7,11
7.42E+02,-8211,2304,608,28,376,117,1,7,11
7.50E+02,-8224,2035,618,-311,344,-111,1,7,11
7.40E+02,-8258,2015,635,-368,306,-93,1,7,11
7.18E+02,-8286,2014,396,-382,-40,-105,1,7,11
6.97E+02,-8303,2002,418,-132,-104,126,1,7,11
6.86E+02,-8301,1993,425,-362,76,70,1,7,11
6.80E+02,-8303,1999,437,-340,12,-266,1,7,11
6.71E+02,-8304,2011,458,-334,-293,-333,1,7,11
6.57E+02,-8286,2018,481,-374,-335,-374,1,7,11
6.43E+02,-8277,2029,498,-177,-364,-142,1,7,11
6.35E+02,-8255,2024,769,-518,-383,-132,1,7,11
6.32E+02,-8237,1994,788,-602,-381,-369,1,7,11
6.32E+02,-8232,1950,816,-417,-361,-353,1,7,11
6.31E+02,-8222,2150,858,-434,-347,-345,1,7,11
6.25E+02,-8215,2093,891,-427,-327,-358,1,7,11
6.09E+02,-8230,2053,678,-388,-301,-131,1,7,11
5.89E+02,-8226,2060,672,-591,-286,-168,1,7,11
5.77E+02,-8247,2060,681,-566,-264,-173,1,7,11
5.74E+02,-8223,1787,673,-523,15,-168,1,7,11
5.73E+02,-8240,1779,682,-215,75,-176,1,7,11
5.69E+02,-8237,2050,686,-153,121,-161,1,7,11
5.63E+02,-8219,2053,665,-375,-93,-148,1,7,11
5.59E+02,-8222,2052,644,-369,-41,-147,1,7,11
5.58E+02,-8231,2057,872,-364,256,-146,1,7,11
5.61E+02,-8232,2070,845,-374,285,-143,1,7,11
5.67E+02,-8266,2087,837,-171,324,-135,1,7,11
5.77E+02,-8297,2076,835,-245,342,-357,1,7,11
5.89E+02,-8310,2054,828,-569,347,-334,1,7,11
6.01E+02,-8076,1786,819,-623,339,-321,1,7,11
6.10E+02,-8077,1773,810,-423,327,-300,1,7,11
6.17E+02,-8099,1749,815,-480,323,-283,1,7,11
6.21E+02,-8109,1714,825,-770,310,-264,1,7,11
6.26E+02,-8154,1690,832,-783,294,2,1,7,11
6.37E+02,-8166,1915,846,-507,-6,12,1,7,11
6.58E+02,-8148,1669,815,-441,-60,10,1,7,11
6.80E+02,-8139,1676,804,-631,-118,7,1,7,11
6.92E+02,-8128,1686,793,-589,98,10,1,7,11
6.89E+02,-8108,1696,781,-543,53,17,1,7,11
6.85E+02,-8071,1695,501,-222,12,17,1,7,11
6.91E+02,-8065,1694,502,-149,-271,-261,1,7,11
7.12E+02,-8320,1717,499,-324,-292,-288,1,7,11
7.37E+02,-8080,1760,498,-281,-324,-313,1,7,11
7.55E+02,-8093,2057,501,-283,-348,-303,1,7,11
7.62E+02,-8098,2080,769,-299,-370,-273,1,7,11
7.62E+02,-8082,2115,769,-321,-382,12,1,7,11
7.56E+02,-8317,2141,503,-345,-129,27,1,7,11
7.46E+02,-8285,2344,438,88,-353,-259,1,7,11
7.33E+02,-8244,2161,496,-188,-324,19,1,7,11
7.15E+02,-8252,2166,502,-195,-287,-337,1,7,11
6.97E+02,-8283,2165,804,-522,10,-154,1,7,11
6.87E+02,-8267,2116,820,-611,12,-198,1,7,11
6.90E+02,-8247,2086,839,-436,17,-518,1,7,11
7.02E+02,-8258,1765,867,-787,60,-539,1,7,11
7.12E+02,-8272,1708,881,-831,93,-535,1,7,11
7.10E+02,-8296,1911,892,-814,119,-536,1,7,11
6.99E+02,-8087,1859,660,-507,-126,-527,1,7,11
6.83E+02,-8098,1813,672,-455,121,-224,1,7,11
6.70E+02,-8107,1794,680,-601,84,-158,1,7,11
6.65E+02,-8120,1534,684,-525,52,-372,1,7,11
6.75E+02,-8115,1796,693,-190,15,-321,1,7,11
6.98E+02,-8105,1814,703,-354,-268,-280,1,7,11
7.24E+02,-8083,1843,697,-281,-290,18,1,7,11
7.43E+02,-8070,1875,697,18,-296,47,1,7,11
7.51E+02,-8066,1884,698,48,-307,44,1,7,11
7.48E+02,-8314,1879,700,63,-323,19,1,7,11
7.37E+02,-8293,1864,705,84,-347,-291,1,7,11
7.20E+02,-8268,1860,695,-122,-358,-384,1,7,11
7.01E+02,-8263,1854,691,-85,-351,-230,1,7,11
6.86E+02,-8282,1853,697,-78,-317,-560,1,7,11
6.77E+02,-8314,1841,710,-98,-281,-597,1,7,11
6.75E+02,-8079,1823,719,124,10,-595,1,7,11
6.79E+02,-8087,1525,740,63,39,-552,1,7,11
6.79E+02,-8075,1483,742,15,53,-225,1,7,11
6.67E+02,-8073,1456,736,0,72,-196,1,7,11
6.43E+02,-8084,1445,734,-267,118,-161,1,7,11
6.20E+02,-8095,1433,735,-273,-112,-379,1,7,11
6.10E+02,-8108,1426,732,-275,-92,-349,1,7,11
6.12E+02,-8099,1413,730,-280,-85,-319,1,7,11
6.25E+02,-8082,1658,718,-269,-71,-298,1,7,11
6.46E+02,-8083,1653,708,16,-49,-295,1,7,11
6.70E+02,-8083,1663,691,59,-26,-302,1,7,11
6.95E+02,-8094,1658,688,73,258,-297,1,7,11
7.14E+02,-8132,1420,685,74,268,-288,1,7,11
7.25E+02,-8143,1430,675,52,262,9,1,7,11
7.31E+02,-8138,1443,649,50,258,65,1,7,11
7.37E+02,-8130,1420,888,49,266,101,1,7,11
7.46E+02,-8131,1423,883,92,280,107,1,7,11
7.55E+02,-8134,1426,873,99,279,-128,1,7,11
7.62E+02,-8136,1412,873,103,275,-110,1,7,11
7.66E+02,-8150,1419,868,117,256,-100,1,7,11
7.68E+02,-8155,1444,854,-123,-25,-79,1,7,11
7.68E+02,-8148,1453,841,-110,-53,-60,1,7,11
7.67E+02,-8148,1465,838,-92,-81,-43,1,7,11
7.65E+02,-8146,1458,827,-91,-108,-22,1,7,11
7.62E+02,-8145,1461,837,-97,118,-17,1,7,11
7.58E+02,-8140,1471,820,-112,80,-21,1,7,11
7.51E+02,-8145,1484,827,127,58,-26,1,7,11
7.43E+02,-8144,1508,830,122,39,-24,1,7,11
7.34E+02,-8152,1523,833,109,21,-18,1,7,11
7.24E+02,-8142,1518,839,90,-262,-18,1,7,11
7.12E+02,-8132,1507,856,75,-284,-30,1,7,11
7.01E+02,-8118,1503,865,64,-303,-35,1,7,11
6.90E+02,-8108,1504,880,57,-309,-41,1,7,11
6.79E+02,-8099,1522,889,68,-310,-46,1,7,11
6.71E+02,-8088,1797,890,77,-305,-46,1,7,11
6.66E+02,-8073,1809,885,70,-299,-35,1,7,11
6.65E+02,-8071,1533,649,61,-281,-30,1,7,11
6.73E+02,-8071,1792,659,73,-264,-38,1,7,11
6.90E+02,-8071,1797,666,72,-257,-48,1,7,11
7.12E+02,-8076,1795,678,63,9,-58,1,7,11
7.37E+02,-8320,1800,674,60,16,-59,1,7,11
7.61E+02,-8066,1832,661,50,37,-54,1,7,11
7.81E+02,-8314,1843,665,11,60,-40,1,7,11
7.93E+02,-8319,1854,656,-294,91,-19,1,7,11
8.01E+02,-8068,1864,657,-362,125,261,1,7,11
8.06E+02,-8072,1852,667,-155,-103,265,1,7,11
8.09E+02,-8088,1850,688,-172,-89,256,1,7,11
8.12E+02,-8100,1859,695,-192,-88,-10,1,7,11
8.14E+02,-8097,1881,700,-218,-100,-9,1,7,11
8.16E+02,-8097,1886,700,-516,-99,259,1,7,11
8.17E+02,-8096,1879,709,-544,-95,268,1,7,11
8.19E+02,-8087,1891,701,-549,-99,285,1,7,11
8.19E+02,-8067,1888,701,-544,-95,297,1,7,11
8.17E+02,-8310,1904,688,-519,-84,281,1,7,11
8.11E+02,-8292,1669,675,-256,-72,268,1,7,11
7.99E+02,-8298,1681,685,-526,-49,-2,1,7,11
7.85E+02,-8303,1686,697,-524,-32,-12,1,7,11
7.72E+02,-8294,1700,683,-255,-40,-32,1,7,11
7.62E+02,-8267,1688,694,-246,-35,-62,1,7,11
7.55E+02,-8241,1692,671,-230,-19,-94,1,7,11
7.50E+02,-8235,1689,666,-239,277,-125,1,7,11
7.47E+02,-8247,1694,666,-250,318,105,1,7,11
7.46E+02,-8265,1689,649,-248,352,77,1,7,11
7.45E+02,-8273,1694,894,-246,377,51,1,7,11
7.44E+02,-8280,1697,875,-248,148,41,1,7,11
7.41E+02,-8285,1707,852,-514,180,33,1,7,11
7.36E+02,-8294,1703,824,-546,222,28,1,7,11
7.31E+02,-8319,1695,824,-573,248,27,1,7,11
7.29E+02,-8076,1693,805,-606,236,10,1,7,11
7.31E+02,-8099,1671,795,-391,207,-285,1,7,11
7.39E+02,-8142,1907,804,-448,156,-339,1,7,11
7.52E+02,-8152,1878,804,-496,315,-168,1,7,11
7.67E+02,-8154,1876,787,-778,-55,-525,1,7,11
7.81E+02,-8153,1852,781,-835,112,-601,1,7,11
7.89E+02,-8160,1811,794,-872,38,-406,1,7,11
7.91E+02,-8148,1534,801,-891,-293,-463,1,7,11
7.89E+02,-8157,1518,836,-647,-337,-509,1,7,11
7.86E+02,-8157,1502,852,-887,-134,-777,1,7,11
7.81E+02,-8133,1481,871,-870,-179,-780,1,7,11
7.74E+02,-8102,1491,876,-826,-196,-778,1,7,11
7.66E+02,-8110,1501,894,-794,-180,-487,1,7,11
7.54E+02,-8105,1524,642,-772,-153,-414,1,7,11
7.39E+02,-8103,1518,662,-808,-364,-558,1,7,11
7.22E+02,-8110,1526,681,-838,-323,-198,1,7,11
7.10E+02,-8125,1530,699,-656,-306,-372,1,7,11
7.06E+02,-8156,1517,725,-709,-322,-324,1,7,11
7.12E+02,-8117,1519,719,-703,-378,-305,1,7,11
7.20E+02,-8095,1519,722,-683,-142,-316,1,7,11
7.24E+02,-8076,1799,723,-642,-144,-291,1,7,11
7.23E+02,-8097,1487,1027,-647,-370,16,1,7,11
7.13E+02,-8115,1454,1081,-806,-358,49,1,7,11
7.01E+02,-8117,1449,1102,-481,-379,83,1,7,11
6.93E+02,-8117,1439,1118,-439,-147,106,1,7,11
6.95E+02,-8107,1448,1129,-387,-167,114,1,7,11
7.06E+02,-8090,1482,1119,-586,-183,123,1,7,11
7.18E+02,-8090,1509,1123,-543,-148,-101,1,7,11
7.28E+02,-8104,1498,1133,-558,-366,-61,1,7,11
7.34E+02,-8101,1462,1144,-541,-351,-65,1,7,11
7.39E+02,-8083,1435,900,-218,-335,-124,1,7,11
7.43E+02,-8105,1428,922,-134,-318,41,1,7,11
7.44E+02,-8091,1425,937,-313,-323,-308,1,7,11
7.41E+02,-8098,1412,960,-263,-326,-158,1,7,11
7.34E+02,-8110,1659,976,41,-341,-522,1,7,11
7.27E+02,-8097,1659,965,73,-362,-615,1,7,11
7.20E+02,-8104,1628,986,82,-376,-439,1,7,11
7.14E+02,-8092,1609,984,-127,-139,-511,1,7,11
7.08E+02,-8080,1601,990,-71,-137,-822,1,7,11
7.02E+02,-8080,1588,987,-26,-366,-847,1,7,11
6.97E+02,-8077,1577,986,-14,-327,-834,1,7,11
6.96E+02,-8072,1557,1008,-51,-269,-771,1,7,11
6.95E+02,-8083,1272,1022,-98,41,-436,1,7,11
6.92E+02,-8066,1228,1011,127,86,-607,1,7,11
6.85E+02,-8070,1202,992,-123,-109,-545,1,7,11
6.78E+02,-8088,1209,982,-108,-42,-225,1,7,11
6.74E+02,-8093,1224,952,-112,271,-150,1,7,11
6.76E+02,-8104,1233,931,108,325,-315,1,7,11
6.80E+02,-8121,1232,914,80,371,19,1,7,11
6.83E+02,-8151,1242,1139,60,146,81,1,7,11
6.86E+02,-8183,1231,1130,39,159,-126,1,7,11
6.89E+02,-8452,1224,1100,39,155,-106,1,7,11
6.93E+02,-8452,1218,1067,33,137,-104,1,7,11
6.97E+02,-8178,1211,1034,22,372,-116,1,7,11
6.97E+02,-8169,1213,750,11,359,113,1,7,11
6.90E+02,-8168,1199,746,-263,345,84,1,7,11
6.84E+02,-8459,1192,767,-262,323,49,1,7,11
6.83E+02,-8465,1185,1036,-261,272,44,1,7,11
6.90E+02,-8473,1185,1026,-258,-25,59,1,7,11
7.00E+02,-8474,1187,754,-265,-63,93,1,7,11
7.08E+02,-8461,1170,750,-266,-89,123,1,7,11
7.13E+02,-8187,1186,735,9,-94,-113,1,7,11
7.19E+02,-8156,1196,717,-266,-85,-70,1,7,11
7.30E+02,-8157,1189,715,-288,-57,-32,1,7,11
7.43E+02,-8159,1202,706,-305,-46,267,1,7,11
7.51E+02,-8155,1198,717,-328,-44,311,1,7,11
7.49E+02,-8140,1173,745,-341,-51,359,1,7,11
7.37E+02,-8127,1171,736,-324,-62,370,1,7,11
7.26E+02,-8129,1197,725,-282,-63,366,1,7,11
7.22E+02,-8138,1234,719,-258,-53,373,1,7,11
7.24E+02,-8139,1263,721,4,-68,135,1,7,11
7.24E+02,-8130,1538,727,-261,-91,154,1,7,11
7.14E+02,-8116,1549,740,-268,-105,164,1,7,11
6.98E+02,-8119,1586,752,15,-113,164,1,7,11
6.82E+02,-8096,1635,747,71,-119,175,1,7,11
6.71E+02,-8072,1444,743,117,-103,189,1,7,11
6.65E+02,-8316,1487,734,123,-65,208,1,7,11
6.64E+02,-8305,1514,721,83,-20,214,1,7,11
6.67E+02,-8304,1803,716,60,278,186,1,7,11
6.71E+02,-8294,1852,691,18,319,152,1,7,11
6.72E+02,-8309,1873,699,-317,360,365,1,7,11
6.71E+02,-8316,1879,711,-143,366,319,1,7,11
6.69E+02,-8073,1869,707,-217,362,267,1,7,11
6.66E+02,-8082,1883,703,-255,342,-32,1,7,11
6.69E+02,-8094,1876,701,-545,329,-61,1,7,11
6.83E+02,-8088,1857,701,-547,317,-80,1,7,11
7.09E+02,-8095,1866,688,-546,297,-102,1,7,11
7.37E+02,-8092,1857,682,-566,286,-100,1,7,11
7.59E+02,-8081,1835,675,-578,283,-94,1,7,11
7.71E+02,-8087,1804,684,-577,293,-88,1,7,11
7.74E+02,-8079,1501,698,-541,289,-90,1,7,11
7.71E+02,-8082,1496,698,-217,276,-126,1,7,11
7.64E+02,-8092,1491,691,-168,259,108,1,7,11
7.54E+02,-8100,1511,683,-348,-23,99,1,7,11
7.42E+02,-8095,1522,664,-293,-48,108,1,7,11
7.31E+02,-8077,1532,650,27,-51,119,1,7,11
7.22E+02,-8066,1806,650,71,-34,127,1,7,11
7.17E+02,-8086,1812,656,93,-13,126,1,7,11
7.15E+02,-8103,1855,648,119,-35,-124,1,7,11
7.15E+02,-8100,1851,641,98,-71,-110,1,7,11
7.14E+02,-8097,1864,881,87,-99,-113,1,7,11
7.09E+02,-8098,1856,642,31,-115,-108,1,7,11
7.01E+02,-8147,1861,666,-270,-125,-99,1,7,11
6.89E+02,-8149,1853,681,-328,100,-64,1,7,11
6.72E+02,-8144,1844,693,-368,59,-36,1,7,11
6.50E+02,-8132,1844,703,-133,19,-35,1,7,11
6.29E+02,-8096,1817,723,-162,-278,-36,1,7,11
6.14E+02,-8071,1810,721,-170,-286,-69,1,7,11
6.06E+02,-8301,1534,732,-156,-274,-89,1,7,11
6.05E+02,-8287,1523,746,-137,20,-115,1,7,11
6.08E+02,-8279,1509,762,-362,61,127,1,7,11
6.17E+02,-8300,1502,1025,-306,95,106,1,7,11
6.28E+02,-8068,1505,1034,14,123,96,1,7,11
6.37E+02,-8082,1527,766,85,-113,102,1,7,11
6.36E+02,-8111,1534,767,122,-79,97,1,7,11
6.26E+02,-8131,1807,760,-90,-73,104,1,7,11
6.16E+02,-8125,1807,761,-65,-84,118,1,7,11
6.19E+02,-8112,1806,765,-38,-98,109,1,7,11
6.29E+02,-8108,1822,753,258,-116,92,1,7,11
6.33E+02,-8086,1845,728,291,121,72,1,7,11
6.25E+02,-8320,1849,722,292,-128,54,1,7,11
6.15E+02,-8304,1862,727,318,-118,38,1,7,11
6.15E+02,-8294,1863,715,331,-101,35,1,7,11
6.20E+02,-8298,1842,714,350,-83,27,1,7,11
6.20E+02,-8306,1858,712,378,-73,-257,1,7,11
6.10E+02,-8313,1869,706,149,-68,-287,1,7,11
5.99E+02,-8067,1882,696,178,-73,-329,1,7,11
5.94E+02,-8066,1886,672,208,-84,-358,1,7,11
5.95E+02,-8086,1898,656,235,-90,-137,1,7,11
5.97E+02,-8093,1907,649,239,-101,-146,1,7,11
5.99E+02,-8097,1899,656,213,-107,-139,1,7,11
6.01E+02,-8115,1888,661,187,127,-364,1,7,11
6.02E+02,-8095,1856,655,152,108,-351,1,7,11
6.00E+02,-8077,1837,655,152,96,-346,1,7,11
5.91E+02,-8075,1822,645,152,97,-361,1,7,11
