timestamp,ax,ay,az,gx,gy,gz,Label1,Label2,Label3
1.13E+00,-7875,583,1453,1700,62,1405,1,7,11
1.38E+00,-7970,393,1524,1495,44,1816,1,7,11
1.63E+00,-7301,415,1510,1255,4,2143,1,7,11
1.88E+00,-7446,464,1460,1190,97,1744,1,7,11
2.13E+00,-7446,778,1444,1369,-16,1794,1,7,11
2.38E+00,-7342,794,1420,1013,160,1546,1,7,11
2.63E+00,-7941,494,1474,1131,600,1021,1,7,11
2.88E+00,-7934,495,1643,1069,621,1051,1,7,11
3.13E+00,-8096,818,1553,1116,583,802,1,7,11
3.38E+00,-8268,853,1276,968,578,241,1,7,11
3.63E+00,-8722,789,1570,979,622,262,1,7,11
3.88E+00,-8596,637,1623,997,578,79,1,7,11
4.13E+00,-8664,253,1661,1163,193,-48,1,7,11
4.38E+00,-9044,318,1796,1425,316,-164,1,7,11
4.63E+00,-8867,108,1670,2382,15,-237,1,7,11
4.88E+00,-8902,-359,2049,3101,-244,-527,1,7,11
5.13E+00,-9235,-403,1966,3743,-770,-233,1,7,11
5.38E+00,-8897,-725,1972,5241,-929,-157,1,7,11
5.63E+00,-8601,-960,1779,6710,-1584,-161,1,7,11
5.88E+00,-8146,-653,1153,11047,-1916,-691,1,7,11
6.13E+00,-8126,-215,898,12142,-1686,-1113,1,7,11
6.38E+00,-7983,2148,440,11631,-1873,240,1,7,11
6.63E+00,-7633,2387,773,10762,-1632,417,1,7,11
6.88E+00,-8307,3242,1579,5381,-889,13,1,7,11
7.13E+00,-8276,3448,1635,3806,-834,121,1,7,11
7.38E+00,-8264,3199,1463,2900,-482,-86,1,7,11
7.63E+00,-8206,2923,1512,1734,-391,48,1,7,11
7.88E+00,-7914,2680,1829,1295,-239,-142,1,7,11
8.13E+00,-7927,2237,1903,787,-313,-573,1,7,11
8.38E+00,-8244,2037,1735,163,105,-447,1,7,11
8.63E+00,-8111,2109,2067,-47,-68,-776,1,7,11
8.88E+00,-8141,1682,2070,87,-123,-790,1,7,11
9.13E+00,-8130,1808,1788,-261,64,-790,1,7,11
9.38E+00,-8188,1433,2075,-365,8,-511,1,7,11
9.63E+00,-8149,1622,2101,-176,-369,-471,1,7,11
9.88E+00,-8149,1617,2104,-514,-232,-560,1,7,11
1.01E+01,-8120,1575,2135,-406,-531,-139,1,7,11
1.04E+01,-8092,1640,2148,-451,-562,36,1,7,11
1.06E+01,-8492,1586,1981,-837,-531,296,1,7,11
1.09E+01,-8472,1230,2308,-836,-626,219,1,7,11
1.11E+01,-8471,1188,2357,-793,-460,614,1,7,11
1.14E+01,-8468,1364,2414,-455,-791,488,1,7,11
1.16E+01,-8170,1319,2429,-543,-854,814,1,7,11
1.19E+01,-8114,1281,2189,9,-857,828,1,7,11
1.21E+01,-8065,1000,2177,-25,-856,510,1,7,11
1.24E+01,-8068,984,2426,190,-834,386,1,7,11
1.26E+01,-8067,1004,2408,386,-833,235,1,7,11
1.29E+01,-8269,1287,2374,497,-858,334,1,7,11
1.31E+01,-8206,1291,2343,798,-864,-93,1,7,11
1.34E+01,-7909,1301,2330,832,-862,-262,1,7,11
1.36E+01,-7873,1306,2307,868,-859,-146,1,7,11
1.39E+01,-7839,1345,2025,663,-844,-254,1,7,11
1.41E+01,-8030,1327,1988,677,-799,-555,1,7,11
1.44E+01,-7998,966,1962,687,-444,-582,1,7,11
1.46E+01,-7659,904,1934,1069,-599,-414,1,7,11
1.49E+01,-7993,1148,1930,977,-164,-487,1,7,11
1.51E+01,-8039,908,2139,1187,-271,-475,1,7,11
1.54E+01,-8245,1532,1273,2508,1086,45,1,7,11
1.56E+01,-8336,1664,1572,2672,987,246,1,7,11
1.59E+01,-8866,1163,2133,2122,21,-1182,1,7,11
1.61E+01,-8702,1203,2107,2065,-437,-1789,1,7,11
1.64E+01,-8728,1198,2066,1902,-1026,-2593,1,7,11
1.66E+01,-8449,1210,1753,1839,-1014,-3135,1,7,11
1.69E+01,-7922,1618,1916,1854,-1358,-3255,1,7,11
1.71E+01,-7977,1456,1854,1792,-1008,-3301,1,7,11
1.74E+01,-7939,1409,1860,1663,-767,-3361,1,7,11
1.76E+01,-7650,1584,1856,1593,-780,-2763,1,7,11
1.79E+01,-7672,1256,1887,1568,-527,-2598,1,7,11
1.81E+01,-7984,1166,1913,1541,-303,-2106,1,7,11
1.84E+01,-7985,1321,1667,1244,125,-1604,1,7,11
1.86E+01,-7850,1315,1680,1188,268,-1121,1,7,11
1.89E+01,-7893,1023,1693,1343,258,-387,1,7,11
1.91E+01,-8277,900,1782,913,-55,-270,1,7,11
1.94E+01,-8098,1138,2137,760,76,292,1,7,11
1.96E+01,-8127,1089,1948,656,-198,547,1,7,11
1.99E+01,-8137,988,2037,683,-878,796,1,7,11
2.01E+01,-8162,1399,2401,751,-1145,1031,1,7,11
2.04E+01,-8147,1611,2255,1143,-1389,996,1,7,11
2.06E+01,-8177,1896,2604,1315,-1572,1237,1,7,11
2.09E+01,-8214,2164,2613,1180,-1482,1423,1,7,11
2.11E+01,-7961,2424,2643,1209,-1464,1610,1,7,11
2.14E+01,-7794,2644,2435,1406,-1280,1373,1,7,11
2.16E+01,-7729,2850,2492,1314,-1019,1058,1,7,11
2.19E+01,-7715,2799,2517,899,-751,498,1,7,11
2.21E+01,-7720,3189,2518,643,-474,549,1,7,11
2.24E+01,-7744,3163,2527,554,-205,165,1,7,11
2.26E+01,-7794,2806,2533,258,45,288,1,7,11
2.29E+01,-7671,2703,2555,8,268,-96,1,7,11
2.31E+01,-7947,2884,2524,-144,140,94,1,7,11
2.34E+01,-8031,2900,2492,-250,560,79,1,7,11
2.36E+01,-7837,2863,2466,-394,424,-84,1,7,11
2.39E+01,-8054,2830,2640,-643,858,207,1,7,11
2.41E+01,-8041,2480,2644,-1109,684,608,1,7,11
2.44E+01,-7676,2604,2599,-988,708,619,1,7,11
2.46E+01,-7588,2242,2291,-1297,753,183,1,7,11
2.49E+01,-7805,2295,2235,-1322,1061,-106,1,7,11
2.51E+01,-7601,2606,2187,-1277,1133,15,1,7,11
2.54E+01,-7645,2617,2410,-1843,945,25,1,7,11
2.56E+01,-7636,2665,2358,-1939,999,63,1,7,11
2.59E+01,-7591,2672,2326,-2662,1355,80,1,7,11
2.61E+01,-7566,2640,2417,-3198,1231,14,1,7,11
2.64E+01,-7585,2584,2279,-3712,1587,-366,1,7,11
2.66E+01,-7619,2263,2636,-4186,1632,-237,1,7,11
2.69E+01,-7600,2390,2480,-4333,1639,-459,1,7,11
2.71E+01,-7596,2330,2528,-4583,1621,-1049,1,7,11
2.74E+01,-7570,2003,2836,-4794,1599,-1192,1,7,11
2.76E+01,-7582,2143,2898,-5182,1617,-1891,1,7,11
2.79E+01,-7972,1701,2755,-5239,1634,-1990,1,7,11
2.81E+01,-8053,1480,2810,-5126,1576,-2219,1,7,11
2.84E+01,-7844,1259,2808,-4894,1243,-2623,1,7,11
2.86E+01,-7883,1302,2794,-4324,1386,-2681,1,7,11
2.89E+01,-7829,1135,2744,-4206,978,-2592,1,7,11
2.91E+01,-7826,772,2841,-3872,1144,-2256,1,7,11
2.94E+01,-8198,201,2850,-3351,1077,-2147,1,7,11
2.96E+01,-8461,-118,2927,-2702,741,-2151,1,7,11
2.99E+01,-8357,44,2703,-2382,493,-2015,1,7,11
3.01E+01,-8366,-98,2891,-1794,201,-2412,1,7,11
3.04E+01,-8348,139,2831,-1366,-23,-2195,1,7,11
3.06E+01,-8373,583,2827,-901,70,-2339,1,7,11
3.09E+01,-8364,412,2840,-1063,-344,-2065,1,7,11
3.11E+01,-8363,398,2833,-730,-215,-1455,1,7,11
3.14E+01,-8349,616,2858,-809,-603,-1368,1,7,11
3.16E+01,-8483,618,2816,-563,-474,-765,1,7,11
3.19E+01,-8313,566,2522,-350,-789,-411,1,7,11
3.21E+01,-8224,207,2527,111,-504,-366,1,7,11
3.24E+01,-8224,139,2819,364,-462,121,1,7,11
3.26E+01,-7923,162,2816,441,-488,278,1,7,11
3.29E+01,-7919,254,2536,712,-495,348,1,7,11
3.31E+01,-8308,624,2540,1119,-459,358,1,7,11
3.34E+01,-8398,443,2892,1090,-402,301,1,7,11
3.36E+01,-8684,471,2740,697,-504,-34,1,7,11
3.39E+01,-8673,455,2723,802,-1032,76,1,7,11
3.41E+01,-8583,639,2936,631,-996,-135,1,7,11
3.44E+01,-8784,556,2914,216,-1153,-578,1,7,11
3.46E+01,-8330,203,2549,359,-1590,-449,1,7,11
3.49E+01,-8109,330,2671,267,-1660,-809,1,7,11
3.51E+01,-8237,-39,2593,-17,-1601,-853,1,7,11
3.54E+01,-7833,-97,2237,291,-1240,-807,1,7,11
3.56E+01,-7649,122,2373,361,-1326,-464,1,7,11
3.59E+01,-7575,22,2315,134,-1055,-640,1,7,11
3.61E+01,-7596,-136,2038,189,-774,-570,1,7,11
3.64E+01,-7610,-551,1996,580,-525,-551,1,7,11
3.66E+01,-8000,-404,1981,781,-258,-598,1,7,11
3.69E+01,-7923,-475,1990,732,-67,-396,1,7,11
3.71E+01,-8070,-819,1999,912,281,-443,1,7,11
3.74E+01,-8152,-894,1995,1356,300,-791,1,7,11
3.76E+01,-8458,-662,1976,1562,278,-644,1,7,11
3.79E+01,-8480,-676,1925,1519,-8,-740,1,7,11
3.81E+01,-8503,-647,2104,1694,-13,-1050,1,7,11
3.84E+01,-8537,-665,1784,2068,-7,-748,1,7,11
3.86E+01,-8549,-684,1727,1942,-7,-660,1,7,11
3.89E+01,-8551,-683,1914,2328,-11,-813,1,7,11
3.91E+01,-8544,-681,1837,2189,-18,-613,1,7,11
3.94E+01,-8552,-670,1801,2298,-38,-183,1,7,11
3.96E+01,-8338,-660,1532,2664,-25,18,1,7,11
3.99E+01,-8412,-654,1806,2496,-37,-24,1,7,11
4.01E+01,-8363,-863,1805,2854,-103,186,1,7,11
4.04E+01,-8342,-810,1842,2705,-116,608,1,7,11
4.06E+01,-8436,-470,1668,2733,-127,500,1,7,11
4.09E+01,-8411,-599,1678,3088,8,643,1,7,11
4.11E+01,-8071,-286,1694,3023,-152,690,1,7,11
4.14E+01,-7928,115,1696,3039,-354,655,1,7,11
4.16E+01,-7850,-95,1718,2980,12,852,1,7,11
4.19E+01,-7814,-38,1756,3149,-125,801,1,7,11
4.21E+01,-7842,-25,2065,2814,-13,475,1,7,11
4.24E+01,-7917,-76,2087,2737,311,403,1,7,11
4.26E+01,-7892,90,2086,2922,298,514,1,7,11
4.29E+01,-7885,42,2093,2881,266,173,1,7,11
4.31E+01,-8199,-261,2061,2862,258,275,1,7,11
4.34E+01,-8284,-135,2074,2852,-9,-122,1,7,11
4.36E+01,-8300,-183,1787,2924,-17,-366,1,7,11
4.39E+01,-8119,-133,2048,3083,-15,-422,1,7,11
4.41E+01,-8154,-341,1764,3180,-8,-686,1,7,11
4.44E+01,-8135,-301,1723,2959,-48,-1128,1,7,11
4.46E+01,-8080,0,1690,3163,-77,-1084,1,7,11
4.49E+01,-8266,77,1901,3176,-112,-1230,1,7,11
4.51E+01,-8199,-64,1843,3199,-104,-1563,1,7,11
4.54E+01,-7930,289,1530,3182,53,-1539,1,7,11
4.56E+01,-8216,306,1490,2811,232,-1218,1,7,11
4.59E+01,-8290,268,1494,2792,441,-1407,1,7,11
4.61E+01,-8171,115,1839,2658,882,-1314,1,7,11
4.64E+01,-8142,-320,1867,2179,684,-998,1,7,11
4.66E+01,-8132,-254,1898,2413,743,-1318,1,7,11
4.69E+01,-8493,-588,1679,2229,754,-1218,1,7,11
4.71E+01,-8520,-537,1885,2584,680,-1564,1,7,11
4.74E+01,-8569,-223,1840,2604,653,-1562,1,7,11
4.76E+01,-8364,-325,1810,2639,886,-1213,1,7,11
4.79E+01,-8705,106,1525,2637,860,-903,1,7,11
4.81E+01,-8787,-25,1475,2612,858,-622,1,7,11
4.84E+01,-8824,345,1656,2446,862,298,1,7,11
4.86E+01,-8825,539,1268,2907,888,685,1,7,11
4.89E+01,-8985,785,1249,3161,884,1892,1,7,11
4.91E+01,-9035,821,1563,2993,639,1786,1,7,11
4.94E+01,-9074,891,1643,3372,274,1666,1,7,11
4.96E+01,-9073,754,1454,3278,-172,1654,1,7,11
4.99E+01,-8999,897,1492,3696,-896,1338,1,7,11
5.01E+01,-8615,994,1800,3532,-1321,1048,1,7,11
5.04E+01,-8113,986,1863,3847,-1730,559,1,7,11
5.06E+01,-7931,980,1910,3871,-2123,295,1,7,11
5.09E+01,-8005,953,2350,3324,-1677,-156,1,7,11
5.11E+01,-8000,940,2372,3300,-1522,-337,1,7,11
5.14E+01,-7844,1327,1732,3583,549,327,1,7,11
5.16E+01,-8232,1390,1691,3733,869,265,1,7,11
5.19E+01,-8247,1537,1816,4209,1071,-82,1,7,11
5.21E+01,-8268,1425,1409,4054,1007,101,1,7,11
5.24E+01,-8065,1854,1286,3993,1271,-349,1,7,11
5.26E+01,-8068,1875,949,4096,1586,-343,1,7,11
5.29E+01,-8420,1178,953,3665,680,547,1,7,11
5.31E+01,-8789,1542,1117,3753,562,217,1,7,11
5.34E+01,-8617,1636,1037,4084,-53,369,1,7,11
5.36E+01,-8660,1488,696,4867,-497,271,1,7,11
5.39E+01,-8606,1811,887,5195,-958,-112,1,7,11
5.41E+01,-8773,1893,847,5258,-1628,-291,1,7,11
5.44E+01,-8399,1724,834,5549,-1750,-217,1,7,11
5.46E+01,-8549,2120,875,6005,-2015,-575,1,7,11
5.49E+01,-8173,1951,685,5832,-2213,-567,1,7,11
5.51E+01,-8078,2023,1058,5838,-2600,-540,1,7,11
5.54E+01,-8240,2316,949,5767,-2438,-222,1,7,11
5.56E+01,-7879,2316,1377,5946,-2502,-167,1,7,11
5.59E+01,-7989,2187,1566,5895,-2533,-338,1,7,11
5.61E+01,-8039,2413,1559,5319,-2635,261,1,7,11
5.64E+01,-7617,2130,1849,5453,-2592,215,1,7,11
5.66E+01,-7785,1752,1750,5434,-2418,308,1,7,11
5.69E+01,-7654,1853,1964,5485,-2008,-277,1,7,11
5.71E+01,-7971,1797,2347,5754,-1974,-769,1,7,11
5.74E+01,-8062,1510,2397,5834,-1977,-1311,1,7,11
5.76E+01,-8203,1662,2419,6443,-2013,-1807,1,7,11
5.79E+01,-8231,1605,2039,6647,-2335,-2176,1,7,11
5.81E+01,-8250,1232,1933,7132,-2356,-2234,1,7,11
5.84E+01,-8248,1189,2056,7947,-2319,-2515,1,7,11
5.86E+01,-8280,1180,1682,8522,-1997,-2943,1,7,11
5.89E+01,-8275,1210,1803,9073,-2137,-2751,1,7,11
5.91E+01,-8272,1262,1458,9542,-1734,-2739,1,7,11
5.94E+01,-8253,1618,1640,9669,-1831,-2880,1,7,11
5.96E+01,-8268,1486,1598,9915,-1416,-2647,1,7,11
5.99E+01,-8307,1517,1648,9980,-1241,-2335,1,7,11
6.01E+01,-8103,1498,1468,10253,-1391,-1743,1,7,11
6.04E+01,-8147,1515,1457,10350,-1367,-1429,1,7,11
6.06E+01,-8085,1681,1606,10516,-1337,-1343,1,7,11
6.09E+01,-8521,1699,1617,10511,-928,-723,1,7,11
6.11E+01,-8183,1665,1552,10373,-952,-423,1,7,11
6.14E+01,-8111,1669,1205,10767,-950,-238,1,7,11
6.16E+01,-8274,1675,1359,10852,-904,-371,1,7,11
6.19E+01,-8247,1703,1283,10678,-1051,-358,1,7,11
6.21E+01,-8247,1786,1012,10694,-687,-188,1,7,11
6.24E+01,-8295,2084,1000,10630,-860,-576,1,7,11
6.26E+01,-8111,1981,1016,10465,-816,-452,1,7,11
6.29E+01,-8141,2352,973,10226,-844,-808,1,7,11
6.31E+01,-8474,2004,1283,10066,-864,-834,1,7,11
6.34E+01,-8168,2170,1283,9435,-735,-717,1,7,11
6.36E+01,-8140,2094,1008,8838,-1146,-975,1,7,11
6.39E+01,-8096,1694,1285,8445,-1315,-1569,1,7,11
6.41E+01,-8269,1820,1285,8301,-1558,-1753,1,7,11
6.44E+01,-8227,1474,1005,7582,-1534,-2185,1,7,11
6.46E+01,-7879,1427,960,7082,-1727,-2497,1,7,11
6.49E+01,-7829,1460,921,6568,-2055,-2943,1,7,11
6.51E+01,-8043,1528,926,6239,-1757,-2887,1,7,11
6.54E+01,-8031,1524,973,5324,-1896,-2662,1,7,11
6.56E+01,-8049,1481,1294,4932,-1492,-2334,1,7,11
6.59E+01,-7818,1662,1374,4078,-1578,-1665,1,7,11
6.61E+01,-7921,1558,1200,3544,-1376,-1206,1,7,11
6.64E+01,-8229,1236,1246,3380,-938,-729,1,7,11
6.66E+01,-8224,1263,1228,2803,-715,-542,1,7,11
6.69E+01,-7916,1222,1271,2479,-424,84,1,7,11
6.71E+01,-7929,1170,1631,2225,-374,311,1,7,11
6.74E+01,-8283,1331,1500,2009,-126,191,1,7,11
6.76E+01,-8075,929,1846,2087,-8,233,1,7,11
6.79E+01,-8135,1085,1884,1739,288,326,1,7,11
6.81E+01,-8461,1144,1888,1671,266,5,1,7,11
6.84E+01,-8189,1312,1864,1472,-53,-564,1,7,11
6.86E+01,-8138,1157,1851,1339,125,-787,1,7,11
6.89E+01,-8105,1222,1827,675,54,-710,1,7,11
6.91E+01,-8257,1255,1501,530,-278,-1062,1,7,11
6.94E+01,-7924,1211,1455,109,-265,-1143,1,7,11
6.96E+01,-7883,1154,1410,-234,52,-955,1,7,11
6.99E+01,-7854,1340,1618,-482,-77,-1006,1,7,11
7.01E+01,-7920,1288,1587,-682,130,-1310,1,7,11
7.04E+01,-8310,996,1539,-953,865,-908,1,7,11
7.06E+01,-8173,959,1257,-1307,1106,-756,1,7,11
7.09E+01,-8574,907,1206,-1350,1007,-821,1,7,11
7.11E+01,-8742,920,1377,-1340,1330,-619,1,7,11
7.14E+01,-8701,954,1378,-1375,1316,-140,1,7,11
7.16E+01,-8900,915,1189,-1184,909,107,1,7,11
7.19E+01,-9301,1078,1244,-1167,846,322,1,7,11
7.21E+01,-9287,730,1197,-1290,143,249,1,7,11
7.24E+01,-8870,669,1351,-1097,-282,604,1,7,11
7.26E+01,-8696,722,997,-884,-584,597,1,7,11
7.29E+01,-8815,1048,1020,-822,-479,615,1,7,11
7.31E+01,-8764,726,1181,-858,-841,404,1,7,11
7.34E+01,-8498,879,1463,-503,-1130,601,1,7,11
7.36E+01,-8160,816,1805,-431,-948,210,1,7,11
7.39E+01,-7844,407,1790,-1884,-437,-1299,1,7,11
7.41E+01,-8032,434,1761,-1991,-572,-1019,1,7,11
7.44E+01,-8039,437,1825,-2775,827,336,1,7,11
7.46E+01,-8169,576,1871,-3149,1141,685,1,7,11
7.49E+01,-8490,524,1665,-2730,970,1403,1,7,11
7.51E+01,-8713,556,1703,-2851,1165,1506,1,7,11
7.54E+01,-8562,629,1864,-2434,1205,2089,1,7,11
7.56E+01,-8092,786,1443,-2464,1547,2052,1,7,11
7.59E+01,-8226,1040,1547,-2846,1483,1875,1,7,11
7.61E+01,-8216,1366,1164,-3107,1740,1432,1,7,11
7.64E+01,-8205,1600,1337,-3632,2000,1602,1,7,11
7.66E+01,-8294,1501,1287,-4058,2249,1630,1,7,11
7.69E+01,-8212,1836,1122,-4813,2632,1498,1,7,11
7.71E+01,-7855,1866,675,-5551,2838,1894,1,7,11
7.74E+01,-7858,1676,475,-6451,3131,1776,1,7,11
7.76E+01,-8201,1903,558,-6828,3206,1963,1,7,11
7.79E+01,-8155,1607,576,-7595,3500,2343,1,7,11
7.81E+01,-8551,1341,592,-8120,3847,2304,1,7,11
7.84E+01,-8560,1318,232,-8362,3578,2129,1,7,11
7.86E+01,-8388,1319,190,-8744,3846,1699,1,7,11
7.89E+01,-8760,950,233,-8759,3549,1501,1,7,11
7.91E+01,-8665,1070,593,-8570,3669,1550,1,7,11
7.94E+01,-8998,693,468,-7935,3377,1329,1,7,11
7.96E+01,-8984,808,511,-7335,2704,1067,1,7,11
7.99E+01,-8800,817,448,-6560,2268,776,1,7,11
8.01E+01,-8722,643,403,-5772,1976,250,1,7,11
8.04E+01,-8404,740,619,-5020,1728,317,1,7,11
8.06E+01,-8352,1117,582,-4333,1522,-65,1,7,11
8.09E+01,-8323,948,571,-3791,1593,-105,1,7,11
8.11E+01,-8554,937,580,-3648,1382,-81,1,7,11
8.14E+01,-8163,1018,526,-3046,1141,-23,1,7,11
8.16E+01,-8462,1004,544,-3124,759,334,1,7,11
8.19E+01,-8105,1014,245,-2870,808,128,1,7,11
8.21E+01,-8104,1011,522,-2668,481,380,1,7,11
8.24E+01,-8120,1020,243,-2211,412,132,1,7,11
8.26E+01,-8103,1359,170,-1990,599,365,1,7,11
8.29E+01,-8089,1278,301,-1755,599,366,1,7,11
8.31E+01,-8106,1521,-98,-1536,416,150,1,7,11
8.34E+01,-8154,1763,59,-1628,804,220,1,7,11
8.36E+01,-8472,1922,-268,-1627,663,576,1,7,11
8.39E+01,-8498,2011,-290,-1476,714,397,1,7,11
8.41E+01,-8514,2034,-292,-1887,698,617,1,7,11
8.44E+01,-8493,2331,-286,-1770,871,171,1,7,11
8.46E+01,-8503,2365,19,-2162,499,127,1,7,11
8.49E+01,-8525,2359,63,-2033,605,-213,1,7,11
8.51E+01,-8486,2332,99,-2387,161,-789,1,7,11
8.54E+01,-8156,2043,123,-2211,-4,-1060,1,7,11
8.56E+01,-8096,2174,-86,-2264,-121,-1295,1,7,11
8.59E+01,-8253,2086,-48,-2280,43,-1240,1,7,11
8.61E+01,-7890,1736,-26,-2255,-301,-1522,1,7,11
8.64E+01,-7811,1900,-12,-2211,-296,-1710,1,7,11
8.66E+01,-7864,1826,286,-2421,30,-2113,1,7,11
8.69E+01,-7923,1476,332,-2393,81,-2173,1,7,11
8.71E+01,-8220,1631,357,-2364,115,-1927,1,7,11
8.74E+01,-8228,1272,130,-2046,-118,-2170,1,7,11
8.76E+01,-8255,1167,168,-1966,-88,-2131,1,7,11
8.79E+01,-8283,1337,187,-2129,-71,-2062,1,7,11
8.81E+01,-8299,986,196,-1786,-65,-1715,1,7,11
8.84E+01,-8084,919,212,-1673,-38,-1887,1,7,11
8.86E+01,-8124,1142,232,-1811,-27,-1533,1,7,11
8.89E+01,-8134,1087,512,-1460,-33,-1427,1,7,11
8.91E+01,-8164,1029,573,-1631,-41,-1598,1,7,11
8.94E+01,-8177,710,619,-1557,-94,-1545,1,7,11
8.96E+01,-8179,651,429,-1223,73,-1265,1,7,11
8.99E+01,-8158,854,449,-1402,-293,-1261,1,7,11
9.01E+01,-8152,784,486,-1335,-379,-1273,1,7,11
9.04E+01,-8158,482,773,-1004,-199,-1542,1,7,11
9.06E+01,-8130,469,779,-925,-536,-1269,1,7,11
9.09E+01,-8093,441,810,-1133,-575,-1239,1,7,11
9.11E+01,-8096,389,849,-1096,-579,-1233,1,7,11
9.14E+01,-8132,570,640,-1069,-575,-1261,1,7,11
9.16E+01,-8159,251,671,-1058,-592,-1585,1,7,11
9.19E+01,-8153,179,691,-1082,-627,-1461,1,7,11
9.21E+01,-8483,334,1038,-1113,-405,-1669,1,7,11
9.24E+01,-8185,148,1056,-1070,-893,-1963,1,7,11
9.26E+01,-8128,209,1035,-1120,-744,-2026,1,7,11
9.29E+01,-8303,245,1053,-906,-1045,-1999,1,7,11
9.31E+01,-7924,253,1052,-912,-1035,-1937,1,7,11
9.34E+01,-7846,537,1076,-1142,-679,-2119,1,7,11
9.36E+01,-7882,601,1135,-902,-774,-1739,1,7,11
9.39E+01,-8221,412,924,-976,-608,-1501,1,7,11
9.41E+01,-8091,502,974,-1331,-184,-1230,1,7,11
9.44E+01,-8102,688,944,-1185,-318,-927,1,7,11
9.46E+01,-8067,1129,1085,-1431,-86,-862,1,7,11
9.49E+01,-8082,1286,1053,-2129,533,-569,1,7,11
9.51E+01,-8171,1395,761,-2476,715,-267,1,7,11
9.54E+01,-8365,1205,1036,-3240,1401,322,1,7,11
9.56E+01,-8726,1396,1062,-4353,1463,478,1,7,11
9.59E+01,-8741,953,1051,-5130,1712,1098,1,7,11
9.61E+01,-8782,727,1066,-5708,2168,1313,1,7,11
9.64E+01,-8782,789,1037,-5814,2009,1373,1,7,11
9.66E+01,-8749,639,732,-6063,2034,1318,1,7,11
9.69E+01,-8423,524,650,-6472,1994,962,1,7,11
9.71E+01,-8340,157,796,-6302,1934,1075,1,7,11
9.74E+01,-8538,360,441,-6525,2136,653,1,7,11
9.76E+01,-8484,328,590,-6071,1735,842,1,7,11
9.79E+01,-8139,290,547,-5854,1907,830,1,7,11
9.81E+01,-8131,260,550,-5581,1844,773,1,7,11
9.84E+01,-8153,256,524,-5480,1491,469,1,7,11
9.86E+01,-8176,258,199,-4823,1635,389,1,7,11
9.89E+01,-8147,201,322,-4641,1247,254,1,7,11
9.91E+01,-8172,564,277,-3974,1375,303,1,7,11
9.94E+01,-8503,435,320,-4098,1297,-97,1,7,11
9.96E+01,-8554,781,332,-3778,1135,121,1,7,11
9.99E+01,-8469,492,289,-3733,681,-71,1,7,11
1.00E+02,-8155,486,283,-3922,829,-63,1,7,11
1.00E+02,-8504,504,358,-3844,457,-99,1,7,11
1.01E+02,-8322,480,170,-3492,226,122,1,7,11
1.01E+02,-8362,463,205,-3620,-68,75,1,7,11
1.01E+02,-8345,413,205,-3444,-139,14,1,7,11
1.01E+02,-8570,404,166,-3192,-429,-342,1,7,11
1.02E+02,-8469,632,352,-2931,-671,-191,1,7,11
1.02E+02,-8146,618,258,-2681,-1067,-599,1,7,11
1.02E+02,-8138,615,-47,-2222,-1097,-793,1,7,11
1.02E+02,-8143,584,-25,-2325,-1086,-1025,1,7,11
1.03E+02,-8153,556,269,-2174,-1066,-1282,1,7,11
1.03E+02,-8449,254,329,-1765,-768,-1244,1,7,11
1.03E+02,-8564,182,157,-1877,-718,-1655,1,7,11
1.03E+02,-8438,130,227,-1460,-684,-1456,1,7,11
1.04E+02,-8790,360,211,-1547,-877,-1412,1,7,11
1.04E+02,-8803,339,144,-1156,-484,-1566,1,7,11
1.04E+02,-8792,298,314,-1347,-202,-1170,1,7,11
1.04E+02,-8585,-79,288,-1368,-58,-1315,1,7,11
1.05E+02,-8654,-111,286,-1402,571,-1020,1,7,11
1.05E+02,-8651,-87,272,-1244,849,-974,1,7,11
1.05E+02,-8642,-92,281,-1411,1100,-1137,1,7,11
1.05E+02,-8588,-81,-19,-1822,1004,-757,1,7,11
1.06E+02,-8732,-94,-56,-1701,1381,-861,1,7,11
1.06E+02,-8358,-116,-90,-1772,1253,-466,1,7,11
1.06E+02,-8533,-97,121,-1775,1616,-615,1,7,11
1.06E+02,-8487,-15,50,-1767,1420,-245,1,7,11
1.07E+02,-8191,264,-283,-2090,1443,-342,1,7,11
1.07E+02,-8168,-5,-323,-2144,1423,39,1,7,11
1.07E+02,-8116,-7,-373,-2132,1612,88,1,7,11
1.07E+02,-8098,292,-165,-2058,1543,86,1,7,11
1.08E+02,-8536,443,-538,-1443,1307,165,1,7,11
1.08E+02,-8461,640,-577,-1598,1132,620,1,7,11
1.08E+02,-8526,820,-572,-1419,1038,840,1,7,11
1.08E+02,-8164,837,-603,-1266,792,883,1,7,11
1.09E+02,-8209,1138,-440,-915,-34,195,1,7,11
1.09E+02,-8246,1013,-434,-984,125,186,1,7,11
1.09E+02,-8311,1184,-430,-1342,54,522,1,7,11
1.09E+02,-8130,1258,-435,-1187,11,638,1,7,11
1.10E+02,-8157,1649,-451,-1239,-263,476,1,7,11
1.10E+02,-8462,1525,-465,-1588,14,813,1,7,11
1.10E+02,-8528,1859,-443,-1505,33,693,1,7,11
1.10E+02,-8551,1875,-420,-1723,49,732,1,7,11
1.11E+02,-8547,1872,-401,-2159,38,754,1,7,11
1.11E+02,-8511,1695,-454,-1973,4,644,1,7,11
1.11E+02,-8510,1690,-404,-2345,-265,594,1,7,11
1.11E+02,-8486,1697,-389,-2180,-341,202,1,7,11
1.12E+02,-8167,1707,-625,-2266,-186,-84,1,7,11
1.12E+02,-8080,1893,-586,-2639,-544,-363,1,7,11
1.12E+02,-8273,1752,-549,-2490,-630,-406,1,7,11
1.12E+02,-8255,1625,-251,-2843,-433,-687,1,7,11
1.13E+02,-8570,707,-137,-2917,-235,-1569,1,7,11
1.13E+02,-8107,809,-378,-2915,-611,-1918,1,7,11
1.13E+02,-7911,474,-211,-2641,-433,-2113,1,7,11
1.13E+02,-8232,628,-217,-2226,-597,-1953,1,7,11
1.14E+02,-8248,250,-211,-1961,-586,-1988,1,7,11
1.14E+02,-8223,227,-251,-2055,-592,-2005,1,7,11
1.14E+02,-8293,237,-552,-1489,-520,-2170,1,7,11
1.14E+02,-8136,254,-605,-1210,-209,-1730,1,7,11
1.15E+02,-8455,546,-389,-913,-173,-1491,1,7,11
1.15E+02,-8541,535,-420,-1118,-159,-1442,1,7,11
1.15E+02,-8336,226,-472,-1070,-176,-1395,1,7,11
1.15E+02,-8374,206,-803,-764,-238,-646,1,7,11
1.16E+02,-8400,196,-875,-694,-535,-701,1,7,11
1.16E+02,-8430,140,-883,-681,-564,-561,1,7,11
1.16E+02,-8447,357,-875,-660,-403,-549,1,7,11
1.16E+02,-8431,182,-883,-837,-511,-572,1,7,11
1.17E+02,-8405,249,-888,-826,-883,-256,1,7,11
1.17E+02,-8341,240,-872,-854,-762,-199,1,7,11
1.17E+02,-8513,255,-842,-842,-1145,-209,1,7,11
1.17E+02,-8457,535,-812,-843,-1002,-215,1,7,11
1.18E+02,-8288,409,-831,-831,-1396,-199,1,7,11
1.18E+02,-8236,769,-839,-719,-1388,-352,1,7,11
1.18E+02,-8072,500,-478,-976,-1325,76,1,7,11
1.18E+02,-8112,450,-620,-1168,-1328,261,1,7,11
1.19E+02,-8507,392,-212,-1568,-1345,244,1,7,11
1.19E+02,-8355,520,-368,-1641,-1195,823,1,7,11
1.19E+02,-8543,159,-343,-1415,-1588,909,1,7,11
1.19E+02,-8463,293,-317,-1511,-1591,1227,1,7,11
1.20E+02,-8133,31,242,-1797,-665,1216,1,7,11
1.20E+02,-8308,38,583,-1503,-483,1347,1,7,11
1.20E+02,-8272,466,458,-1291,607,429,1,7,11
1.20E+02,-8097,793,510,-1166,777,403,1,7,11
1.21E+02,-8496,846,812,-1612,816,625,1,7,11
1.21E+02,-8526,847,831,-1799,387,538,1,7,11
1.21E+02,-8492,659,805,-1710,380,366,1,7,11
1.21E+02,-8131,749,475,-2164,81,-36,1,7,11
1.22E+02,-8266,724,506,-2211,-172,82,1,7,11
1.22E+02,-7905,668,805,-2544,-401,-365,1,7,11
1.22E+02,-7882,657,865,-2778,-874,-602,1,7,11
1.22E+02,-7863,667,704,-2947,-1091,-793,1,7,11
1.23E+02,-7850,731,1044,-3349,-1024,-869,1,7,11
1.23E+02,-7857,713,1179,-3558,-1217,-617,1,7,11
1.23E+02,-7853,719,1274,-3567,-1389,-519,1,7,11
1.23E+02,-8063,750,1539,-3581,-915,-334,1,7,11
1.24E+02,-7996,1047,1239,-3872,-804,-252,1,7,11
1.24E+02,-7661,1127,1306,-3775,-276,22,1,7,11
1.24E+02,-7613,1161,725,-4363,429,-315,1,7,11
1.24E+02,-7635,1520,405,-4790,1267,-205,1,7,11
1.25E+02,-8006,2069,359,-6214,2407,-605,1,7,11
1.25E+02,-7909,1995,71,-7709,2958,-469,1,7,11
1.25E+02,-8314,1972,-233,-9504,3892,-771,1,7,11
1.25E+02,-8157,2079,-834,-11141,4361,-801,1,7,11
1.26E+02,-8345,1512,-1076,-13327,4514,-791,1,7,11
1.26E+02,-8620,1336,-989,-15141,5052,-459,1,7,11
1.26E+02,-8856,653,-1231,-17211,5433,-516,1,7,11
1.26E+02,-9270,221,-1494,-17731,5250,13,1,7,11
1.27E+02,-9208,31,-1872,-18324,5287,-32,1,7,11
1.27E+02,-9391,-565,-1855,-18881,5405,359,1,7,11
1.27E+02,-9771,-855,-1531,-19120,4781,159,1,7,11
1.27E+02,-9832,-1136,-1629,-19078,4234,366,1,7,11
1.28E+02,-9773,-1163,-1154,-19249,3521,-82,1,7,11
1.28E+02,-9541,-1644,-966,-18700,3353,67,1,7,11
1.28E+02,-9283,-1471,-1063,-17648,2336,-695,1,7,11
1.28E+02,-9087,-1640,-850,-16166,1330,-1183,1,7,11
1.29E+02,-8667,-1242,-601,-14543,627,-1446,1,7,11
1.29E+02,-8431,-1172,-183,-13036,-272,-1456,1,7,11
1.29E+02,-8181,-1399,-328,-11611,-455,-1610,1,7,11
1.29E+02,-8249,-1366,28,-9812,-656,-1187,1,7,11
1.30E+02,-7860,-1383,-91,-7985,-664,-996,1,7,11
1.30E+02,-7814,-1290,321,-5874,-835,-1133,1,7,11
1.30E+02,-7996,-1063,163,-4377,-468,-1042,1,7,11
1.30E+02,-7622,-461,164,-2900,-561,-708,1,7,11
1.31E+02,-7631,-220,225,-1861,-289,-659,1,7,11
1.31E+02,-8051,-298,550,-1093,-59,-711,1,7,11
1.31E+02,-8268,-120,592,-530,284,-1102,1,7,11
1.31E+02,-8484,321,589,102,-31,-1001,1,7,11
1.32E+02,-8435,250,548,368,59,-1399,1,7,11
1.32E+02,-8815,431,254,538,-176,-1223,1,7,11
1.32E+02,-8786,808,178,572,-437,-1264,1,7,11
1.32E+02,-8769,836,182,189,-877,-1574,1,7,11
1.33E+02,-8809,476,618,-13,-759,-1621,1,7,11
1.33E+02,-8802,589,468,119,-929,-1416,1,7,11
1.33E+02,-8769,165,839,65,-1306,-1447,1,7,11
1.33E+02,-8753,269,696,96,-1373,-1435,1,7,11
1.34E+02,-8710,-64,727,-15,-1185,-1647,1,7,11
1.34E+02,-8358,-71,747,162,-1209,-1569,1,7,11
1.34E+02,-8330,-70,1056,550,-1386,-1203,1,7,11
1.34E+02,-8546,-105,1105,632,-1301,-1328,1,7,11
1.35E+02,-8527,98,1127,441,-952,-965,1,7,11
1.35E+02,-8567,67,1144,484,-1116,-1131,1,7,11
1.35E+02,-8372,59,1146,470,-1072,-1054,1,7,11
1.35E+02,-8380,56,1103,450,-1105,-726,1,7,11
1.36E+02,-8428,30,1079,415,-1140,-664,1,7,11
1.36E+02,-8720,-264,1060,627,-1151,-856,1,7,11
1.36E+02,-8768,-266,758,629,-919,-790,1,7,11
1.36E+02,-8757,0,692,409,-937,-483,1,7,11
1.37E+02,-8756,-273,663,393,-1138,-425,1,7,11
1.37E+02,-8740,15,657,618,-1062,-616,1,7,11
1.37E+02,-8361,37,859,580,-1025,-525,1,7,11
1.37E+02,-8456,-75,804,571,-693,-171,1,7,11
1.38E+02,-8296,332,481,573,-863,-320,1,7,11
1.38E+02,-8153,229,447,247,-499,22,1,7,11
1.38E+02,-8061,595,440,315,-600,68,1,7,11
1.38E+02,-8034,634,793,3,-189,99,1,7,11
1.39E+02,-8032,626,852,-597,-383,95,1,7,11
1.39E+02,-7882,566,674,-697,-378,28,1,7,11
1.39E+02,-8216,573,706,-1001,-150,-267,1,7,11
1.39E+02,-8294,575,675,-1215,-216,-324,1,7,11
1.40E+02,-8105,576,892,-1425,-221,-303,1,7,11
1.40E+02,-8184,545,862,-1849,-186,51,1,7,11
1.40E+02,-8546,198,648,-1757,-343,-27,1,7,11
1.40E+02,-8382,361,707,-2105,17,191,1,7,11
1.41E+02,-8396,264,760,-2083,58,416,1,7,11
1.41E+02,-8357,336,707,-1710,39,643,1,7,11
1.41E+02,-8717,-14,1094,-1767,108,972,1,7,11
1.41E+02,-8567,-108,740,-1860,-292,1184,1,7,11
1.42E+02,-8119,-97,727,-1635,-361,1364,1,7,11
1.42E+02,-8079,-36,743,-1189,-313,1018,1,7,11
1.42E+02,-8287,310,731,-977,-328,1143,1,7,11
1.42E+02,-8314,154,1061,-726,-286,819,1,7,11
1.43E+02,-8105,166,1114,-651,-290,415,1,7,11
1.43E+02,-8101,159,1115,-784,-334,248,1,7,11
1.43E+02,-8068,161,1108,-626,-364,314,1,7,11
1.43E+02,-8278,-9,1062,66,-295,-182,1,7,11
1.44E+02,-8076,-68,743,295,-278,-520,1,7,11
1.44E+02,-8125,-124,673,589,4,-437,1,7,11
1.44E+02,-8175,78,876,673,15,-875,1,7,11
1.44E+02,-8496,-271,848,1011,6,-1040,1,7,11
1.45E+02,-8336,-340,838,1607,5,-936,1,7,11
1.45E+02,-8432,-177,861,1689,-290,-1319,1,7,11
1.45E+02,-8802,-571,669,2141,-155,-1255,1,7,11
1.45E+02,-8596,-625,722,2567,-219,-1572,1,7,11
1.46E+02,-8660,-436,732,2929,-390,-1424,1,7,11
1.46E+02,-8684,-449,718,3054,-819,-1489,1,7,11
1.46E+02,-8686,-578,717,3682,-705,-1474,1,7,11
1.46E+02,-8687,-207,741,3961,-1050,-1572,1,7,11
1.47E+02,-8690,-351,1039,4139,-1115,-1284,1,7,11
1.47E+02,-8809,20,1107,4037,-937,-651,1,7,11
1.47E+02,-8747,71,918,4395,-977,-188,1,7,11
1.47E+02,-8770,94,1284,4458,-977,343,1,7,11
1.48E+02,-8563,101,1285,4723,-1398,494,1,7,11
1.48E+02,-8499,35,1360,4974,-1248,1063,1,7,11
1.48E+02,-8485,-164,1593,5553,-1447,1208,1,7,11
1.48E+02,-8466,-628,1658,6434,-1883,1544,1,7,11
1.49E+02,-8360,1100,1385,11799,-2446,-2284,1,7,11
1.49E+02,-8561,1343,1392,11572,-2641,-2162,1,7,11
1.49E+02,-8165,1249,1186,10957,-2238,-1659,1,7,11
1.49E+02,-8249,1627,1555,10798,-1999,-1152,1,7,11
1.50E+02,-8316,1469,1517,10307,-1913,-472,1,7,11
1.50E+02,-8278,1820,1918,9778,-1429,-324,1,7,11
1.50E+02,-8217,1845,1777,8853,-1564,158,1,7,11
1.50E+02,-7854,1895,2069,8185,-1237,210,1,7,11
1.51E+02,-8060,1680,2085,7739,-1392,187,1,7,11
1.51E+02,-7969,1772,2057,7021,-982,354,1,7,11
1.51E+02,-7642,2050,1778,6050,-1030,-39,1,7,11
1.51E+02,-7599,2033,1778,5353,-500,56,1,7,11
1.52E+02,-7639,1726,2084,4966,-178,-366,1,7,11
1.52E+02,-7976,1748,2116,4422,122,-543,1,7,11
1.52E+02,-7809,1708,1949,3893,377,-596,1,7,11
1.52E+02,-8081,1817,2343,2944,594,-243,1,7,11
1.53E+02,-8117,1834,2320,2598,386,-305,1,7,11
1.53E+02,-8118,1830,2028,1737,622,53,1,7,11
1.53E+02,-8127,1867,1986,1387,387,282,1,7,11
1.53E+02,-8142,1894,1970,823,411,549,1,7,11
1.54E+02,-8152,1779,1988,-35,440,854,1,7,11
1.54E+02,-8108,1420,2034,-226,450,1071,1,7,11
1.54E+02,-8312,1570,2314,-504,441,912,1,7,11
1.54E+02,-8195,1608,1956,-642,403,1051,1,7,11
1.55E+02,-8010,1700,1703,-708,401,846,1,7,11
1.55E+02,-7554,2597,1581,-982,817,410,1,7,11
1.55E+02,-7633,3061,1342,-1866,1237,587,1,7,11
1.55E+02,-7992,3735,1122,-4366,1702,398,1,7,11
1.56E+02,-7868,4403,646,-6724,2030,646,1,7,11
1.56E+02,-7839,4094,409,-9173,2224,929,1,7,11
1.56E+02,-8027,3936,526,-12135,2435,1157,1,7,11
1.56E+02,-8018,3144,584,-14263,2719,1616,1,7,11
1.57E+02,-8048,2032,478,-16203,2975,1497,1,7,11
1.57E+02,-7834,1253,861,-16893,3425,1860,1,7,11
1.57E+02,-7848,690,876,-17152,3623,1718,1,7,11
1.57E+02,-7821,518,828,-17252,3870,2096,1,7,11
1.58E+02,-8001,-91,475,-16549,4164,2121,1,7,11
1.58E+02,-8046,-170,791,-16196,4284,1688,1,7,11
1.58E+02,-8265,-436,1071,-15098,4601,1599,1,7,11
1.58E+02,-8491,-804,1374,-14166,4923,927,1,7,11
1.59E+02,-8409,-863,1408,-12529,4502,511,1,7,11
1.59E+02,-8775,-834,1847,-11268,4396,348,1,7,11
1.59E+02,-8609,-426,1858,-9424,3904,-308,1,7,11
1.59E+02,-8607,-199,1478,-7919,3390,-395,1,7,11
1.60E+02,-8786,97,1268,-6640,2938,-662,1,7,11
1.60E+02,-8797,321,1366,-5889,2643,-1043,1,7,11
1.60E+02,-8583,202,978,-4765,2405,-1028,1,7,11
1.60E+02,-8818,573,1096,-3980,1952,-674,1,7,11
1.61E+02,-8785,470,679,-3325,2081,-783,1,7,11
1.61E+02,-8739,882,778,-3110,1758,-585,1,7,11
1.61E+02,-8417,675,453,-2845,1728,-383,1,7,11
1.61E+02,-8736,872,768,-2434,1713,15,1,7,11
1.62E+02,-8791,806,859,-2270,1827,106,1,7,11
1.62E+02,-8826,466,646,-1961,1193,-89,1,7,11
1.62E+02,-8595,490,871,-1708,924,-63,1,7,11
1.62E+02,-8592,811,820,-1429,646,-27,1,7,11
1.63E+02,-8732,853,503,-1179,616,256,1,7,11
1.63E+02,-8350,666,403,-938,140,-25,1,7,11
1.63E+02,-8518,750,606,-748,259,-79,1,7,11
1.63E+02,-8487,1069,594,-865,-84,102,1,7,11
1.64E+02,-8499,1125,627,-491,101,15,1,7,11
1.64E+02,-8520,924,415,-408,23,-299,1,7,11
1.64E+02,-8535,949,448,-606,-308,-339,1,7,11
1.64E+02,-8538,975,468,-558,-378,-372,1,7,11
1.65E+02,-8491,958,468,-542,-180,-384,1,7,11
1.65E+02,-8160,931,468,-516,-207,-178,1,7,11
1.65E+02,-8113,914,461,-238,-193,-255,1,7,11
1.65E+02,-8118,1112,483,-228,-144,-591,1,7,11
1.66E+02,-8146,1074,508,-170,-351,-427,1,7,11
1.66E+02,-8455,1055,797,-343,-305,-493,1,7,11
1.66E+02,-8488,756,829,10,-277,-769,1,7,11
1.66E+02,-8182,731,830,124,-272,-776,1,7,11
1.67E+02,-8123,742,820,-21,33,-786,1,7,11
1.67E+02,-8080,750,831,288,-122,-792,1,7,11
1.67E+02,-8315,1034,826,311,260,-809,1,7,11
1.67E+02,-8304,1053,825,302,160,-815,1,7,11
1.68E+02,-8318,750,856,269,587,-819,1,7,11
1.68E+02,-8108,653,654,-50,488,-833,1,7,11
1.68E+02,-8186,772,731,114,843,-875,1,7,11
1.68E+02,-8481,483,731,89,809,-715,1,7,11
1.69E+02,-8496,430,682,57,789,-724,1,7,11
1.69E+02,-8503,401,886,9,789,-703,1,7,11
1.69E+02,-8495,626,822,3,796,-894,1,7,11
1.69E+02,-8460,585,504,6,816,-822,1,7,11
1.70E+02,-8463,570,468,-266,854,-469,1,7,11
1.70E+02,-8473,548,463,-289,876,-596,1,7,11
1.70E+02,-8512,543,415,-380,644,-157,1,7,11
1.70E+02,-8364,153,454,-194,871,-261,1,7,11
1.71E+02,-8356,347,396,-366,462,-260,1,7,11
1.71E+02,-8368,325,590,4,590,-271,1,7,11
1.71E+02,-8402,288,575,-108,218,-284,1,7,11
1.71E+02,-8427,262,570,324,319,-326,1,7,11
1.72E+02,-8440,-13,565,146,-26,-346,1,7,11
1.72E+02,-8433,-51,575,532,46,-353,1,7,11
1.72E+02,-8716,-48,596,464,-236,-151,1,7,11
1.72E+02,-8422,280,599,764,-440,-216,1,7,11
1.73E+02,-8439,131,595,1382,-838,-160,1,7,11
1.73E+02,-8420,212,588,1548,-733,-273,1,7,11
1.73E+02,-8366,252,588,1436,-1086,-110,1,7,11
1.73E+02,-8356,521,624,1566,-1124,317,1,7,11
1.74E+02,-8359,219,405,1686,-915,204,1,7,11
1.74E+02,-8526,543,411,2152,-995,522,1,7,11
1.74E+02,-8453,542,472,2570,-961,236,1,7,11
1.74E+02,-8452,594,497,2463,-926,373,1,7,11
1.75E+02,-8554,620,736,3129,-1023,80,1,7,11
1.75E+02,-8370,539,1083,3379,-1307,57,1,7,11
1.75E+02,-8560,-352,1349,6069,-1889,571,1,7,11
1.75E+02,-8479,66,980,6640,-1749,525,1,7,11
1.76E+02,-8465,292,926,7261,-1786,558,1,7,11
1.76E+02,-8187,142,905,7125,-2055,426,1,7,11
1.76E+02,-8136,544,1130,7147,-2054,813,1,7,11
1.76E+02,-8129,469,1111,7087,-1763,677,1,7,11
1.77E+02,-8092,757,1072,7289,-1760,1027,1,7,11
1.77E+02,-8068,996,1073,6886,-1696,921,1,7,11
1.77E+02,-8289,1360,1139,6966,-1841,1334,1,7,11
1.77E+02,-8288,1194,962,6575,-1464,1390,1,7,11
1.78E+02,-7936,1563,1005,6721,-1643,1369,1,7,11
1.78E+02,-7895,1430,1015,6320,-1252,1296,1,7,11
1.78E+02,-7877,1847,1009,6132,-1375,918,1,7,11
1.78E+02,-7871,1733,1020,5851,-964,1050,1,7,11
1.79E+02,-7915,2105,1323,5752,-1064,675,1,7,11
1.79E+02,-8223,2174,1375,5093,-706,824,1,7,11
1.79E+02,-8273,1947,1169,4932,-655,488,1,7,11
1.79E+02,-8247,1958,1160,4295,-653,420,1,7,11
1.80E+02,-8246,1945,1155,4178,-876,619,1,7,11
1.80E+02,-8237,2137,1161,3857,-865,541,1,7,11
1.80E+02,-8198,2111,1159,3624,-835,172,1,7,11
1.80E+02,-8195,2085,1184,3393,-769,349,1,7,11
1.81E+02,-7909,2057,1211,3193,-457,308,1,7,11
1.81E+02,-7918,2052,1211,2773,-633,297,1,7,11
1.81E+02,-7924,2076,1220,2883,-562,308,1,7,11
1.81E+02,-7935,2114,1212,2498,-241,342,1,7,11
1.82E+02,-8198,1930,1210,2603,-165,156,1,7,11
1.82E+02,-7934,1946,1228,2186,-357,515,1,7,11
1.82E+02,-7911,1934,1233,2327,-303,582,1,7,11
1.82E+02,-7919,1936,1247,1983,-267,626,1,7,11
1.83E+02,-8208,2140,1273,2167,10,622,1,7,11
1.83E+02,-8205,2093,1559,2132,-272,576,1,7,11
1.83E+02,-7934,1764,1572,2117,-315,221,1,7,11
1.83E+02,-8202,1719,1601,2124,-358,323,1,7,11
1.84E+02,-8201,1664,1609,2138,-178,-111,1,7,11
1.84E+02,-8253,1913,1630,2160,-516,-292,1,7,11
1.84E+02,-8270,1914,1596,2166,-609,-177,1,7,11
1.84E+02,-8298,1667,1553,2170,-426,-541,1,7,11
1.85E+02,-8226,1901,1570,2148,-451,-559,1,7,11
1.85E+02,-8333,1843,1573,2127,-511,-228,1,7,11
1.85E+02,-8339,1803,1556,2150,-647,-350,1,7,11
1.85E+02,-8543,1529,1538,1940,-1061,-288,1,7,11
1.86E+02,-8488,1502,1546,1997,-939,11,1,7,11
1.86E+02,-8513,1412,1625,2312,-1356,46,1,7,11
1.86E+02,-8506,1582,1619,2597,-1540,74,1,7,11
1.86E+02,-8131,1275,1543,2873,-1473,33,1,7,11
1.87E+02,-8277,1278,1226,3157,-1830,-353,1,7,11
1.87E+02,-8221,1650,1156,3428,-1844,-539,1,7,11
1.87E+02,-7917,1812,1362,3589,-1516,-456,1,7,11
1.87E+02,-7920,1668,1385,3614,-1623,-845,1,7,11
1.88E+02,-7899,1739,1152,3592,-1212,-702,1,7,11
1.88E+02,-7886,2081,1172,3265,-1289,-1052,1,7,11
1.88E+02,-7867,2092,1177,3332,-1100,-1104,1,7,11
1.88E+02,-7865,2067,1212,2815,-666,-941,1,7,11
1.89E+02,-7876,2082,1241,2535,-793,-1330,1,7,11
1.89E+02,-7905,2079,1538,2200,-433,-1210,1,7,11
1.89E+02,-8219,2050,1590,2106,-621,-1583,1,7,11
1.89E+02,-8287,1757,1661,1504,-583,-1442,1,7,11
1.90E+02,-8309,1710,1437,1173,-593,-1822,1,7,11
1.90E+02,-8078,1871,1486,1104,-592,-1690,1,7,11
1.90E+02,-8159,1520,1827,810,-576,-2053,1,7,11
1.90E+02,-8487,1645,1892,555,-578,-2113,1,7,11
1.91E+02,-8563,1262,1686,362,-583,-2170,1,7,11
1.91E+02,-8330,1177,1707,-44,-612,-1927,1,7,11
1.91E+02,-8262,1319,1844,-312,-396,-2146,1,7,11
1.91E+02,-8263,1336,1868,-216,-565,-2094,1,7,11
1.92E+02,-8135,1036,2049,-1283,-647,-1033,1,7,11
1.92E+02,-8161,1027,2081,-1400,-652,-794,1,7,11
1.92E+02,-7873,1135,1771,-1486,-15,594,1,7,11
1.92E+02,-8031,1002,1900,-1888,514,469,1,7,11
1.93E+02,-8456,2883,890,-8049,2742,1348,1,7,11
1.93E+02,-8414,2595,717,-9683,2814,1213,1,7,11
1.93E+02,-8457,422,284,-15600,2181,443,1,7,11
1.93E+02,-8461,141,-75,-16237,2280,440,1,7,11
1.94E+02,-8668,-822,691,-13307,1735,1118,1,7,11
1.94E+02,-8670,-704,1115,-12406,1422,759,1,7,11
1.94E+02,-8649,-693,971,-11077,1376,833,1,7,11
1.94E+02,-8587,-830,1285,-9445,1098,625,1,7,11
1.95E+02,-8769,-533,1305,-8154,889,182,1,7,11
1.95E+02,-8719,-130,1321,-7292,501,310,1,7,11
1.95E+02,-8712,-267,1343,-6053,580,-100,1,7,11
1.95E+02,-8407,44,1374,-4824,188,95,1,7,11
1.96E+02,-8330,77,1153,-4388,310,53,1,7,11
1.96E+02,-8501,-113,1182,-3491,-72,2,1,7,11
1.96E+02,-8186,-40,1218,-3181,93,-324,1,7,11
1.96E+02,-8179,314,1543,-2447,25,-129,1,7,11
1.97E+02,-8469,139,1627,-2359,-323,-158,1,7,11
1.97E+02,-8464,235,1411,-2086,-204,-167,1,7,11
1.97E+02,-8087,454,1598,-1858,-602,-148,1,7,11
1.97E+02,-8109,858,1597,-1803,-576,-339,1,7,11
1.98E+02,-8268,950,1456,-1976,14,-283,1,7,11
1.98E+02,-8307,1141,1793,-2370,99,36,1,7,11
1.98E+02,-8274,208,1640,-744,-202,-800,1,7,11
1.98E+02,-8084,412,1421,-687,-294,-1100,1,7,11
1.99E+02,-8113,851,1458,-689,101,-1016,1,7,11
1.99E+02,-8122,678,1493,-758,-4,-1306,1,7,11
1.99E+02,-8120,685,1522,-1070,149,-997,1,7,11
1.99E+02,-8106,865,1802,-1095,544,-927,1,7,11
2.00E+02,-8084,451,1817,-1139,408,-1097,1,7,11
2.00E+02,-8120,518,1856,-912,476,-1055,1,7,11
2.00E+02,-8147,383,1860,-898,436,-1032,1,7,11
2.00E+02,-8466,187,1801,-1118,412,-660,1,7,11
2.01E+02,-8526,158,1504,-655,198,-51,1,7,11
2.01E+02,-8535,332,1806,-737,188,198,1,7,11
2.01E+02,-8472,-30,1862,-1096,141,549,1,7,11
2.01E+02,-8121,332,1835,-1135,306,210,1,7,11
2.02E+02,-8086,769,1540,-2464,516,-356,1,7,11
2.02E+02,-8167,636,1264,-3195,539,-227,1,7,11
2.02E+02,-8396,-78,1638,-3280,161,-308,1,7,11
2.02E+02,-8323,46,1428,-3199,133,-62,1,7,11
2.03E+02,-8508,-303,1447,-2550,160,204,1,7,11
2.03E+02,-8513,-240,1809,-2355,211,441,1,7,11
2.03E+02,-8127,-539,1516,-1410,162,449,1,7,11
2.03E+02,-8252,-213,1440,-741,192,555,1,7,11
2.04E+02,-8247,-333,1646,-185,540,256,1,7,11
2.04E+02,-8285,-83,1279,271,600,-360,1,7,11
2.04E+02,-8133,161,1407,537,418,-603,1,7,11
2.04E+02,-8523,540,1331,637,474,-437,1,7,11
2.05E+02,-8384,591,1287,445,462,-428,1,7,11
2.05E+02,-8597,211,1364,463,385,-616,1,7,11
2.05E+02,-8761,289,1325,877,374,-638,1,7,11
2.05E+02,-8733,69,1347,757,-90,-469,1,7,11
2.06E+02,-8443,-366,1361,977,-331,-873,1,7,11
2.06E+02,-8418,-184,1339,1277,-571,-1036,1,7,11
2.06E+02,-8395,-256,1325,1826,-502,-1139,1,7,11
2.06E+02,-8360,-549,1320,2130,-660,-952,1,7,11
2.07E+02,-8332,-559,1310,2392,-768,-944,1,7,11
2.07E+02,-8345,-564,1336,2609,-1096,-1112,1,7,11
2.07E+02,-8342,-576,1372,2522,-900,-689,1,7,11
2.07E+02,-8338,-548,1167,2935,-950,-480,1,7,11
2.08E+02,-8328,-253,1217,3080,-998,-238,1,7,11
2.08E+02,-8569,-239,1255,2968,-1284,32,1,7,11
2.08E+02,-8557,-521,1555,3356,-1291,296,1,7,11
2.08E+02,-8532,-579,1607,3225,-1300,252,1,7,11
2.09E+02,-8458,-541,1625,3664,-1321,622,1,7,11
2.09E+02,-8084,-360,1618,3566,-1290,404,1,7,11
2.09E+02,-8218,-128,1603,3871,-924,425,1,7,11
2.09E+02,-8246,295,1637,3703,-696,456,1,7,11
2.10E+02,-8230,315,1479,3418,-793,468,1,7,11
2.10E+02,-7918,293,1530,3162,-428,539,1,7,11
2.10E+02,-8217,174,1803,2690,-577,278,1,7,11
2.10E+02,-8239,223,1802,2633,-513,94,1,7,11
2.11E+02,-8284,560,1515,2354,-182,-292,1,7,11
2.11E+02,-8092,433,1467,2080,-342,-277,1,7,11
2.11E+02,-8158,780,1446,1517,32,-114,1,7,11
2.11E+02,-8470,820,1468,1219,-111,380,1,7,11
2.12E+02,-8518,500,1799,952,-36,632,1,7,11
2.12E+02,-8566,621,1871,1028,-30,818,1,7,11
2.12E+02,-8549,528,1896,714,-109,885,1,7,11
2.12E+02,-8524,218,1881,728,74,878,1,7,11
2.13E+02,-8552,174,1885,1040,22,822,1,7,11
2.13E+02,-8531,164,1866,1137,-331,484,1,7,11
2.13E+02,-8522,176,1836,984,-148,403,1,7,11
2.13E+02,-8481,549,1523,1383,-236,526,1,7,11
2.14E+02,-8461,415,1480,1187,-529,202,1,7,11
2.14E+02,-8449,469,1487,1215,-518,220,1,7,11
2.14E+02,-8158,824,1469,1556,-218,537,1,7,11
2.14E+02,-8459,810,1528,1582,-133,632,1,7,11
2.15E+02,-8535,437,1858,1562,-367,449,1,7,11
2.15E+02,-8506,636,1867,1586,-197,419,1,7,11
2.15E+02,-8454,411,1839,1615,-520,559,1,7,11
2.15E+02,-8144,463,1813,1594,-536,187,1,7,11
2.16E+02,-8143,772,1801,1571,-251,350,1,7,11
2.16E+02,-8185,503,1822,1569,-214,302,1,7,11
2.16E+02,-8520,393,1882,1622,-204,282,1,7,11
2.16E+02,-8351,204,1695,1527,-533,-41,1,7,11
2.17E+02,-8397,300,1739,2105,-458,58,1,7,11
2.17E+02,-8396,-123,2059,2250,-698,-153,1,7,11
2.17E+02,-8419,-325,2101,2775,-972,-638,1,7,11
2.17E+02,-8386,-175,2058,3481,-1545,-648,1,7,11
2.18E+02,-8568,-187,1701,4231,-1815,-907,1,7,11
2.18E+02,-8521,-378,1872,5187,-1735,-1374,1,7,11
2.18E+02,-8515,-257,1807,5526,-2097,-1195,1,7,11
2.18E+02,-8528,38,1836,6234,-2166,-1162,1,7,11
2.19E+02,-8173,-68,1838,6668,-1977,-1334,1,7,11
2.19E+02,-8110,300,1870,7028,-1963,-941,1,7,11
2.19E+02,-8072,362,1677,7047,-2167,-710,1,7,11
2.19E+02,-8284,240,1776,7489,-2049,-827,1,7,11
2.20E+02,-8316,600,2110,7551,-1678,-412,1,7,11
2.20E+02,-7867,699,2017,7070,-1621,-616,1,7,11
2.20E+02,-8051,1096,2330,6789,-1377,-602,1,7,11
2.20E+02,-7996,1291,2344,6740,-1128,-577,1,7,11
2.21E+02,-7967,1156,2341,6073,-881,-230,1,7,11
2.21E+02,-7990,1241,2312,5898,-270,-370,1,7,11
2.21E+02,-7876,1259,2312,4968,587,-31,1,7,11
2.21E+02,-7921,1191,2035,4477,420,128,1,7,11
2.22E+02,-8195,1358,1977,3726,795,206,1,7,11
2.22E+02,-8264,1307,1926,3320,881,162,1,7,11
2.22E+02,-8145,1298,2161,2989,854,309,1,7,11
2.22E+02,-8470,1295,2123,2864,458,-67,1,7,11
2.23E+02,-8511,1019,2099,2662,549,78,1,7,11
2.23E+02,-8536,980,2081,2521,374,-281,1,7,11
2.23E+02,-8525,955,2055,2177,-64,-379,1,7,11
2.23E+02,-8479,940,1760,2356,50,-191,1,7,11
2.24E+02,-8165,940,1732,2031,-302,-514,1,7,11
2.24E+02,-8136,947,1758,1930,-343,-555,1,7,11
2.24E+02,-8311,1113,2071,2127,-144,-560,1,7,11
2.24E+02,-8280,1089,2110,2166,-148,-537,1,7,11
2.25E+02,-8269,1068,2170,1969,-158,-249,1,7,11
2.25E+02,-8267,1078,1941,2035,-188,-206,1,7,11
2.25E+02,-8232,1086,1942,2325,-217,-150,1,7,11
2.25E+02,-8219,1147,1928,2322,-212,-349,1,7,11
2.26E+02,-8216,959,2140,1966,-167,19,1,7,11
2.26E+02,-8238,985,2136,2073,-355,121,1,7,11
2.26E+02,-8244,1021,2107,1716,-317,126,1,7,11
2.26E+02,-8251,1020,2123,1882,-291,52,1,7,11
2.27E+02,-8237,1392,2079,1826,-269,-278,1,7,11
2.27E+02,-8318,1166,2090,1658,38,-266,1,7,11
2.27E+02,-8293,1380,2061,1254,12,-331,1,7,11
2.27E+02,-8263,1186,1770,1193,-261,-521,1,7,11
2.28E+02,-8291,1196,2048,1354,13,-433,1,7,11
2.28E+02,-8271,1228,1772,1319,-264,-873,1,7,11
2.28E+02,-8284,1241,1763,1005,-260,-767,1,7,11
2.28E+02,-8287,1235,1731,975,-284,-1144,1,7,11
2.29E+02,-8134,1014,1665,1304,-343,-1647,1,7,11
2.29E+02,-8155,1287,1879,1226,-206,-1909,1,7,11
2.29E+02,-8175,1338,1841,1608,-576,-2086,1,7,11
2.29E+02,-8128,1380,1804,1420,-450,-2148,1,7,11
2.30E+02,-8297,1356,1511,1466,-815,-2175,1,7,11
2.30E+02,-8245,1367,1504,1815,-865,-1927,1,7,11
2.30E+02,-8244,1294,1857,1853,-821,-2114,1,7,11
2.30E+02,-8283,967,1708,1899,-504,-1774,1,7,11
2.31E+02,-8068,1123,2075,1688,-480,-1694,1,7,11
2.31E+02,-8284,1064,2105,1734,-508,-1869,1,7,11
2.31E+02,-8240,763,2170,1753,-502,-1801,1,7,11
2.31E+02,-8273,729,2002,1736,-424,-1429,1,7,11
2.32E+02,-8264,711,2028,1731,-590,-1258,1,7,11
2.32E+02,-8260,661,2346,1711,-192,-1324,1,7,11
2.32E+02,-8312,661,2181,1723,-276,-900,1,7,11
2.32E+02,-8072,657,2177,1739,125,-735,1,7,11
2.33E+02,-8120,676,2407,1755,301,-851,1,7,11
2.33E+02,-8488,715,2353,1756,251,-458,1,7,11
2.33E+02,-8344,757,2345,1709,473,-553,1,7,11
2.33E+02,-8748,1056,2335,1864,682,-349,1,7,11
2.34E+02,-8751,1073,2334,1480,1062,115,1,7,11
2.34E+02,-8714,1107,2313,1590,1150,308,1,7,11
2.34E+02,-8349,1117,2004,1168,949,238,1,7,11
2.34E+02,-8526,1046,2018,1002,999,612,1,7,11
2.35E+02,-8136,1033,1981,929,944,386,1,7,11
2.35E+02,-8082,1046,1946,1124,1137,399,1,7,11
2.35E+02,-8078,1028,1946,740,1029,486,1,7,11
2.35E+02,-8261,1031,2164,683,893,500,1,7,11
2.36E+02,-8209,1060,2145,872,495,470,1,7,11
2.36E+02,-8250,1049,2139,827,600,467,1,7,11
2.36E+02,-8304,759,2114,837,160,487,1,7,11
2.36E+02,-8138,717,2080,664,-29,501,1,7,11
2.37E+02,-8477,892,1785,1052,41,495,1,7,11
2.37E+02,-8540,821,1767,1002,-139,398,1,7,11
2.37E+02,-8564,818,1754,1251,-575,221,1,7,11
2.37E+02,-8569,813,1780,1433,-465,258,1,7,11
2.38E+02,-8561,850,2097,1835,-847,36,1,7,11
2.38E+02,-8526,826,2171,1735,-713,-167,1,7,11
2.38E+02,-8162,868,1973,1997,-1044,-594,1,7,11
2.38E+02,-8138,874,2015,2271,-1025,-608,1,7,11
2.39E+02,-8073,842,2033,2854,-746,-570,1,7,11
2.39E+02,-8081,879,2308,2973,-668,-241,1,7,11
2.39E+02,-8136,685,2370,3601,-855,-325,1,7,11
2.39E+02,-8480,702,2211,3966,-846,-74,1,7,11
2.40E+02,-8546,661,2296,4049,-700,170,1,7,11
2.40E+02,-8475,706,2235,4666,-915,586,1,7,11
2.40E+02,-8067,900,2351,4960,-1355,438,1,7,11
2.40E+02,-8233,1384,1941,4819,-1394,831,1,7,11
2.41E+02,-7862,1561,2063,4853,-1358,693,1,7,11
2.41E+02,-7862,1477,2053,4804,-936,1042,1,7,11
2.41E+02,-8221,1757,2108,4889,-1053,1005,1,7,11
2.41E+02,-7910,1939,2097,4285,-761,1511,1,7,11
2.42E+02,-7930,2152,2138,3819,-686,1950,1,7,11
2.42E+02,-8214,2130,1954,3688,-653,2390,1,7,11
2.42E+02,-8303,1950,2047,3067,-875,2373,1,7,11
2.42E+02,-8176,1955,2204,2936,-878,1956,1,7,11
2.43E+02,-8475,2001,2565,2608,-742,1914,1,7,11
2.43E+02,-8179,1985,2615,2029,-1110,1598,1,7,11
2.43E+02,-8080,1971,2614,2094,-938,947,1,7,11
2.43E+02,-7848,2374,2242,1763,-949,851,1,7,11
2.44E+02,-7942,2351,2201,1896,-1082,283,1,7,11
2.44E+02,-7742,2391,2407,1795,-866,-343,1,7,11
2.44E+02,-7360,2266,2361,1512,-533,-575,1,7,11
2.44E+02,-7318,2209,2362,1547,-276,-573,1,7,11
2.45E+02,-7426,2046,1948,1059,-6,-396,1,7,11
2.45E+02,-7482,2039,2150,644,177,-459,1,7,11
2.45E+02,-7310,2019,2063,499,396,-469,1,7,11
2.45E+02,-7690,1962,1749,624,772,-436,1,7,11
2.46E+02,-8262,2158,1674,543,774,40,1,7,11
2.46E+02,-8077,2152,1876,529,631,383,1,7,11
2.46E+02,-8065,2103,1860,548,523,474,1,7,11
2.46E+02,-8246,2132,1822,624,215,1047,1,7,11
2.47E+02,-7922,1781,1847,394,216,1325,1,7,11
2.47E+02,-8057,1728,1865,799,181,1163,1,7,11
2.47E+02,-7938,1780,1870,1053,382,1356,1,7,11
2.47E+02,-7795,2147,1826,1294,324,992,1,7,11
2.48E+02,-7695,2022,1517,1221,294,1112,1,7,11
2.48E+02,-7717,2386,1490,1539,314,717,1,7,11
2.48E+02,-7795,2387,1453,1568,324,809,1,7,11
2.48E+02,-7632,2192,1632,1658,340,536,1,7,11
2.49E+02,-7644,2586,1193,1489,149,264,1,7,11
2.49E+02,-7940,2660,1340,1431,605,33,1,7,11
2.49E+02,-7809,2686,1309,1543,853,-143,1,7,11
2.49E+02,-8261,2613,1281,1361,1036,-516,1,7,11
2.50E+02,-8137,2294,963,970,1092,-640,1,7,11
2.50E+02,-8463,2243,1089,1101,1108,-493,1,7,11
2.50E+02,-8521,2409,705,691,1137,-811,1,7,11
2.50E+02,-8529,2353,860,818,1145,-868,1,7,11
2.51E+02,-8572,2012,492,631,904,-856,1,7,11
2.51E+02,-8562,2172,415,525,1104,-862,1,7,11
2.51E+02,-8574,2088,615,192,1032,-656,1,7,11
2.51E+02,-8368,1733,573,160,658,-759,1,7,11
2.52E+02,-8384,1704,209,232,485,-982,1,7,11
2.52E+02,-8431,1789,358,564,578,-1251,1,7,11
2.52E+02,-8723,2087,269,255,143,-1412,1,7,11
2.52E+02,-8442,2122,-20,178,-55,-1528,1,7,11
2.53E+02,-8391,2138,-44,303,1,-1806,1,7,11
2.53E+02,-8372,1766,-24,-104,-179,-1489,1,7,11
2.53E+02,-8568,1867,267,64,-621,-1425,1,7,11
2.53E+02,-8323,1489,315,33,-784,-1416,1,7,11
2.54E+02,-8489,1649,312,-271,-708,-1423,1,7,11
2.54E+02,-8496,1629,364,-332,-1075,-1460,1,7,11
2.54E+02,-8323,1635,203,-175,-1145,-1480,1,7,11
2.54E+02,-8385,1629,522,-547,-995,-1439,1,7,11
2.55E+02,-8402,1540,584,-478,-1334,-1631,1,7,11
2.55E+02,-8384,1194,638,-676,-1153,-1592,1,7,11
2.55E+02,-8334,1340,436,-1103,-1217,-1609,1,7,11
2.55E+02,-8551,1018,786,-951,-1251,-1435,1,7,11
2.56E+02,-8479,920,864,-1300,-1258,-1518,1,7,11
2.56E+02,-8181,1039,719,-1164,-1235,-1904,1,7,11
2.56E+02,-8466,645,1142,-1279,-1173,-1753,1,7,11
2.56E+02,-8503,802,1013,-1612,-1201,-2089,1,7,11
2.57E+02,-8494,432,1344,-1474,-1272,-2134,1,7,11
2.57E+02,-8165,614,1397,-1815,-1600,-2168,1,7,11
2.57E+02,-8081,519,1214,-1911,-1617,-2174,1,7,11
2.57E+02,-8292,147,1553,-1704,-1593,-2155,1,7,11
2.58E+02,-8315,300,1634,-1677,-1541,-2091,1,7,11
2.58E+02,-8076,-13,1412,-1833,-1219,-1695,1,7,11
2.58E+02,-8320,-27,1418,-1430,-1367,-1491,1,7,11
2.58E+02,-8202,321,1601,-1350,-895,-1143,1,7,11
2.59E+02,-8218,279,1638,-970,-525,-853,1,7,11
2.59E+02,-8152,279,1493,-1071,120,-627,1,7,11
2.59E+02,-8573,301,1851,-673,164,-378,1,7,11
2.59E+02,-8360,263,1898,-857,633,119,1,7,11
2.60E+02,-8562,-111,1691,-888,818,270,1,7,11
2.60E+02,-8465,7,1694,-657,705,-14,1,7,11
2.60E+02,-7885,81,1912,-779,754,39,1,7,11
2.60E+02,-7911,48,1709,-881,976,-364,1,7,11
2.61E+02,-7853,43,1722,-864,1004,-530,1,7,11
2.61E+02,-7876,29,1741,-654,1289,-434,1,7,11
2.61E+02,-7885,26,1749,-666,1002,-849,1,7,11
2.61E+02,-7855,62,1726,-663,945,-730,1,7,11
2.62E+02,-7859,119,1684,-666,922,-1077,1,7,11
2.62E+02,-8203,-91,1918,-694,924,-1089,1,7,11
2.62E+02,-8292,-26,1895,-719,906,-730,1,7,11
2.62E+02,-8163,-29,1665,-1034,908,-803,1,7,11
2.63E+02,-8351,-89,1773,-1067,1102,-578,1,7,11
2.63E+02,-8412,-97,2079,-1033,869,-307,1,7,11
2.63E+02,-8549,-15,1790,-692,595,-4,1,7,11
2.63E+02,-8107,310,1711,-653,159,542,1,7,11
2.64E+02,-7860,225,1816,-879,371,831,1,7,11
2.64E+02,-7966,417,1489,-725,539,1147,1,7,11
2.64E+02,-7656,791,1501,-931,788,1168,1,7,11
2.64E+02,-7559,1142,1657,-1380,754,1619,1,7,11
2.65E+02,-7735,1427,1171,-1527,1344,1819,1,7,11
2.65E+02,-7757,2373,913,-2301,1875,1734,1,7,11
2.65E+02,-8060,2940,1073,-3882,2583,2092,1,7,11
2.65E+02,-8457,2989,1051,-5318,3097,2147,1,7,11
2.66E+02,-8334,2965,673,-7451,3023,2095,1,7,11
2.66E+02,-8367,3164,477,-9285,3409,1843,1,7,11
2.66E+02,-8741,2762,517,-10962,3606,1620,1,7,11
2.66E+02,-8615,2457,239,-13134,3692,1264,1,7,11
2.67E+02,-8607,2009,186,-14546,3635,1184,1,7,11
2.67E+02,-8797,1821,319,-16154,3258,1387,1,7,11
2.67E+02,-8715,1315,-83,-17238,3405,1397,1,7,11
2.67E+02,-8803,-309,-258,-17927,3028,631,1,7,11
2.68E+02,-8666,-242,41,-17117,3129,545,1,7,11
2.68E+02,-8636,-392,30,-16352,2872,529,1,7,11
2.68E+02,-8828,-468,-272,-15690,2637,201,1,7,11
2.68E+02,-8827,-459,43,-14663,2207,330,1,7,11
2.69E+02,-8635,-398,125,-13310,2019,-10,1,7,11
2.69E+02,-9006,-491,327,-12240,2058,-14,1,7,11
2.69E+02,-8989,-653,561,-11287,1467,-47,1,7,11
2.69E+02,-8387,-378,500,-3661,356,-1123,1,7,11
2.70E+02,-8409,9,487,-2724,-72,-951,1,7,11
2.70E+02,-8705,127,451,-2185,20,-1023,1,7,11
2.70E+02,-8399,-40,634,-1770,-146,-924,1,7,11
2.70E+02,-8439,315,581,-1437,-253,-714,1,7,11
2.71E+02,-8396,218,526,-1234,-533,-826,1,7,11
2.71E+02,-8410,579,563,-1007,-224,-494,1,7,11
2.71E+02,-8705,526,493,-710,-204,-422,1,7,11
2.71E+02,-8720,136,657,-716,-566,-408,1,7,11
2.72E+02,-8445,215,672,-868,-491,-506,1,7,11
2.72E+02,-8346,602,857,-852,-864,-887,1,7,11
2.72E+02,-8350,777,855,-658,-869,-1035,1,7,11
2.72E+02,-8378,667,871,-1074,-854,-1052,1,7,11
2.73E+02,-8438,721,686,-1311,-835,-881,1,7,11
2.73E+02,-8435,801,1041,-1202,-837,-620,1,7,11
2.73E+02,-8429,409,953,-994,-859,-244,1,7,11
2.73E+02,-8147,254,1281,-667,-746,-154,1,7,11
2.74E+02,-8013,317,991,-587,-1083,-194,1,7,11
2.74E+02,-7793,305,1150,-262,-718,-436,1,7,11
2.74E+02,-7823,636,954,-30,-386,-979,1,7,11
2.74E+02,-8225,800,907,-77,-624,-1353,1,7,11
2.75E+02,-8540,775,737,-159,-576,-241,1,7,11
2.75E+02,-8128,421,1042,-585,-178,-313,1,7,11
2.75E+02,-8402,-201,1290,-1282,552,-846,1,7,11
2.75E+02,-8810,-209,987,-1350,246,-1133,1,7,11
2.76E+02,-8645,-194,954,-1205,142,-1309,1,7,11
2.76E+02,-8651,-146,925,-1586,-16,-1164,1,7,11
2.76E+02,-8799,-130,1150,-1504,63,-1165,1,7,11
2.76E+02,-8404,-171,1130,-1671,-323,-1366,1,7,11
2.77E+02,-8088,-197,739,-1754,-174,-1286,1,7,11
2.77E+02,-8213,-206,675,-2082,-374,-958,1,7,11
2.77E+02,-8197,-255,690,-2136,4,-915,1,7,11
2.77E+02,-8263,-572,743,-1935,97,-1135,1,7,11
2.78E+02,-8140,-587,1082,-2010,-124,-1113,1,7,11
2.78E+02,-8480,-536,1117,-2393,37,-1064,1,7,11
2.78E+02,-8532,-537,904,-2606,-379,-757,1,7,11
2.78E+02,-8545,-526,901,-2850,-590,-726,1,7,11
2.79E+02,-8338,-515,907,-3115,-785,-642,1,7,11
2.79E+02,-8429,-537,949,-3351,-699,-473,1,7,11
2.79E+02,-8734,-555,1006,-3230,-1122,-208,1,7,11
2.79E+02,-8771,-602,1389,-3215,-1003,88,1,7,11
2.80E+02,-8408,-630,1244,-3012,-1408,365,1,7,11
2.80E+02,-8528,-385,1583,-2928,-1209,398,1,7,11
2.80E+02,-8458,-417,1617,-2267,-1404,701,1,7,11
2.80E+02,-8502,-406,1486,-2090,-1018,966,1,7,11
2.81E+02,-8515,-386,1831,-1653,-935,1180,1,7,11
2.81E+02,-8484,-533,1896,-953,-1133,1553,1,7,11
2.81E+02,-8477,-144,1700,-814,-1064,1596,1,7,11
2.81E+02,-8183,-259,1777,-218,-761,1587,1,7,11
2.82E+02,-8162,-95,2068,74,-700,1549,1,7,11
2.82E+02,-8104,355,2085,302,-882,1539,1,7,11
2.82E+02,-8248,190,2080,168,-511,1241,1,7,11
2.82E+02,-7883,552,2053,245,-595,1338,1,7,11
2.83E+02,-7850,434,1765,532,-383,1120,1,7,11
2.83E+02,-7873,804,1722,516,84,654,1,7,11
2.83E+02,-8196,866,1672,223,262,462,1,7,11
2.83E+02,-8263,886,1867,178,133,566,1,7,11
2.84E+02,-8300,872,1798,153,210,188,1,7,11
2.84E+02,-8281,854,1422,178,517,363,1,7,11
2.84E+02,-8089,789,1585,222,605,352,1,7,11
2.84E+02,-8162,473,1227,536,428,171,1,7,11
2.85E+02,-8180,401,1402,569,484,517,1,7,11
2.85E+02,-8191,553,1365,590,803,254,1,7,11
2.85E+02,-8504,203,1394,595,859,160,1,7,11
2.85E+02,-8559,364,1191,593,861,291,1,7,11
2.86E+02,-8359,337,1226,626,810,-119,1,7,11
2.86E+02,-8401,372,1225,405,469,38,1,7,11
2.86E+02,-8355,360,1185,631,637,35,1,7,11
2.86E+02,-8531,142,1401,572,605,44,1,7,11
2.87E+02,-8460,165,1344,235,385,85,1,7,11
2.87E+02,-8170,192,1313,184,462,118,1,7,11
2.87E+02,-8121,188,953,183,770,108,1,7,11
2.87E+02,-8303,162,909,235,680,25,1,7,11
2.88E+02,-8313,211,1134,575,1032,-279,1,7,11
2.88E+02,-8093,176,1148,574,1098,-347,1,7,11
2.88E+02,-8159,212,1139,555,1083,-199,1,7,11
2.88E+02,-8493,158,936,251,1024,-529,1,7,11
2.89E+02,-8497,306,996,148,869,-620,1,7,11
2.89E+02,-8469,-7,1294,368,421,-783,1,7,11
2.89E+02,-8576,258,1019,277,573,-710,1,7,11
2.89E+02,-8346,321,1015,-66,135,-934,1,7,11
2.90E+02,-8346,296,1287,33,-12,-1543,1,7,11
2.90E+02,-8398,360,1313,-379,-117,-1857,1,7,11
2.90E+02,-8433,318,1369,-559,56,-1789,1,7,11
2.90E+02,-8438,309,1391,-399,-281,-2130,1,7,11
2.91E+02,-8448,256,1188,-443,-323,-2068,1,7,11
2.91E+02,-8395,-49,1197,-432,-373,-1890,1,7,11
2.91E+02,-8348,-93,1182,-417,-364,-1588,1,7,11
2.91E+02,-8571,48,1201,-397,-332,-983,1,7,11
2.92E+02,-8488,-341,1195,-559,-338,-742,1,7,11
2.92E+02,-8192,-193,1155,-146,-354,-895,1,7,11
2.92E+02,-8155,-249,1306,73,-136,-668,1,7,11
2.92E+02,-8139,-222,935,309,-162,-1062,1,7,11
2.93E+02,-8156,-134,1064,247,-169,-961,1,7,11
2.93E+02,-8451,-314,731,596,-162,-1308,1,7,11
2.93E+02,-8495,-263,703,611,-162,-1303,1,7,11
2.93E+02,-8471,13,706,575,-176,-924,1,7,11
2.94E+02,-8351,-259,1042,159,-374,-714,1,7,11
2.94E+02,-8332,-309,1085,310,-211,-433,1,7,11
2.94E+02,-8523,-157,1134,-7,-254,-224,1,7,11
2.94E+02,-8482,-217,924,309,-242,-351,1,7,11
2.95E+02,-8125,-518,941,163,-194,47,1,7,11
2.95E+02,-8093,-235,986,539,-291,-4,1,7,11
2.95E+02,-8318,-514,1280,607,-91,540,1,7,11
2.95E+02,-8289,-234,1298,456,136,827,1,7,11
2.96E+02,-8317,-158,1319,790,397,1113,1,7,11
2.96E+02,-8120,-312,1328,810,650,1160,1,7,11
2.96E+02,-8170,104,1288,807,1110,1445,1,7,11
2.96E+02,-8454,320,946,771,1285,1734,1,7,11
2.97E+02,-8486,513,1130,433,1210,2333,1,7,11
2.97E+02,-8554,602,1063,563,1626,2454,1,7,11
2.97E+02,-8535,583,686,135,1471,2779,1,7,11
2.97E+02,-8546,583,652,263,1808,3196,1,7,11
2.98E+02,-8568,552,871,-91,1813,2975,1,7,11
2.98E+02,-8324,527,825,96,1494,3139,1,7,11
2.98E+02,-8336,517,818,49,1630,2872,1,7,11
2.98E+02,-8576,578,780,18,1171,2231,1,7,11
2.99E+02,-8547,417,480,-316,945,2083,1,7,11
2.99E+02,-8530,484,440,-165,723,1472,1,7,11
2.99E+02,-8523,806,414,-233,508,1159,1,7,11
2.99E+02,-8556,882,384,-254,573,1140,1,7,11
3.00E+02,-8525,680,605,-241,371,660,1,7,11
3.00E+02,-8490,745,586,-205,-28,456,1,7,11
3.00E+02,-8501,1083,398,-196,-127,567,1,7,11
3.00E+02,-8511,1108,447,-207,-283,184,1,7,11
3.01E+02,-8188,1117,448,-211,-367,129,1,7,11
3.01E+02,-8129,1115,444,-214,-380,344,1,7,11
3.01E+02,-8104,1100,451,-210,-333,292,1,7,11
3.01E+02,-8082,1096,445,-155,-271,-74,1,7,11
3.02E+02,-8299,1108,432,-359,54,43,1,7,11
3.02E+02,-8287,1122,413,-358,-102,-318,1,7,11
3.02E+02,-8085,909,384,-167,265,-134,1,7,11
3.02E+02,-8159,950,607,-591,357,-166,1,7,11
3.03E+02,-8480,995,574,-788,154,-207,1,7,11
3.03E+02,-8485,1021,527,-738,176,-238,1,7,11
3.03E+02,-8478,989,251,-959,215,-513,1,7,11
3.03E+02,-8473,911,231,-1203,523,-232,1,7,11
3.04E+02,-8460,765,513,-1657,540,-252,1,7,11
3.04E+02,-8461,858,547,-1803,520,-607,1,7,11
3.04E+02,-8453,836,246,-1801,225,-428,1,7,11
3.04E+02,-8191,492,230,-1524,195,-410,1,7,11
3.05E+02,-8450,470,180,-1636,181,-607,1,7,11
3.05E+02,-8157,435,141,-1192,165,-536,1,7,11
3.05E+02,-8157,435,360,-935,160,-539,1,7,11
3.05E+02,-8531,775,352,-642,172,-591,1,7,11
3.06E+02,-8438,643,135,-640,370,-599,1,7,11
3.06E+02,-8592,701,233,-206,-6,-550,1,7,11
3.06E+02,-8643,706,579,-322,44,-241,1,7,11
3.06E+02,-8639,682,404,34,-187,-245,1,7,11
3.07E+02,-8813,640,434,-123,-423,-570,1,7,11
3.07E+02,-8753,892,457,-10,-845,-460,1,7,11
3.07E+02,-8445,670,464,131,-721,-877,1,7,11
3.07E+02,-8414,695,497,244,-1059,-763,1,7,11
3.08E+02,-8394,687,800,570,-1088,-1109,1,7,11
3.08E+02,-8359,854,878,590,-1106,-898,1,7,11
3.08E+02,-8547,484,681,388,-1125,-938,1,7,11
3.08E+02,-8460,617,756,475,-1140,-975,1,7,11
3.09E+02,-8164,369,1146,854,-1130,-1009,1,7,11
3.09E+02,-8168,110,994,930,-1152,-1329,1,7,11
3.09E+02,-8462,-156,1330,1448,-924,-1367,1,7,11
3.09E+02,-8466,-389,1318,2418,-975,-1397,1,7,11
3.10E+02,-8183,-841,1013,3030,-995,-1168,1,7,11
3.10E+02,-8479,-738,1005,3991,-942,-1166,1,7,11
3.10E+02,-8505,-898,1292,5009,-904,-1369,1,7,11
3.10E+02,-8506,-1331,1287,6076,-915,-1345,1,7,11
3.11E+02,-8521,-1208,985,7152,-985,-1169,1,7,11
3.11E+02,-8330,-1401,1146,8473,-1347,-1598,1,7,11
3.11E+02,-8364,-1019,1071,9115,-1218,-1464,1,7,11
3.11E+02,-8562,-938,766,10073,-1612,-1536,1,7,11
3.12E+02,-8328,-942,767,10396,-1444,-1855,1,7,11
3.12E+02,-8326,-913,749,10942,-1833,-1888,1,7,11
3.12E+02,-8536,-1126,859,11401,-1698,-1883,1,7,11
3.12E+02,-8504,-671,496,12034,-1777,-1869,1,7,11
3.13E+02,-8173,-498,456,12013,-2057,-1806,1,7,11
3.13E+02,-8172,-577,509,12333,-1738,-1433,1,7,11
3.13E+02,-8181,-250,719,11959,-1915,-1219,1,7,11
3.13E+02,-8177,-158,903,12052,-1919,-953,1,7,11
3.14E+02,-8540,-321,1354,11804,-1710,-667,1,7,11
3.14E+02,-8365,-126,1204,11218,-2098,-606,1,7,11
3.14E+02,-8724,268,1264,10689,-1981,33,1,7,11
3.14E+02,-8374,198,1261,10222,-2400,351,1,7,11
3.15E+02,-8450,636,1279,10067,-2251,332,1,7,11
3.15E+02,-8319,814,1647,9553,-2352,244,1,7,11
3.15E+02,-7933,717,1510,9056,-2116,76,1,7,11
3.15E+02,-7887,1144,1909,8496,-1799,-363,1,7,11
3.16E+02,-7892,1018,2050,7617,-1320,-234,1,7,11
3.16E+02,-7864,1335,2154,6543,-1046,-552,1,7,11
3.16E+02,-7834,1351,1983,5770,-782,-601,1,7,11
3.16E+02,-8064,1352,2036,5006,-526,-637,1,7,11
3.17E+02,-8044,1307,2341,4286,-273,-396,1,7,11
3.17E+02,-8047,977,2386,3934,-24,-385,1,7,11
3.17E+02,-7824,1148,2187,3437,226,-587,1,7,11
3.17E+02,-7877,752,2273,2748,449,-211,1,7,11
3.18E+02,-7890,861,2572,2445,868,-336,1,7,11
3.18E+02,-7878,772,2570,2235,1041,73,1,7,11
3.18E+02,-7896,472,2301,2320,1004,262,1,7,11
3.18E+02,-8217,453,2582,2154,1242,207,1,7,11
3.19E+02,-8228,429,2587,1707,1414,589,1,7,11
3.19E+02,-8252,498,2294,1842,1523,581,1,7,11
3.19E+02,-8068,673,2194,1496,1878,566,1,7,11
3.19E+02,-8113,939,2003,1659,1711,603,1,7,11
3.20E+02,-8094,1547,1782,1166,2088,623,1,7,11
3.20E+02,-8121,1531,1906,656,2004,398,1,7,11
3.20E+02,-8074,1747,1464,299,2379,385,1,7,11
3.20E+02,-8273,1956,1560,-473,2282,405,1,7,11
3.21E+02,-7849,2178,1345,-1654,2482,814,1,7,11
3.21E+02,-7928,2590,956,-2519,2801,1068,1,7,11
3.21E+02,-7881,2537,742,-3938,3022,1337,1,7,11
3.21E+02,-8217,2866,650,-5039,3302,1657,1,7,11
3.22E+02,-8080,2451,646,-6658,3482,1747,1,7,11
3.22E+02,-8126,2366,865,-7654,3527,2043,1,7,11
3.22E+02,-8192,1711,799,-8973,3560,2219,1,7,11
3.22E+02,-8476,1182,781,-9630,3553,2262,1,7,11
3.23E+02,-8575,844,806,-10185,3509,1968,1,7,11
3.23E+02,-8643,344,697,-10222,3628,1441,1,7,11
3.23E+02,-8907,8,743,-9720,3006,952,1,7,11
3.23E+02,-9227,-162,695,-9058,2480,815,1,7,11
3.24E+02,-8839,-230,862,-7626,1970,528,1,7,11
3.24E+02,-8655,-372,769,-6291,1847,312,1,7,11
3.24E+02,-8407,48,445,-5242,1573,-83,1,7,11
3.24E+02,-8488,267,411,-3768,1168,61,1,7,11
3.25E+02,-8136,542,635,-2907,1332,29,1,7,11
3.25E+02,-8120,833,596,-1917,1308,122,1,7,11
3.25E+02,-8145,1189,514,-177,1361,507,1,7,11
3.25E+02,-8070,1580,218,-20,1390,913,1,7,11
3.26E+02,-8311,1595,516,239,1160,1395,1,7,11
3.26E+02,-8211,1582,533,429,1324,1166,1,7,11
3.26E+02,-8199,1459,216,890,1291,1287,1,7,11
3.26E+02,-8270,1683,151,754,1002,938,1,7,11
3.27E+02,-8298,2089,309,733,921,1147,1,7,11
3.27E+02,-8308,2162,-79,869,1107,1111,1,7,11
3.27E+02,-8101,2156,114,581,702,697,1,7,11
3.27E+02,-8124,2139,34,153,494,496,1,7,11
3.28E+02,-8141,2102,-290,-11,234,204,1,7,11
3.28E+02,-8475,2065,-329,87,-34,-127,1,7,11
3.28E+02,-8183,1763,-368,-350,-345,-381,1,7,11
3.28E+02,-8554,1917,-290,-606,-530,-564,1,7,11
3.29E+02,-8481,1529,20,-810,-839,-404,1,7,11
3.29E+02,-8084,1500,46,-857,-1085,-797,1,7,11
3.29E+02,-8236,1534,61,-875,-1148,-773,1,7,11
3.29E+02,-7884,1587,-85,-864,-1133,-470,1,7,11
3.30E+02,-7858,1570,277,-400,-1075,-803,1,7,11
3.30E+02,-7827,1619,323,-237,-1036,-492,1,7,11
3.30E+02,-8038,1595,137,-130,-755,-406,1,7,11
3.30E+02,-8054,1549,233,-313,-733,-599,1,7,11
3.31E+02,-7985,1609,235,71,-1037,-520,1,7,11
3.31E+02,-8007,1647,220,112,-739,-362,1,7,11
3.31E+02,-8021,1415,235,-125,-671,108,1,7,11
3.31E+02,-7680,1641,218,-71,-889,-3,1,7,11
3.32E+02,-7615,1421,192,358,-795,284,1,7,11
3.32E+02,-7573,1534,368,625,-387,288,1,7,11
3.32E+02,-7628,1718,-18,875,-140,373,1,7,11
3.32E+02,-8014,2134,87,744,125,567,1,7,11
3.33E+02,-8244,2047,-303,765,365,810,1,7,11
3.33E+02,-8156,2200,-155,708,220,1044,1,7,11
3.33E+02,-8511,2605,-549,883,224,922,1,7,11
3.33E+02,-8561,2450,-407,841,380,960,1,7,11
3.34E+02,-8324,2675,-447,830,312,1088,1,7,11
3.34E+02,-8755,2492,-442,863,260,660,1,7,11
3.34E+02,-8792,2532,-445,826,111,822,1,7,11
3.34E+02,-8800,2545,-441,510,2,480,1,7,11
3.35E+02,-8793,2835,-404,442,-332,460,1,7,11
3.35E+02,-8560,2820,-401,632,-163,498,1,7,11
3.35E+02,-8247,2291,-536,466,-331,443,1,7,11
3.35E+02,-8215,2421,-190,167,-284,622,1,7,11
3.36E+02,-7876,1973,-278,155,-273,134,1,7,11
3.36E+02,-8057,2132,94,201,-316,105,1,7,11
3.36E+02,-7989,2106,-74,243,-148,-171,1,7,11
3.36E+02,-7628,2083,-25,248,-537,-399,1,7,11
3.37E+02,-7405,2088,-47,224,-602,-506,1,7,11
3.37E+02,-7407,2068,-25,145,-208,-508,1,7,11
3.37E+02,-7753,1758,-17,304,-332,-442,1,7,11
3.37E+02,-7625,1919,272,-48,69,-609,1,7,11
3.38E+02,-7816,1844,311,-100,-56,-565,1,7,11
3.38E+02,-8257,1865,301,-101,-26,-553,1,7,11
3.38E+02,-8156,1844,273,87,-36,-243,1,7,11
3.38E+02,-8537,1516,257,-260,-55,-150,1,7,11
3.39E+02,-8338,1860,-86,-276,-95,-324,1,7,11
3.39E+02,-8783,1633,-87,-249,-93,-273,1,7,11
3.39E+02,-8745,1266,112,-305,19,-547,1,7,11
3.39E+02,-8781,1572,56,-58,-291,-707,1,7,11
3.40E+02,-8609,1589,99,326,-378,-980,1,7,11
3.40E+02,-8649,1619,-105,177,-568,-1189,1,7,11
3.40E+02,-8628,1637,-43,216,-804,-1537,1,7,11
3.40E+02,-8731,1646,-36,230,-1042,-1239,1,7,11
3.41E+02,-8321,1601,258,202,-924,-1352,1,7,11
3.41E+02,-8182,1540,303,178,-1013,-934,1,7,11
3.41E+02,-8320,1238,361,143,-1341,-1026,1,7,11
3.41E+02,-8226,1190,186,343,-1374,-846,1,7,11
3.42E+02,-7925,1209,254,294,-1378,-411,1,7,11
3.42E+02,-7915,1177,628,-53,-1399,-212,1,7,11
3.42E+02,-7890,1185,420,109,-1195,-263,1,7,11
3.42E+02,-7863,1201,474,87,-1543,-107,1,7,11
3.43E+02,-7833,1395,789,62,-1590,-1,1,7,11
3.43E+02,-7867,1328,853,49,-1602,-12,1,7,11
3.43E+02,-8244,1010,713,-265,-1577,106,1,7,11
3.43E+02,-8131,1021,758,-299,-1560,-373,1,7,11
3.44E+02,-8546,1295,752,-274,-1579,-400,1,7,11
3.44E+02,-8991,1291,1112,-351,-1219,-751,1,7,11
3.44E+02,-9269,1307,929,-242,-1392,-1217,1,7,11
3.44E+02,-9272,955,998,-446,-1253,-1498,1,7,11
3.45E+02,-9034,1070,1292,-718,-1432,-2075,1,7,11
3.45E+02,-8802,675,1329,-1078,-1444,-2387,1,7,11
3.45E+02,-8390,803,1158,-1121,-1641,-2616,1,7,11
3.45E+02,-8525,446,1198,-1092,-1576,-2677,1,7,11
3.46E+02,-8124,617,1189,-1058,-1263,-2628,1,7,11
3.46E+02,-8238,248,1406,-732,-1407,-2260,1,7,11
3.46E+02,-7924,195,1386,-795,-991,-2383,1,7,11
3.46E+02,-7931,154,1403,-598,-1062,-2145,1,7,11
3.47E+02,-8269,355,1224,-189,-659,-1852,1,7,11
3.47E+02,-8255,306,1270,-311,-875,-1221,1,7,11
3.47E+02,-8252,-16,1622,64,-811,-744,1,7,11
3.47E+02,-8259,-78,1433,-46,-496,-210,1,7,11
3.48E+02,-8269,-118,1509,136,-417,338,1,7,11
3.48E+02,-8317,-106,1852,587,-592,837,1,7,11
3.48E+02,-8120,-60,1915,788,-531,1302,1,7,11
3.48E+02,-8173,130,1666,726,-516,1498,1,7,11
3.49E+02,-8464,630,1898,1073,-250,1991,1,7,11
3.49E+02,-8191,684,1828,1129,-546,2486,1,7,11
3.49E+02,-8100,925,1487,1124,-620,3170,1,7,11
3.49E+02,-8076,1309,1481,1074,-410,3415,1,7,11
3.50E+02,-8300,1168,1479,1099,-770,3437,1,7,11
3.50E+02,-8069,1595,1474,928,-645,3002,1,7,11
3.50E+02,-8158,1449,1493,940,-1044,2763,1,7,11
3.50E+02,-8489,1822,1526,1288,-974,2453,1,7,11
3.51E+02,-8471,1696,1821,1154,-1395,2429,1,7,11
3.51E+02,-8534,2056,1669,1559,-1250,1992,1,7,11
3.51E+02,-8528,1932,2061,1802,-1422,2172,1,7,11
3.51E+02,-8460,2371,2096,2057,-1840,1931,1,7,11
3.52E+02,-8280,2260,2122,1971,-1722,1997,1,7,11
3.52E+02,-8015,2574,2136,2027,-1764,1963,1,7,11
3.52E+02,-7602,2608,1922,2032,-1903,1728,1,7,11
3.52E+02,-7808,2650,2009,2036,-1445,1614,1,7,11
3.53E+02,-7575,2648,2372,1989,-1249,915,1,7,11
3.53E+02,-7676,2292,2247,2109,-1363,388,1,7,11
3.53E+02,-7942,2298,2566,1707,-1352,68,1,7,11
3.53E+02,-8055,2397,2614,1642,-1382,-448,1,7,11
3.54E+02,-7628,1973,2283,1546,-1587,-1170,1,7,11
3.54E+02,-7612,2021,2201,1823,-1421,-2307,1,7,11
3.54E+02,-7642,2033,2391,1946,-1445,-2938,1,7,11
3.54E+02,-7616,2312,1982,2608,-1447,-2988,1,7,11
3.55E+02,-7630,2324,1946,2927,-1613,-2953,1,7,11
3.55E+02,-7616,2010,2163,3179,-1280,-2944,1,7,11
3.55E+02,-7589,2170,2132,3404,-1209,-2272,1,7,11
3.55E+02,-7730,1745,2098,3624,-1176,-1489,1,7,11
3.56E+02,-7783,1880,2086,4118,-1352,-1301,1,7,11
3.56E+02,-7564,1848,1757,4631,-1349,-675,1,7,11
3.56E+02,-7597,1896,1913,4838,-1323,-561,1,7,11
3.56E+02,-7571,2051,1801,5437,-987,66,1,7,11
3.57E+02,-7576,1993,1474,5652,-1081,143,1,7,11
3.57E+02,-7608,2218,1470,5554,-840,434,1,7,11
3.57E+02,-7667,2463,1486,5926,-576,862,1,7,11
3.57E+02,-8017,2706,1497,5947,-355,695,1,7,11
3.58E+02,-7838,3136,1506,5587,80,712,1,7,11
3.58E+02,-7924,3025,1513,5668,-45,643,1,7,11
3.58E+02,-7923,3356,1500,5452,272,485,1,7,11
3.58E+02,-7899,3388,1465,5211,339,204,1,7,11
3.59E+02,-7902,3386,1443,4933,178,125,1,7,11
3.59E+02,-7896,3339,1419,4645,237,-226,1,7,11
3.59E+02,-7917,2971,1434,4083,527,-811,1,7,11
3.59E+02,-7925,3129,1425,3806,242,-1083,1,7,11
3.60E+02,-7903,2732,1417,3490,175,-1288,1,7,11
3.60E+02,-7840,2824,1663,3437,353,-1175,1,7,11
3.60E+02,-8057,2650,1662,2958,289,-1575,1,7,11
3.60E+02,-8029,2234,1651,3077,-9,-1444,1,7,11
3.61E+02,-8036,2369,1650,2734,-36,-1807,1,7,11
3.61E+02,-8060,2011,1643,2916,-80,-1845,1,7,11
3.61E+02,-7879,2167,1422,2852,-117,-1848,1,7,11
3.61E+02,-7913,2107,1417,2844,55,-1808,1,7,11
3.62E+02,-8198,1785,1450,2863,-266,-1530,1,7,11
3.62E+02,-8107,1723,1802,3230,-234,-1342,1,7,11
3.62E+02,-8111,1769,1520,3471,-564,-972,1,7,11
3.62E+02,-8110,2098,1476,3909,-621,-1108,1,7,11
3.63E+02,-8093,2174,1426,3752,-428,-720,1,7,11
3.63E+02,-8103,1991,1638,3746,-494,-834,1,7,11
3.63E+02,-8125,2313,1603,3904,-835,-431,1,7,11
3.63E+02,-8455,2332,1609,3516,-691,-619,1,7,11
3.64E+02,-8167,2366,1613,3686,-1140,-409,1,7,11
3.64E+02,-8109,1967,1655,3662,-1312,-860,1,7,11
3.64E+02,-8249,2351,1619,3865,-1226,-968,1,7,11
3.64E+02,-8246,1957,1435,3911,-1263,-1221,1,7,11
3.65E+02,-8228,2163,1432,4149,-1624,-1871,1,7,11
3.65E+02,-7923,1929,1428,4385,-1481,-1992,1,7,11
3.65E+02,-8208,1949,1438,4465,-1514,-2218,1,7,11
3.65E+02,-8287,1927,1442,4423,-1534,-2294,1,7,11
3.66E+02,-8285,1961,1410,4093,-1839,-2288,1,7,11
3.66E+02,-8069,2163,1421,4209,-1827,-2219,1,7,11
3.66E+02,-8465,2089,1526,4102,-1806,-2193,1,7,11
3.66E+02,-8409,1728,1685,3762,-1860,-2366,1,7,11
3.67E+02,-8396,1868,1775,3948,-2077,-1996,1,7,11
3.67E+02,-8329,1532,2051,3679,-2309,-1837,1,7,11
3.67E+02,-8140,1660,1773,3587,-2236,-1633,1,7,11
3.67E+02,-8316,1475,1752,3261,-2298,-1272,1,7,11
3.68E+02,-8281,1416,1790,3352,-2284,-1408,1,7,11
3.68E+02,-8066,1615,2161,2986,-2256,-1215,1,7,11
3.68E+02,-8104,1435,2010,3124,-2277,-1565,1,7,11
3.68E+02,-8089,1446,2364,2901,-2573,-1563,1,7,11
3.69E+02,-8256,1558,2182,2595,-2589,-1239,1,7,11
3.69E+02,-7900,1365,2243,2358,-2302,-1236,1,7,11
3.69E+02,-7993,977,2281,2315,-2241,-1621,1,7,11
3.69E+02,-7595,950,2261,2325,-2044,-1468,1,7,11
3.70E+02,-7584,901,2573,2314,-1741,-1430,1,7,11
3.70E+02,-7605,1062,2642,2031,-1436,-1577,1,7,11
3.70E+02,-7649,653,2479,2008,-1396,-1185,1,7,11
3.70E+02,-7633,503,2530,2310,-898,-1332,1,7,11
3.71E+02,-7788,418,2820,2405,-697,-1301,1,7,11
3.71E+02,-7567,538,2919,2199,-451,-1287,1,7,11
3.71E+02,-7563,475,2691,2584,-568,-1017,1,7,11
3.71E+02,-7653,132,2728,2616,-164,-972,1,7,11
3.72E+02,-7612,181,2925,2435,-351,-981,1,7,11
3.72E+02,-7939,192,2879,2438,61,-937,1,7,11
3.72E+02,-7615,536,2495,2473,-98,-1108,1,7,11
3.72E+02,-7567,636,2673,2494,374,-660,1,7,11
3.73E+02,-7569,429,2634,2459,396,-624,1,7,11
3.73E+02,-7553,442,2612,2634,671,0,1,7,11
3.73E+02,-7761,395,2562,2610,941,381,1,7,11
3.73E+02,-7417,474,2198,2669,1206,480,1,7,11
3.74E+02,-7720,823,2042,2670,1819,1150,1,7,11
3.74E+02,-7783,758,2097,2448,1928,1573,1,7,11
3.74E+02,-7663,967,1909,2444,2291,1766,1,7,11
3.74E+02,-7835,1335,1498,2652,2846,2190,1,7,11
3.75E+02,-8253,1366,1632,2289,2775,2470,1,7,11
3.75E+02,-8104,1394,1199,2237,2782,2449,1,7,11
3.75E+02,-8512,1537,1311,2235,2922,2400,1,7,11
3.75E+02,-8387,1425,948,2413,2463,1785,1,7,11
3.76E+02,-8809,1525,1100,2012,2204,1500,1,7,11
3.76E+02,-8669,1812,1028,2078,2113,1250,1,7,11
3.76E+02,-8642,1871,645,1910,1460,983,1,7,11
3.76E+02,-8650,1883,799,1443,1153,717,1,7,11
3.77E+02,-8673,1838,490,1217,909,456,1,7,11
3.77E+02,-9013,1888,434,1015,718,227,1,7,11
3.77E+02,-9088,1840,474,1026,804,329,1,7,11
3.77E+02,-9071,1515,777,855,603,-79,1,7,11
3.78E+02,-9039,1482,857,477,151,38,1,7,11
3.78E+02,-9052,1426,736,606,-46,-287,1,7,11
3.78E+02,-9014,1541,1116,513,-315,-319,1,7,11
3.78E+02,-8579,1195,928,559,-631,-194,1,7,11
3.79E+02,-8377,1375,931,580,-852,-596,1,7,11
3.79E+02,-8466,1308,947,600,-736,-779,1,7,11
3.79E+02,-8082,1367,943,400,-1070,-738,1,7,11
3.79E+02,-8306,1387,979,616,-1078,-914,1,7,11
3.80E+02,-8076,1403,1332,555,-1105,-1368,1,7,11
3.80E+02,-8137,1209,1401,214,-919,-1539,1,7,11
3.80E+02,-8185,1213,1159,355,-1283,-1615,1,7,11
3.80E+02,-8152,1187,1400,264,-1405,-1420,1,7,11
3.81E+02,-8104,1369,1157,-74,-1209,-1492,1,7,11
3.81E+02,-8283,1344,1183,119,-1239,-1840,1,7,11
3.81E+02,-8454,1282,1259,-340,-1167,-1803,1,7,11
3.81E+02,-8078,922,1254,-222,-1235,-1482,1,7,11
3.82E+02,-8118,1129,1572,-581,-1399,-1491,1,7,11
3.82E+02,-8159,1063,1648,-438,-1311,-1434,1,7,11
3.82E+02,-8139,719,1446,-773,-987,-1635,1,7,11
3.82E+02,-8142,865,1807,-848,-1130,-1586,1,7,11
3.83E+02,-8140,785,1873,-870,-1041,-1276,1,7,11
3.83E+02,-8129,454,1681,-869,-709,-1203,1,7,11
3.83E+02,-8123,629,1727,-843,-873,-1367,1,7,11
3.83E+02,-8132,589,1738,-788,-778,-997,1,7,11
3.84E+02,-8134,560,1744,-473,-418,-1097,1,7,11
3.84E+02,-8125,525,1735,-639,-548,-679,1,7,11
3.84E+02,-8149,543,1733,-546,-138,-769,1,7,11
3.84E+02,-8149,233,1744,-515,12,-555,1,7,11
3.85E+02,-8150,370,1774,-251,-86,-155,1,7,11
3.85E+02,-8125,360,1787,-170,278,-371,1,7,11
3.85E+02,-8316,175,1762,-363,144,-343,1,7,11
3.85E+02,-8243,250,1775,-370,577,28,1,7,11
3.86E+02,-8245,520,2068,-204,797,259,1,7,11
3.86E+02,-8233,369,1945,-572,689,249,1,7,11
3.86E+02,-7909,-92,2031,-388,747,614,1,7,11
3.86E+02,-7999,-43,1970,-564,742,602,1,7,11
3.87E+02,-7869,-57,1944,-531,899,568,1,7,11
3.87E+02,-8013,130,1780,-303,899,212,1,7,11
3.87E+02,-8037,249,1691,2,1335,162,1,7,11
3.87E+02,-8262,600,1880,66,1276,381,1,7,11
3.88E+02,-8187,463,1528,104,1279,225,1,7,11
3.88E+02,-8345,785,1422,90,1184,385,1,7,11
3.88E+02,-8705,867,1555,-125,1012,806,1,7,11
3.88E+02,-8752,642,1187,115,1066,646,1,7,11
3.89E+02,-8794,649,1372,-110,857,864,1,7,11
3.89E+02,-8794,688,1023,-2,601,410,1,7,11
3.89E+02,-8742,1027,975,139,298,-13,1,7,11
3.89E+02,-8718,1103,951,228,-116,-276,1,7,11
3.90E+02,-8716,1092,978,175,28,-231,1,7,11
3.90E+02,-8760,723,1337,341,-325,-423,1,7,11
3.90E+02,-8382,699,1365,353,-528,-886,1,7,11
3.90E+02,-8330,707,1378,311,-599,-1084,1,7,11
3.91E+02,-8575,704,1161,267,-431,-929,1,7,11
3.91E+02,-8486,649,1201,-52,-499,-1285,1,7,11
3.91E+02,-8473,854,1279,-104,-507,-1393,1,7,11
3.91E+02,-8183,862,1571,85,-785,-1198,1,7,11
3.92E+02,-8181,816,1646,-307,-799,-1197,1,7,11
3.92E+02,-8143,809,1437,-155,-829,-1158,1,7,11
3.92E+02,-8165,801,1477,-543,-807,-1286,1,7,11
3.92E+02,-8156,459,1519,-631,-806,-1101,1,7,11
3.93E+02,-8123,395,1528,-413,-807,-707,1,7,11
3.93E+02,-8147,536,1841,-466,-509,-809,1,7,11
3.93E+02,-8174,176,1882,-462,-491,-407,1,7,11
3.93E+02,-8145,164,1852,-390,-463,-541,1,7,11
3.94E+02,-8186,159,1872,-391,-386,-140,1,7,11
3.94E+02,-8171,234,1836,-636,-559,77,1,7,11
3.94E+02,-8476,242,1891,-500,-154,349,1,7,11
3.94E+02,-8498,569,1894,-655,-319,416,1,7,11
3.95E+02,-8503,553,1700,-1126,-271,743,1,7,11
3.95E+02,-8508,563,1710,-907,-314,932,1,7,11
3.95E+02,-8466,536,1695,-1096,-376,999,1,7,11
3.95E+02,-8131,175,1689,-863,-363,957,1,7,11
3.96E+02,-8082,187,1733,-236,-289,749,1,7,11
3.96E+02,-8086,631,1678,71,64,851,1,7,11
3.96E+02,-8460,390,1716,-85,124,841,1,7,11
3.96E+02,-8102,459,1911,332,85,846,1,7,11
3.97E+02,-8125,488,1679,136,-100,861,1,7,11
3.97E+02,-8091,457,1914,206,-90,882,1,7,11
3.97E+02,-8284,418,1891,602,-52,784,1,7,11
3.97E+02,-8285,469,1857,822,295,602,1,7,11
3.98E+02,-8079,798,1843,1028,128,177,1,7,11
3.98E+02,-8132,644,1807,935,192,352,1,7,11
3.98E+02,-8139,754,1503,1015,225,133,1,7,11
3.98E+02,-8136,1106,1466,1008,532,548,1,7,11
3.99E+02,-8450,1138,1458,969,592,776,1,7,11
3.99E+02,-8483,1096,1460,977,605,1034,1,7,11
3.99E+02,-8326,716,1487,1330,607,1010,1,7,11
3.99E+02,-8389,852,1501,1606,232,1187,1,7,11
4.00E+02,-8388,511,1484,1774,306,1574,1,7,11
4.00E+02,-8434,775,1425,2298,124,1438,1,7,11
4.00E+02,-8424,656,1551,3128,-362,1886,1,7,11
4.00E+02,-8492,843,1210,3362,-583,2112,1,7,11
4.01E+02,-8271,783,1250,3571,-418,1646,1,7,11
4.01E+02,-8272,1027,1268,3783,-489,1295,1,7,11
4.01E+02,-8241,989,1278,4098,-857,738,1,7,11
4.01E+02,-8299,1178,1571,3732,-647,450,1,7,11
4.02E+02,-8125,1589,1613,3487,-684,242,1,7,11
4.02E+02,-8172,1508,1258,3204,-717,325,1,7,11
4.02E+02,-7850,1629,1229,2761,-856,-138,1,7,11
4.02E+02,-8020,1463,1205,2462,-560,-713,1,7,11
4.03E+02,-8026,1842,1176,2239,-259,-1221,1,7,11
4.03E+02,-7910,1858,1167,2159,313,-1798,1,7,11
4.03E+02,-8453,1803,1184,1825,599,-1681,1,7,11
4.03E+02,-8547,1447,1156,1274,443,-1878,1,7,11
4.04E+02,-8150,1274,1299,1007,505,-1500,1,7,11
4.04E+02,-8100,1357,960,1035,889,-1657,1,7,11
4.04E+02,-8278,1138,1136,853,679,-1614,1,7,11
4.04E+02,-8283,726,1092,774,706,-1506,1,7,11
4.05E+02,-8113,649,1074,476,677,-1698,1,7,11
4.05E+02,-8458,816,1070,411,828,-2167,1,7,11
4.05E+02,-8569,447,1069,580,396,-2379,1,7,11
4.05E+02,-8520,385,765,566,162,-2562,1,7,11
4.06E+02,-8475,598,764,594,297,-2491,1,7,11
4.06E+02,-8469,565,1036,632,261,-2844,1,7,11
4.06E+02,-8458,239,1072,409,-34,-2883,1,7,11
4.06E+02,-8508,146,1132,427,-31,-2878,1,7,11
4.07E+02,-8526,137,1132,504,-85,-2530,1,7,11
4.07E+02,-8500,148,1098,793,-111,-2585,1,7,11
4.07E+02,-8160,169,1024,508,-76,-2021,1,7,11
4.07E+02,-8116,215,711,457,294,-1690,1,7,11
4.08E+02,-8131,548,667,620,207,-1570,1,7,11
4.08E+02,-8192,581,662,228,391,-1144,1,7,11
4.08E+02,-8475,624,892,347,793,-461,1,7,11
4.08E+02,-8546,421,870,-58,700,-317,1,7,11
4.09E+02,-8359,470,874,46,1063,310,1,7,11
4.09E+02,-8401,794,877,-319,1094,599,1,7,11
4.09E+02,-8439,689,845,-137,1075,821,1,7,11
4.09E+02,-8731,1125,842,-542,741,738,1,7,11
4.10E+02,-8742,1019,884,-822,854,1139,1,7,11
4.10E+02,-8766,1376,673,-923,422,995,1,7,11
4.10E+02,-8723,1364,725,-1580,192,1013,1,7,11
4.10E+02,-8548,1346,750,-1699,-85,1122,1,7,11
4.11E+02,-8281,1314,1088,-2045,-280,768,1,7,11
4.11E+02,-8195,1322,924,-2634,-341,56,1,7,11
4.11E+02,-8193,1289,1021,-2555,-289,-631,1,7,11
4.11E+02,-7878,1368,1381,-2700,13,-684,1,7,11
4.12E+02,-8305,1015,1186,-3060,-69,-1041,1,7,11
4.12E+02,-8252,1125,1563,-3445,-94,-1085,1,7,11
4.12E+02,-8257,727,1604,-3209,-25,-1010,1,7,11
4.12E+02,-8111,647,1635,-3202,336,-1342,1,7,11
4.13E+02,-8135,810,1592,-3410,152,-1356,1,7,11
4.13E+02,-8518,480,1583,-3387,577,-1326,1,7,11
4.13E+02,-8388,403,1562,-3346,443,-949,1,7,11
4.13E+02,-8411,585,1267,-2961,780,-1053,1,7,11
4.14E+02,-8381,550,1211,-2764,877,-892,1,7,11
4.14E+02,-8570,544,1385,-2533,714,-433,1,7,11
4.14E+02,-8498,234,1324,-2621,1078,-177,1,7,11
4.14E+02,-8175,134,1020,-2232,899,71,1,7,11
4.15E+02,-8104,332,930,-2039,944,-7,1,7,11
4.15E+02,-8308,275,1053,-1877,977,184,1,7,11
4.15E+02,-8245,292,680,-1646,1008,249,1,7,11
4.15E+02,-8300,294,891,-1223,1366,563,1,7,11
4.16E+02,-8086,330,841,-1295,1401,609,1,7,11
4.16E+02,-8154,314,827,-1150,1177,388,1,7,11
4.16E+02,-8525,303,865,-706,1195,637,1,7,11
4.16E+02,-8338,338,884,-800,1354,626,1,7,11
4.17E+02,-8790,134,871,-790,1011,617,1,7,11
4.17E+02,-8762,151,810,-796,745,426,1,7,11
4.17E+02,-8788,368,792,-860,840,385,1,7,11
4.17E+02,-8806,367,790,-672,402,636,1,7,11
4.18E+02,-8734,328,829,-995,-69,475,1,7,11
4.18E+02,-8712,313,863,-1326,34,816,1,7,11
4.18E+02,-8421,304,666,-1356,-368,895,1,7,11
4.18E+02,-8342,302,672,-1313,-534,699,1,7,11
4.19E+02,-8169,-65,701,-1005,-418,681,1,7,11
4.19E+02,-8073,-58,688,-1101,-464,805,1,7,11
4.19E+02,-8230,-84,648,-731,-481,444,1,7,11
4.19E+02,-7832,275,792,-806,-464,566,1,7,11
4.20E+02,-7921,166,480,-471,-551,234,1,7,11
4.20E+02,-8222,776,639,-296,335,141,1,7,11
4.20E+02,-8239,510,414,-303,512,289,1,7,11
4.20E+02,-8075,468,492,-344,410,-95,1,7,11
4.21E+02,-8135,466,501,-354,483,-279,1,7,11
4.21E+02,-8175,425,462,-162,791,-229,1,7,11
4.21E+02,-8507,579,396,-177,841,-507,1,7,11
4.21E+02,-8449,164,580,-147,826,-919,1,7,11
4.22E+02,-8569,156,183,-151,706,-1424,1,7,11
4.22E+02,-8416,-46,166,-557,684,-1762,1,7,11
4.22E+02,-8373,-102,268,-516,857,-2274,1,7,11
4.22E+02,-8724,-26,-103,-552,641,-2893,1,7,11
4.23E+02,-8783,72,-121,-463,893,-3102,1,7,11
4.23E+02,-8593,43,108,-780,830,-3344,1,7,11
4.23E+02,-8597,24,89,-687,409,-3221,1,7,11
4.23E+02,-8590,-286,50,-929,237,-3249,1,7,11
4.24E+02,-8591,-341,25,-1196,348,-3439,1,7,11
4.24E+02,-8592,-189,38,-1419,-13,-3339,1,7,11
4.24E+02,-8596,-221,42,-1528,-74,-3199,1,7,11
4.24E+02,-8644,-518,14,-1876,-63,-2698,1,7,11
4.25E+02,-8656,-460,95,-1690,-58,-2643,1,7,11
4.25E+02,-8596,-789,81,-1854,-56,-2430,1,7,11
4.25E+02,-8808,-859,74,-1801,-2,-1948,1,7,11
4.25E+02,-8763,-695,98,-1522,310,-1756,1,7,11
4.26E+02,-8431,-730,103,-1517,312,-1848,1,7,11
4.26E+02,-8326,-752,74,-1801,258,-1431,1,7,11
4.26E+02,-8474,-1038,51,-1801,-56,-1562,1,7,11
4.26E+02,-8108,-1106,55,-1450,-49,-1246,1,7,11
4.27E+02,-8312,-1135,68,-1276,-29,-1207,1,7,11
4.27E+02,-7910,-929,105,-1370,259,-1173,1,7,11
4.27E+02,-8054,-1126,121,-951,269,-1185,1,7,11
4.27E+02,-7611,-1110,126,-1112,-10,-1380,1,7,11
4.28E+02,-7731,-1095,109,-1051,280,-987,1,7,11
4.28E+02,-7714,-1068,86,-739,352,-1095,1,7,11
4.28E+02,-7680,-1026,59,-688,181,-657,1,7,11
4.28E+02,-7885,-749,56,-692,524,-390,1,7,11
4.29E+02,-8199,-667,10,-701,566,-304,1,7,11
4.29E+02,-8224,-1037,85,-1065,614,372,1,7,11
4.29E+02,-8553,-1032,68,-1115,587,507,1,7,11
4.29E+02,-8427,-768,68,-1077,199,1062,1,7,11
4.30E+02,-8650,-678,69,-758,130,1244,1,7,11
4.30E+02,-9022,-509,13,-797,76,1793,1,7,11
4.30E+02,-9058,-222,-355,-598,-132,2093,1,7,11
4.30E+02,-9081,14,-187,-537,-545,2420,1,7,11
4.31E+02,-9045,-67,-230,-544,-433,2435,1,7,11
4.31E+02,-8990,309,-218,-609,-810,2831,1,7,11
4.31E+02,-8964,175,-166,-426,-680,2839,1,7,11
4.31E+02,-8629,513,-350,-784,-1096,2516,1,7,11
4.32E+02,-8831,606,-273,-647,-994,2652,1,7,11
4.32E+02,-8749,610,86,-1102,-1161,2297,1,7,11
4.32E+02,-8347,544,-71,-1018,-1564,2400,1,7,11
4.32E+02,-8192,252,-4,-1382,-1428,2157,1,7,11
4.33E+02,-8286,549,-9,-1178,-1475,1841,1,7,11
4.33E+02,-8244,563,-2,-1623,-1422,1254,1,7,11
4.33E+02,-8266,636,261,-1802,-1652,924,1,7,11
4.33E+02,-8241,438,-33,-1734,-1628,783,1,7,11
4.34E+02,-8307,495,-26,-2120,-1546,341,1,7,11
4.34E+02,-8315,511,-36,-2017,-1255,-320,1,7,11
4.34E+02,-8106,467,-23,-2195,-1175,-421,1,7,11
4.34E+02,-8458,461,-25,-2631,-1359,-716,1,7,11
4.35E+02,-8540,388,-36,-2871,-1342,-1151,1,7,11
4.35E+02,-8479,556,-61,-3082,-1377,-1004,1,7,11
4.35E+02,-8156,236,-107,-3020,-1313,-1321,1,7,11
4.35E+02,-8082,222,80,-3206,-940,-979,1,7,11
4.36E+02,-8312,178,51,-3680,-713,-761,1,7,11
4.36E+02,-8276,188,-276,-3845,-455,-441,1,7,11
4.36E+02,-8196,254,-156,-3753,-167,-289,1,7,11
4.36E+02,-7920,537,-529,-4016,-21,184,1,7,11
4.37E+02,-8251,525,-556,-4311,451,682,1,7,11
4.37E+02,-8219,406,-610,-4520,1100,1571,1,7,11
4.37E+02,-8331,160,-541,-5205,1635,2514,1,7,11
4.37E+02,-8567,92,-253,-5024,1879,3005,1,7,11
4.38E+02,-8807,-137,-359,-5234,2148,3308,1,7,11
4.38E+02,-8772,-631,-277,-5151,2117,3613,1,7,11
4.38E+02,-8712,-458,48,-4894,1770,3338,1,7,11
4.38E+02,-8745,-460,123,-4304,1883,2921,1,7,11
4.39E+02,-8751,-565,-98,-4132,1612,2201,1,7,11
4.39E+02,-8730,-281,-107,-3698,1324,1781,1,7,11
4.39E+02,-8781,382,-119,-3365,1086,1522,1,7,11
4.39E+02,-8723,580,106,-2975,402,1586,1,7,11
4.40E+02,-8350,789,61,-2693,251,1187,1,7,11
4.40E+02,-8339,710,63,-2482,249,1326,1,7,11
4.40E+02,-8533,1139,59,-2310,527,977,1,7,11
4.40E+02,-8486,1013,79,-2006,392,1143,1,7,11
4.41E+02,-8524,1347,-84,-2314,783,1063,1,7,11
4.41E+02,-8530,1334,287,-2384,792,712,1,7,11
4.41E+02,-8536,1338,369,-2348,445,846,1,7,11
4.41E+02,-8493,1341,132,-2039,253,460,1,7,11
4.42E+02,-8174,1307,143,-1999,283,535,1,7,11
4.42E+02,-8125,1019,154,-1972,16,298,1,7,11
4.42E+02,-8144,935,198,-2170,-549,45,1,7,11
4.42E+02,-8144,1148,198,-2052,-708,-213,1,7,11
4.43E+02,-8310,932,183,-1895,-1400,-465,1,7,11
4.43E+02,-8301,900,512,-1865,-1527,-716,1,7,11
4.43E+02,-8300,1132,617,-1856,-2171,-1005,1,7,11
4.43E+02,-8281,1149,458,-1872,-2271,-1559,1,7,11
4.44E+02,-7912,1101,823,-1709,-2819,-1851,1,7,11
4.44E+02,-7861,1051,719,-1725,-2938,-1939,1,7,11
4.44E+02,-7896,1048,1145,-1894,-2873,-2202,1,7,11
4.44E+02,-8237,1109,1290,-1484,-2447,-2295,1,7,11
4.45E+02,-8260,1115,1163,-1410,-2217,-2198,1,7,11
4.45E+02,-8215,1054,1542,-1660,-1932,-1997,1,7,11
4.45E+02,-8220,689,1447,-1445,-1837,-1777,1,7,11
4.45E+02,-8255,825,1829,-1438,-1272,-1826,1,7,11
4.46E+02,-8080,445,1909,-1598,-1292,-1460,1,7,11
4.46E+02,-8178,635,1686,-1391,-1131,-1442,1,7,11
4.46E+02,-8521,541,1720,-915,-765,-1471,1,7,11
4.46E+02,-8387,221,1786,-680,-720,-1505,1,7,11
4.47E+02,-8444,132,2085,-483,-1063,-1507,1,7,11
4.47E+02,-8729,303,2095,-546,-987,-1510,1,7,11
4.47E+02,-8746,-56,2127,-329,-1200,-1516,1,7,11
4.47E+02,-8708,-98,2105,-48,-1418,-1498,1,7,11
4.48E+02,-8380,-112,2090,202,-1832,-1441,1,7,11
4.48E+02,-8478,-110,2068,422,-1914,-1617,1,7,11
4.48E+02,-8314,-60,2089,694,-1673,-1219,1,7,11
4.48E+02,-7877,276,2138,1051,-1836,-1307,1,7,11
4.49E+02,-7876,283,1991,1064,-1627,-1063,1,7,11
4.49E+02,-7886,276,2373,1047,-1180,-824,1,7,11
4.49E+02,-7927,295,2178,1037,-981,-617,1,7,11
4.49E+02,-8241,344,2254,708,-1047,-373,1,7,11
4.50E+02,-8215,353,2302,814,-870,-97,1,7,11
4.50E+02,-8193,381,2560,405,-419,150,1,7,11
4.50E+02,-7906,364,2257,246,-232,635,1,7,11
4.50E+02,-7896,77,2417,303,-38,624,1,7,11
4.51E+02,-7903,30,2364,268,239,283,1,7,11
4.51E+02,-8210,54,2327,-54,423,57,1,7,11
4.51E+02,-8265,71,2304,65,799,-363,1,7,11
4.51E+02,-8299,73,2005,-356,857,-526,1,7,11
4.52E+02,-8071,110,1962,-211,654,-416,1,7,11
4.52E+02,-8164,101,1953,-539,681,-804,1,7,11
4.52E+02,-8153,120,2133,-570,668,-651,1,7,11
4.52E+02,-8149,97,2065,-628,684,-722,1,7,11
4.53E+02,-8484,36,2054,-428,701,-1078,1,7,11
4.53E+02,-8566,12,1771,-447,892,-905,1,7,11
4.53E+02,-8714,9,1708,-451,510,-952,1,7,11
4.53E+02,-8805,-307,1912,-500,236,-992,1,7,11
4.54E+02,-8687,-382,1880,-793,-120,-1361,1,7,11
4.54E+02,-9048,-380,1850,-507,-596,-1182,1,7,11
4.54E+02,-9018,-365,1822,-510,-1111,-1407,1,7,11
4.54E+02,-8985,-367,1838,-778,-1565,-1018,1,7,11
4.55E+02,-8773,-373,1803,-459,-1706,-1121,1,7,11
4.55E+02,-8516,-128,1481,-413,-2156,-700,1,7,11
4.55E+02,-8544,-59,1671,-847,-2083,-385,1,7,11
4.55E+02,-8514,271,2120,-734,-2052,-349,1,7,11
4.56E+02,-8106,235,1961,-1009,-1749,-19,1,7,11
4.56E+02,-8063,451,1963,-1815,-1841,591,1,7,11
4.56E+02,-7635,831,2046,-2679,-1199,679,1,7,11
4.56E+02,-7633,774,2217,-3695,-1025,1020,1,7,11
4.57E+02,-7952,599,2297,-4696,-444,1614,1,7,11
4.57E+02,-7641,-56,2574,-5361,-170,1678,1,7,11
4.57E+02,-7582,-617,2644,-6020,116,2123,1,7,11
4.57E+02,-7696,-991,2682,-6515,330,2110,1,7,11
4.58E+02,-7326,-1529,2456,-6078,557,1854,1,7,11
4.58E+02,-7701,-1925,2468,-5536,800,1170,1,7,11
4.58E+02,-7726,-2340,2634,-4939,732,868,1,7,11
4.58E+02,-7666,-2045,2663,-3963,1300,271,1,7,11
4.59E+02,-8306,-2061,2441,-2896,1575,-190,1,7,11
4.59E+02,-8337,-1451,2674,-1880,1441,-410,1,7,11
4.59E+02,-8781,-998,2275,-759,1500,-393,1,7,11
4.59E+02,-8962,-700,2192,-221,1500,-354,1,7,11
4.60E+02,-8660,-488,2331,-93,1650,336,1,7,11
4.60E+02,-8607,-449,1992,368,1574,789,1,7,11
4.60E+02,-8731,-624,2099,585,1407,1094,1,7,11
4.60E+02,-8554,-577,1696,480,975,1004,1,7,11
4.61E+02,-8120,-218,1799,893,1116,1016,1,7,11
4.61E+02,-8317,-381,1428,671,1077,976,1,7,11
4.61E+02,-8303,16,1616,736,731,1074,1,7,11
4.61E+02,-8078,-72,1569,706,686,1041,1,7,11
4.62E+02,-8168,-4,1578,866,893,1066,1,7,11
4.62E+02,-8530,301,1601,882,779,695,1,7,11
4.62E+02,-8533,145,1553,660,638,801,1,7,11
4.62E+02,-8551,169,1540,640,562,459,1,7,11
4.63E+02,-8547,132,1543,860,519,611,1,7,11
4.63E+02,-8542,347,1586,848,246,231,1,7,11
4.63E+02,-8405,-18,1607,783,534,134,1,7,11
4.63E+02,-8353,-43,1576,849,172,-12,1,7,11
4.64E+02,-8569,-58,1547,872,128,63,1,7,11
4.64E+02,-8561,-40,1274,647,360,-326,1,7,11
4.64E+02,-8500,257,1205,681,319,-152,1,7,11
4.64E+02,-8172,296,1182,667,337,-156,1,7,11
4.65E+02,-8151,285,1216,879,142,-370,1,7,11
4.65E+02,-8154,-32,1289,811,193,-310,1,7,11
4.65E+02,-8168,-108,1596,467,220,11,1,7,11
4.65E+02,-8166,62,1630,423,207,52,1,7,11
4.66E+02,-8152,18,1626,445,188,42,1,7,11
4.66E+02,-8163,29,1575,482,192,35,1,7,11
4.66E+02,-8142,70,1257,492,192,66,1,7,11
4.66E+02,-8143,-90,1206,423,234,122,1,7,11
4.67E+02,-8524,271,1170,559,560,-19,1,7,11
4.67E+02,-8539,359,1368,168,557,169,1,7,11
4.67E+02,-8352,189,1345,274,591,396,1,7,11
4.67E+02,-8406,242,1330,-101,603,654,1,7,11
4.68E+02,-8398,229,1318,28,554,933,1,7,11
4.68E+02,-8365,211,1302,-342,211,1389,1,7,11
4.68E+02,-8327,202,1313,-144,358,1199,1,7,11
4.68E+02,-8560,222,1309,-384,-11,1154,1,7,11
4.69E+02,-8553,287,1315,-300,-121,972,1,7,11
4.69E+02,-8536,601,1328,73,29,727,1,7,11
4.69E+02,-8546,389,1318,-48,-337,476,1,7,11
4.69E+02,-8539,428,1321,316,-194,225,1,7,11
4.70E+02,-8510,460,1312,162,-540,-11,1,7,11
4.70E+02,-8506,472,1303,238,-605,29,1,7,11
4.70E+02,-8519,473,1320,527,-637,-156,1,7,11
4.70E+02,-8513,442,1334,514,-429,-532,1,7,11
4.71E+02,-8523,389,1383,214,-463,-607,1,7,11
4.71E+02,-8523,577,1173,163,-497,-408,1,7,11
4.71E+02,-8479,531,1207,140,-788,-448,1,7,11
4.71E+02,-8524,223,1257,383,-775,-451,1,7,11
4.72E+02,-8521,528,1261,214,-487,-450,1,7,11
4.72E+02,-8519,574,1277,542,-430,-616,1,7,11
4.72E+02,-8493,629,1551,606,-598,-204,1,7,11
4.72E+02,-8512,444,1571,586,-520,26,1,7,11
4.73E+02,-8483,480,1574,520,-232,285,1,7,11
4.73E+02,-8172,483,1564,190,-186,253,1,7,11
4.73E+02,-8155,454,1606,377,-373,396,1,7,11
4.73E+02,-8107,423,1630,365,-345,453,1,7,11
4.74E+02,-8070,628,1419,327,-335,432,1,7,11
4.74E+02,-8282,572,1486,274,-352,599,1,7,11
4.74E+02,-8300,527,1813,-59,-379,193,1,7,11
4.74E+02,-8083,235,1882,53,-202,280,1,7,11
4.75E+02,-8169,160,1903,-368,-556,88,1,7,11
4.75E+02,-8502,137,1693,-364,-434,-211,1,7,11
4.75E+02,-8507,157,1669,-319,-817,-783,1,7,11
4.75E+02,-8502,157,1894,-290,-855,-743,1,7,11
4.76E+02,-8164,202,1822,10,-833,-1130,1,7,11
4.76E+02,-8180,250,1805,-263,-435,-1122,1,7,11
4.76E+02,-8135,516,1509,-294,-533,-739,1,7,11
4.76E+02,-8123,523,1506,-284,-305,-812,1,7,11
4.77E+02,-8114,250,1525,-263,-77,-609,1,7,11
4.77E+02,-8275,521,1513,3,369,-141,1,7,11
4.77E+02,-8277,549,1492,-263,603,87,1,7,11
4.77E+02,-8244,586,1459,51,779,302,1,7,11
4.78E+02,-7922,629,1627,-125,718,222,1,7,11
4.78E+02,-8193,610,1560,-105,919,403,1,7,11
4.78E+02,-7836,244,1204,-126,1319,811,1,7,11
4.78E+02,-7818,287,1191,15,1541,840,1,7,11
4.79E+02,-8198,99,1224,-273,1465,452,1,7,11
4.79E+02,-8237,97,1406,81,1508,240,1,7,11
4.79E+02,-8153,47,1157,124,1837,313,1,7,11
4.79E+02,-8536,-309,1159,-40,1529,119,1,7,11
4.80E+02,-8407,-331,1372,332,1656,-369,1,7,11
4.80E+02,-8738,62,1297,556,1221,-500,1,7,11
4.80E+02,-8816,-12,926,495,1313,-843,1,7,11
4.80E+02,-8644,171,1092,818,911,-756,1,7,11
4.81E+02,-8623,554,1029,780,716,-535,1,7,11
4.81E+02,-8662,601,1037,431,812,-281,1,7,11
4.81E+02,-8675,465,766,456,406,283,1,7,11
4.81E+02,-8631,460,1034,785,371,620,1,7,11
4.82E+02,-8767,423,752,721,-95,872,1,7,11
4.82E+02,-8401,599,1028,1083,-301,718,1,7,11
4.82E+02,-8546,179,1097,1132,-565,815,1,7,11
4.82E+02,-8371,153,903,992,-846,292,1,7,11
4.83E+02,-8377,540,900,1169,-1298,-572,1,7,11
4.83E+02,-8395,421,900,1560,-1414,-940,1,7,11
4.83E+02,-8711,834,929,1638,-1668,-1583,1,7,11
4.83E+02,-8719,888,981,1630,-2078,-1449,1,7,11
4.84E+02,-8392,693,1004,1618,-2107,-1627,1,7,11
4.84E+02,-8375,678,1353,1542,-1734,-1370,1,7,11
4.84E+02,-8397,797,1255,1181,-1846,-735,1,7,11
4.84E+02,-8324,432,1595,1387,-1519,-611,1,7,11
4.85E+02,-8530,411,1416,1336,-1424,-296,1,7,11
4.85E+02,-8531,452,1476,972,-1588,278,1,7,11
4.85E+02,-8520,779,1508,1065,-1538,619,1,7,11
4.85E+02,-8458,859,1472,841,-1244,733,1,7,11
4.86E+02,-8094,879,1427,535,-1176,1342,1,7,11
4.86E+02,-7907,781,1654,120,-1334,1585,1,7,11
4.86E+02,-7959,421,1408,-542,-918,1601,1,7,11
4.86E+02,-7656,557,1509,-699,-674,1367,1,7,11
4.87E+02,-7960,519,1857,-1312,-787,657,1,7,11
4.87E+02,-7821,552,1834,-1624,-791,307,1,7,11
4.87E+02,-8199,485,1491,-1718,-853,-604,1,7,11
4.87E+02,-8510,892,1511,-2216,-691,-1041,1,7,11
4.88E+02,-8435,861,1828,-2776,-921,-912,1,7,11
4.88E+02,-8392,433,1705,-3307,-1182,-1111,1,7,11
4.88E+02,-8339,220,1737,-3725,-1607,-749,1,7,11
4.88E+02,-8150,-2,2096,-3761,-1481,-721,1,7,11
4.89E+02,-8288,-328,2026,-3967,-1639,-937,1,7,11
4.89E+02,-8071,-216,2231,-3663,-1259,-1227,1,7,11
4.89E+02,-8265,-517,2648,-3037,-1190,-1507,1,7,11
4.89E+02,-8252,-178,2657,-2866,-1312,-1898,1,7,11
4.90E+02,-8203,-210,2675,-2258,-1145,-1839,1,7,11
4.90E+02,-7900,-226,2662,-1964,-656,-1658,1,7,11
4.90E+02,-7822,-252,2588,-1872,-419,-1219,1,7,11
4.90E+02,-7971,-545,2270,-1538,-150,-1243,1,7,11
4.91E+02,-7994,-584,2238,-956,-96,-1098,1,7,11
4.91E+02,-8032,-608,2186,-661,227,-677,1,7,11
4.91E+02,-7866,-408,2184,-446,782,-507,1,7,11
4.91E+02,-7851,-477,2181,-532,728,-613,1,7,11
4.92E+02,-7916,-491,2329,-142,1129,-195,1,7,11
4.92E+02,-8097,-889,2375,-229,1158,-312,1,7,11
4.92E+02,-8249,-699,2032,1,1404,-374,1,7,11
4.92E+02,-8185,-725,2043,97,1262,-246,1,7,11
4.93E+02,-8497,-682,2004,55,1182,-590,1,7,11
4.93E+02,-8529,-800,1940,383,1369,-577,1,7,11
4.93E+02,-8381,-419,2162,129,1012,-178,1,7,11
4.93E+02,-8419,-577,2127,381,1092,60,1,7,11
4.94E+02,-8717,-240,2091,135,648,317,1,7,11
4.94E+02,-8406,-137,2098,144,417,577,1,7,11
4.94E+02,-8756,-177,2054,259,515,802,1,7,11
4.94E+02,-8322,-306,1715,368,-89,839,1,7,11
4.95E+02,-8352,-263,1695,281,6,444,1,7,11
4.95E+02,-8354,109,1875,-23,-246,153,1,7,11
4.95E+02,-8380,271,1834,-109,-465,73,1,7,11
4.95E+02,-8384,358,1839,-331,-670,-256,1,7,11
4.96E+02,-8424,298,1704,-616,-1122,-835,1,7,11
4.96E+02,-8340,-35,2054,-843,-1358,-1146,1,7,11
4.96E+02,-8486,92,2150,-754,-1538,-1181,1,7,11
4.96E+02,-8176,-325,1991,-1110,-1654,-1416,1,7,11
4.97E+02,-8313,-191,2325,-1125,-1478,-1816,1,7,11
4.97E+02,-8226,-586,2422,-1135,-1417,-1869,1,7,11
4.97E+02,-7846,-824,2633,-1044,-1392,-1474,1,7,11
4.97E+02,-8017,-723,2463,-710,-937,-1598,1,7,11
4.98E+02,-7946,-1096,2492,-827,-676,-1211,1,7,11
4.98E+02,-7649,-1132,2483,-447,-619,-1302,1,7,11
4.98E+02,-7630,-1105,2685,-619,1,-754,1,7,11
4.98E+02,-7937,-1098,2656,-618,175,-618,1,7,11
4.99E+02,-8020,-950,2620,-613,797,28,1,7,11
4.99E+02,-7818,-997,2584,-363,1043,300,1,7,11
4.99E+02,-7865,-970,2223,-13,996,255,1,7,11
4.99E+02,-7910,-929,2372,570,1185,476,1,7,11
5.00E+02,-8229,-1152,2043,856,1588,643,1,7,11
5.00E+02,-8072,-1118,1991,1084,1430,1065,1,7,11
5.00E+02,-8171,-1111,1949,994,1462,1015,1,7,11
5.00E+02,-8145,-1039,2125,1199,1430,1218,1,7,11
5.01E+02,-8106,-693,1768,1636,1428,1623,1,7,11
5.01E+02,-8107,-879,1676,1795,1435,1453,1,7,11
5.01E+02,-8076,-468,1824,1729,1412,1475,1,7,11
5.01E+02,-8111,-578,1502,2117,1443,1486,1,7,11
5.02E+02,-8466,-241,1501,1936,1456,1497,1,7,11
5.02E+02,-8465,-162,1503,2030,1414,1511,1,7,11
5.02E+02,-8357,-518,1807,2023,1415,1422,1,7,11
5.02E+02,-8773,-569,1862,2424,1209,1354,1,7,11
5.03E+02,-8777,-183,1819,2625,1088,877,1,7,11
5.03E+02,-8742,25,1478,2444,478,201,1,7,11
5.03E+02,-8600,78,1481,2574,204,-108,1,7,11
5.03E+02,-8712,-53,1441,2240,109,-346,1,7,11
5.04E+02,-8419,-54,1457,1952,-329,-249,1,7,11
5.04E+02,-8537,260,1435,1718,-206,-517,1,7,11
5.04E+02,-8499,-46,1500,1663,-190,-177,1,7,11
5.04E+02,-8500,-82,1818,1366,-172,-301,1,7,11
5.05E+02,-8512,-117,1874,1067,-200,-121,1,7,11
5.05E+02,-8507,-90,1871,776,-241,381,1,7,11
5.05E+02,-8184,-107,1801,520,-529,393,1,7,11
5.05E+02,-8093,-121,1533,371,-209,799,1,7,11
5.06E+02,-8080,-264,1818,276,-338,786,1,7,11
5.06E+02,-8285,-309,1808,134,-282,589,1,7,11
5.06E+02,-8289,-271,1824,247,65,383,1,7,11
5.06E+02,-8081,34,1852,565,-114,274,1,7,11
5.07E+02,-8110,-105,1844,595,-89,-2,1,7,11
5.07E+02,-8138,-54,1859,539,-44,379,1,7,11
5.07E+02,-8160,-93,1845,517,-21,215,1,7,11
5.07E+02,-8087,-40,1861,249,-42,251,1,7,11
5.08E+02,-8169,-76,1851,383,-12,576,1,7,11
5.08E+02,-8123,-73,1814,271,-42,405,1,7,11
5.08E+02,-8128,-69,1792,-109,-1,483,1,7,11
5.08E+02,-8159,-56,1793,82,311,778,1,7,11
5.09E+02,-8182,-28,1511,77,347,769,1,7,11
5.09E+02,-8483,274,1532,40,129,470,1,7,11
5.09E+02,-8491,190,1495,-276,363,446,1,7,11
5.09E+02,-8500,572,1417,-360,338,446,1,7,11
5.10E+02,-8482,441,1587,-147,322,434,1,7,11
5.10E+02,-8514,509,1559,-220,353,443,1,7,11
5.10E+02,-8482,491,1275,-533,351,465,1,7,11
5.10E+02,-8162,475,1247,-545,371,431,1,7,11
5.11E+02,-8456,416,1220,-594,182,618,1,7,11
5.11E+02,-8168,617,1188,-538,185,175,1,7,11
5.11E+02,-8183,425,1162,-168,228,-110,1,7,11
5.11E+02,-8468,785,1389,-141,513,-317,1,7,11
5.12E+02,-8499,830,1393,-219,542,-161,1,7,11
5.12E+02,-8514,849,1392,-582,547,-170,1,7,11
5.12E+02,-8512,791,1407,-453,560,-368,1,7,11
5.12E+02,-8492,472,1174,-510,577,-327,1,7,11
5.13E+02,-8498,612,1219,-853,605,-300,1,7,11
5.13E+02,-8458,238,1243,-666,605,-320,1,7,11
5.13E+02,-8161,330,1560,-1047,609,-130,1,7,11
5.13E+02,-8167,-86,1619,-1124,608,-526,1,7,11
5.14E+02,-8169,103,1630,-1124,546,-482,1,7,11
5.14E+02,-8170,111,1607,-1147,242,-706,1,7,11
5.14E+02,-8512,-42,1602,-965,199,-1128,1,7,11
5.14E+02,-8535,263,1584,-1362,375,-909,1,7,11
5.15E+02,-8545,259,1574,-1228,321,-1152,1,7,11
5.15E+02,-8534,307,1275,-1267,278,-1110,1,7,11
5.15E+02,-8497,303,1271,-1564,260,-764,1,7,11
5.15E+02,-8490,-1,1545,-1566,268,-671,1,7,11
5.16E+02,-8484,-79,1264,-1254,280,-832,1,7,11
5.16E+02,-8513,121,1270,-1401,318,-787,1,7,11
5.16E+02,-8532,97,1548,-1314,351,-481,1,7,11
5.16E+02,-8486,43,1596,-1024,371,-630,1,7,11
5.17E+02,-8322,-350,1435,-1295,215,-558,1,7,11
5.17E+02,-8344,-191,1499,-915,140,-567,1,7,11
5.17E+02,-8510,-149,1501,-724,321,-400,1,7,11
5.17E+02,-8513,-287,1436,-844,305,-418,1,7,11
5.18E+02,-8179,-93,1560,-497,317,-586,1,7,11
5.18E+02,-8164,211,1404,-792,195,-131,1,7,11
5.18E+02,-8153,478,1012,-1069,633,-3,1,7,11
5.18E+02,-8460,654,923,-1265,846,425,1,7,11
5.19E+02,-8132,1045,1064,-1757,726,1096,1,7,11
5.19E+02,-8269,933,691,-2227,909,1355,1,7,11
5.19E+02,-8207,1361,852,-2711,1174,1559,1,7,11
5.19E+02,-8269,1392,673,-3603,1512,1826,1,7,11
5.20E+02,-8706,746,1035,-4403,2055,1787,1,7,11
5.20E+02,-8182,746,851,-5145,1862,1913,1,7,11
5.20E+02,-8268,1028,431,-5508,1665,1589,1,7,11
5.20E+02,-8289,1093,621,-6405,2078,1289,1,7,11
5.21E+02,-8271,967,228,-6923,1952,1105,1,7,11
5.21E+02,-8200,1220,-9,-7483,2419,750,1,7,11
5.21E+02,-8222,1428,56,-8293,2490,721,1,7,11
5.21E+02,-8277,1853,-361,-9239,2796,728,1,7,11
5.22E+02,-8315,1760,-398,-10248,3037,710,1,7,11
5.22E+02,-8124,1959,-731,-11204,3264,649,1,7,11
5.22E+02,-8338,1971,-1054,-12921,3703,860,1,7,11
5.22E+02,-8755,1723,-1040,-14366,3642,651,1,7,11
5.23E+02,-8613,1601,-715,-15239,3446,734,1,7,11
5.23E+02,-8616,1003,-766,-16203,3172,921,1,7,11
5.23E+02,-8826,872,-1137,-16650,2695,1400,1,7,11
5.23E+02,-8742,563,-934,-16765,2556,1254,1,7,11
5.24E+02,-8752,304,-1078,-16324,2476,1182,1,7,11
5.24E+02,-8788,-46,-694,-15818,2607,1332,1,7,11
5.24E+02,-8792,86,-778,-15248,2182,1019,1,7,11
5.24E+02,-8769,-281,-578,-14525,1983,963,1,7,11
5.25E+02,-8437,-359,-355,-13910,1755,1086,1,7,11
5.25E+02,-8338,-274,69,-12843,1822,875,1,7,11
5.25E+02,-8393,-114,276,-11485,1449,385,1,7,11
5.25E+02,-8397,363,142,-10387,1276,225,1,7,11
5.26E+02,-8724,543,527,-9372,1393,361,1,7,11
5.26E+02,-8753,428,401,-8385,960,283,1,7,11
5.26E+02,-8708,882,424,-7350,763,-69,1,7,11
5.26E+02,-8411,1119,448,-6672,881,111,1,7,11
5.27E+02,-8334,1317,447,-5589,491,48,1,7,11
5.27E+02,-8496,1197,435,-4842,630,-287,1,7,11
5.27E+02,-8158,1556,425,-4429,543,-355,1,7,11
5.27E+02,-8084,1563,443,-3886,203,-194,1,7,11
5.28E+02,-8299,1563,453,-3376,352,-629,1,7,11
5.28E+02,-8248,1582,434,-2920,-21,-894,1,7,11
5.28E+02,-8285,1639,442,-2264,-97,-953,1,7,11
5.28E+02,-8105,1646,477,-1992,57,-1221,1,7,11
5.29E+02,-8105,1652,446,-1725,-354,-1659,1,7,11
5.29E+02,-8085,1590,397,-1801,-236,-1497,1,7,11
5.29E+02,-8209,1561,528,-1640,-633,-1820,1,7,11
5.29E+02,-8239,1608,220,-1539,-400,-1698,1,7,11
5.30E+02,-8297,1509,141,-1215,-467,-1743,1,7,11
5.30E+02,-8298,1800,370,-1561,-839,-1714,1,7,11
5.30E+02,-8128,1808,370,-1633,-657,-1688,1,7,11
5.30E+02,-8528,1844,364,-1663,-758,-1842,1,7,11
5.31E+02,-8503,1849,287,-1442,-941,-1634,1,7,11
5.31E+02,-8177,1504,-1,-1487,-1018,-1201,1,7,11
5.31E+02,-8471,1434,305,-1448,-1001,-1366,1,7,11
5.31E+02,-8523,1585,167,-1630,-1020,-1281,1,7,11
5.32E+02,-8518,1202,528,-1254,-1335,-953,1,7,11
5.32E+02,-8483,1336,583,-1335,-1395,-920,1,7,11
5.32E+02,-8118,1301,531,-1123,-1192,-937,1,7,11
5.32E+02,-8313,1308,520,-1032,-1393,-1006,1,7,11
5.33E+02,-8083,1292,591,-1099,-1296,-1311,1,7,11
5.33E+02,-8134,969,433,-947,-997,-1326,1,7,11
5.33E+02,-8137,907,492,-996,-995,-1312,1,7,11
5.33E+02,-8458,1059,846,-1320,-960,-979,1,7,11
5.34E+02,-8490,644,696,-1343,-965,-1059,1,7,11
5.34E+02,-8464,773,1050,-1292,-993,-875,1,7,11
5.34E+02,-8170,608,987,-1003,-1283,-415,1,7,11
5.34E+02,-8313,528,1341,-919,-1349,-150,1,7,11
5.35E+02,-8305,530,1407,-1111,-1362,-302,1,7,11
5.35E+02,-8282,588,1196,-1152,-1358,119,1,7,11
5.35E+02,-8103,571,1250,-1320,-1329,297,1,7,11
5.35E+02,-8304,512,1565,-1291,-1406,330,1,7,11
5.36E+02,-7909,244,1278,-1102,-1383,-99,1,7,11
5.36E+02,-8209,228,1606,-653,-923,-334,1,7,11
5.36E+02,-8243,544,1644,-439,-1048,-544,1,7,11
5.36E+02,-8235,605,1650,-534,-724,-431,1,7,11
5.37E+02,-8266,604,1426,-192,-873,-502,1,7,11
5.37E+02,-8308,629,1458,-353,-798,-492,1,7,11
5.37E+02,-8281,398,1448,-287,-502,-410,1,7,11
5.37E+02,-8302,449,1423,-270,-416,-518,1,7,11
5.38E+02,-8315,807,1647,-289,-603,-283,1,7,11
5.38E+02,-8241,647,1550,-346,-541,301,1,7,11
5.38E+02,-8241,656,1251,-215,-363,639,1,7,11
5.38E+02,-8070,879,1575,-569,93,707,1,7,11
5.39E+02,-8148,774,1652,-589,-61,912,1,7,11
5.39E+02,-8472,453,1469,-237,-38,957,1,7,11
5.39E+02,-8496,775,1457,-311,-78,916,1,7,11
5.39E+02,-8491,881,1415,96,-127,1094,1,7,11
5.40E+02,-8458,702,1616,-59,111,741,1,7,11
5.40E+02,-8175,735,1587,-7,-111,894,1,7,11
5.40E+02,-8178,755,1573,314,-48,503,1,7,11
5.40E+02,-8500,1097,1573,147,-7,593,1,7,11
5.41E+02,-8546,920,1569,165,-16,214,1,7,11
5.41E+02,-8323,956,1596,131,-80,319,1,7,11
5.41E+02,-8572,1291,1611,280,61,125,1,7,11
5.41E+02,-8344,983,1416,60,-293,-310,1,7,11
5.42E+02,-8321,946,1474,-337,-172,-253,1,7,11
5.42E+02,-8325,1141,1820,-207,-255,-391,1,7,11
5.42E+02,-8550,1057,1873,-515,-597,-457,1,7,11
5.42E+02,-8169,744,1889,-210,-411,-506,1,7,11
5.43E+02,-8121,740,1880,-197,-586,-783,1,7,11
5.43E+02,-8180,697,1690,-209,-211,-493,1,7,11
5.43E+02,-8520,698,1729,-174,-154,-461,1,7,11
5.43E+02,-8343,693,1744,-154,-146,-403,1,7,11
5.44E+02,-8369,670,1726,-376,-176,-588,1,7,11
5.44E+02,-8350,655,1700,-314,-208,-533,1,7,11
5.44E+02,-8554,880,1912,-264,-210,-221,1,7,11
5.44E+02,-8526,871,1900,53,-173,-178,1,7,11
5.45E+02,-8507,884,1893,107,-378,-374,1,7,11
5.45E+02,-8479,671,1838,-120,-332,-284,1,7,11
5.45E+02,-8449,654,1798,86,-272,79,1,7,11
5.45E+02,-8144,857,1535,52,34,120,1,7,11
5.46E+02,-8081,824,1505,52,82,66,1,7,11
5.46E+02,-8080,827,1496,87,-102,-307,1,7,11
5.46E+02,-8105,856,1470,-128,-41,-167,1,7,11
5.46E+02,-8133,872,1436,-93,261,-245,1,7,11
5.47E+02,-8152,862,1423,-45,302,-553,1,7,11
5.47E+02,-8133,830,1409,265,301,-593,1,7,11
5.47E+02,-8318,822,1599,325,286,-622,1,7,11
5.47E+02,-8087,786,1591,356,304,-408,1,7,11
5.48E+02,-8075,776,1572,139,258,-466,1,7,11
5.48E+02,-8092,796,1541,164,266,-480,1,7,11
5.48E+02,-8123,793,1275,137,308,-400,1,7,11
5.48E+02,-8133,491,1279,348,352,-545,1,7,11
5.49E+02,-8105,438,1276,337,383,-197,1,7,11
5.49E+02,-8078,431,1272,361,152,-144,1,7,11
5.49E+02,-8112,477,1273,368,175,-332,1,7,11
5.49E+02,-8095,486,1273,322,165,45,1,7,11
5.50E+02,-8316,482,1278,299,163,-91,1,7,11
5.50E+02,-8281,499,1536,313,172,278,1,7,11
5.50E+02,-8278,488,1565,340,227,169,1,7,11
5.50E+02,-8102,442,1642,155,558,563,1,7,11
5.51E+02,-8187,417,1501,604,579,425,1,7,11
5.51E+02,-8524,441,1551,890,561,788,1,7,11
5.51E+02,-8547,435,1896,902,526,660,1,7,11
5.51E+02,-8533,428,1694,1164,220,761,1,7,11
5.52E+02,-8567,490,1709,1426,184,1080,1,7,11
5.52E+02,-8330,802,1705,1885,128,1129,1,7,11
5.52E+02,-8574,806,1723,2065,349,1060,1,7,11
5.52E+02,-8327,794,1756,2172,341,850,1,7,11
5.53E+02,-8363,846,1777,1937,310,588,1,7,11
5.53E+02,-8372,881,1773,2099,-33,360,1,7,11
5.53E+02,-8321,722,1711,1898,38,109,1,7,11
5.53E+02,-8575,1067,1672,1479,2,39,1,7,11
5.54E+02,-8547,1116,1875,1585,-287,95,1,7,11
5.54E+02,-8468,1137,1837,1208,-298,-86,1,7,11
5.54E+02,-8167,896,1531,1327,-262,270,1,7,11
5.54E+02,-8177,897,1531,924,37,152,1,7,11
5.55E+02,-8165,1120,1805,1064,32,537,1,7,11
5.55E+02,-8164,1065,1830,736,3,618,1,7,11
5.55E+02,-8172,686,1672,684,-316,409,1,7,11
5.55E+02,-8173,421,2095,683,-187,629,1,7,11
5.56E+02,-8499,133,1986,934,-386,130,1,7,11
5.56E+02,-8432,-84,2024,1521,-702,-321,1,7,11
5.56E+02,-8733,45,1923,2669,-1406,-846,1,7,11
5.56E+02,-8756,-535,2162,3624,-1527,-1172,1,7,11
5.57E+02,-8797,-647,2059,4946,-2119,-2083,1,7,11
5.57E+02,-8820,-732,1825,6280,-2177,-2834,1,7,11
5.57E+02,-8588,-1088,1627,7950,-2640,-3285,1,7,11
5.57E+02,-8649,-1085,1208,9284,-2862,-4047,1,7,11
5.58E+02,-8676,-651,1315,10205,-3113,-4785,1,7,11
5.58E+02,-8643,-636,950,11169,-3358,-5323,1,7,11
5.58E+02,-8769,-374,1056,12139,-3254,-5541,1,7,11
5.58E+02,-8378,340,738,12624,-3235,-5286,1,7,11
5.59E+02,-8503,391,729,12871,-3038,-4829,1,7,11
5.59E+02,-8070,682,1077,12677,-2469,-4232,1,7,11
5.59E+02,-8226,1146,1322,12492,-1952,-3562,1,7,11
5.59E+02,-7873,931,1628,11929,-1500,-3144,1,7,11
5.60E+02,-8023,902,1873,11583,-1400,-2578,1,7,11
5.60E+02,-7662,933,1763,10472,-1092,-2136,1,7,11
5.60E+02,-7644,1288,2124,10046,-508,-1490,1,7,11
5.60E+02,-7980,1297,1999,9222,-200,-1385,1,7,11
5.61E+02,-7976,1310,2361,8792,-348,-1109,1,7,11
5.61E+02,-7881,966,2287,7651,120,-888,1,7,11
5.61E+02,-7925,1078,2438,6852,-11,-505,1,7,11
5.61E+02,-8247,886,2836,6421,-39,-502,1,7,11
5.62E+02,-8253,775,2916,5938,113,-842,1,7,11
5.62E+02,-7894,810,2918,5319,5,-865,1,7,11
5.62E+02,-8296,428,2929,5012,79,-779,1,7,11
5.62E+02,-7926,397,2872,4876,-266,-781,1,7,11
5.63E+02,-7846,446,2543,4480,53,-796,1,7,11
5.63E+02,-7898,448,2531,4321,-74,-506,1,7,11
5.63E+02,-8227,420,2511,4443,284,-462,1,7,11
5.63E+02,-7866,506,2647,4370,377,-390,1,7,11
5.64E+02,-8195,781,2616,4190,598,-243,1,7,11
5.64E+02,-7857,832,2234,3738,492,-342,1,7,11
5.64E+02,-7823,862,2429,3699,721,84,1,7,11
5.64E+02,-8058,669,2367,3344,962,278,1,7,11
5.65E+02,-7850,648,2332,2905,1189,207,1,7,11
5.65E+02,-7869,863,2028,2573,1560,522,1,7,11
5.65E+02,-7877,697,1932,2325,1633,186,1,7,11
5.65E+02,-8243,1046,2150,2085,1431,298,1,7,11
5.66E+02,-8095,942,2053,1672,1646,-120,1,7,11
5.66E+02,-8176,1283,1673,1809,1573,-264,1,7,11
5.66E+02,-8453,1393,1527,1506,1223,-149,1,7,11
5.66E+02,-8496,1250,1633,1625,1192,-210,1,7,11
5.67E+02,-8546,1632,1249,1407,1159,-220,1,7,11
5.67E+02,-8533,1492,1402,1058,1328,-216,1,7,11
5.67E+02,-8538,1508,1160,563,971,-531,1,7,11
5.67E+02,-8333,1914,1391,55,1088,-570,1,7,11
5.68E+02,-8548,2054,1357,-896,650,-217,1,7,11
5.68E+02,-8528,2062,1403,-1662,769,-344,1,7,11
5.68E+02,-8511,1730,1213,-2356,635,33,1,7,11
5.68E+02,-8167,1670,1169,-2712,247,-107,1,7,11
5.69E+02,-8235,1889,1287,-3666,201,-65,1,7,11
5.69E+02,-7827,1683,1108,-4479,576,125,1,7,11
5.69E+02,-8032,1737,748,-5473,824,-284,1,7,11
5.69E+02,-7837,1687,725,-6330,1102,-151,1,7,11
5.70E+02,-8215,1512,747,-7703,1311,-232,1,7,11
5.70E+02,-8080,1276,1067,-8732,1161,-247,1,7,11
5.70E+02,-8171,1307,742,-9351,1200,-149,1,7,11
5.70E+02,-8140,1071,812,-10174,1205,-262,1,7,11
5.71E+02,-8302,815,426,-10984,1559,81,1,7,11
5.71E+02,-8258,468,220,-12063,1492,-118,1,7,11
5.71E+02,-8525,610,372,-12738,1680,264,1,7,11
5.71E+02,-8498,614,109,-13870,1860,141,1,7,11
5.72E+02,-8723,-6,98,-14901,1667,224,1,7,11
5.72E+02,-8621,-370,-9,-15358,1817,514,1,7,11
5.72E+02,-8660,-478,310,-15959,1537,142,1,7,11
5.72E+02,-8988,-651,242,-15562,970,-70,1,7,11
5.73E+02,-8863,-696,621,-15045,870,42,1,7,11
5.73E+02,-8907,-721,498,-14244,230,62,1,7,11
5.73E+02,-8892,-936,868,-13230,-75,-33,1,7,11
5.73E+02,-8993,-1398,723,-11926,-288,189,1,7,11
5.74E+02,-8796,-1307,1106,-10473,-342,559,1,7,11
5.74E+02,-8394,-1583,946,-8900,16,533,1,7,11
5.74E+02,-8386,-1557,1296,-7397,-68,188,1,7,11
5.74E+02,-8403,-1198,1324,-6257,331,262,1,7,11
5.75E+02,-8411,-1297,1298,-4773,139,34,1,7,11
5.75E+02,-8408,-1105,988,-3316,134,-522,1,7,11
5.75E+02,-8438,-658,937,-2877,366,-595,1,7,11
5.75E+02,-8423,-510,1141,-2594,286,-549,1,7,11
5.76E+02,-8384,-629,1085,-2110,-73,-236,1,7,11
5.76E+02,-8364,-552,1066,-1495,62,-170,1,7,11
5.76E+02,-8549,-534,1078,-1241,-342,-337,1,7,11
5.76E+02,-8455,-570,1094,-1190,-227,-292,1,7,11
5.77E+02,-8114,-577,1118,-691,-597,-322,1,7,11
5.77E+02,-8292,-546,1147,-438,-418,-375,1,7,11
5.77E+02,-7924,-192,900,-225,-471,-161,1,7,11
5.77E+02,-7879,-351,952,-379,-443,-191,1,7,11
5.78E+02,-7884,-258,995,-344,-392,-186,1,7,11
5.78E+02,-7887,7,1008,-137,-565,-213,1,7,11
5.78E+02,-8311,-259,1296,-218,-140,-583,1,7,11
5.78E+02,-8530,-307,1312,-580,34,-423,1,7,11
5.79E+02,-8438,-371,1332,-416,-87,-494,1,7,11
5.79E+02,-8411,-195,1325,-450,-27,-786,1,7,11
5.79E+02,-8548,-527,1292,-416,294,-842,1,7,11
5.79E+02,-8498,-607,1280,-625,159,-874,1,7,11
5.80E+02,-8522,-430,1306,-570,529,-847,1,7,11
5.80E+02,-8532,-788,1304,-226,563,-784,1,7,11
5.80E+02,-8458,-854,1009,-361,532,-503,1,7,11
5.80E+02,-8145,-837,966,40,238,-798,1,7,11
5.81E+02,-8189,-784,974,-80,209,-843,1,7,11
5.81E+02,-8529,-402,992,306,368,-839,1,7,11
5.81E+02,-8330,-571,1390,-74,-317,-322,1,7,11
5.81E+02,-8533,-579,1170,-81,-181,93,1,7,11
5.82E+02,-8470,-570,1176,-60,-244,-54,1,7,11
5.82E+02,-8465,-519,1178,-41,-242,270,1,7,11
5.82E+02,-8466,-188,1157,-48,-217,338,1,7,11
5.82E+02,-8503,-335,1399,-109,-143,134,1,7,11
5.83E+02,-8411,95,1210,0,-276,252,1,7,11
5.83E+02,-8435,-97,1248,-532,-298,634,1,7,11
5.83E+02,-8378,-50,1248,-450,-344,485,1,7,11
5.83E+02,-8326,-57,1273,-880,-368,832,1,7,11
5.84E+02,-8499,-115,1274,-743,-135,655,1,7,11
5.84E+02,-8464,45,1273,-1058,-361,661,1,7,11
5.84E+02,-8187,-290,1277,-1057,-330,860,1,7,11
5.84E+02,-8162,-360,1261,-745,-317,484,1,7,11
5.85E+02,-8169,-374,1222,-894,-288,593,1,7,11
5.85E+02,-8459,-380,1183,-781,11,210,1,7,11
5.85E+02,-8490,-362,1405,-397,26,372,1,7,11
5.85E+02,-8469,-358,1359,-552,18,317,1,7,11
5.86E+02,-8451,-372,1355,-214,16,271,1,7,11
5.86E+02,-8167,-138,1341,-141,-262,-37,1,7,11
5.86E+02,-8138,-151,1348,-317,-292,-106,1,7,11
5.86E+02,-8138,-380,1349,27,-321,83,1,7,11
5.87E+02,-8157,-330,1369,108,-346,51,1,7,11
5.87E+02,-8174,-282,1388,-93,-364,68,1,7,11
5.87E+02,-8180,2,1156,-48,-352,121,1,7,11
5.87E+02,-8174,21,1173,-13,-334,-59,1,7,11
5.88E+02,-8130,-269,1192,-22,-304,259,1,7,11
5.88E+02,-8119,-315,1219,-18,17,-3,1,7,11
5.88E+02,-8113,-317,1244,269,77,-43,1,7,11
5.88E+02,-8124,-300,1271,312,-126,-86,1,7,11
5.89E+02,-8147,-285,1565,331,-67,-124,1,7,11
5.89E+02,-8182,-276,1614,334,-29,102,1,7,11
5.89E+02,-8470,-132,1475,289,-36,30,1,7,11
5.89E+02,-8172,-246,1516,291,-54,-335,1,7,11
5.90E+02,-8135,-414,1801,308,-58,-528,1,7,11
5.90E+02,-8292,-810,1534,177,-71,-842,1,7,11
5.90E+02,-8222,-886,1485,623,-63,-986,1,7,11
5.90E+02,-7905,-1117,1481,789,-70,-1642,1,7,11
5.91E+02,-8091,-1550,1827,1127,-96,-2129,1,7,11
5.91E+02,-8420,-1713,1698,1671,-272,-2653,1,7,11
5.91E+02,-8656,-2338,1714,2962,-386,-3097,1,7,11
5.91E+02,-9001,-2443,1897,4585,-1076,-3247,1,7,11
5.92E+02,-8697,-2835,1437,6688,-1208,-3858,1,7,11
5.92E+02,-8616,-2934,1262,8139,-1448,-4119,1,7,11
5.92E+02,-8801,-2878,1347,9997,-1850,-4077,1,7,11
5.92E+02,-8765,-2635,926,11331,-1673,-4451,1,7,11
5.93E+02,-8781,-2313,1106,12301,-1702,-4408,1,7,11
5.93E+02,-8810,-1762,1134,12927,-1703,-4173,1,7,11
5.93E+02,-8786,-1427,923,13052,-1708,-3546,1,7,11
5.93E+02,-8419,-1399,981,13384,-1667,-3052,1,7,11
5.94E+02,-8527,-930,1318,12986,-1528,-2535,1,7,11
5.94E+02,-8275,-641,1241,12687,-1161,-1750,1,7,11
5.94E+02,-7936,-849,1606,12206,-991,-1495,1,7,11
5.94E+02,-7814,-770,1813,11686,-879,-1293,1,7,11
5.95E+02,-7953,-449,1738,11188,-531,-662,1,7,11
5.95E+02,-7622,-611,2136,10686,69,-629,1,7,11
5.95E+02,-7553,-525,2003,10359,377,-337,1,7,11
5.95E+02,-7682,-367,2320,9785,386,-76,1,7,11
5.96E+02,-7698,-276,2421,8848,695,163,1,7,11
5.96E+02,-7712,73,2263,8504,935,620,1,7,11
5.96E+02,-7557,-113,2578,7987,1401,809,1,7,11
5.96E+02,-7595,-36,2289,7530,1553,1024,1,7,11
5.97E+02,-7625,267,2225,6806,1471,926,1,7,11
5.97E+02,-7672,285,2187,6296,1897,975,1,7,11
5.97E+02,-7995,340,2384,5819,1775,1123,1,7,11
5.97E+02,-7827,226,2349,5660,2102,878,1,7,11
5.98E+02,-7919,557,2037,5154,2175,405,1,7,11
5.98E+02,-8312,605,1972,4533,2173,211,1,7,11
5.98E+02,-8154,617,2139,4438,2147,283,1,7,11
5.98E+02,-8500,608,2066,4213,2063,41,1,7,11
5.99E+02,-8340,626,1731,3788,1674,-245,1,7,11
5.99E+02,-8437,411,1666,3911,1528,-495,1,7,11
5.99E+02,-8736,438,1882,3493,1599,-658,1,7,11
5.99E+02,-8714,446,1834,3587,1156,-724,1,7,11
6.00E+02,-8717,435,1821,3381,1005,-706,1,7,11
6.00E+02,-8423,388,1846,3128,1110,-866,1,7,11
6.00E+02,-8380,575,1849,2876,703,-771,1,7,11
6.00E+02,-8322,160,1885,2457,820,-776,1,7,11
6.01E+02,-8529,349,1896,2636,401,-658,1,7,11
6.01E+02,-8496,298,1688,2290,546,-1096,1,7,11
6.01E+02,-8479,279,1694,2182,176,-957,1,7,11
6.01E+02,-8192,282,1693,2335,356,-979,1,7,11
6.02E+02,-8169,294,1671,1960,336,-899,1,7,11
6.02E+02,-8133,296,1909,2134,128,-760,1,7,11
6.02E+02,-8133,292,1891,2076,241,-820,1,7,11
6.02E+02,-8176,-28,1916,1740,404,-566,1,7,11
6.03E+02,-8200,104,1703,1887,809,-275,1,7,11
6.03E+02,-8201,16,1714,1526,892,-31,1,7,11
6.03E+02,-8472,5,1701,1451,666,362,1,7,11
6.03E+02,-8472,-40,1868,1478,641,512,1,7,11
6.04E+02,-8537,289,1800,1482,720,700,1,7,11
6.04E+02,-8341,-48,1806,1430,706,898,1,7,11
6.04E+02,-8503,304,1424,1670,851,1114,1,7,11
6.04E+02,-8493,258,1432,1746,843,1037,1,7,11
6.05E+02,-8466,281,1651,2138,784,894,1,7,11
6.05E+02,-8190,356,1623,1980,456,490,1,7,11
6.05E+02,-8454,197,1595,2031,387,409,1,7,11
6.05E+02,-8486,575,1551,2305,577,396,1,7,11
6.06E+02,-8494,467,1243,1997,232,439,1,7,11
6.06E+02,-8462,804,1211,2149,152,498,1,7,11
6.06E+02,-8523,813,1248,1744,331,790,1,7,11
6.06E+02,-8537,504,1276,1881,-71,484,1,7,11
6.07E+02,-8484,484,1558,1835,-266,581,1,7,11
6.07E+02,-8130,801,1276,1836,-222,362,1,7,11
6.07E+02,-8251,775,1278,1812,-414,-118,1,7,11
6.07E+02,-7927,421,1600,1808,-788,-146,1,7,11
6.08E+02,-8240,386,1423,1846,-868,-422,1,7,11
6.08E+02,-8310,615,1503,1882,-722,-885,1,7,11
6.08E+02,-8157,631,1814,1895,-1061,-756,1,7,11
6.08E+02,-8477,402,1854,1860,-1142,-762,1,7,11
6.09E+02,-8479,638,1882,1509,-928,-713,1,7,11
6.09E+02,-8536,572,1682,1622,-911,-894,1,7,11
6.09E+02,-8575,229,1709,1274,-1147,-830,1,7,11
6.09E+02,-8545,135,1720,1258,-1087,-813,1,7,11
6.10E+02,-8351,148,1710,1551,-880,-811,1,7,11
6.10E+02,-8430,189,1726,1583,-436,-468,1,7,11
6.10E+02,-8720,216,1734,1558,-253,-617,1,7,11
6.10E+02,-8716,226,1737,1250,-136,-519,1,7,11
6.11E+02,-8431,186,1710,1179,-302,-191,1,7,11
6.11E+02,-8442,162,1670,1184,20,-209,1,7,11
6.11E+02,-8709,158,1871,1554,31,-621,1,7,11
6.11E+02,-8371,520,1505,1438,11,-831,1,7,11
6.12E+02,-8409,584,1476,1460,49,-681,1,7,11
6.12E+02,-8384,389,1501,1445,-268,-744,1,7,11
6.12E+02,-8707,565,1510,1538,-296,-656,1,7,11
6.12E+02,-8355,219,1507,1266,-234,-672,1,7,11
6.13E+02,-8342,225,1526,1246,-604,-765,1,7,11
6.13E+02,-8541,512,1468,1224,-476,-1045,1,7,11
6.13E+02,-8484,208,1465,1406,-781,-1074,1,7,11
6.13E+02,-8172,149,1494,1359,-800,-1142,1,7,11
6.14E+02,-8110,343,1529,1331,-822,-985,1,7,11
6.14E+02,-8295,338,1534,1308,-811,-1339,1,7,11
6.14E+02,-8300,354,1810,971,-507,-1399,1,7,11
6.14E+02,-8268,263,1845,1112,-471,-1182,1,7,11
6.15E+02,-8275,-57,1884,1040,-409,-1280,1,7,11
6.15E+02,-8294,-111,1917,708,-598,-1599,1,7,11
6.15E+02,-8311,107,1674,858,-534,-1583,1,7,11
6.15E+02,-8305,70,1682,459,-195,-1242,1,7,11
6.16E+02,-8261,57,1893,585,-360,-1383,1,7,11
6.16E+02,-8300,28,1880,170,70,-960,1,7,11
6.16E+02,-8083,-276,1856,317,-34,-1028,1,7,11
6.16E+02,-8149,-324,1835,-17,381,-834,1,7,11
6.17E+02,-8455,-350,1807,-79,513,-615,1,7,11
6.17E+02,-8492,-354,1525,102,610,-372,1,7,11
6.17E+02,-8475,-353,1490,-259,418,-86,1,7,11
6.17E+02,-8450,-292,1656,-333,488,244,1,7,11
6.18E+02,-8526,-293,1648,-315,833,805,1,7,11
6.18E+02,-8561,-312,1640,73,880,766,1,7,11
6.18E+02,-8467,-232,1606,-118,884,921,1,7,11
6.18E+02,-8133,-566,1595,275,640,1077,1,7,11
6.19E+02,-8145,-514,1597,135,652,677,1,7,11
6.19E+02,-8173,-192,1601,211,653,852,1,7,11
6.19E+02,-8174,-377,1586,244,891,797,1,7,11
6.19E+02,-8160,-303,1572,525,861,488,1,7,11
6.20E+02,-8147,38,1263,573,815,424,1,7,11
6.20E+02,-8110,98,1217,579,511,611,1,7,11
6.20E+02,-8190,-116,1205,534,473,516,1,7,11
6.20E+02,-8471,-73,1195,171,616,149,1,7,11
6.21E+02,-8512,-4,1178,307,227,-4,1,7,11
6.21E+02,-8567,302,1172,126,347,-92,1,7,11
6.21E+02,-8496,322,1174,-348,-70,-110,1,7,11
6.21E+02,-8474,291,1201,-554,78,-90,1,7,11
6.22E+02,-8120,277,1221,-411,-296,-83,1,7,11
6.22E+02,-8319,-21,1256,-455,-346,-71,1,7,11
6.22E+02,-8296,99,1296,-419,-349,-70,1,7,11
6.22E+02,-8270,47,1662,24,58,325,1,7,11
6.23E+02,-8080,-263,1447,35,-103,186,1,7,11
6.23E+02,-8069,-275,1425,85,-54,555,1,7,11
6.23E+02,-8102,62,1644,-47,297,574,1,7,11
6.23E+02,-8150,-46,1598,362,157,587,1,7,11
6.24E+02,-8513,318,1578,199,549,589,1,7,11
6.24E+02,-8397,176,1600,251,611,570,1,7,11
6.24E+02,-8428,631,1554,516,550,610,1,7,11
6.24E+02,-8770,828,1262,201,239,502,1,7,11
6.25E+02,-8732,674,1229,131,138,688,1,7,11
6.25E+02,-8411,761,1209,337,317,1055,1,7,11
6.25E+02,-8566,1129,1186,321,262,1137,1,7,11
6.25E+02,-8377,1061,1236,-50,302,957,1,7,11
6.26E+02,-8169,728,1214,-8,-69,1134,1,7,11
6.26E+02,-8115,696,1245,281,-40,674,1,7,11
6.26E+02,-8065,666,1276,340,-41,470,1,7,11
6.26E+02,-8282,697,1548,164,-44,524,1,7,11
6.27E+02,-8269,689,1583,177,-16,141,1,7,11
6.27E+02,-8229,895,1605,180,261,305,1,7,11
6.27E+02,-8259,859,1647,174,312,-44,1,7,11
6.27E+02,-8221,826,1619,209,347,-96,1,7,11
6.28E+02,-8243,801,1575,557,179,40,1,7,11
6.28E+02,-8299,667,1221,464,524,-145,1,7,11
6.28E+02,-8171,1078,1380,843,635,-604,1,7,11
6.28E+02,-8387,1007,1300,643,457,-805,1,7,11
6.29E+02,-8725,1234,954,886,589,-655,1,7,11
6.29E+02,-8378,1566,1135,448,154,-642,1,7,11
6.29E+02,-8821,1240,1132,247,336,-877,1,7,11
6.29E+02,-8679,984,964,300,83,-842,1,7,11
6.30E+02,-8686,1059,984,275,-180,-642,1,7,11
6.30E+02,-9024,689,1324,334,-568,-749,1,7,11
6.30E+02,-8997,674,1395,212,-493,-1073,1,7,11
6.30E+02,-8636,730,1174,538,-857,-1050,1,7,11
6.31E+02,-8808,645,1266,214,-854,-641,1,7,11
6.31E+02,-8429,799,1616,207,-873,-831,1,7,11
6.31E+02,-8527,502,1657,242,-654,-842,1,7,11
6.31E+02,-8076,481,1411,253,-645,-878,1,7,11
6.32E+02,-7930,478,1427,247,-815,-710,1,7,11
6.32E+02,-7847,454,1476,199,-437,-1080,1,7,11
6.32E+02,-8039,396,1518,129,-562,-918,1,7,11
6.32E+02,-8007,618,1795,317,-152,-979,1,7,11
6.33E+02,-7991,560,1812,-51,7,-994,1,7,11
6.33E+02,-7997,255,1825,78,-87,-959,1,7,11
6.33E+02,-8064,157,1837,-354,333,-1131,1,7,11
6.33E+02,-8029,262,1818,-243,166,-1074,1,7,11
6.34E+02,-8025,113,1828,-576,255,-907,1,7,11
6.34E+02,-7866,32,1865,-597,566,-1009,1,7,11
6.34E+02,-8282,-315,1667,-616,576,-1285,1,7,11
6.34E+02,-8099,-367,1712,-605,240,-970,1,7,11
6.35E+02,-8136,-170,1730,-598,141,-1104,1,7,11
6.35E+02,-8149,-247,1737,-579,300,-698,1,7,11
6.35E+02,-8126,-620,1740,-515,-41,-836,1,7,11
6.35E+02,-8109,-483,1717,-137,-108,-837,1,7,11
6.36E+02,-8173,-785,1718,-288,-104,-865,1,7,11
6.36E+02,-8504,-470,1687,62,-107,-851,1,7,11
6.36E+02,-8490,-416,1893,47,-98,-492,1,7,11
6.36E+02,-8566,-640,1872,-283,-16,-610,1,7,11
6.37E+02,-8353,-636,1888,-322,287,-231,1,7,11
6.37E+02,-8339,-389,1889,-360,299,-156,1,7,11
6.37E+02,-8332,-393,1899,-158,307,-369,1,7,11
6.37E+02,-8353,-631,1889,-229,307,-343,1,7,11
6.38E+02,-8405,-601,1888,-581,334,-302,1,7,11
6.38E+02,-8746,-594,1902,-422,368,-267,1,7,11
6.38E+02,-8812,-640,1670,-493,375,-265,1,7,11
6.38E+02,-8792,-463,1715,-769,322,-287,1,7,11
6.39E+02,-8744,-676,1749,-470,-15,-345,1,7,11
6.39E+02,-8368,-758,1729,-546,110,-545,1,7,11
6.39E+02,-8485,-706,1691,-306,-271,-885,1,7,11
6.39E+02,-8120,-885,1702,13,-309,-1077,1,7,11
6.40E+02,-8472,-794,1682,-298,20,-1061,1,7,11
6.40E+02,-8170,-391,1901,-267,-272,-857,1,7,11
6.40E+02,-8127,-450,1680,-279,68,-438,1,7,11
6.40E+02,-8320,-415,1688,97,90,-614,1,7,11
6.41E+02,-8300,-441,1671,-27,126,-561,1,7,11
6.41E+02,-8307,-426,1897,372,-59,-523,1,7,11
6.41E+02,-8119,-627,1837,224,284,-202,1,7,11
6.41E+02,-8452,-579,1501,572,361,-379,1,7,11
6.42E+02,-8180,-223,1633,400,157,-318,1,7,11
6.42E+02,-8136,-336,1273,423,521,73,1,7,11
6.42E+02,-8465,-330,1246,228,405,174,1,7,11
6.42E+02,-8530,-191,1590,346,639,531,1,7,11
6.43E+02,-8331,-217,1642,307,197,581,1,7,11
6.43E+02,-8571,-199,1645,-16,-39,623,1,7,11
6.43E+02,-8333,-212,1437,92,27,407,1,7,11
6.43E+02,-8383,-170,1485,-372,-161,485,1,7,11
6.44E+02,-8440,-181,1819,-419,-591,670,1,7,11
6.44E+02,-8714,-238,1873,-816,-841,724,1,7,11
6.44E+02,-8363,-552,1876,-506,-1113,838,1,7,11
6.44E+02,-8547,-586,1879,-632,-983,386,1,7,11
6.45E+02,-8539,-396,1919,-516,-997,222,1,7,11
6.45E+02,-8190,-420,1876,-375,-1022,311,1,7,11
6.45E+02,-8118,-619,1810,16,-953,-103,1,7,11
6.45E+02,-8289,-567,1498,104,-1078,45,1,7,11
6.46E+02,-8247,-536,1459,-68,-894,-300,1,7,11
6.46E+02,-8237,-249,1494,304,-430,-144,1,7,11
6.46E+02,-8086,-542,1469,315,-216,-214,1,7,11
6.46E+02,-8088,-548,1475,231,-189,-631,1,7,11
6.47E+02,-8311,-231,1657,573,-382,-816,1,7,11
6.47E+02,-8128,-205,1631,570,-313,-895,1,7,11
6.47E+02,-8168,-358,1563,622,-316,-679,1,7,11
6.47E+02,-8507,-278,1252,578,4,-793,1,7,11
6.48E+02,-8512,-281,1227,526,32,-589,1,7,11
6.48E+02,-8150,54,1159,526,69,-384,1,7,11
6.48E+02,-8126,48,1153,187,-71,122,1,7,11
6.48E+02,-8305,-271,1406,380,266,311,1,7,11
6.49E+02,-8290,-292,1156,330,355,174,1,7,11
6.49E+02,-8303,-319,1163,277,163,253,1,7,11
6.49E+02,-8265,-328,1393,288,194,543,1,7,11
6.49E+02,-8217,-337,1363,349,246,525,1,7,11
6.50E+02,-7916,-327,1340,151,576,223,1,7,11
6.50E+02,-8193,-301,1356,192,422,247,1,7,11
6.50E+02,-8233,-320,1396,199,493,552,1,7,11
6.50E+02,-8272,-344,1192,216,768,620,1,7,11
6.51E+02,-8257,4,1161,236,497,490,1,7,11
6.51E+02,-8297,-301,1171,363,848,704,1,7,11
6.51E+02,-8267,-174,1195,300,869,1066,1,7,11
6.51E+02,-8294,-186,1204,303,878,1060,1,7,11
6.52E+02,-8073,-580,1240,332,848,1036,1,7,11
6.52E+02,-8125,-584,1264,529,799,881,1,7,11
6.52E+02,-8501,-214,1270,791,456,461,1,7,11
6.52E+02,-8531,-383,1237,697,596,425,1,7,11
6.53E+02,-8567,-344,1238,1060,524,389,1,7,11
6.53E+02,-8355,4,1246,924,189,596,1,7,11
6.53E+02,-8384,56,1235,1008,350,571,1,7,11
6.53E+02,-8379,90,1182,1358,-3,237,1,7,11
6.54E+02,-8439,-93,1390,1186,-44,379,1,7,11
6.54E+02,-8802,-23,1364,1243,-86,285,1,7,11
6.54E+02,-8622,268,1330,1266,113,-33,1,7,11
6.54E+02,-8641,329,1280,1560,40,-81,1,7,11
6.55E+02,-8676,361,1016,1558,6,-106,1,7,11
6.55E+02,-8977,334,1300,1261,-306,-95,1,7,11
6.55E+02,-8982,304,1308,1211,-160,-96,1,7,11
6.55E+02,-8659,331,1292,1196,-542,-127,1,7,11
6.56E+02,-8619,137,1007,1370,-608,-76,1,7,11
