timestamp,ax,ay,az,gx,gy,gz,Label1,Label2,Label3
2.83E+03,-8261,2204,169,-522,366,-1388,1,7,11
2.83E+03,-8292,2211,176,-236,306,-1316,1,7,11
2.83E+03,-8074,2177,201,-233,-31,-969,1,7,11
2.83E+03,-8320,2396,215,-208,103,-1123,1,7,11
2.83E+03,-8295,2344,230,-176,2,-1043,1,7,11
2.83E+03,-8073,2315,530,-142,-332,-704,1,7,11
2.83E+03,-8079,2304,561,-372,-179,-836,1,7,11
2.83E+03,-8074,2014,586,-358,-523,-453,1,7,11
2.83E+03,-8313,2011,384,-346,-605,-598,1,7,11
2.83E+03,-8069,2008,421,-368,-403,-206,1,7,11
2.83E+03,-8315,1986,445,-382,-469,-317,1,7,11
2.83E+03,-8308,1982,464,-357,-788,26,1,7,11
2.83E+03,-8309,1989,490,-325,-829,76,1,7,11
2.83E+03,-8310,1995,779,-279,-895,-122,1,7,11
2.83E+03,-8283,1982,804,4,-681,-111,1,7,11
2.83E+03,-8261,1964,829,42,-703,-120,1,7,11
2.83E+03,-8241,1934,853,86,-713,117,1,7,11
2.83E+03,-8224,2173,879,-122,-712,89,1,7,11
2.84E+03,-8207,2148,648,-79,-695,53,1,7,11
2.84E+03,-8203,2133,681,-32,-667,10,1,7,11
2.84E+03,-8195,2131,705,273,-893,-278,1,7,11
2.84E+03,-7923,2147,713,322,-862,-290,1,7,11
2.84E+03,-7921,2162,711,345,-802,-279,1,7,11
2.84E+03,-8200,1929,732,357,-472,19,1,7,11
2.84E+03,-8199,1942,734,357,-412,96,1,7,11
2.84E+03,-7935,1948,741,366,-595,-80,1,7,11
2.84E+03,-7926,1957,744,381,-520,-10,1,7,11
2.84E+03,-7920,1960,750,132,-190,312,1,7,11
2.84E+03,-7910,1971,757,136,-375,366,1,7,11
2.84E+03,-7906,1989,1026,136,-320,155,1,7,11
2.84E+03,-7908,2006,1024,129,-274,190,1,7,11
2.84E+03,-7923,2025,1027,371,16,218,1,7,11
2.84E+03,-7903,2040,756,346,33,236,1,7,11
2.84E+03,-7916,2325,749,321,59,238,1,7,11
2.84E+03,-7918,2356,738,299,74,241,1,7,11
2.84E+03,-7908,2375,720,272,87,245,1,7,11
2.84E+03,-7911,2394,717,-14,107,246,1,7,11
2.84E+03,-7906,2409,718,-43,122,250,1,7,11
2.84E+03,-7905,2420,710,-61,-120,244,1,7,11
2.84E+03,-7917,2179,716,-59,-114,237,1,7,11
2.84E+03,-7920,2211,710,-37,-124,229,1,7,11
2.84E+03,-7916,2246,697,-18,119,232,1,7,11
2.84E+03,-7907,2277,660,-8,111,233,1,7,11
2.84E+03,-7899,2569,893,-13,112,224,1,7,11
2.84E+03,-7894,2586,886,-34,117,204,1,7,11
2.84E+03,-7894,2597,877,-58,111,166,1,7,11
2.84E+03,-7907,2616,878,-87,100,368,1,7,11
2.84E+03,-7917,2626,886,-118,74,318,1,7,11
2.84E+03,-7924,2619,650,106,34,279,1,7,11
2.84E+03,-7920,2606,667,83,-271,-9,1,7,11
2.84E+03,-7923,2598,693,73,-316,-32,1,7,11
2.84E+03,-7909,2576,715,74,-365,-47,1,7,11
2.84E+03,-7899,2303,731,93,-149,-72,1,7,11
2.84E+03,-7898,2291,751,119,-177,-97,1,7,11
2.84E+03,-7880,2285,762,-106,-200,-127,1,7,11
2.84E+03,-7867,2294,1033,-73,-210,93,1,7,11
2.84E+03,-7846,2295,1026,-58,-207,61,1,7,11
2.84E+03,-7858,2565,1032,-60,-180,23,1,7,11
2.85E+03,-7886,2600,1054,-77,-154,-257,1,7,11
2.85E+03,-7876,2615,1053,-115,-149,-266,1,7,11
2.85E+03,-7855,2639,1041,106,-381,-288,1,7,11
2.85E+03,-7854,2666,1037,54,-335,-313,1,7,11
2.85E+03,-7856,2679,763,-266,-286,-349,1,7,11
2.85E+03,-7882,2437,760,-342,37,-157,1,7,11
2.85E+03,-7934,2438,764,-183,106,-230,1,7,11
2.85E+03,-8220,2671,764,-544,-104,-574,1,7,11
2.85E+03,-8256,2638,753,-397,-54,-433,1,7,11
2.85E+03,-8298,2583,751,-509,-9,-803,1,7,11
2.85E+03,-8320,2562,750,-883,281,-654,1,7,11
2.85E+03,-8304,2255,725,-756,302,-762,1,7,11
2.85E+03,-8268,2429,714,-900,321,-1141,1,7,11
2.85E+03,-8195,2329,715,-1311,341,-1019,1,7,11
2.85E+03,-7890,1941,715,-1201,372,-1161,1,7,11
2.85E+03,-7907,2134,706,-1639,162,-1575,1,7,11
2.85E+03,-7902,2064,677,-1517,183,-1618,1,7,11
2.85E+03,-7895,1740,892,-1917,220,-1635,1,7,11
2.85E+03,-7912,1911,863,-2069,541,-1628,1,7,11
2.85E+03,-8198,1816,853,-1964,614,-1597,1,7,11
2.85E+03,-8228,1452,850,-2365,421,-1556,1,7,11
2.85E+03,-8244,1586,859,-2260,485,-1265,1,7,11
2.85E+03,-8277,1187,882,-2663,800,-1258,1,7,11
2.85E+03,-8077,1308,674,-2537,834,-1537,1,7,11
2.85E+03,-8129,907,721,-2913,829,-1575,1,7,11
2.85E+03,-8140,719,1025,-2796,786,-1635,1,7,11
2.85E+03,-8121,769,1059,-3167,462,-1486,1,7,11
2.85E+03,-8292,571,1059,-3001,628,-1888,1,7,11
2.85E+03,-8265,371,1099,-3330,565,-2082,1,7,11
2.85E+03,-8270,-78,932,-3364,209,-2024,1,7,11
2.85E+03,-8296,46,1303,-3020,290,-2211,1,7,11
2.85E+03,-8315,44,1370,-2784,38,-2585,1,7,11
2.85E+03,-8151,-83,1390,-2484,-199,-2571,1,7,11
2.85E+03,-8563,138,1162,-2201,-391,-2328,1,7,11
2.85E+03,-8353,588,1156,-1987,-823,-1842,1,7,11
2.85E+03,-8558,487,1394,-2064,-892,-998,1,7,11
2.85E+03,-8536,656,1171,-1880,-833,-635,1,7,11
2.85E+03,-8469,1053,1240,-1444,-468,277,1,7,11
2.85E+03,-8306,1132,1266,-1259,-591,882,1,7,11
2.85E+03,-7811,1373,1231,-1295,-137,1312,1,7,11
2.86E+03,-8034,1635,1234,-1058,7,1629,1,7,11
2.86E+03,-7853,1898,1247,-887,533,1489,1,7,11
2.86E+03,-8209,2171,1213,-455,479,1827,1,7,11
2.86E+03,-8082,2422,1179,-416,666,1868,1,7,11
2.86E+03,-8490,2824,1337,-444,1099,1687,1,7,11
2.86E+03,-8470,2739,993,-808,905,1743,1,7,11
2.86E+03,-8162,3150,913,-667,980,1707,1,7,11
2.86E+03,-8457,3045,1129,-1085,1314,1829,1,7,11
2.86E+03,-8503,3416,1080,-998,1319,1422,1,7,11
2.86E+03,-8510,3452,1027,-1188,1015,1244,1,7,11
2.86E+03,-8506,3220,721,-1598,947,1012,1,7,11
2.86E+03,-8457,3442,668,-1485,1098,1026,1,7,11
2.86E+03,-8164,3392,670,-1821,744,484,1,7,11
2.86E+03,-8187,3349,689,-1902,886,226,1,7,11
2.86E+03,-8189,3009,715,-1724,456,290,1,7,11
2.86E+03,-8149,3155,754,-1757,255,91,1,7,11
2.86E+03,-8137,2756,1089,-1777,327,-132,1,7,11
2.86E+03,-8099,2830,898,-1750,-122,-595,1,7,11
2.86E+03,-8281,2668,940,-1892,-303,-819,1,7,11
2.86E+03,-8242,2291,997,-1503,-173,-1028,1,7,11
2.86E+03,-8200,2421,1309,-1645,-537,-907,1,7,11
2.86E+03,-7884,2307,1360,-1272,-628,-985,1,7,11
2.86E+03,-7880,1936,1167,-1175,-405,-1021,1,7,11
2.86E+03,-7895,2065,1236,-1340,-448,-1000,1,7,11
2.86E+03,-7875,1666,1552,-980,-770,-947,1,7,11
2.86E+03,-7842,1803,1598,-1109,-830,-1139,1,7,11
2.86E+03,-7854,1458,1648,-722,-875,-1050,1,7,11
2.86E+03,-7840,1410,1654,-813,-698,-891,1,7,11
2.86E+03,-7835,1431,1632,-393,-746,-415,1,7,11
2.86E+03,-7891,1455,1596,-567,-733,-368,1,7,11
2.86E+03,-8233,1639,1589,-518,-697,-42,1,7,11
2.86E+03,-8071,1585,1588,-153,-882,236,1,7,11
2.86E+03,-8456,1258,1617,-287,-790,464,1,7,11
2.86E+03,-8717,1381,1456,-84,-431,678,1,7,11
2.86E+03,-8793,1304,1489,329,-466,758,1,7,11
2.86E+03,-8446,1005,1465,252,-807,1030,1,7,11
2.86E+03,-8541,1326,1658,440,-858,744,1,7,11
2.86E+03,-8089,1161,1277,792,-855,749,1,7,11
2.86E+03,-7918,1205,1154,780,-508,1025,1,7,11
2.86E+03,-8039,1210,1306,447,-599,751,1,7,11
2.87E+03,-7965,1204,972,579,-137,687,1,7,11
2.87E+03,-7939,1183,913,148,87,849,1,7,11
2.87E+03,-7995,1379,919,-68,297,489,1,7,11
2.87E+03,-7836,1286,948,9,197,617,1,7,11
2.87E+03,-8226,952,969,-354,541,219,1,7,11
2.87E+03,-8144,1145,1011,-137,571,342,1,7,11
2.87E+03,-8573,1073,1316,-146,531,-28,1,7,11
2.87E+03,-8442,736,1349,-368,155,126,1,7,11
2.87E+03,-8771,668,1373,-306,262,27,1,7,11
2.87E+03,-8771,875,1393,48,97,-314,1,7,11
2.87E+03,-8735,844,1155,-71,-299,-131,1,7,11
2.87E+03,-8392,839,1171,358,-152,-212,1,7,11
2.87E+03,-8569,841,1175,530,-515,-245,1,7,11
2.87E+03,-8480,862,1190,437,-560,-534,1,7,11
2.87E+03,-8110,645,1191,865,-578,-562,1,7,11
2.87E+03,-8281,679,1188,749,-579,-579,1,7,11
2.87E+03,-7935,712,1167,1113,-524,-604,1,7,11
2.87E+03,-7884,748,1404,956,-183,-386,1,7,11
2.87E+03,-7873,1034,1386,982,-341,-435,1,7,11
2.87E+03,-7842,1085,1350,1005,17,-463,1,7,11
2.87E+03,-7824,1136,1303,987,-94,-493,1,7,11
2.87E+03,-8237,913,1304,928,380,-780,1,7,11
2.87E+03,-8180,950,1305,1150,534,-505,1,7,11
2.87E+03,-8192,982,1018,1127,582,-452,1,7,11
2.87E+03,-8488,997,997,1056,412,-452,1,7,11
2.87E+03,-8321,1008,1009,726,458,-465,1,7,11
2.87E+03,-8360,1292,1014,682,413,-470,1,7,11
2.87E+03,-8359,1336,989,884,596,-481,1,7,11
2.87E+03,-8351,1369,974,815,253,-486,1,7,11
2.87E+03,-8563,1388,964,493,161,-481,1,7,11
2.87E+03,-8506,1401,942,434,329,-462,1,7,11
2.87E+03,-8184,1406,921,634,-4,-435,1,7,11
2.87E+03,-8130,1390,924,592,-68,-412,1,7,11
2.87E+03,-8083,1383,923,572,-124,-390,1,7,11
2.87E+03,-8066,1371,923,554,102,-631,1,7,11
2.87E+03,-8107,1373,933,568,90,-616,1,7,11
2.87E+03,-8158,1393,941,604,73,-588,1,7,11
2.87E+03,-8459,1171,951,392,54,-555,1,7,11
2.87E+03,-8482,1200,975,416,35,-254,1,7,11
2.87E+03,-8507,1218,991,427,13,-199,1,7,11
2.88E+03,-8496,1225,992,437,-289,-154,1,7,11
2.88E+03,-8481,1240,1003,442,-333,-379,1,7,11
2.88E+03,-8170,1257,993,435,-132,-351,1,7,11
2.88E+03,-8083,1271,986,414,-163,-348,1,7,11
2.88E+03,-8309,1536,988,621,-142,-361,1,7,11
2.88E+03,-8091,1543,1018,563,-363,-363,1,7,11
2.88E+03,-8150,1550,1317,250,-355,-336,1,7,11
2.88E+03,-8164,1552,1338,193,-366,-316,1,7,11
2.88E+03,-8139,1537,1356,134,-142,-290,1,7,11
2.88E+03,-8119,1263,1369,334,-138,-273,1,7,11
2.88E+03,-8118,1254,1388,273,-378,-259,1,7,11
2.88E+03,-8099,1247,1385,258,-364,13,1,7,11
2.88E+03,-8075,1261,1357,-25,-328,32,1,7,11
2.88E+03,-8316,1261,1351,-40,-272,59,1,7,11
2.88E+03,-8295,1252,1340,-93,60,81,1,7,11
2.88E+03,-8287,1253,1328,-116,-116,90,1,7,11
2.88E+03,-8289,1253,1321,122,-39,87,1,7,11
2.88E+03,-8307,1257,1300,102,289,75,1,7,11
2.88E+03,-8079,1270,1290,82,336,63,1,7,11
2.88E+03,-8105,1538,1020,56,371,46,1,7,11
2.88E+03,-8126,1536,1010,22,136,31,1,7,11
2.88E+03,-8145,1276,1003,-263,145,23,1,7,11
2.88E+03,-8169,1276,985,-286,143,30,1,7,11
2.88E+03,-8187,1265,985,-312,128,44,1,7,11
2.88E+03,-8458,1251,989,-328,357,63,1,7,11
2.88E+03,-8472,1235,993,-331,317,86,1,7,11
2.88E+03,-8478,1233,992,-318,261,105,1,7,11
2.88E+03,-8465,1226,995,-300,-50,122,1,7,11
2.88E+03,-8455,1228,987,-279,-93,-123,1,7,11
2.88E+03,-8449,1226,981,-263,-128,-114,1,7,11
2.88E+03,-8161,1226,977,9,96,-110,1,7,11
2.88E+03,-8144,1240,985,23,81,-114,1,7,11
2.88E+03,-8135,1248,987,33,68,-109,1,7,11
2.88E+03,-8128,1266,991,40,51,-107,1,7,11
2.88E+03,-8117,1540,980,43,39,-102,1,7,11
2.88E+03,-8114,1555,972,31,47,-85,1,7,11
2.88E+03,-8117,1573,961,21,58,-66,1,7,11
2.88E+03,-8118,1580,955,1,76,-41,1,7,11
2.88E+03,-8118,1580,948,-276,106,-15,1,7,11
2.88E+03,-8135,1589,959,-295,-120,269,1,7,11
2.89E+03,-8133,1592,957,-318,-100,308,1,7,11
2.89E+03,-8123,1589,953,-339,-82,340,1,7,11
2.89E+03,-8126,1537,948,-165,-46,357,1,7,11
2.89E+03,-8113,1239,964,-197,-33,338,1,7,11
2.89E+03,-8086,1233,981,-192,-19,293,1,7,11
2.89E+03,-8123,1238,1017,-177,259,264,1,7,11
2.89E+03,-8173,1235,1315,-155,-28,275,1,7,11
2.89E+03,-8460,1224,1350,-365,-104,295,1,7,11
2.89E+03,-8192,1216,1348,-295,60,307,1,7,11
2.89E+03,-8162,1224,1327,40,-263,306,1,7,11
2.89E+03,-8130,1258,1306,111,-297,302,1,7,11
2.89E+03,-8110,1540,1281,-99,-298,297,1,7,11
2.89E+03,-8088,1561,1000,-73,-279,293,1,7,11
2.89E+03,-8081,1585,1004,-50,15,282,1,7,11
2.89E+03,-8093,1610,1006,-43,42,277,1,7,11
2.89E+03,-8092,1642,1012,-45,53,279,1,7,11
2.89E+03,-8102,1409,1017,-68,53,287,1,7,11
2.89E+03,-8099,1427,1023,-106,32,295,1,7,11
2.89E+03,-8091,1434,1014,110,15,295,1,7,11
2.89E+03,-8088,1451,1007,70,13,285,1,7,11
2.89E+03,-8101,1458,1019,23,19,276,1,7,11
2.89E+03,-8111,1471,1291,-263,32,277,1,7,11
2.89E+03,-8111,1471,1306,-286,43,277,1,7,11
2.89E+03,-8110,1479,1318,-291,53,277,1,7,11
2.89E+03,-8099,1488,1327,-294,58,269,1,7,11
2.89E+03,-8082,1499,1329,-291,61,-10,1,7,11
2.89E+03,-8320,1520,1334,-282,61,-52,1,7,11
2.89E+03,-8309,1535,1324,-279,65,-80,1,7,11
2.89E+03,-8294,1803,1316,-285,86,-111,1,7,11
2.89E+03,-8280,1816,1292,-315,119,113,1,7,11
2.89E+03,-8271,1826,1282,-351,-99,81,1,7,11
2.89E+03,-8283,1839,1020,-142,-55,48,1,7,11
2.89E+03,-8298,1844,1014,-195,-21,24,1,7,11
2.89E+03,-8310,1849,1000,-517,259,7,1,7,11
2.89E+03,-8315,1836,989,-601,279,-261,1,7,11
2.89E+03,-8072,1815,991,-433,295,-279,1,7,11
2.89E+03,-8092,1805,986,-504,299,-296,1,7,11
2.89E+03,-8100,1801,987,-830,298,-295,1,7,11
2.89E+03,-8105,1529,970,-646,297,-275,1,7,11
2.89E+03,-8101,1510,971,-704,305,8,1,7,11
2.90E+03,-8092,1488,972,-751,313,31,1,7,11
2.90E+03,-8097,1454,994,-1048,323,40,1,7,11
2.90E+03,-8141,1657,1287,-1071,289,54,1,7,11
2.90E+03,-8127,1635,1293,-1064,259,57,1,7,11
2.90E+03,-8131,1626,1297,-1045,-10,54,1,7,11
2.90E+03,-8133,1622,1292,-766,-21,57,1,7,11
2.90E+03,-8122,1623,1302,-747,-31,66,1,7,11
2.90E+03,-8123,1613,1322,-738,-36,78,1,7,11
2.90E+03,-8119,1610,1332,-730,-58,87,1,7,11
2.90E+03,-8102,1600,1339,-728,-76,91,1,7,11
2.90E+03,-8092,1594,1336,-736,-81,91,1,7,11
2.90E+03,-8090,1592,1332,-746,-76,99,1,7,11
2.90E+03,-8085,1591,1330,-762,-57,112,1,7,11
2.90E+03,-8077,1586,1320,-1043,-31,127,1,7,11
2.90E+03,-8067,1579,1318,-1064,263,-114,1,7,11
2.90E+03,-8067,1576,1309,-1089,303,-103,1,7,11
2.90E+03,-8081,1565,1321,-1115,340,-95,1,7,11
2.90E+03,-8099,1559,1313,-1133,365,-91,1,7,11
2.90E+03,-8116,1554,1312,-1149,380,-88,1,7,11
2.90E+03,-8126,1542,1313,-901,380,-81,1,7,11
2.90E+03,-8132,1277,1311,-1147,363,-74,1,7,11
2.90E+03,-8130,1270,1305,-1130,346,-70,1,7,11
2.90E+03,-8126,1273,1296,-1102,329,-74,1,7,11
2.90E+03,-8120,1267,1295,-1070,321,-88,1,7,11
2.90E+03,-8130,1272,1295,-1027,311,-108,1,7,11
2.90E+03,-8130,1277,1290,-729,294,-123,1,7,11
2.90E+03,-8134,1536,1297,-697,281,113,1,7,11
2.90E+03,-8149,1274,1311,-674,258,92,1,7,11
2.90E+03,-8162,1544,1322,-894,-39,71,1,7,11
2.90E+03,-8149,1557,1298,-866,-79,66,1,7,11
2.90E+03,-8117,1556,1289,-849,-96,66,1,7,11
2.90E+03,-8104,1557,1285,-826,-75,63,1,7,11
2.90E+03,-8102,1550,1291,-802,-50,62,1,7,11
2.90E+03,-8107,1540,1314,-769,-32,51,1,7,11
2.90E+03,-8112,1537,1314,-474,-24,25,1,7,11
2.90E+03,-8100,1278,1314,-435,-28,3,1,7,11
2.90E+03,-8086,1536,1307,-399,-30,-276,1,7,11
2.90E+03,-8077,1543,1296,-618,-29,-298,1,7,11
2.90E+03,-8089,1560,1283,-580,-8,-306,1,7,11
2.90E+03,-8098,1568,1020,-551,5,-299,1,7,11
2.91E+03,-8117,1568,1018,-535,272,-283,1,7,11
2.91E+03,-8134,1571,1018,-515,267,-267,1,7,11
2.91E+03,-8170,1573,1288,-239,-1,4,1,7,11
2.91E+03,-8184,1581,1295,-195,-30,22,1,7,11
2.91E+03,-8175,1593,1297,-163,-68,37,1,7,11
2.91E+03,-8162,1604,1300,-378,-110,47,1,7,11
2.91E+03,-8134,1656,1020,-317,110,47,1,7,11
2.91E+03,-8153,1490,1007,-294,106,33,1,7,11
2.91E+03,-8163,1824,1012,-330,96,18,1,7,11
2.91E+03,-8165,1862,1297,-153,70,-271,1,7,11
2.91E+03,-8168,1889,1333,-237,28,-331,1,7,11
2.91E+03,-8153,1899,1357,-591,-297,-145,1,7,11
2.91E+03,-8127,1893,1367,-442,-371,-228,1,7,11
2.91E+03,-8098,1890,1385,-803,-166,-565,1,7,11
2.91E+03,-8076,1885,1394,-657,-202,-620,1,7,11
2.91E+03,-8314,1865,1154,-1028,-226,-389,1,7,11
2.91E+03,-8311,1836,1185,-1139,-229,-391,1,7,11
2.91E+03,-8305,1797,1214,-979,-231,-625,1,7,11
2.91E+03,-8302,1502,1251,-1313,-231,-589,1,7,11
2.91E+03,-8297,1459,1545,-1389,-221,-543,1,7,11
2.91E+03,-8307,1418,1582,-1185,-215,-233,1,7,11
2.91E+03,-8295,1651,1598,-1207,-214,-171,1,7,11
2.91E+03,-8288,1637,1600,-1220,-193,-349,1,7,11
2.91E+03,-8261,1610,1599,-1231,-145,-260,1,7,11
2.91E+03,-8237,1594,1604,-1230,-321,81,1,7,11
2.91E+03,-8206,1577,1601,-1229,28,-96,1,7,11
2.91E+03,-7936,1557,1613,-1218,-126,-33,1,7,11
2.91E+03,-8196,1549,1621,-1195,-33,274,1,7,11
2.91E+03,-8202,1548,1621,-1167,306,313,1,7,11
2.91E+03,-8215,1554,1617,-1402,132,346,1,7,11
2.91E+03,-8230,1550,1607,-1381,209,369,1,7,11
2.91E+03,-8240,1558,1592,-1352,539,379,1,7,11
2.91E+03,-8222,1560,1563,-1317,601,129,1,7,11
2.91E+03,-8261,1569,1546,-1283,419,380,1,7,11
2.91E+03,-8291,1566,1541,-987,467,128,1,7,11
2.91E+03,-8318,1562,1277,-931,489,374,1,7,11
2.91E+03,-8098,1555,1267,-1119,496,358,1,7,11
2.91E+03,-8134,1550,1258,-1030,477,336,1,7,11
2.91E+03,-8171,1550,1247,-682,438,311,1,7,11
2.91E+03,-8163,1541,1204,-852,604,261,1,7,11
2.92E+03,-8140,1537,1176,-732,541,-41,1,7,11
2.92E+03,-8128,1266,1157,-411,229,-89,1,7,11
2.92E+03,-8098,1252,1392,-607,169,116,1,7,11
2.92E+03,-8086,1245,1369,-551,129,60,1,7,11
2.92E+03,-8074,1228,1359,-248,361,18,1,7,11
2.92E+03,-8068,1212,1350,-191,342,-268,1,7,11
2.92E+03,-8072,1199,1344,-382,325,-287,1,7,11
2.92E+03,-8090,1186,1338,-315,312,-292,1,7,11
2.92E+03,-8094,1178,1333,3,298,-284,1,7,11
2.92E+03,-8104,1165,1326,60,288,-275,1,7,11
2.92E+03,-8129,1157,1326,120,272,-259,1,7,11
2.92E+03,-8152,1159,1330,-74,-13,21,1,7,11
2.92E+03,-8170,1174,1323,-20,-52,55,1,7,11
2.92E+03,-8188,1179,1319,263,-89,104,1,7,11
2.92E+03,-8482,1182,1314,267,-125,-92,1,7,11
2.92E+03,-8467,1196,1293,271,87,-23,1,7,11
2.92E+03,-8187,1223,1013,256,70,298,1,7,11
2.92E+03,-8160,1249,1000,-30,77,370,1,7,11
2.92E+03,-8131,1279,994,-64,97,192,1,7,11
2.92E+03,-8121,1557,1000,-101,119,533,1,7,11
2.92E+03,-8115,1571,1014,-124,-119,615,1,7,11
2.92E+03,-8117,1579,1287,125,-110,424,1,7,11
2.92E+03,-8100,1580,1284,-121,-110,464,1,7,11
2.92E+03,-8078,1584,1283,-92,-105,466,1,7,11
2.92E+03,-8082,1593,1288,-45,-86,437,1,7,11
2.92E+03,-8099,1611,1014,284,-71,392,1,7,11
2.92E+03,-8124,1649,1003,370,-55,603,1,7,11
2.92E+03,-8146,1419,994,186,-48,567,1,7,11
2.92E+03,-8139,1428,992,252,-66,526,1,7,11
2.92E+03,-8133,1439,986,572,-94,214,1,7,11
2.92E+03,-8121,1457,979,636,117,152,1,7,11
2.92E+03,-8123,1479,976,438,70,343,1,7,11
2.92E+03,-8117,1506,959,482,20,285,1,7,11
2.92E+03,-8101,1519,960,509,-278,-23,1,7,11
2.92E+03,-8090,1526,956,788,-304,-69,1,7,11
2.92E+03,-8072,1526,955,811,-324,-104,1,7,11
2.92E+03,-8310,1527,948,828,-328,120,1,7,11
2.92E+03,-8299,1530,943,844,-316,88,1,7,11
2.92E+03,-8297,1794,945,852,-290,68,1,7,11
2.92E+03,-8295,1799,940,857,-258,53,1,7,11
2.93E+03,-8290,1815,931,860,36,47,1,7,11
2.93E+03,-8286,1827,918,853,83,50,1,7,11
2.93E+03,-8283,1828,922,838,-125,62,1,7,11
2.93E+03,-8280,1820,916,830,-84,74,1,7,11
2.93E+03,-8289,1820,924,827,-44,80,1,7,11
2.93E+03,-8300,1829,916,832,-18,85,1,7,11
2.93E+03,-8309,1838,907,833,257,84,1,7,11
2.93E+03,-8313,1845,1151,822,272,82,1,7,11
2.93E+03,-8078,1845,1145,800,283,73,1,7,11
2.93E+03,-8092,1842,1129,781,270,65,1,7,11
2.93E+03,-8110,1854,1120,507,258,60,1,7,11
2.93E+03,-8074,1862,1095,478,-13,79,1,7,11
2.93E+03,-8065,1865,1071,436,271,82,1,7,11
2.93E+03,-8310,1858,1041,406,308,83,1,7,11
2.93E+03,-8318,1863,763,631,357,72,1,7,11
2.93E+03,-8082,1868,750,589,144,67,1,7,11
2.93E+03,-8094,1871,742,541,167,64,1,7,11
2.93E+03,-8087,1870,726,218,171,62,1,7,11
2.93E+03,-8099,1864,703,145,168,52,1,7,11
2.93E+03,-8076,1862,680,338,144,44,1,7,11
2.93E+03,-8313,1863,656,273,134,34,1,7,11
2.93E+03,-8078,1878,642,-52,146,40,1,7,11
2.93E+03,-8074,1876,890,-126,145,63,1,7,11
2.93E+03,-8084,1874,884,59,148,80,1,7,11
2.93E+03,-8097,1866,885,-266,141,89,1,7,11
2.93E+03,-8096,1851,880,-327,368,89,1,7,11
2.93E+03,-8112,1845,868,-375,343,67,1,7,11
2.93E+03,-8136,1857,860,-161,322,54,1,7,11
2.93E+03,-8145,1860,850,-205,298,48,1,7,11
2.93E+03,-8161,1862,856,-244,277,43,1,7,11
2.93E+03,-8176,1854,865,-537,-2,46,1,7,11
2.93E+03,-8177,1843,864,-557,-36,40,1,7,11
2.93E+03,-8181,1822,884,-567,-75,26,1,7,11
2.93E+03,-8163,1817,893,-564,-121,12,1,7,11
2.93E+03,-8147,1805,890,-557,101,1,1,7,11
2.93E+03,-8153,1807,645,-550,81,-264,1,7,11
2.93E+03,-8154,1802,663,-543,65,-265,1,7,11
2.93E+03,-8156,1535,688,-530,47,-266,1,7,11
2.93E+03,-8160,1509,718,-253,28,-269,1,7,11
2.93E+03,-8158,1498,718,-219,1,-274,1,7,11
2.94E+03,-8153,1489,745,-175,-280,-282,1,7,11
2.94E+03,-8155,1481,752,-130,-296,-291,1,7,11
2.94E+03,-8155,1480,1030,-347,-314,-299,1,7,11
2.94E+03,-8165,1488,1049,-305,-337,-297,1,7,11
2.94E+03,-8148,1497,1047,-273,-361,-275,1,7,11
2.94E+03,-8117,1502,1041,3,-366,5,1,7,11
2.94E+03,-8102,1506,1047,22,-344,22,1,7,11
2.94E+03,-8083,1507,1061,30,-321,29,1,7,11
2.94E+03,-8084,1514,1081,43,-295,25,1,7,11
2.94E+03,-8084,1532,1091,48,-290,30,1,7,11
2.94E+03,-8072,1529,1090,41,-294,40,1,7,11
2.94E+03,-8315,1526,1094,30,-285,45,1,7,11
2.94E+03,-8307,1520,1093,28,-270,46,1,7,11
2.94E+03,-8299,1527,1094,30,-258,45,1,7,11
2.94E+03,-8300,1521,1091,28,20,43,1,7,11
2.94E+03,-8307,1528,1092,34,37,40,1,7,11
2.94E+03,-8071,1535,1090,40,57,42,1,7,11
2.94E+03,-8077,1799,1075,37,75,48,1,7,11
2.94E+03,-8073,1813,1056,26,103,51,1,7,11
2.94E+03,-8077,1816,1043,3,-111,49,1,7,11
2.94E+03,-8088,1818,1033,-284,-65,39,1,7,11
2.94E+03,-8096,1824,1024,-314,-39,24,1,7,11
2.94E+03,-8099,1827,756,-347,-26,3,1,7,11
2.94E+03,-8122,1829,758,-383,-20,-264,1,7,11
2.94E+03,-8138,1830,759,-164,-27,-271,1,7,11
2.94E+03,-8129,1818,753,-197,-45,-275,1,7,11
2.94E+03,-8119,1801,749,-228,-63,-279,1,7,11
2.94E+03,-8127,1534,754,-248,-79,-278,1,7,11
2.94E+03,-8132,1521,761,-513,-104,-267,1,7,11
2.94E+03,-8100,1502,1035,-516,120,0,1,7,11
2.94E+03,-8099,1486,1056,-251,101,6,1,7,11
2.94E+03,-8089,1476,1070,-227,72,25,1,7,11
2.94E+03,-8078,1461,1093,-190,45,33,1,7,11
2.94E+03,-8312,1452,1099,-142,18,47,1,7,11
2.94E+03,-8292,1446,1109,-350,14,58,1,7,11
2.94E+03,-8298,1443,1123,-304,27,64,1,7,11
2.94E+03,-8296,1447,1147,2,30,78,1,7,11
2.94E+03,-8308,1454,1143,48,46,92,1,7,11
2.94E+03,-8310,1456,1134,82,76,114,1,7,11
2.94E+03,-8281,1456,1093,118,119,123,1,7,11
2.95E+03,-8252,1462,1079,-107,-69,119,1,7,11
2.95E+03,-8258,1469,1062,-86,264,112,1,7,11
2.95E+03,-8295,1499,1050,-63,344,109,1,7,11
2.95E+03,-8081,1509,1045,-57,148,126,1,7,11
2.95E+03,-8297,1513,757,-54,201,-97,1,7,11
2.95E+03,-8225,1492,712,-52,242,-94,1,7,11
2.95E+03,-7923,1485,664,-48,562,-107,1,7,11
2.95E+03,-7902,1471,867,-65,628,-126,1,7,11
2.95E+03,-7903,1419,835,-100,438,87,1,7,11
2.95E+03,-7927,1636,809,114,489,18,1,7,11
2.95E+03,-8246,1603,788,70,786,-326,1,7,11
2.95E+03,-8317,1588,780,24,792,-150,1,7,11
2.95E+03,-8114,1576,510,-289,769,-220,1,7,11
2.95E+03,-8177,1563,488,-356,486,-536,1,7,11
2.95E+03,-8496,1273,480,-182,449,-586,1,7,11
2.95E+03,-8555,1241,479,-518,400,-631,1,7,11
2.95E+03,-8328,1212,492,-593,587,-406,1,7,11
2.95E+03,-8330,1178,488,-409,517,-429,1,7,11
2.95E+03,-8352,1404,511,-461,199,-432,1,7,11
2.95E+03,-8374,1385,799,-505,139,-398,1,7,11
2.95E+03,-8393,1369,827,-786,341,-590,1,7,11
2.95E+03,-8386,1349,867,-786,292,-241,1,7,11
2.95E+03,-8339,1321,651,-493,-5,-138,1,7,11
2.95E+03,-8546,1310,693,-409,-32,-287,1,7,11
2.95E+03,-8465,1298,707,-553,-48,76,1,7,11
2.95E+03,-8140,1305,717,-154,-27,-92,1,7,11
2.95E+03,-8084,1325,715,5,275,-15,1,7,11
2.95E+03,-8268,1383,687,-4,376,313,1,7,11
2.95E+03,-8257,1170,682,133,199,336,1,7,11
2.95E+03,-8235,1211,675,515,241,345,1,7,11
2.95E+03,-8219,1258,894,633,528,328,1,7,11
2.95E+03,-8206,1566,835,462,561,307,1,7,11
2.95E+03,-8211,1627,489,773,608,277,1,7,11
2.95E+03,-8205,1652,424,806,400,-25,1,7,11
2.95E+03,-8222,1411,621,816,448,-84,1,7,11
2.95E+03,-8230,1423,572,800,489,106,1,7,11
2.95E+03,-8290,1429,537,504,501,39,1,7,11
2.95E+03,-8292,1414,236,441,472,-273,1,7,11
2.95E+03,-8294,1656,213,612,415,-331,1,7,11
2.95E+03,-8298,1645,133,519,611,-138,1,7,11
2.96E+03,-8320,1640,341,157,561,-184,1,7,11
2.96E+03,-8067,1640,306,304,519,-206,1,7,11
2.96E+03,-8099,1622,294,-88,240,-204,1,7,11
2.96E+03,-8176,1595,298,29,238,-187,1,7,11
2.96E+03,-8479,1585,303,-343,237,-176,1,7,11
2.96E+03,-8561,1264,303,-180,216,-151,1,7,11
2.96E+03,-8395,1235,318,-246,184,-136,1,7,11
2.96E+03,-8432,1211,330,-536,148,-380,1,7,11
2.96E+03,-8444,1210,348,-544,356,-374,1,7,11
2.96E+03,-8705,1222,364,-534,300,-356,1,7,11
2.96E+03,-8712,1269,376,-255,-8,-320,1,7,11
2.96E+03,-8433,1562,142,-232,-70,26,1,7,11
2.96E+03,-8417,1577,166,-218,126,59,1,7,11
2.96E+03,-8357,1589,208,-227,72,119,1,7,11
2.96E+03,-8512,1599,225,-221,9,-103,1,7,11
2.96E+03,-8131,1622,245,-206,-296,-99,1,7,11
2.96E+03,-8267,1645,524,-183,-314,-121,1,7,11
2.96E+03,-8243,1413,545,-376,-313,81,1,7,11
2.96E+03,-8269,1415,573,-324,-303,35,1,7,11
2.96E+03,-8300,1436,578,24,-306,-279,1,7,11
2.96E+03,-8080,1435,574,111,-309,-329,1,7,11
2.96E+03,-8130,1448,589,-64,-314,-379,1,7,11
2.96E+03,-8129,1449,592,-26,-351,-133,1,7,11
2.96E+03,-8104,1444,588,261,-134,-132,1,7,11
2.96E+03,-8093,1436,586,267,-156,-380,1,7,11
2.96E+03,-8306,1429,552,258,-170,-347,1,7,11
2.96E+03,-8291,1642,565,-101,-138,-319,1,7,11
2.96E+03,-8302,1611,589,20,-371,-280,1,7,11
2.96E+03,-8066,1644,568,-335,-129,27,1,7,11
2.96E+03,-8279,1611,517,-142,-179,-126,1,7,11
2.96E+03,-7903,1638,209,-288,-158,126,1,7,11
2.96E+03,-7929,1608,239,72,5,80,1,7,11
2.96E+03,-8195,1232,255,-78,113,-267,1,7,11
2.96E+03,-8242,1164,523,379,-67,-163,1,7,11
2.96E+03,-8068,1196,517,620,-21,-573,1,7,11
2.96E+03,-8086,1547,224,849,-4,-421,1,7,11
2.96E+03,-8191,1547,187,851,287,-542,1,7,11
2.96E+03,-8147,1255,166,431,-31,-528,1,7,11
2.96E+03,-8170,1546,149,587,-41,-240,1,7,11
2.96E+03,-8153,1268,138,196,-64,-161,1,7,11
2.97E+03,-8145,1264,135,362,-65,-363,1,7,11
2.97E+03,-8177,1264,132,261,-49,-284,1,7,11
2.97E+03,-8143,1211,369,-33,-73,30,1,7,11
2.97E+03,-8132,1169,359,-5,-59,-268,1,7,11
2.97E+03,-8160,1392,134,308,-53,-343,1,7,11
2.97E+03,-8169,1362,157,365,-52,-164,1,7,11
2.97E+03,-8189,1383,159,177,-65,-221,1,7,11
2.97E+03,-8181,1404,139,215,-74,-232,1,7,11
2.97E+03,-8188,1386,132,230,-62,-211,1,7,11
2.97E+03,-8455,1384,128,523,-51,-190,1,7,11
2.97E+03,-8458,1377,374,546,-55,-147,1,7,11
2.97E+03,-8184,1350,353,545,-67,-354,1,7,11
2.97E+03,-8460,1324,356,524,-64,-316,1,7,11
2.97E+03,-8478,1299,353,516,-84,-287,1,7,11
2.97E+03,-8483,1289,365,516,-123,-265,1,7,11
2.97E+03,-8474,1299,375,531,85,16,1,7,11
2.97E+03,-8460,1327,357,531,47,59,1,7,11
2.97E+03,-8188,1335,342,239,30,-127,1,7,11
2.97E+03,-8174,1324,345,196,27,-66,1,7,11
2.97E+03,-8152,1315,359,173,32,-32,1,7,11
2.97E+03,-8126,1312,375,165,42,-13,1,7,11
2.97E+03,-8119,1315,379,171,69,-8,1,7,11
2.97E+03,-8124,1331,379,185,104,-6,1,7,11
2.97E+03,-8120,1346,374,201,-115,-6,1,7,11
2.97E+03,-8137,1372,353,217,-71,-9,1,7,11
2.97E+03,-8149,1389,340,222,-37,-6,1,7,11
2.97E+03,-8161,1163,325,217,-5,-6,1,7,11
2.97E+03,-8171,1188,305,192,273,258,1,7,11
2.97E+03,-8188,1217,281,152,286,263,1,7,11
2.97E+03,-8190,1238,262,372,285,269,1,7,11
2.97E+03,-8452,1255,266,329,277,293,1,7,11
2.97E+03,-8454,1266,265,291,260,324,1,7,11
2.97E+03,-8192,1270,268,261,-24,355,1,7,11
2.97E+03,-8180,1271,266,-27,-52,128,1,7,11
2.97E+03,-8155,1273,275,-36,-87,144,1,7,11
2.97E+03,-8128,1276,282,-35,-123,146,1,7,11
2.97E+03,-8110,1546,281,-29,111,137,1,7,11
2.97E+03,-8099,1573,279,-22,101,129,1,7,11
2.97E+03,-8091,1607,275,-20,106,128,1,7,11
2.97E+03,-8076,1650,260,-30,118,136,1,7,11
2.98E+03,-8314,1446,-8,-68,-112,146,1,7,11
2.98E+03,-8284,1525,-60,127,-84,155,1,7,11
2.98E+03,-8259,1889,-128,3,-39,139,1,7,11
2.98E+03,-8257,2059,27,-198,275,344,1,7,11
2.98E+03,-8271,2039,-348,-789,335,268,1,7,11
2.98E+03,-8261,2279,-241,-1329,368,-82,1,7,11
2.98E+03,-8236,2501,-615,-2096,136,52,1,7,11
2.98E+03,-8219,2898,-431,-2812,152,-333,1,7,11
2.98E+03,-7925,2689,-435,-4159,145,-181,1,7,11
2.98E+03,-7897,2908,-424,-5067,137,-525,1,7,11
2.98E+03,-7920,2510,-618,-6517,148,-621,1,7,11
2.98E+03,-8291,2426,-203,-7424,139,-484,1,7,11
2.98E+03,-8069,2046,-144,-8729,327,-892,1,7,11
2.98E+03,-8123,2081,-326,-9351,-3,-1082,1,7,11
2.98E+03,-8461,1827,28,-10141,-47,-1287,1,7,11
2.98E+03,-8547,1646,125,-11067,-67,-1222,1,7,11
2.98E+03,-8386,1102,-19,-11584,-61,-1658,1,7,11
2.98E+03,-8414,821,327,-11709,-61,-1804,1,7,11
2.98E+03,-8391,441,356,-11957,-67,-1688,1,7,11
2.98E+03,-8569,243,382,-12330,-51,-2060,1,7,11
2.98E+03,-8508,367,159,-12362,262,-2146,1,7,11
2.98E+03,-8467,295,169,-12342,325,-2155,1,7,11
2.98E+03,-8086,-89,187,-12294,128,-1754,1,7,11
2.98E+03,-8301,43,239,-11964,167,-1860,1,7,11
2.98E+03,-8250,-370,571,-12083,170,-1438,1,7,11
2.98E+03,-8201,-248,638,-11800,167,-1559,1,7,11
2.98E+03,-8243,-616,451,-11163,208,-1200,1,7,11
2.98E+03,-8153,-473,791,-10708,532,-1366,1,7,11
2.98E+03,-8409,-830,668,-10183,577,-1284,1,7,11
2.98E+03,-8803,-661,751,-9836,530,-935,1,7,11
2.98E+03,-8818,-752,1070,-8949,204,-898,1,7,11
2.98E+03,-8753,-1062,1106,-8549,139,-923,1,7,11
2.98E+03,-8417,-1073,1116,-7635,354,-987,1,7,11
2.98E+03,-8359,-762,1113,-7252,332,-1307,1,7,11
2.98E+03,-8573,-644,1053,-6676,321,-1337,1,7,11
2.98E+03,-8324,-790,734,-6214,336,-1311,1,7,11
2.98E+03,-8387,-467,691,-5611,371,-969,1,7,11
2.98E+03,-8431,-455,646,-5326,376,-1097,1,7,11
2.98E+03,-8747,-460,880,-5063,377,-735,1,7,11
2.98E+03,-8826,-443,640,-4805,339,-892,1,7,11
2.99E+03,-8607,-425,660,-4573,-4,-799,1,7,11
2.99E+03,-8671,-444,738,-4654,-93,-475,1,7,11
2.99E+03,-8675,-456,1084,-4470,9,-418,1,7,11
2.99E+03,-8784,-450,1138,-3993,-203,-390,1,7,11
2.99E+03,-8347,-420,938,-3771,-636,-417,1,7,11
2.99E+03,-8481,-589,1006,-3547,-509,-454,1,7,11
2.99E+03,-8145,-212,1358,-3598,-888,-428,1,7,11
2.99E+03,-8224,-318,1226,-3421,-766,-580,1,7,11
2.99E+03,-7876,-259,1564,-3025,-1121,-187,1,7,11
2.99E+03,-8008,40,1600,-3138,-963,-283,1,7,11
2.99E+03,-7810,77,1408,-2741,-990,127,1,7,11
2.99E+03,-8288,126,1522,-2864,-916,-30,1,7,11
2.99E+03,-8335,-97,1911,-2487,-904,338,1,7,11
2.99E+03,-8632,-69,2063,-2524,-959,205,1,7,11
2.99E+03,-9014,-22,2175,-2324,-1383,611,1,7,11
2.99E+03,-8768,262,2010,-2064,-1657,821,1,7,11
2.99E+03,-8358,268,2317,-1667,-1662,823,1,7,11
2.99E+03,-8154,264,2328,-1470,-1616,501,1,7,11
2.99E+03,-7912,283,2311,-1595,-1258,614,1,7,11
2.99E+03,-7955,328,2033,-1212,-1360,163,1,7,11
2.99E+03,-7587,367,2039,-1157,-1014,-10,1,7,11
2.99E+03,-7553,152,2304,-1316,-1041,-102,1,7,11
2.99E+03,-7559,155,2045,-939,-700,123,1,7,11
2.99E+03,-7898,128,2382,-1140,-805,81,1,7,11
2.99E+03,-8347,381,2560,-1053,-845,-101,1,7,11
2.99E+03,-8179,156,2235,-862,-918,295,1,7,11
2.99E+03,-8348,138,2290,-783,-939,277,1,7,11
2.99E+03,-8830,379,2638,-466,-1284,369,1,7,11
2.99E+03,-8730,372,2601,-590,-1252,228,1,7,11
2.99E+03,-8491,374,2258,-237,-1604,525,1,7,11
2.99E+03,-8306,355,2203,-181,-1575,524,1,7,11
2.99E+03,-7923,340,2426,-130,-1196,518,1,7,11
2.99E+03,-7813,322,2392,-336,-1299,513,1,7,11
2.99E+03,-7981,300,2358,-278,-1132,217,1,7,11
2.99E+03,-8006,288,2347,38,-678,164,1,7,11
2.99E+03,-7824,275,2338,107,-510,130,1,7,11
2.99E+03,-7926,-2,2355,-79,-637,355,1,7,11
2.99E+03,-8263,257,2346,264,-568,327,1,7,11
2.99E+03,-8311,270,2345,355,-539,312,1,7,11
2.99E+03,-8320,293,2335,175,-533,318,1,7,11
3.00E+03,-8103,306,2341,227,-527,335,1,7,11
3.00E+03,-8099,312,2334,531,-561,356,1,7,11
3.00E+03,-8319,310,2319,568,-598,353,1,7,11
3.00E+03,-8309,304,2312,591,-601,315,1,7,11
3.00E+03,-8070,325,2317,613,-588,269,1,7,11
3.00E+03,-8091,361,2318,624,-569,-34,1,7,11
3.00E+03,-8071,145,2307,607,-546,-65,1,7,11
3.00E+03,-8066,165,2313,560,-237,-104,1,7,11
3.00E+03,-8083,174,2367,248,-187,123,1,7,11
3.00E+03,-8101,173,2389,191,-155,102,1,7,11
3.00E+03,-8095,159,2416,150,-152,76,1,7,11
3.00E+03,-8096,149,2188,380,-159,47,1,7,11
3.00E+03,-8120,148,2230,372,-171,26,1,7,11
3.00E+03,-8141,168,2236,379,-198,16,1,7,11
3.00E+03,-8145,194,2239,130,-225,29,1,7,11
3.00E+03,-8129,203,2247,133,-245,54,1,7,11
3.00E+03,-8090,184,2237,132,-254,83,1,7,11
3.00E+03,-8300,151,2239,137,-247,90,1,7,11
3.00E+03,-8259,365,2243,150,-216,64,1,7,11
3.00E+03,-8258,340,2563,193,-166,14,1,7,11
3.00E+03,-8280,334,2568,248,-382,-292,1,7,11
3.00E+03,-8300,342,2579,557,-358,-331,1,7,11
3.00E+03,-8315,360,2592,595,-346,-361,1,7,11
3.00E+03,-8312,383,2591,619,-328,-370,1,7,11
3.00E+03,-8301,133,2589,623,-304,-367,1,7,11
3.00E+03,-8294,137,2594,616,-277,-355,1,7,11
3.00E+03,-8292,144,2602,615,10,-338,1,7,11
3.00E+03,-8298,147,2609,616,35,-312,1,7,11
3.00E+03,-8289,154,2596,604,51,-278,1,7,11
3.00E+03,-8279,161,2581,579,76,1,1,7,11
3.00E+03,-8285,164,2574,534,103,22,1,7,11
3.00E+03,-8289,166,2580,239,116,39,1,7,11
3.00E+03,-8299,165,2587,210,-127,55,1,7,11
3.00E+03,-8305,171,2588,196,-120,76,1,7,11
3.00E+03,-8307,176,2582,187,-111,99,1,7,11
3.00E+03,-8297,175,2579,176,-98,117,1,7,11
3.00E+03,-8288,165,2583,162,-74,-124,1,7,11
3.00E+03,-8273,155,2587,151,-57,-112,1,7,11
3.00E+03,-8263,146,2588,146,-46,-105,1,7,11
3.00E+03,-8250,140,2578,145,-37,-104,1,7,11
3.01E+03,-8267,141,2565,149,-19,-105,1,7,11
3.01E+03,-8291,158,2301,145,-1,-101,1,7,11
3.01E+03,-8075,176,2560,134,263,-87,1,7,11
3.01E+03,-8121,191,2560,376,-2,-66,1,7,11
3.01E+03,-8154,221,2291,369,-41,-31,1,7,11
3.01E+03,-8176,525,2263,359,-83,268,1,7,11
3.01E+03,-8183,567,2232,323,-118,321,1,7,11
3.01E+03,-8157,602,2204,270,115,371,1,7,11
3.01E+03,-8113,610,2191,-63,122,138,1,7,11
3.01E+03,-8078,595,2188,106,-97,375,1,7,11
3.01E+03,-8075,579,2204,37,-48,319,1,7,11
3.01E+03,-8097,576,2235,-261,-5,-7,1,7,11
3.01E+03,-8136,597,2279,-279,265,-53,1,7,11
3.01E+03,-8159,628,2577,-281,-23,-65,1,7,11
3.01E+03,-8141,633,2609,-278,-92,-49,1,7,11
3.01E+03,-8119,623,2615,-264,97,-35,1,7,11
3.01E+03,-8102,607,2614,16,38,-37,1,7,11
3.01E+03,-8094,609,2608,54,-269,-60,1,7,11
3.01E+03,-8076,608,2630,81,-303,-87,1,7,11
3.01E+03,-8313,621,2646,116,-322,-121,1,7,11
3.01E+03,-8276,619,2656,-122,-331,101,1,7,11
3.01E+03,-8238,625,2668,-117,-324,50,1,7,11
3.01E+03,-8210,630,2665,-122,-304,-277,1,7,11
3.01E+03,-8220,623,2661,99,-270,-350,1,7,11
3.01E+03,-8251,629,2677,49,17,-165,1,7,11
3.01E+03,-8280,634,2684,2,22,-227,1,7,11
3.01E+03,-8268,620,2687,-303,-262,-222,1,7,11
3.01E+03,-8257,582,2681,-365,-290,-211,1,7,11
3.01E+03,-8236,548,2432,-164,-300,-190,1,7,11
3.01E+03,-8239,236,2685,-211,-312,-157,1,7,11
3.01E+03,-8250,168,2449,-275,-311,-154,1,7,11
3.01E+03,-8276,349,2468,-554,-316,-173,1,7,11
3.01E+03,-8279,290,2480,-543,-330,-198,1,7,11
3.01E+03,-8260,262,2474,-246,-324,-223,1,7,11
3.01E+03,-8266,260,2471,-190,-280,-232,1,7,11
3.01E+03,-8271,281,2472,-142,33,-212,1,7,11
3.01E+03,-8295,293,2478,-358,98,-165,1,7,11
3.01E+03,-8291,292,2484,-334,-113,-364,1,7,11
3.01E+03,-8308,291,2507,-321,-84,-321,1,7,11
3.01E+03,-8066,280,2516,-314,-77,-294,1,7,11
3.02E+03,-8318,286,2522,-301,-90,-279,1,7,11
3.02E+03,-8299,291,2531,-300,-108,-276,1,7,11
3.02E+03,-8296,305,2536,-304,-118,-282,1,7,11
3.02E+03,-8282,318,2532,-316,-123,-289,1,7,11
3.02E+03,-8266,328,2520,-328,-119,-288,1,7,11
3.02E+03,-8257,318,2521,-346,-101,-274,1,7,11
3.02E+03,-8247,298,2521,-360,-78,-257,1,7,11
3.02E+03,-8238,272,2521,-352,-47,14,1,7,11
3.02E+03,-8233,256,2515,-330,-17,29,1,7,11
3.02E+03,-8244,-7,2511,-293,277,41,1,7,11
3.02E+03,-8258,268,2488,15,313,60,1,7,11
3.02E+03,-8284,292,2471,59,342,83,1,7,11
3.02E+03,-8292,319,2453,99,359,117,1,7,11
3.02E+03,-8293,337,2442,125,368,-111,1,7,11
3.02E+03,-8300,330,2435,-121,365,-89,1,7,11
3.02E+03,-8295,321,2686,-93,349,-82,1,7,11
3.02E+03,-8284,320,2673,-62,326,-91,1,7,11
3.02E+03,-8290,321,2662,-30,318,-108,1,7,11
3.02E+03,-8314,344,2659,258,306,-115,1,7,11
3.02E+03,-8319,383,2649,296,281,-106,1,7,11
3.02E+03,-8320,152,2641,317,279,-76,1,7,11
3.02E+03,-8069,177,2640,345,288,-33,1,7,11
3.02E+03,-8318,181,2638,383,299,268,1,7,11
3.02E+03,-8318,183,2647,168,320,308,1,7,11
3.02E+03,-8069,182,2668,224,340,336,1,7,11
3.02E+03,-8315,191,2683,542,345,358,1,7,11
3.02E+03,-8306,181,2435,609,349,368,1,7,11
3.02E+03,-8290,175,2684,439,354,362,1,7,11
3.02E+03,-8272,180,2680,798,360,350,1,7,11
3.02E+03,-8218,180,2654,656,355,335,1,7,11
3.02E+03,-7897,192,2616,761,367,309,1,7,11
3.02E+03,-7855,208,2300,1085,155,-1,1,7,11
3.02E+03,-7883,240,2264,1117,234,-84,1,7,11
3.02E+03,-7920,563,2205,1125,559,86,1,7,11
3.02E+03,-7936,386,2378,1074,634,20,1,7,11
3.02E+03,-8232,442,2044,702,471,-277,1,7,11
3.02E+03,-8303,490,1980,799,834,-288,1,7,11
3.02E+03,-8109,768,1927,626,667,1,1,7,11
3.02E+03,-8167,780,2134,199,750,62,1,7,11
3.02E+03,-8458,784,2093,295,1069,-105,1,7,11
3.03E+03,-8516,790,2080,-102,1130,261,1,7,11
3.03E+03,-8558,795,2082,39,897,149,1,7,11
3.03E+03,-8567,804,2097,-300,1133,562,1,7,11
3.03E+03,-8561,788,2123,-371,1086,469,1,7,11
3.03E+03,-8529,498,2142,-169,739,877,1,7,11
3.03E+03,-8505,454,2155,-199,876,765,1,7,11
3.03E+03,-8477,424,2159,-211,430,1036,1,7,11
3.03E+03,-8463,424,2169,-190,559,729,1,7,11
3.03E+03,-8462,449,1926,-154,183,647,1,7,11
3.03E+03,-8456,468,1944,-363,316,808,1,7,11
3.03E+03,-8180,496,1954,-334,-54,446,1,7,11
3.03E+03,-8145,500,1950,-324,106,584,1,7,11
3.03E+03,-8130,499,1947,-320,40,191,1,7,11
3.03E+03,-8123,508,1948,-306,-269,308,1,7,11
3.03E+03,-8127,778,1931,-290,-309,-82,1,7,11
3.03E+03,-8113,805,2151,-275,-336,61,1,7,11
3.03E+03,-8109,844,2133,-280,-338,-268,1,7,11
3.03E+03,-8120,870,2123,-312,-335,-304,1,7,11
3.03E+03,-8124,862,2114,-366,-342,-320,1,7,11
3.03E+03,-8139,845,2111,-170,-358,-336,1,7,11
3.03E+03,-8146,840,2113,-223,-133,-343,1,7,11
3.03E+03,-8138,837,2109,-539,-161,-347,1,7,11
3.03E+03,-8128,833,2107,-610,-178,-343,1,7,11
3.03E+03,-8118,830,2125,-429,-185,-328,1,7,11
3.03E+03,-8108,804,2143,-502,-183,-312,1,7,11
3.03E+03,-8100,778,2172,-811,-164,-299,1,7,11
3.03E+03,-8085,490,1934,-844,-140,-295,1,7,11
3.03E+03,-8082,465,1947,-855,-359,-299,1,7,11
3.03E+03,-8076,444,1962,-854,-312,-302,1,7,11
3.03E+03,-8076,435,1962,-843,-264,-303,1,7,11
3.03E+03,-8074,434,1964,-839,41,-301,1,7,11
3.03E+03,-8065,432,1955,-823,87,-293,1,7,11
3.03E+03,-8075,423,1944,-806,-92,-273,1,7,11
3.03E+03,-8100,430,1932,-771,-46,3,1,7,11
3.03E+03,-8122,442,2169,-501,-23,34,1,7,11
3.03E+03,-8136,451,2160,-482,268,69,1,7,11
3.03E+03,-8152,459,2158,-462,295,109,1,7,11
3.03E+03,-8154,461,2153,-443,292,-111,1,7,11
3.03E+03,-8165,469,2148,-423,275,-82,1,7,11
3.03E+03,-8174,477,2134,-398,-11,-58,1,7,11
3.04E+03,-8175,497,2130,-388,-50,-45,1,7,11
3.04E+03,-8173,505,2137,-393,-95,-35,1,7,11
3.04E+03,-8165,504,2156,-394,111,-37,1,7,11
3.04E+03,-8156,501,2173,-385,60,-50,1,7,11
3.04E+03,-8140,497,1948,-625,8,-69,1,7,11
3.04E+03,-8131,491,1971,-599,-290,-94,1,7,11
3.04E+03,-8112,486,1985,-562,-329,-119,1,7,11
3.04E+03,-8105,485,2006,-523,-356,108,1,7,11
3.04E+03,-8092,481,2005,-231,-376,83,1,7,11
3.04E+03,-8071,474,2014,-202,-130,60,1,7,11
3.04E+03,-8299,467,2014,-181,-380,37,1,7,11
3.04E+03,-8301,461,2025,-172,-350,13,1,7,11
3.04E+03,-8078,480,2338,-312,95,-4,1,7,11
3.04E+03,-8081,494,2335,0,120,-23,1,7,11
3.04E+03,-8090,833,2328,-61,-73,-24,1,7,11
3.04E+03,-8084,841,2329,-19,-68,-29,1,7,11
3.04E+03,-8084,860,2319,278,-63,-40,1,7,11
3.04E+03,-8082,875,2307,305,-59,-47,1,7,11
3.04E+03,-8076,888,2044,326,-55,-51,1,7,11
3.04E+03,-8075,644,2036,340,-50,-59,1,7,11
3.04E+03,-8070,649,2029,349,-49,-70,1,7,11
3.04E+03,-8071,657,2029,357,-49,-86,1,7,11
3.04E+03,-8089,659,2028,355,-54,-101,1,7,11
3.04E+03,-8108,667,2041,350,-72,-111,1,7,11
3.04E+03,-8114,672,2023,335,-105,-123,1,7,11
3.04E+03,-8112,683,2013,309,120,119,1,7,11
3.04E+03,-8108,695,1999,274,89,109,1,7,11
3.04E+03,-8099,689,1995,-33,63,108,1,7,11
3.04E+03,-8095,668,1995,-86,46,103,1,7,11
3.04E+03,-8109,888,1999,126,31,91,1,7,11
3.04E+03,-8115,857,2003,95,6,70,1,7,11
3.04E+03,-8111,830,2003,78,-275,40,1,7,11
3.04E+03,-8121,828,2012,73,-289,14,1,7,11
3.04E+03,-8132,839,2031,67,-297,4,1,7,11
3.04E+03,-8140,848,2311,59,-301,13,1,7,11
3.04E+03,-8144,842,2327,52,-303,36,1,7,11
3.04E+03,-8127,837,2345,55,-308,61,1,7,11
3.04E+03,-8093,844,2348,62,-311,80,1,7,11
3.04E+03,-8318,843,2362,63,-305,96,1,7,11
3.04E+03,-8066,847,2377,58,-281,100,1,7,11
3.05E+03,-8084,855,2403,53,-273,113,1,7,11
3.05E+03,-8082,871,2403,58,-274,-126,1,7,11
3.05E+03,-8317,874,2408,60,-267,-95,1,7,11
3.05E+03,-8304,882,2405,74,15,-82,1,7,11
3.05E+03,-8302,881,2405,84,35,-75,1,7,11
3.05E+03,-8300,873,2401,97,47,-83,1,7,11
3.05E+03,-8303,883,2395,104,59,-95,1,7,11
3.05E+03,-8289,887,2372,96,69,-109,1,7,11
3.05E+03,-8275,889,2356,88,90,127,1,7,11
3.05E+03,-8271,890,2356,80,121,111,1,7,11
3.05E+03,-8278,885,2349,81,-102,107,1,7,11
3.05E+03,-8293,882,2357,91,-77,116,1,7,11
3.05E+03,-8294,884,2347,109,-59,-118,1,7,11
3.05E+03,-8309,893,2341,125,-38,-87,1,7,11
3.05E+03,-8308,886,2347,-122,-31,-53,1,7,11
3.05E+03,-8068,883,2340,-109,-36,-24,1,7,11
3.05E+03,-8078,893,2337,-89,-54,261,1,7,11
3.05E+03,-8097,663,2319,-70,-68,289,1,7,11
3.05E+03,-8116,703,2310,-55,-76,332,1,7,11
3.05E+03,-8119,739,2035,-55,-79,376,1,7,11
3.05E+03,-8122,762,2020,-75,-72,154,1,7,11
3.05E+03,-8138,1029,2020,-98,-60,167,1,7,11
3.05E+03,-8145,1036,2019,-113,-64,158,1,7,11
3.05E+03,-8138,1031,2015,-125,-77,383,1,7,11
3.05E+03,-8126,1032,2001,-126,-93,338,1,7,11
3.05E+03,-8135,1046,2011,-116,-102,288,1,7,11
3.05E+03,-8150,1079,2041,-97,-120,-11,1,7,11
3.05E+03,-8148,1088,2316,-82,104,-37,1,7,11
3.05E+03,-8121,1095,2328,-63,56,-54,1,7,11
3.05E+03,-8092,1103,2326,-42,9,-88,1,7,11
3.05E+03,-8315,1106,2334,-25,-285,-125,1,7,11
3.05E+03,-8282,1109,2345,-20,-308,88,1,7,11
3.05E+03,-8254,1105,2358,-21,-301,35,1,7,11
3.05E+03,-8247,1114,2372,-13,-285,-271,1,7,11
3.05E+03,-8236,1126,2382,-10,-266,-308,1,7,11
3.05E+03,-8224,1133,2387,-21,19,-337,1,7,11
3.05E+03,-8234,1123,2404,-44,50,-358,1,7,11
3.05E+03,-8248,1107,2179,-67,60,-371,1,7,11
3.05E+03,-8262,1094,2182,-81,52,-370,1,7,11
3.05E+03,-8259,1076,2420,-97,42,-356,1,7,11
3.06E+03,-8252,1051,2388,-118,46,-340,1,7,11
3.06E+03,-8246,1024,2363,111,67,-322,1,7,11
3.06E+03,-8253,714,2338,85,107,-312,1,7,11
3.06E+03,-8283,672,2324,84,-104,-315,1,7,11
3.06E+03,-8075,649,2045,100,-64,-310,1,7,11
3.06E+03,-8119,654,2029,-127,-50,-289,1,7,11
3.06E+03,-8152,658,2024,-113,-44,5,1,7,11
3.06E+03,-8453,668,2041,-113,-49,54,1,7,11
3.06E+03,-8478,679,2320,-118,-82,103,1,7,11
3.06E+03,-8470,697,2328,-123,113,-105,1,7,11
3.06E+03,-8181,710,2341,120,52,-62,1,7,11
3.06E+03,-8124,719,2356,102,9,-27,1,7,11
3.06E+03,-8076,726,2370,97,-264,-5,1,7,11
3.06E+03,-8299,736,2388,104,-259,266,1,7,11
3.06E+03,-8269,752,2399,-128,27,275,1,7,11
3.06E+03,-8256,766,2407,-101,69,279,1,7,11
3.06E+03,-8232,1037,2411,-60,111,274,1,7,11
3.06E+03,-8218,1057,2392,-20,-94,259,1,7,11
3.06E+03,-8230,1076,2374,271,-48,-19,1,7,11
3.06E+03,-8240,1097,2342,294,-24,-39,1,7,11
3.06E+03,-8247,1119,2310,298,-11,-58,1,7,11
3.06E+03,-8269,1138,2015,285,262,-75,1,7,11
3.06E+03,-8284,905,1985,-3,272,-77,1,7,11
3.06E+03,-8313,909,1946,-59,284,-75,1,7,11
3.06E+03,-8092,900,1944,-104,282,-68,1,7,11
3.06E+03,-8125,898,1942,123,268,-61,1,7,11
3.06E+03,-8138,909,1930,105,-11,-45,1,7,11
3.06E+03,-8146,916,1926,91,-34,-20,1,7,11
3.06E+03,-8143,926,1930,79,-53,262,1,7,11
3.06E+03,-8142,912,1952,66,-67,273,1,7,11
3.06E+03,-8138,905,1979,70,-84,261,1,7,11
3.06E+03,-8146,912,2007,90,-106,-11,1,7,11
3.06E+03,-8139,921,2304,120,110,-24,1,7,11
3.06E+03,-8120,929,2323,-102,58,-34,1,7,11
3.06E+03,-8090,946,2331,-65,6,-52,1,7,11
3.06E+03,-8305,953,2330,-40,-285,-82,1,7,11
3.06E+03,-8280,974,2326,-31,-294,-121,1,7,11
3.06E+03,-8277,997,2339,-36,-287,97,1,7,11
3.06E+03,-8283,1016,2351,-51,-285,75,1,7,11
3.06E+03,-8270,1288,2358,-77,-287,73,1,7,11
3.07E+03,-8261,1289,2368,-109,-277,73,1,7,11
3.07E+03,-8234,1292,2367,111,-267,69,1,7,11
3.07E+03,-8242,1020,2379,65,25,50,1,7,11
3.07E+03,-8251,1009,2384,15,46,28,1,7,11
3.07E+03,-8253,991,2369,-292,61,5,1,7,11
3.07E+03,-8248,972,2333,-339,89,-273,1,7,11
3.07E+03,-8259,942,2328,-155,-126,-293,1,7,11
3.07E+03,-8285,903,2318,-198,-87,-302,1,7,11
3.07E+03,-8303,1127,2311,-220,-69,-300,1,7,11
3.07E+03,-8071,1105,2306,-225,-53,-284,1,7,11
3.07E+03,-8090,1086,2307,-214,-55,3,1,7,11
3.07E+03,-8096,1071,2310,-193,-63,46,1,7,11
3.07E+03,-8098,1056,2317,-152,-77,86,1,7,11
3.07E+03,-8097,1055,2323,-351,-92,122,1,7,11
3.07E+03,-8091,1080,2316,-281,-115,-102,1,7,11
3.07E+03,-8074,1127,2305,34,121,-66,1,7,11
3.07E+03,-8319,906,2039,70,111,-32,1,7,11
3.07E+03,-8305,932,2039,87,107,-3,1,7,11
3.07E+03,-8297,956,2030,102,105,271,1,7,11
3.07E+03,-8289,980,2029,105,101,276,1,7,11
3.07E+03,-8293,994,2031,94,102,264,1,7,11
3.07E+03,-8319,988,2030,72,102,-21,1,7,11
3.07E+03,-8066,981,2023,52,81,-59,1,7,11
3.07E+03,-8316,967,2011,29,67,-106,1,7,11
3.07E+03,-8309,949,2011,10,59,101,1,7,11
3.07E+03,-8310,928,2014,-257,64,56,1,7,11
3.07E+03,-8308,917,2027,5,75,30,1,7,11
3.07E+03,-8318,906,2038,31,86,26,1,7,11
3.07E+03,-8066,904,2045,82,89,43,1,7,11
3.07E+03,-8067,912,2314,-113,87,78,1,7,11
3.07E+03,-8066,914,2323,-53,86,120,1,7,11
3.07E+03,-8065,925,2329,259,83,-102,1,7,11
3.07E+03,-8308,941,2330,308,74,-82,1,7,11
3.07E+03,-8293,967,2331,344,73,-82,1,7,11
3.07E+03,-8279,1003,2330,366,69,-90,1,7,11
3.07E+03,-8247,1315,2313,353,78,-108,1,7,11
3.07E+03,-8253,1344,2319,312,100,-114,1,7,11
3.07E+03,-8264,1355,2328,257,109,-118,1,7,11
3.07E+03,-8283,1367,2339,-45,102,-113,1,7,11
3.07E+03,-8263,1359,2326,-92,73,-94,1,7,11
3.08E+03,-8254,1339,2325,121,68,-93,1,7,11
3.08E+03,-8246,1318,2317,83,76,-110,1,7,11
3.08E+03,-8251,1290,2319,58,90,124,1,7,11
3.08E+03,-8271,1000,2318,52,100,93,1,7,11
3.08E+03,-8293,972,2310,60,110,64,1,7,11
3.08E+03,-8315,953,2039,80,-127,33,1,7,11
3.08E+03,-8073,957,2035,106,-100,9,1,7,11
3.08E+03,-8106,979,2310,124,-66,10,1,7,11
3.08E+03,-8155,1007,2341,-110,-51,44,1,7,11
3.08E+03,-8166,1290,2364,-84,-79,108,1,7,11
3.08E+03,-8137,1292,2378,-65,-126,-86,1,7,11
3.08E+03,-8098,1288,2388,-44,80,-52,1,7,11
3.08E+03,-8313,1289,2387,-21,42,-54,1,7,11
3.08E+03,-8280,1314,2390,256,23,-71,1,7,11
3.08E+03,-8251,1340,2393,270,16,-89,1,7,11
3.08E+03,-8236,1370,2393,280,23,-107,1,7,11
3.08E+03,-8223,1378,2395,274,36,-120,1,7,11
3.08E+03,-8209,1374,2396,260,49,115,1,7,11
3.08E+03,-8216,1360,2396,-13,65,80,1,7,11
3.08E+03,-8217,1352,2391,-28,70,34,1,7,11
3.08E+03,-8222,1339,2394,-53,78,-274,1,7,11
3.08E+03,-8226,1306,2385,-92,80,-322,1,7,11
3.08E+03,-8235,1014,2372,-125,83,-375,1,7,11
3.08E+03,-8259,986,2363,108,98,-158,1,7,11
3.08E+03,-8276,954,2338,94,109,-176,1,7,11
3.08E+03,-8312,938,2317,81,125,-174,1,7,11
3.08E+03,-8082,925,2041,70,-115,-152,1,7,11
3.08E+03,-8093,924,2037,60,-106,-372,1,7,11
3.08E+03,-8116,926,2047,48,-108,-319,1,7,11
3.08E+03,-8130,933,2306,34,-127,6,1,7,11
3.08E+03,-8131,938,2317,17,102,83,1,7,11
3.08E+03,-8128,944,2334,7,72,-99,1,7,11
3.08E+03,-8094,952,2356,11,38,-2,1,7,11
3.08E+03,-8075,950,2358,28,3,278,1,7,11
3.08E+03,-8288,971,2357,60,-271,311,1,7,11
3.08E+03,-8244,991,2363,94,-265,320,1,7,11
3.08E+03,-8237,1023,2372,-123,13,309,1,7,11
3.08E+03,-8228,1316,2375,-81,29,297,1,7,11
3.08E+03,-8223,1353,2358,-39,40,288,1,7,11
3.08E+03,-8212,1368,2350,-26,50,289,1,7,11
3.09E+03,-8198,1391,2329,-27,63,276,1,7,11
3.09E+03,-7933,1404,2313,-47,72,-8,1,7,11
3.09E+03,-8208,1399,2046,-92,97,-44,1,7,11
3.09E+03,-8228,1156,2036,115,123,-104,1,7,11
3.09E+03,-8239,1163,2016,66,-110,-119,1,7,11
3.09E+03,-8266,1177,2005,7,-80,127,1,7,11
3.09E+03,-8298,1154,1996,-316,-46,-125,1,7,11
3.09E+03,-8086,1391,1990,-366,-16,-120,1,7,11
3.09E+03,-8117,1378,2001,-133,258,-103,1,7,11
3.09E+03,-8139,1374,2021,-130,262,-83,1,7,11
3.09E+03,-8143,1380,2313,-363,-7,-50,1,7,11
3.09E+03,-8131,1380,2345,-329,-47,-39,1,7,11
3.09E+03,-8110,1380,2369,-286,-99,-31,1,7,11
3.09E+03,-8082,1381,2381,20,94,-32,1,7,11
3.09E+03,-8300,1392,2398,78,35,-46,1,7,11
3.09E+03,-8238,1159,2411,-107,3,-92,1,7,11
3.09E+03,-8201,1186,2427,-41,-263,-127,1,7,11
3.09E+03,-7930,1217,2430,271,1,96,1,7,11
3.09E+03,-7922,1235,2425,306,15,64,1,7,11
3.09E+03,-7919,1246,2407,308,50,27,1,7,11
3.09E+03,-7918,1250,2401,288,75,-271,1,7,11
3.09E+03,-7917,1260,2400,-7,101,-303,1,7,11
3.09E+03,-7920,1255,2397,-58,127,-324,1,7,11
3.09E+03,-7932,1233,2398,-113,-108,-342,1,7,11
3.09E+03,-8205,1195,2395,82,-95,-362,1,7,11
3.09E+03,-8206,1157,2390,26,-87,-131,1,7,11
3.09E+03,-8215,1366,2370,-285,-67,-159,1,7,11
3.09E+03,-8237,1329,2336,-339,-33,-177,1,7,11
3.09E+03,-8273,1293,2312,-381,266,-180,1,7,11
3.09E+03,-8074,1283,2033,-155,302,-161,1,7,11
3.09E+03,-8137,1005,2032,-178,319,-365,1,7,11
3.09E+03,-8185,983,2042,-189,305,-296,1,7,11
3.09E+03,-8459,971,2317,-179,260,33,1,7,11
3.09E+03,-8187,969,2326,-162,-59,97,1,7,11
3.09E+03,-8144,973,2344,-142,-128,-111,1,7,11
3.09E+03,-8099,968,2352,-383,72,-86,1,7,11
3.09E+03,-8319,964,2380,-354,23,-78,1,7,11
3.09E+03,-8293,979,2404,-304,-267,-76,1,7,11
3.09E+03,-8252,996,2400,7,-284,-73,1,7,11
3.09E+03,-8220,1017,2388,73,-275,-72,1,7,11
3.10E+03,-8194,1303,2377,127,20,-70,1,7,11
3.10E+03,-8197,1322,2362,-84,71,-71,1,7,11
3.10E+03,-8197,1342,2342,-49,124,-73,1,7,11
3.10E+03,-8212,1365,2317,-33,-83,-75,1,7,11
3.10E+03,-8221,1389,2030,-49,-27,-79,1,7,11
3.10E+03,-8233,1401,2010,-73,267,-87,1,7,11
3.10E+03,-8251,1161,1969,-102,295,-90,1,7,11
3.10E+03,-8269,1183,1949,113,322,-84,1,7,11
3.10E+03,-8286,1186,1934,70,337,-61,1,7,11
3.10E+03,-8320,1169,1935,33,341,-37,1,7,11
3.10E+03,-8083,1404,1946,12,318,-16,1,7,11
3.10E+03,-8106,1392,1968,20,276,257,1,7,11
3.10E+03,-8119,1386,1986,47,-46,273,1,7,11
3.10E+03,-8124,1364,2001,91,124,279,1,7,11
3.10E+03,-8109,1375,2003,-101,36,278,1,7,11
3.10E+03,-8097,1383,2014,-41,-286,264,1,7,11
3.10E+03,-8089,1156,2021,276,-340,-13,1,7,11
3.10E+03,-8075,1177,2034,314,-377,-28,1,7,11
3.10E+03,-8295,1179,2028,337,-151,-54,1,7,11
3.10E+03,-8271,1177,2024,352,-161,-93,1,7,11
3.10E+03,-8257,1186,2025,374,-149,119,1,7,11
3.10E+03,-8244,1214,2021,140,-374,81,1,7,11
3.10E+03,-8234,1240,2025,154,-328,68,1,7,11
3.10E+03,-8238,1267,2035,166,-274,76,1,7,11
3.10E+03,-8250,1540,2304,164,29,103,1,7,11
3.10E+03,-8252,1554,2316,158,63,-124,1,7,11
3.10E+03,-8253,1575,2323,150,91,-96,1,7,11
3.10E+03,-8253,1602,2341,139,103,-67,1,7,11
3.10E+03,-8253,1618,2364,373,104,-47,1,7,11
3.10E+03,-8246,1623,2369,338,93,-34,1,7,11
3.10E+03,-8236,1630,2369,296,83,-37,1,7,11
3.10E+03,-8216,1619,2366,-14,79,-63,1,7,11
3.10E+03,-8208,1599,2362,-75,86,-106,1,7,11
3.10E+03,-8211,1565,2354,123,92,98,1,7,11
3.10E+03,-8212,1548,2335,75,100,40,1,7,11
3.10E+03,-8239,1273,2329,29,113,-265,1,7,11
3.10E+03,-8270,1259,2349,-283,-123,-302,1,7,11
3.10E+03,-8298,1239,2372,-355,114,-311,1,7,11
3.10E+03,-8299,1207,2367,-136,80,-286,1,7,11
3.10E+03,-8278,1172,2362,-153,48,-262,1,7,11
3.11E+03,-8255,1404,2372,-148,38,17,1,7,11
3.11E+03,-8231,1388,2387,-382,53,42,1,7,11
3.11E+03,-8225,1379,2400,-340,85,70,1,7,11
3.11E+03,-8224,1403,2406,-284,114,113,1,7,11
3.11E+03,-8228,1175,2401,8,-116,-95,1,7,11
3.11E+03,-8207,1198,2368,20,-94,-58,1,7,11
3.11E+03,-8204,1217,2349,19,-51,-43,1,7,11
3.11E+03,-8207,1246,2332,14,-9,-31,1,7,11
3.11E+03,-8210,1279,2326,8,280,-7,1,7,11
3.11E+03,-8213,1564,2320,2,301,291,1,7,11
3.11E+03,-8233,1572,2321,-261,308,330,1,7,11
3.11E+03,-8226,1575,2036,-262,304,348,1,7,11
3.11E+03,-8236,1588,2012,-261,304,337,1,7,11
3.11E+03,-8244,1589,1984,-268,312,314,1,7,11
3.11E+03,-8264,1573,1966,-282,326,268,1,7,11
3.11E+03,-8284,1557,1956,-289,335,-48,1,7,11
3.11E+03,-8310,1564,1941,-278,346,-105,1,7,11
3.11E+03,-8103,1589,1954,-260,354,-128,1,7,11
3.11E+03,-8128,1615,1962,21,331,-102,1,7,11
3.11E+03,-8137,1622,1992,46,292,-47,1,7,11
3.11E+03,-8114,1612,2016,86,-21,263,1,7,11
3.11E+03,-8075,1611,2035,-113,-82,289,1,7,11
3.11E+03,-8297,1627,2046,-56,120,283,1,7,11
3.11E+03,-8268,1644,2329,-9,75,262,1,7,11
3.11E+03,-8235,1663,2331,287,37,-30,1,7,11
3.11E+03,-8210,1426,2339,315,9,-73,1,7,11
3.11E+03,-7936,1447,2337,325,-261,-121,1,7,11
3.11E+03,-7915,1475,2331,322,-264,92,1,7,11
3.11E+03,-7897,1492,2331,299,4,52,1,7,11
3.11E+03,-7896,1508,2326,261,24,17,1,7,11
3.11E+03,-7893,1522,2316,-51,44,-269,1,7,11
3.11E+03,-7891,1526,2041,126,76,-291,1,7,11
3.11E+03,-7908,1500,2024,25,127,-315,1,7,11
3.11E+03,-7935,1466,2011,-334,-80,-341,1,7,11
3.11E+03,-8228,1418,2007,-171,-38,-367,1,7,11
3.11E+03,-8255,1627,2000,-235,-12,-384,1,7,11
3.11E+03,-8296,1562,2005,-534,-3,-129,1,7,11
3.11E+03,-8084,1240,2016,-546,-15,-379,1,7,11
3.11E+03,-8107,1201,2020,-524,-49,-368,1,7,11
3.11E+03,-8098,1173,2017,-225,-87,-348,1,7,11
3.12E+03,-8075,1159,2018,-170,-111,-321,1,7,11
3.12E+03,-8301,1160,2020,-357,-121,-294,1,7,11
3.12E+03,-8278,1166,2023,-287,-118,-267,1,7,11
3.12E+03,-8261,1183,2024,42,-113,18,1,7,11
3.12E+03,-8245,1222,2016,112,-95,43,1,7,11
3.12E+03,-8241,1539,2008,-94,-66,77,1,7,11
3.12E+03,-8229,1585,2000,-69,-34,112,1,7,11
3.12E+03,-8215,1620,1991,-63,-2,-113,1,7,11
3.12E+03,-7931,1414,1959,-67,301,-86,1,7,11
3.12E+03,-7903,1431,1929,-113,334,-85,1,7,11
3.12E+03,-7898,1418,2149,82,383,-109,1,7,11
3.12E+03,-7891,1649,2119,26,169,99,1,7,11
3.12E+03,-7912,1644,2073,-271,210,40,1,7,11
3.12E+03,-8196,1652,1759,-320,241,-258,1,7,11
3.12E+03,-8228,1661,1709,-139,529,-277,1,7,11
3.12E+03,-8258,1655,1916,-229,559,-277,1,7,11
3.12E+03,-8270,1625,1872,-586,597,-271,1,7,11
3.12E+03,-8291,1623,1828,-424,389,-268,1,7,11
3.12E+03,-8295,1663,1792,-772,448,9,1,7,11
3.12E+03,-8301,1458,1529,-886,784,55,1,7,11
3.12E+03,-8303,1508,1817,-744,868,-119,1,7,11
3.12E+03,-8320,1792,1873,-1114,687,-19,1,7,11
3.12E+03,-8078,1523,1699,-948,730,342,1,7,11
3.12E+03,-8084,1488,1767,-1003,732,165,1,7,11
3.12E+03,-8069,1434,2062,-1022,698,197,1,7,11
3.12E+03,-8280,1412,2057,-1010,652,158,1,7,11
3.12E+03,-8239,1420,1781,-994,892,324,1,7,11
3.12E+03,-8195,1442,1745,-991,645,-44,1,7,11
3.12E+03,-7906,1487,1704,-1003,682,113,1,7,11
3.12E+03,-7899,1523,1671,-1016,731,46,1,7,11
3.12E+03,-7910,1517,1906,-1331,1037,24,1,7,11
3.12E+03,-7920,1414,1901,-1159,764,11,1,7,11
3.12E+03,-8233,1539,1895,-1215,709,-321,1,7,11
3.12E+03,-8267,1181,1853,-1229,860,-186,1,7,11
3.12E+03,-8273,1369,1521,-1225,493,-591,1,7,11
3.12E+03,-8065,1338,1441,-1230,426,-464,1,7,11
3.12E+03,-8154,1320,1623,-1256,397,-783,1,7,11
3.12E+03,-8510,1303,1579,-1277,639,-504,1,7,11
3.12E+03,-8332,1290,1544,-1257,635,-400,1,7,11
3.12E+03,-8374,1298,1279,-1198,386,-234,1,7,11
3.13E+03,-8410,1301,1568,-1364,385,-268,1,7,11
3.13E+03,-8426,1302,1630,-981,595,-14,1,7,11
3.13E+03,-8396,1287,1424,-1087,245,231,1,7,11
3.13E+03,-8337,1021,1456,-648,379,409,1,7,11
3.13E+03,-8519,1307,1477,-446,-9,511,1,7,11
3.13E+03,-8185,1371,1482,-514,126,802,1,7,11
3.13E+03,-8134,1204,1487,-366,31,778,1,7,11
3.13E+03,-8129,1568,1501,-270,-311,482,1,7,11
3.13E+03,-8126,1657,1526,27,-148,437,1,7,11
3.13E+03,-8119,1457,1798,17,-231,630,1,7,11
3.13E+03,-8115,1487,1810,-279,-563,560,1,7,11
3.13E+03,-8072,1479,1813,-331,-623,216,1,7,11
3.13E+03,-8294,1478,1817,-371,-640,368,1,7,11
3.13E+03,-8253,1475,1817,-144,-625,276,1,7,11
3.13E+03,-8215,1472,1814,-168,-575,-56,1,7,11
3.13E+03,-8210,1469,1818,-186,-241,-108,1,7,11
3.13E+03,-8218,1450,1816,-195,-154,119,1,7,11
3.13E+03,-8221,1431,1815,-187,-330,108,1,7,11
3.13E+03,-8227,1663,1810,-171,5,109,1,7,11
3.13E+03,-8240,1410,1809,-142,70,116,1,7,11
3.13E+03,-8254,1654,1812,-381,118,127,1,7,11
3.13E+03,-8285,1645,1832,-369,-110,-122,1,7,11
3.13E+03,-8308,1630,1835,-365,-113,-119,1,7,11
3.13E+03,-8068,1616,1833,-371,121,-119,1,7,11
3.13E+03,-8068,1595,1830,-130,98,-125,1,7,11
3.13E+03,-8065,1573,1825,-146,82,117,1,7,11
3.13E+03,-8316,1551,1820,-152,80,104,1,7,11
3.13E+03,-8066,1537,1824,-142,87,104,1,7,11
3.13E+03,-8066,1538,1824,-363,102,121,1,7,11
3.13E+03,-8302,1550,1812,-322,125,-99,1,7,11
3.13E+03,-8293,1573,1800,-280,-91,-69,1,7,11
3.13E+03,-8296,1604,1797,8,-42,-43,1,7,11
3.13E+03,-8305,1639,1806,29,257,-26,1,7,11
3.13E+03,-8065,1414,1810,35,279,-25,1,7,11
3.13E+03,-8083,1446,1812,29,278,-34,1,7,11
3.13E+03,-8080,1476,1809,9,-3,-52,1,7,11
3.13E+03,-8319,1486,1803,-291,-28,-80,1,7,11
3.13E+03,-8070,1480,1829,-343,-53,-118,1,7,11
3.13E+03,-8084,1456,1858,-380,-98,94,1,7,11
3.13E+03,-8318,1427,1863,-131,91,53,1,7,11
3.14E+03,-8285,1658,1842,-374,45,6,1,7,11
3.14E+03,-8258,1639,1816,-351,28,-296,1,7,11
3.14E+03,-8232,1632,1528,-320,34,-336,1,7,11
3.14E+03,-8230,1609,1504,-301,71,-371,1,7,11
3.14E+03,-8254,1582,1474,-280,119,-134,1,7,11
3.14E+03,-8291,1575,1449,22,-87,-139,1,7,11
3.14E+03,-8079,1603,1436,81,-28,-365,1,7,11
3.14E+03,-8138,1635,1440,-121,281,-288,1,7,11
3.14E+03,-8178,1409,1456,-68,299,89,1,7,11
3.14E+03,-8458,1440,1480,-15,285,-32,1,7,11
3.14E+03,-8188,1454,1497,302,-20,344,1,7,11
3.14E+03,-8161,1465,1516,352,-82,170,1,7,11
3.14E+03,-8117,1475,1532,140,101,208,1,7,11
3.14E+03,-8076,1499,1795,194,-263,181,1,7,11
3.14E+03,-8304,1532,1797,217,-321,129,1,7,11
3.14E+03,-8273,1827,1806,230,-362,319,1,7,11
3.14E+03,-8252,1845,1811,226,-130,-10,1,7,11
3.14E+03,-8244,1855,1830,204,-139,-86,1,7,11
3.14E+03,-8234,1855,1842,169,-143,92,1,7,11
3.14E+03,-8232,1848,1850,382,-146,8,1,7,11
3.14E+03,-8235,1833,1859,328,-142,-326,1,7,11
3.14E+03,-8246,1831,1864,270,-132,-134,1,7,11
3.14E+03,-8255,1824,1862,-55,-378,-170,1,7,11
3.14E+03,-8258,1806,1857,125,-363,-182,1,7,11
3.14E+03,-8263,1529,1844,47,-339,-176,1,7,11
3.14E+03,-8265,1504,1854,-283,-312,-159,1,7,11
3.14E+03,-8258,1447,1852,-359,-288,-138,1,7,11
3.14E+03,-8258,1641,1844,-161,-267,-383,1,7,11
3.14E+03,-8267,1577,1837,-193,14,-382,1,7,11
3.14E+03,-8283,1536,1835,-194,41,-379,1,7,11
3.14E+03,-8295,1263,1818,-178,72,-362,1,7,11
3.14E+03,-8069,1267,1813,-148,112,-325,1,7,11
3.14E+03,-8098,1279,1810,-370,-109,3,1,7,11
3.14E+03,-8115,1548,1819,-325,-89,86,1,7,11
3.14E+03,-8115,1566,1835,-275,-81,-91,1,7,11
3.14E+03,-8104,1577,1851,30,-82,-28,1,7,11
3.14E+03,-8074,1604,1847,77,-94,263,1,7,11
3.14E+03,-8294,1645,1853,108,-102,274,1,7,11
3.14E+03,-8281,1420,1865,118,-104,265,1,7,11
3.14E+03,-8298,1459,1881,115,-117,-12,1,7,11
3.15E+03,-8070,1492,1905,99,112,-32,1,7,11
3.15E+03,-8313,1512,1895,83,68,-44,1,7,11
3.15E+03,-8298,1522,1887,59,44,-63,1,7,11
3.15E+03,-8272,1518,1887,38,31,-87,1,7,11
3.15E+03,-8240,1490,1870,12,28,-117,1,7,11
3.15E+03,-8231,1457,1868,-259,41,95,1,7,11
3.15E+03,-8242,1448,1865,8,54,52,1,7,11
3.15E+03,-8245,1448,1862,31,73,30,1,7,11
3.15E+03,-8264,1463,1837,55,100,35,1,7,11
3.15E+03,-8298,1459,1830,73,-126,88,1,7,11
3.15E+03,-8315,1453,1813,99,-111,-127,1,7,11
3.15E+03,-8317,1447,1811,-125,-105,-89,1,7,11
3.15E+03,-8310,1441,1805,-76,-98,-70,1,7,11
3.15E+03,-8315,1451,1808,-41,-103,-67,1,7,11
3.15E+03,-8074,1467,1813,-11,-122,-72,1,7,11
3.15E+03,-8079,1499,1807,275,104,-71,1,7,11
3.15E+03,-8081,1527,1806,291,77,-66,1,7,11
3.15E+03,-8078,1811,1826,301,57,-64,1,7,11
3.15E+03,-8081,1828,1853,301,34,-62,1,7,11
3.15E+03,-8080,1835,1875,294,-259,-73,1,7,11
3.15E+03,-8081,1841,1906,288,-309,-99,1,7,11
3.15E+03,-8313,1837,1686,282,-372,119,1,7,11
3.15E+03,-8285,1833,1703,276,-166,69,1,7,11
3.15E+03,-8251,1831,1709,268,-193,22,1,7,11
3.15E+03,-8213,1827,1715,256,-190,-282,1,7,11
3.15E+03,-8195,1816,1721,-16,-163,-327,1,7,11
3.15E+03,-7930,1794,1726,-37,-382,-365,1,7,11
3.15E+03,-7936,1508,1732,-60,-345,-143,1,7,11
3.15E+03,-8207,1494,1728,-80,-304,-177,1,7,11
3.15E+03,-8230,1479,1729,-96,-271,-194,1,7,11
3.15E+03,-8248,1475,1714,-112,15,-193,1,7,11
3.15E+03,-8261,1460,1699,-128,48,-168,1,7,11
3.15E+03,-8276,1445,1694,113,85,-382,1,7,11
3.15E+03,-8296,1421,1687,100,120,-333,1,7,11
3.15E+03,-8307,1648,1696,108,-112,-281,1,7,11
3.15E+03,-8313,1634,1695,125,-102,18,1,7,11
3.15E+03,-8314,1637,1692,-102,-97,62,1,7,11
3.15E+03,-8302,1649,1694,-75,-101,104,1,7,11
3.15E+03,-8293,1409,1692,-60,-101,-115,1,7,11
3.15E+03,-8305,1419,1705,-51,-99,-91,1,7,11
3.16E+03,-8065,1443,1722,-42,-111,-81,1,7,11
3.16E+03,-8298,1452,1715,-36,115,-77,1,7,11
3.16E+03,-8276,1456,1705,-37,97,-97,1,7,11
3.16E+03,-8248,1467,1687,-36,103,-128,1,7,11
3.16E+03,-8222,1480,1672,-42,122,93,1,7,11
3.16E+03,-8227,1502,1665,-48,-105,62,1,7,11
3.16E+03,-8241,1527,1916,-58,-81,45,1,7,11
3.16E+03,-8244,1804,1903,-72,-53,48,1,7,11
3.16E+03,-8246,1825,1897,-86,-25,63,1,7,11
3.16E+03,-8241,1817,1896,-114,-6,83,1,7,11
3.16E+03,-8251,1531,1899,119,-4,94,1,7,11
3.16E+03,-8243,1496,1890,106,-24,79,1,7,11
3.16E+03,-8231,1456,1861,90,-36,37,1,7,11
3.16E+03,-8233,1430,1818,69,-24,-280,1,7,11
3.16E+03,-8262,1412,1804,47,256,-332,1,7,11
3.16E+03,-8309,1413,1527,41,279,-353,1,7,11
3.16E+03,-8095,1430,1505,50,302,-325,1,7,11
3.16E+03,-8132,1443,1501,65,319,1,1,7,11
3.16E+03,-8156,1461,1519,89,317,106,1,7,11
3.16E+03,-8177,1462,1794,-128,287,-33,1,7,11
3.16E+03,-8178,1469,1815,-75,-25,332,1,7,11
3.16E+03,-8164,1485,1835,-16,-98,155,1,7,11
3.16E+03,-8134,1497,1846,298,80,201,1,7,11
3.16E+03,-8090,1521,1869,347,4,216,1,7,11
3.16E+03,-8297,1804,1883,139,-316,202,1,7,11
3.16E+03,-8251,1833,1889,172,-360,160,1,7,11
3.16E+03,-8215,1862,1896,191,-380,354,1,7,11
3.16E+03,-8202,1896,1900,195,-382,273,1,7,11
3.16E+03,-8197,1669,1908,184,-374,-62,1,7,11
3.16E+03,-8202,1696,1666,157,-373,120,1,7,11
3.16E+03,-8215,1705,1918,361,-374,61,1,7,11
3.16E+03,-8224,1708,1919,286,-374,17,1,7,11
3.16E+03,-8224,1701,1908,-57,-361,-268,1,7,11
3.16E+03,-8220,1684,1896,107,-340,-282,1,7,11
3.16E+03,-8206,1907,1884,16,-308,-288,1,7,11
3.16E+03,-8198,1871,1875,-323,-260,-283,1,7,11
3.16E+03,-8200,1826,1878,-131,47,-273,1,7,11
3.16E+03,-8201,1532,1861,-163,98,-261,1,7,11
3.16E+03,-8211,1520,1851,-171,-104,12,1,7,11
3.16E+03,-8232,1510,1853,-174,-44,40,1,7,11
3.17E+03,-8275,1511,1860,-173,-1,74,1,7,11
3.17E+03,-8310,1528,1874,-166,264,116,1,7,11
3.17E+03,-8076,1798,1872,-156,-13,-96,1,7,11
3.17E+03,-8317,1806,1860,-150,-43,-57,1,7,11
3.17E+03,-8308,1811,1859,-146,-68,-37,1,7,11
3.17E+03,-8299,1813,1875,-142,-92,-28,1,7,11
3.17E+03,-8284,1810,1883,-134,-121,-32,1,7,11
3.17E+03,-8287,1814,1901,-372,104,-49,1,7,11
3.17E+03,-8258,1809,1895,-350,64,-70,1,7,11
3.17E+03,-8217,1793,1886,-324,44,-101,1,7,11
3.17E+03,-8213,1526,1881,-294,52,118,1,7,11
3.17E+03,-8317,1886,1831,264,-55,300,1,7,11
3.17E+03,-8308,1667,1829,296,-64,372,1,7,11
3.17E+03,-8304,1713,1840,318,-80,167,1,7,11
3.17E+03,-8301,1747,1866,328,-110,198,1,7,11
3.17E+03,-8282,1784,1883,337,105,198,1,7,11
3.17E+03,-8264,2079,1907,341,66,176,1,7,11
3.17E+03,-8242,2115,1685,339,21,135,1,7,11
3.17E+03,-8218,2121,1706,318,-289,335,1,7,11
3.17E+03,-7927,2092,1722,294,-355,-1,1,7,11
3.17E+03,-7881,2055,1714,277,-146,-115,1,7,11
3.17E+03,-7866,1782,1681,-1,-156,12,1,7,11
3.17E+03,-7859,1751,1916,-39,-140,-355,1,7,11
3.17E+03,-7885,1716,1894,-79,-353,-176,1,7,11
3.17E+03,-7925,1677,1868,-114,-297,-214,1,7,11
3.17E+03,-8229,1916,1862,-124,17,-207,1,7,11
3.17E+03,-8280,1905,1859,-119,71,-148,1,7,11
3.17E+03,-8066,1906,1877,-95,108,-295,1,7,11
3.17E+03,-8088,1918,1884,-56,119,112,1,7,11
3.17E+03,-8087,1669,1894,-10,114,263,1,7,11
3.17E+03,-8070,1694,1907,296,97,137,1,7,11
3.17E+03,-8292,1719,1669,334,77,230,1,7,11
3.17E+03,-8260,1740,1681,366,52,536,1,7,11
3.17E+03,-8226,1760,1713,129,27,540,1,7,11
3.17E+03,-8200,1782,1726,145,8,247,1,7,11
3.17E+03,-7920,2073,1733,161,-268,173,1,7,11
3.17E+03,-7901,2103,1726,153,-278,342,1,7,11
3.17E+03,-7900,2128,1741,380,-273,-7,1,7,11
3.17E+03,-7924,2163,1755,340,-269,-95,1,7,11
3.17E+03,-8205,1927,1772,289,-289,100,1,7,11
3.18E+03,-8195,1929,1782,-34,-320,64,1,7,11
3.18E+03,-7896,2167,1768,-104,-342,35,1,7,11
3.18E+03,-7854,2134,1748,83,-329,-259,1,7,11
3.18E+03,-7830,2100,1737,16,-288,-302,1,7,11
3.18E+03,-7835,2079,1727,-285,28,-340,1,7,11
3.18E+03,-7852,2080,1724,-315,94,-353,1,7,11
3.18E+03,-7861,2066,1721,-342,-103,-334,1,7,11
3.18E+03,-7859,1766,1696,-373,-62,-307,1,7,11
3.18E+03,-7864,1703,1668,-384,-16,-292,1,7,11
3.18E+03,-7899,1902,1902,-373,294,-296,1,7,11
3.18E+03,-8199,1871,1866,-330,343,-296,1,7,11
3.18E+03,-8243,1867,1832,-269,137,-275,1,7,11
3.18E+03,-8315,1883,1827,54,183,30,1,7,11
3.18E+03,-8119,1918,1819,-115,190,123,1,7,11
3.18E+03,-8154,1708,1820,-22,158,-19,1,7,11
3.18E+03,-8158,1755,1831,312,357,348,1,7,11
3.18E+03,-8143,2051,1847,129,268,185,1,7,11
3.18E+03,-8101,2084,1866,182,-89,237,1,7,11
3.18E+03,-8302,2110,1881,221,61,237,1,7,11
3.18E+03,-8247,2143,1891,252,-292,187,1,7,11
3.18E+03,-8207,1925,1905,532,-364,361,1,7,11
3.18E+03,-7910,1961,1912,543,-163,263,1,7,11
3.18E+03,-7888,1982,1671,534,-190,-99,1,7,11
3.18E+03,-7879,1992,1687,250,-204,55,1,7,11
3.18E+03,-7872,1985,1701,208,-214,-300,1,7,11
3.18E+03,-7867,1970,1706,158,-218,-379,1,7,11
3.18E+03,-7860,1948,1700,350,-206,-186,1,7,11
3.18E+03,-7859,1929,1694,282,-184,-219,1,7,11
3.18E+03,-7859,2162,1673,-48,-141,-224,1,7,11
3.18E+03,-7850,2137,1915,-112,-332,-202,1,7,11
3.18E+03,-7857,2114,1914,86,7,-160,1,7,11
3.18E+03,-7871,2081,1916,39,92,-363,1,7,11
3.18E+03,-7888,2052,1918,12,-90,-309,1,7,11
3.18E+03,-7897,1779,1669,0,-39,0,1,7,11
3.18E+03,-7920,1773,1666,-262,256,41,1,7,11
3.18E+03,-8207,1782,1908,-265,275,69,1,7,11
3.18E+03,-8231,1790,1895,-271,279,94,1,7,11
3.18E+03,-8248,2056,1889,-277,263,114,1,7,11
3.18E+03,-8244,1790,1886,-288,-14,-128,1,7,11
3.18E+03,-8235,1769,1884,-292,-47,126,1,7,11
3.19E+03,-8211,1743,1877,-278,-86,101,1,7,11
3.19E+03,-8205,1724,1862,1,-109,60,1,7,11
3.19E+03,-8216,1719,1844,35,-117,13,1,7,11
3.19E+03,-8262,1746,1847,85,-114,-274,1,7,11
3.19E+03,-8301,2052,1844,-115,125,0,1,7,11
3.19E+03,-8315,2118,1840,-73,114,56,1,7,11
3.19E+03,-8082,2144,1855,-44,102,-122,1,7,11
3.19E+03,-8068,2159,1873,-23,62,-52,1,7,11
3.19E+03,-8299,2163,1894,-10,2,-13,1,7,11
3.19E+03,-8268,1920,1669,-2,-364,-28,1,7,11
3.19E+03,-8208,1940,1679,256,-172,-70,1,7,11
3.19E+03,-7907,1957,1693,-6,-204,-125,1,7,11
3.19E+03,-7880,1971,1713,-18,-210,74,1,7,11
3.19E+03,-7862,1979,1741,-42,-211,24,1,7,11
3.19E+03,-7856,1979,1768,-56,-197,-280,1,7,11
3.19E+03,-7847,1977,1780,-71,-186,-321,1,7,11
3.19E+03,-7842,1970,1789,-97,-162,-363,1,7,11
3.19E+03,-7842,1957,2053,119,-138,-142,1,7,11
3.19E+03,-7848,1932,1783,71,-365,-175,1,7,11
3.19E+03,-7842,2159,1758,20,-329,-206,1,7,11
3.19E+03,-7847,2128,1732,-292,-274,-227,1,7,11
3.19E+03,-7872,2079,1733,-343,55,-239,1,7,11
3.19E+03,-7903,1784,1733,-377,123,-234,1,7,11
3.19E+03,-8196,1742,1732,-134,-82,-215,1,7,11
3.19E+03,-8226,1720,1747,-131,-58,-182,1,7,11
3.19E+03,-8246,1699,1751,-382,-57,-136,1,7,11
3.19E+03,-8251,1681,1745,-377,-65,-344,1,7,11
3.19E+03,-8244,1903,1733,-371,-71,-299,1,7,11
3.19E+03,-8248,1883,1732,-352,-71,-267,1,7,11
3.19E+03,-8257,1878,1735,-322,-77,15,1,7,11
3.19E+03,-8270,1880,1749,-287,-96,46,1,7,11
3.19E+03,-8280,1880,1771,6,-126,80,1,7,11
3.19E+03,-8264,1887,1785,45,89,107,1,7,11
3.19E+03,-8242,1895,1791,83,58,117,1,7,11
3.19E+03,-8206,1672,1778,121,46,118,1,7,11
3.19E+03,-8213,1719,1787,-110,61,113,1,7,11
3.19E+03,-8209,1744,2057,-98,85,125,1,7,11
3.19E+03,-7934,1754,2055,-102,100,-125,1,7,11
3.19E+03,-7903,1758,2056,-99,114,121,1,7,11
3.19E+03,-7891,1758,2051,-98,-118,91,1,7,11
3.20E+03,-7886,1769,1787,-90,-89,56,1,7,11
3.20E+03,-7875,1789,1771,-82,-77,32,1,7,11
3.20E+03,-7871,2049,1745,-87,-58,20,1,7,11
3.20E+03,-7882,1782,1725,-111,-30,9,1,7,11
3.20E+03,-7915,1775,1699,115,-6,-260,1,7,11
3.20E+03,-8202,1767,1673,79,-1,-267,1,7,11
3.20E+03,-8208,1732,1917,44,-6,-273,1,7,11
3.20E+03,-8229,1698,1905,23,-7,-284,1,7,11
3.20E+03,-8242,1684,1878,36,-13,-299,1,7,11
3.20E+03,-8265,1691,1869,63,-10,-299,1,7,11
3.20E+03,-8300,1707,1873,104,-5,-273,1,7,11
3.20E+03,-8078,1728,1880,-98,-23,46,1,7,11
3.20E+03,-8087,1732,1904,-44,-64,-126,1,7,11
3.20E+03,-8073,1747,1909,273,-119,-52,1,7,11
3.20E+03,-8318,1761,1672,319,77,-1,1,7,11
3.20E+03,-8288,1787,1678,353,9,285,1,7,11
3.20E+03,-8270,2076,1694,371,-307,297,1,7,11
3.20E+03,-8224,2101,1699,375,-358,294,1,7,11
3.20E+03,-7934,2131,1702,368,-129,276,1,7,11
3.20E+03,-7916,2148,1725,345,-133,-11,1,7,11
3.20E+03,-7902,2167,1741,320,-136,-42,1,7,11
3.20E+03,-7897,2171,1758,290,-131,-74,1,7,11
3.20E+03,-7884,2170,1766,259,-379,-114,1,7,11
3.20E+03,-7878,2175,1768,-31,-360,106,1,7,11
3.20E+03,-7862,2140,1781,-127,-314,45,1,7,11
3.20E+03,-7843,2120,1770,75,-279,18,1,7,11
3.20E+03,-7844,2099,1754,16,27,-265,1,7,11
3.20E+03,-7845,2077,1739,-292,86,-284,1,7,11
3.20E+03,-7850,2055,1716,-328,-108,-284,1,7,11
3.20E+03,-7878,1765,1702,-358,-41,-265,1,7,11
3.20E+03,-7901,1723,1689,-374,265,25,1,7,11
3.20E+03,-8197,1692,1685,-367,303,64,1,7,11
3.20E+03,-8221,1667,1671,-339,319,104,1,7,11
3.20E+03,-8237,1916,1909,-287,330,-113,1,7,11
3.20E+03,-8252,1676,1901,33,339,-66,1,7,11
3.20E+03,-8274,1711,1904,103,337,-14,1,7,11
3.20E+03,-8293,1747,1904,-90,314,296,1,7,11
3.20E+03,-8296,1789,1908,-37,274,338,1,7,11
3.20E+03,-8303,2092,1917,258,-38,357,1,7,11
3.20E+03,-8297,2133,1681,283,-109,356,1,7,11
3.21E+03,-8275,2175,1691,298,66,333,1,7,11
3.21E+03,-8239,1941,1718,300,-267,295,1,7,11
3.21E+03,-7934,1963,1740,309,-365,-43,1,7,11
3.21E+03,-7893,1972,1752,313,-151,-95,1,7,11
3.21E+03,-7853,1979,1763,309,-166,113,1,7,11
3.21E+03,-7821,1967,1759,293,-155,61,1,7,11
3.21E+03,-7812,1946,1768,275,-133,11,1,7,11
3.21E+03,-7818,2169,1767,-5,-354,-290,1,7,11
3.21E+03,-7831,2144,1734,-20,-315,-326,1,7,11
3.21E+03,-7848,2131,1702,-36,3,-344,1,7,11
3.21E+03,-7882,2119,1673,-57,85,-330,1,7,11
3.21E+03,-7922,2108,1901,-74,-92,-287,1,7,11
3.21E+03,-8248,2104,1909,-75,-29,42,1,7,11
3.21E+03,-8275,2114,1901,-68,-2,-115,1,7,11
3.21E+03,-8273,2131,1897,-43,256,-7,1,7,11
3.21E+03,-8273,2162,1908,-19,-6,349,1,7,11
3.21E+03,-8259,1941,1905,264,-27,204,1,7,11
3.21E+03,-8237,1980,1916,287,-64,236,1,7,11
3.21E+03,-8216,2020,1687,303,-118,233,1,7,11
3.21E+03,-7927,2310,1699,309,76,196,1,7,11
3.21E+03,-7907,2349,1722,307,-8,379,1,7,11
3.21E+03,-7895,2370,1755,290,-316,283,1,7,11
3.21E+03,-7890,2391,2051,257,-368,-77,1,7,11
3.21E+03,-7880,2398,2079,-34,-165,80,1,7,11
3.21E+03,-7851,2394,2095,-78,-206,-270,1,7,11
3.21E+03,-7828,2372,2109,-125,-226,-354,1,7,11
3.21E+03,-8056,2339,2103,80,-220,-168,1,7,11
3.21E+03,-8036,2308,2084,27,-189,-229,1,7,11
3.21E+03,-8018,2021,2065,-287,-380,-536,1,7,11
3.21E+03,-8011,1997,1790,-349,-293,-566,1,7,11
3.21E+03,-8018,1968,1779,-160,59,-567,1,7,11
3.21E+03,-8037,1934,1756,-212,-103,-545,1,7,11
3.21E+03,-7818,2144,1742,-517,-12,-254,1,7,11
3.21E+03,-7851,2090,1722,-554,311,-213,1,7,11
3.21E+03,-7885,1790,1684,-573,370,-178,1,7,11
3.21E+03,-7928,1742,1913,-579,176,-149,1,7,11
3.21E+03,-8252,1718,1896,-556,231,-376,1,7,11
3.21E+03,-8315,1705,1894,-517,519,-324,1,7,11
3.21E+03,-8116,1702,1901,-198,512,-262,1,7,11
3.21E+03,-8141,1705,1909,-370,199,73,1,7,11
3.22E+03,-8148,1711,1675,-275,369,-112,1,7,11
3.22E+03,-8132,1730,1687,80,-6,-57,1,7,11
3.22E+03,-8092,1743,1704,-79,122,-25,1,7,11
3.22E+03,-8314,1772,1719,269,2,-21,1,7,11
3.22E+03,-8275,2061,1743,350,-363,-32,1,7,11
3.22E+03,-8229,2104,1768,169,-208,-56,1,7,11
3.22E+03,-7936,2153,1770,218,-533,-91,1,7,11
3.22E+03,-7903,1942,1779,234,-575,-126,1,7,11
3.22E+03,-7884,1975,2058,212,-602,88,1,7,11
3.22E+03,-7872,1997,2076,168,-621,44,1,7,11
3.22E+03,-7864,2002,2092,361,-635,5,1,7,11
3.22E+03,-7836,1991,2106,278,-633,-282,1,7,11
3.22E+03,-7812,1967,2106,-67,-605,-315,1,7,11
3.22E+03,-8049,1945,2099,109,-551,-346,1,7,11
3.22E+03,-8025,1922,2068,42,-208,-367,1,7,11
3.22E+03,-8035,1923,2063,-269,-344,-369,1,7,11
3.22E+03,-8058,1924,2058,-315,33,-337,1,7,11
3.22E+03,-7826,1920,2054,-356,-111,-277,1,7,11
3.22E+03,-7861,2164,2063,-134,-13,52,1,7,11
3.22E+03,-7905,2154,2074,-162,303,116,1,7,11
3.22E+03,-8199,2142,2073,-188,316,-87,1,7,11
3.22E+03,-7936,2115,2056,-226,282,-56,1,7,11
3.22E+03,-7931,2079,2069,-244,258,-69,1,7,11
3.22E+03,-7932,1789,2080,-235,-33,-102,1,7,11
3.22E+03,-7931,1756,2089,-209,-69,117,1,7,11
3.22E+03,-7929,1739,2096,-168,-100,83,1,7,11
3.22E+03,-7920,1735,2100,-361,-128,57,1,7,11
3.22E+03,-7913,1756,2086,-290,116,48,1,7,11
3.22E+03,-7908,1776,2072,29,116,64,1,7,11
3.22E+03,-7918,2073,2063,87,-126,94,1,7,11
3.22E+03,-7932,2111,2066,-125,-109,-111,1,7,11
3.22E+03,-8201,2142,2059,-82,-96,-53,1,7,11
3.22E+03,-8203,1931,2050,-43,-91,265,1,7,11
3.22E+03,-8201,1968,2057,-18,-97,318,1,7,11
3.22E+03,-8196,2006,2060,-3,-109,351,1,7,11
3.22E+03,-7921,2042,2050,257,124,353,1,7,11
3.22E+03,-7898,2332,2050,-3,101,322,1,7,11
3.22E+03,-7887,2371,1782,-19,85,259,1,7,11
3.22E+03,-7885,2407,2061,-44,67,-74,1,7,11
3.22E+03,-7883,2421,2098,-69,35,108,1,7,11
3.23E+03,-7866,2402,2112,-95,-273,34,1,7,11
3.23E+03,-7830,2364,2109,-120,-326,-306,1,7,11
3.23E+03,-7814,2325,2110,117,-349,-146,1,7,11
3.23E+03,-7817,2025,2114,96,-357,-236,1,7,11
3.23E+03,-7823,1991,2109,88,-354,-560,1,7,11
3.23E+03,-7825,1953,2091,81,-336,-599,1,7,11
3.23E+03,-7854,2173,2084,78,-295,-611,1,7,11
3.23E+03,-7865,2130,2083,77,-257,-592,1,7,11
3.23E+03,-7907,2092,2080,84,38,-560,1,7,11
3.23E+03,-7928,2049,2079,94,59,-254,1,7,11
3.23E+03,-8223,1770,2090,122,89,-201,1,7,11
3.23E+03,-8249,1783,2092,-88,103,-377,1,7,11
3.23E+03,-8234,2070,2074,-46,110,-273,1,7,11
3.23E+03,-8213,2107,2062,-22,-120,91,1,7,11
3.23E+03,-7936,2141,2067,-16,-89,-68,1,7,11
3.23E+03,-7917,2158,2066,-28,-71,-2,1,7,11
3.23E+03,-7903,2158,2085,-46,-72,277,1,7,11
3.23E+03,-7901,2159,2106,-62,-89,258,1,7,11
3.23E+03,-7902,2164,2122,-73,-120,-46,1,7,11
3.23E+03,-7884,1923,2124,-91,103,-109,1,7,11
3.23E+03,-7886,1936,2133,-115,81,80,1,7,11
3.23E+03,-7891,1947,2130,117,66,25,1,7,11
3.23E+03,-7893,1942,2135,93,54,-274,1,7,11
3.23E+03,-7883,1923,2144,65,42,-308,1,7,11
3.23E+03,-7848,2098,2149,31,30,-373,1,7,11
3.23E+03,-7841,2062,2147,16,25,-173,1,7,11
3.23E+03,-7851,2054,2132,10,32,-210,1,7,11
3.23E+03,-7871,1787,2110,3,42,-207,1,7,11
3.23E+03,-7861,1770,2084,-270,54,-180,1,7,11
3.23E+03,-7876,1748,2061,-285,96,-142,1,7,11
3.23E+03,-7898,1730,1788,-299,-111,-351,1,7,11
3.23E+03,-8201,1724,1787,-311,-65,-306,1,7,11
3.23E+03,-8236,1720,1786,-326,-43,12,1,7,11
3.23E+03,-8265,1719,1785,-322,-38,78,1,7,11
3.23E+03,-8264,1717,1776,-304,-47,-112,1,7,11
3.23E+03,-8274,1712,2059,-273,-54,-62,1,7,11
3.23E+03,-8282,1705,2080,30,-77,-28,1,7,11
3.23E+03,-8274,1715,2103,101,-120,-6,1,7,11
3.23E+03,-8262,1719,2123,-79,84,261,1,7,11
3.23E+03,-8249,1733,2145,263,25,264,1,7,11
3.24E+03,-8220,1758,2152,351,-298,262,1,7,11
3.24E+03,-7934,1790,2151,172,-348,-5,1,7,11
3.24E+03,-7905,2083,2145,232,-378,-20,1,7,11
3.24E+03,-7891,2130,2146,529,-131,-29,1,7,11
3.24E+03,-7886,1923,2148,547,-383,-28,1,7,11
3.24E+03,-7883,1945,2157,531,-377,-19,1,7,11
3.24E+03,-7875,1956,2169,255,-370,-14,1,7,11
3.24E+03,-7863,1972,1923,233,-361,-21,1,7,11
3.24E+03,-7844,1969,1934,193,-350,-36,1,7,11
3.24E+03,-7850,1976,1952,153,-337,-69,1,7,11
3.24E+03,-7858,1973,1957,355,-329,-98,1,7,11
3.24E+03,-7862,1980,1956,302,-330,-124,1,7,11
3.24E+03,-7850,1985,1937,-16,-334,124,1,7,11
3.24E+03,-7823,1969,1926,-86,-320,120,1,7,11
3.24E+03,-8058,1962,2152,117,-277,109,1,7,11
3.24E+03,-8039,1963,2132,71,46,102,1,7,11
3.24E+03,-8050,1966,2125,32,122,94,1,7,11
3.24E+03,-7824,1978,2130,11,-63,96,1,7,11
3.24E+03,-7844,1995,2128,2,-26,116,1,7,11
3.24E+03,-7837,2011,2095,-264,-6,-122,1,7,11
3.24E+03,-7832,2016,2072,-278,275,-120,1,7,11
3.24E+03,-7846,2001,2059,-303,301,-127,1,7,11
3.24E+03,-7863,1990,1787,-325,315,110,1,7,11
3.24E+03,-7881,1976,1772,-346,320,79,1,7,11
3.24E+03,-7916,1963,1753,-364,324,48,1,7,11
3.24E+03,-7938,1933,1756,-381,320,31,1,7,11
3.24E+03,-8223,2173,1760,-383,320,16,1,7,11
3.24E+03,-8245,2169,1787,-367,311,23,1,7,11
3.24E+03,-8262,2164,2063,-331,288,72,1,7,11
3.24E+03,-8252,2169,2086,-277,-7,119,1,7,11
3.24E+03,-8243,1922,2099,73,-84,-97,1,7,11
3.24E+03,-8221,1945,2099,-115,116,-64,1,7,11
3.24E+03,-8194,1981,2098,-56,71,-41,1,7,11
3.24E+03,-7899,2010,2100,-10,38,-25,1,7,11
3.24E+03,-7877,2308,2101,285,16,-20,1,7,11
3.24E+03,-7860,2350,2100,306,0,-13,1,7,11
3.24E+03,-7835,2382,2107,301,-276,-23,1,7,11
3.24E+03,-7831,2404,2122,277,-287,-53,1,7,11
3.24E+03,-7829,2414,2137,-16,-305,-93,1,7,11
3.24E+03,-7811,2416,2136,-66,-317,104,1,7,11
3.25E+03,-7812,2413,2144,-127,-318,39,1,7,11
3.25E+03,-7816,2416,2145,60,-312,-275,1,7,11
3.25E+03,-7814,2406,2136,-279,-305,-320,1,7,11
3.25E+03,-8063,2366,2117,-366,-286,-358,1,7,11
3.25E+03,-8057,2329,2106,-192,3,-142,1,7,11
3.25E+03,-8057,2026,2091,-519,52,-178,1,7,11
3.25E+03,-7823,1990,2082,-574,114,-201,1,7,11
3.25E+03,-7838,1941,2075,-610,-85,-203,1,7,11
3.25E+03,-7857,2172,2067,-608,-26,-185,1,7,11
3.25E+03,-7875,2155,2055,-579,286,-145,1,7,11
3.25E+03,-7899,2152,1784,-535,339,-346,1,7,11
3.25E+03,-8193,2154,1788,-245,371,-288,1,7,11
3.25E+03,-8232,2147,2060,-219,357,17,1,7,11
3.25E+03,-8246,2137,2072,-196,305,53,1,7,11
3.25E+03,-8233,2115,2069,-172,-31,70,1,7,11
3.25E+03,-8201,2116,2063,-380,-105,62,1,7,11
3.25E+03,-7902,2130,2071,-333,112,47,1,7,11
3.25E+03,-7866,2157,2083,-284,105,31,1,7,11
3.25E+03,-8059,1974,2105,18,121,40,1,7,11
3.25E+03,-8036,1992,2146,32,-88,43,1,7,11
3.25E+03,-8003,2027,1924,14,-25,33,1,7,11
3.25E+03,-7981,2014,1941,-308,289,3,1,7,11
3.25E+03,-7965,1987,1959,-132,354,-300,1,7,11
3.25E+03,-8028,1968,1965,-213,190,-368,1,7,11
3.25E+03,-8044,1937,1951,-524,518,-159,1,7,11
3.25E+03,-7824,2174,1954,-564,384,-198,1,7,11
3.25E+03,-7836,2136,1940,-566,437,-191,1,7,11
3.25E+03,-7850,2102,1933,-542,475,-191,1,7,11
3.25E+03,-7858,2070,1922,-243,490,-196,1,7,11
3.25E+03,-7876,1790,2166,-180,487,-213,1,7,11
3.25E+03,-7893,2049,2125,-369,472,-231,1,7,11
3.25E+03,-7893,2060,2066,-307,459,-234,1,7,11
3.25E+03,-7879,2066,1763,-268,461,-226,1,7,11
3.25E+03,-7904,2081,1730,22,479,-205,1,7,11
3.25E+03,-7920,2094,1683,37,484,-163,1,7,11
3.25E+03,-7926,2114,1897,35,490,-366,1,7,11
3.25E+03,-7931,2128,1851,7,507,-303,1,7,11
3.25E+03,-8206,2139,1813,-305,792,9,1,7,11
3.25E+03,-8246,2164,1526,-374,824,68,1,7,11
3.25E+03,-8265,1931,1493,-194,856,-117,1,7,11
3.26E+03,-8277,1951,1477,-557,885,-54,1,7,11
3.26E+03,-8307,1940,1480,-428,660,-5,1,7,11
3.26E+03,-8311,1924,1489,-802,654,287,1,7,11
3.26E+03,-8265,2159,1474,-654,644,282,1,7,11
3.26E+03,-8241,2145,1481,-757,652,-26,1,7,11
3.26E+03,-8214,2131,1485,-1107,649,-90,1,7,11
3.26E+03,-7926,2110,1485,-934,645,87,1,7,11
3.26E+03,-7918,2088,1478,-1004,644,5,1,7,11
3.26E+03,-7911,1789,1471,-1316,893,-326,1,7,11
3.26E+03,-7916,1727,1462,-1342,888,-140,1,7,11
3.26E+03,-7923,1892,1454,-1346,885,-204,1,7,11
3.26E+03,-8201,1797,1458,-1287,877,-528,1,7,11
3.26E+03,-8249,1489,1460,-1145,866,-594,1,7,11
3.26E+03,-8310,1496,1435,-685,839,-640,1,7,11
3.26E+03,-8078,1535,1654,-471,786,-388,1,7,11
3.26E+03,-8105,1836,1629,-536,481,-385,1,7,11
3.26E+03,-8134,1854,1617,-380,412,-624,1,7,11
3.26E+03,-8153,1852,1607,17,575,-615,1,7,11
3.26E+03,-8191,1859,1614,-105,212,-614,1,7,11
3.26E+03,-8474,1862,1637,280,319,-607,1,7,11
3.26E+03,-8483,1866,1638,157,-110,-592,1,7,11
3.26E+03,-8190,1870,1631,533,-271,-563,1,7,11
3.26E+03,-8159,1854,1663,637,-141,-540,1,7,11
3.26E+03,-8150,1824,1453,491,-246,-528,1,7,11
3.26E+03,-8142,1806,1495,882,-611,-256,1,7,11
3.26E+03,-8107,1535,1513,1028,-467,-235,1,7,11
3.26E+03,-8076,1528,1792,927,-805,-234,1,7,11
3.26E+03,-8320,1517,1820,1319,-865,-236,1,7,11
3.26E+03,-8065,1491,1865,1197,-669,-250,1,7,11
3.26E+03,-8310,1486,1886,1607,-733,-556,1,7,11
3.26E+03,-8320,1504,1903,1501,-1046,-619,1,7,11
3.26E+03,-8310,1525,1919,1891,-1118,-412,1,7,11
3.26E+03,-8307,1535,1664,1744,-926,-448,1,7,11
3.26E+03,-8070,1530,1674,2095,-981,-472,1,7,11
3.26E+03,-8110,1515,1692,1921,-1316,-475,1,7,11
3.26E+03,-8115,1484,1698,1995,-1185,-466,1,7,11
3.26E+03,-8135,1462,1717,2313,-1561,-482,1,7,11
3.26E+03,-8124,1449,1725,2363,-1443,-485,1,7,11
3.26E+03,-8093,1434,1735,2407,-1820,-492,1,7,11
3.26E+03,-8085,1427,1760,2188,-1668,-485,1,7,11
3.27E+03,-8300,1635,2064,2234,-1775,-451,1,7,11
3.27E+03,-8070,1611,2111,2603,-2119,-430,1,7,11
3.27E+03,-8295,1570,2134,2485,-1978,-630,1,7,11
3.27E+03,-8270,1572,2116,2932,-2312,-602,1,7,11
3.27E+03,-8244,1551,2080,3079,-2326,-590,1,7,11
3.27E+03,-8264,1530,1757,3199,-2019,-625,1,7,11
3.27E+03,-8320,1270,1722,3011,-2158,-440,1,7,11
3.27E+03,-8123,1258,1890,3020,-1744,-786,1,7,11
3.27E+03,-8166,1274,1818,2972,-1805,-884,1,7,11
3.27E+03,-8510,1272,1792,3117,-1584,-708,1,7,11
3.27E+03,-8339,1259,1530,2711,-1404,-736,1,7,11
3.27E+03,-8346,1219,1793,2536,-1284,-730,1,7,11
3.27E+03,-8557,1186,1797,2615,-926,-732,1,7,11
3.27E+03,-8474,1152,1811,2428,-1089,-733,1,7,11
3.27E+03,-8107,1382,1827,1980,-739,-743,1,7,11
3.27E+03,-8253,1357,1830,1778,-892,-761,1,7,11
3.27E+03,-8197,1376,1807,1848,-509,-1039,1,7,11
3.27E+03,-7927,1385,1795,1654,-623,-1027,1,7,11
3.27E+03,-8205,1400,1533,1184,-205,-723,1,7,11
3.27E+03,-8257,1404,1819,966,-302,-895,1,7,11
3.27E+03,-8296,1382,1872,1027,68,-779,1,7,11
3.27E+03,-8314,1342,1900,864,-114,-410,1,7,11
3.27E+03,-8078,1316,1896,482,-68,-574,1,7,11
3.27E+03,-8065,1311,1873,632,-35,-250,1,7,11
3.27E+03,-8307,1310,1827,524,275,-217,1,7,11
3.27E+03,-8070,1308,1822,147,363,-215,1,7,11
3.27E+03,-8159,1284,1827,193,217,-233,1,7,11
3.27E+03,-8172,1007,1824,52,236,-517,1,7,11
3.27E+03,-8136,969,1820,-354,233,-562,1,7,11
3.27E+03,-8121,943,1805,-238,236,-636,1,7,11
3.27E+03,-8113,904,1530,-393,246,-465,1,7,11
3.27E+03,-8107,1126,1533,-810,514,-814,1,7,11
3.27E+03,-8082,1085,1535,-716,250,-651,1,7,11
3.27E+03,-8097,766,1836,-1133,255,-749,1,7,11
3.27E+03,-8160,717,1894,-1006,239,-1082,1,7,11
3.27E+03,-8182,645,1681,-1381,186,-1131,1,7,11
3.27E+03,-8464,843,1716,-1212,135,-919,1,7,11
3.27E+03,-8164,789,1727,-1542,333,-938,1,7,11
3.27E+03,-8147,497,1736,-1603,332,-961,1,7,11
3.27E+03,-8131,479,1758,-1659,354,-949,1,7,11
3.28E+03,-8097,447,1785,-1452,131,-921,1,7,11
3.28E+03,-8088,432,2066,-1484,184,-1138,1,7,11
3.28E+03,-8306,407,2085,-1512,225,-1079,1,7,11
3.28E+03,-8314,387,2141,-1504,578,-686,1,7,11
3.28E+03,-8075,426,2151,-1481,611,-833,1,7,11
3.28E+03,-8102,462,2158,-1482,639,-428,1,7,11
3.28E+03,-8124,465,2167,-1505,411,-517,1,7,11
3.28E+03,-8136,467,2173,-1523,448,-356,1,7,11
3.28E+03,-8142,451,1943,-1536,478,41,1,7,11
3.28E+03,-8124,438,1947,-1530,504,-104,1,7,11
3.28E+03,-8130,445,1963,-1510,784,-23,1,7,11
3.28E+03,-8140,470,1965,-1476,785,301,1,7,11
3.28E+03,-8128,491,1948,-1445,510,365,1,7,11
3.28E+03,-8121,776,1949,-1662,473,180,1,7,11
3.28E+03,-8131,780,1967,-1610,431,218,1,7,11
3.28E+03,-8146,770,1979,-1545,603,252,1,7,11
3.28E+03,-8146,500,2011,-1178,530,539,1,7,11
3.28E+03,-8153,480,2318,-1149,207,574,1,7,11
3.28E+03,-8108,471,2332,-866,134,622,1,7,11
3.28E+03,-8314,476,2335,-548,355,390,1,7,11
3.28E+03,-8282,770,2320,36,345,638,1,7,11
3.28E+03,-8274,829,2021,333,344,596,1,7,11
3.28E+03,-8067,664,1974,574,362,531,1,7,11
3.28E+03,-8118,1045,1922,473,359,220,1,7,11
3.28E+03,-8164,911,2123,781,336,181,1,7,11
3.28E+03,-8454,1008,2088,469,287,162,1,7,11
3.28E+03,-8175,1301,2077,582,-48,144,1,7,11
3.28E+03,-8144,1283,2082,377,119,343,1,7,11
3.28E+03,-8088,1000,2080,-88,17,-21,1,7,11
3.28E+03,-8308,991,2072,-310,-330,88,1,7,11
3.28E+03,-8286,948,2075,-568,-147,-323,1,7,11
3.28E+03,-8260,1132,2070,-840,-203,-222,1,7,11
3.28E+03,-8253,1041,2065,-1098,-218,-627,1,7,11
3.28E+03,-8259,692,2057,-1296,-198,-500,1,7,11
3.28E+03,-8272,880,1789,-1170,-143,-845,1,7,11
3.28E+03,-8303,835,1768,-1243,-304,-871,1,7,11
3.28E+03,-8109,807,1770,-1248,56,-813,1,7,11
3.28E+03,-8174,791,1787,-1193,-116,-426,1,7,11
3.28E+03,-8513,778,2061,-1344,-55,-242,1,7,11
3.28E+03,-8548,507,2071,-944,-49,-285,1,7,11
3.29E+03,-8542,507,2074,-1031,-73,-81,1,7,11
3.29E+03,-8508,779,2064,-857,-104,339,1,7,11
3.29E+03,-8468,797,2067,-443,122,189,1,7,11
3.29E+03,-8175,844,2050,-554,86,232,1,7,11
3.29E+03,-8135,649,1772,-186,57,234,1,7,11
3.29E+03,-8116,706,1761,-368,48,206,1,7,11
3.29E+03,-8108,1025,1752,-326,41,166,1,7,11
3.29E+03,-8104,1069,1754,-320,45,378,1,7,11
3.29E+03,-8090,1094,1777,-336,53,328,1,7,11
3.29E+03,-8112,1129,2065,-361,66,-10,1,7,11
3.29E+03,-8132,1131,2107,-149,36,-57,1,7,11
3.29E+03,-8133,1105,2143,-208,-279,-98,1,7,11
3.29E+03,-8124,1028,2146,-539,-344,124,1,7,11
3.29E+03,-8113,701,2126,-601,-133,78,1,7,11
3.29E+03,-8105,671,2097,-602,-136,37,1,7,11
3.29E+03,-8110,644,2082,-595,-358,20,1,7,11
3.29E+03,-8134,891,2091,-589,-317,26,1,7,11
3.29E+03,-8158,886,2112,-595,-291,50,1,7,11
3.29E+03,-8175,871,2139,-610,-296,81,1,7,11
3.29E+03,-8159,844,2161,-628,-323,103,1,7,11
3.29E+03,-8138,808,1922,-386,-343,97,1,7,11
3.29E+03,-8130,797,1957,-389,-364,67,1,7,11
3.29E+03,-8122,814,1983,-635,-131,35,1,7,11
3.29E+03,-8107,845,1996,-623,-156,23,1,7,11
3.29E+03,-8074,851,1984,-623,-171,32,1,7,11
3.29E+03,-8296,844,1973,-624,-160,44,1,7,11
3.29E+03,-8267,831,1964,-619,-373,47,1,7,11
3.29E+03,-8280,821,1961,-597,-312,58,1,7,11
3.29E+03,-8293,825,1943,-549,3,86,1,7,11
3.29E+03,-8291,828,1934,-232,74,-127,1,7,11
3.29E+03,-8314,841,1931,-164,-104,-73,1,7,11
3.29E+03,-8092,850,1944,-345,-43,-6,1,7,11
3.29E+03,-8135,877,1962,-276,-19,314,1,7,11
3.29E+03,-8165,652,1984,22,-45,374,1,7,11
3.29E+03,-8169,660,1988,29,-105,166,1,7,11
3.29E+03,-8182,659,2004,30,76,192,1,7,11
3.29E+03,-8160,667,2002,40,-263,206,1,7,11
3.29E+03,-8119,671,1976,56,-327,210,1,7,11
3.29E+03,-8071,679,1957,75,-345,213,1,7,11
3.29E+03,-8281,678,1930,102,-325,208,1,7,11
3.30E+03,-8288,686,1934,-117,-274,187,1,7,11
3.30E+03,-8085,706,1953,-79,22,170,1,7,11
3.30E+03,-8147,737,1965,-52,18,171,1,7,11
3.30E+03,-8178,764,1971,-50,-263,180,1,7,11
3.30E+03,-8182,1056,1988,-49,-281,192,1,7,11
3.30E+03,-8175,1096,2027,-36,-275,215,1,7,11
3.30E+03,-8168,1148,2335,-5,-266,512,1,7,11
3.30E+03,-8145,920,2370,294,-271,579,1,7,11
3.30E+03,-8101,928,2179,337,-302,636,1,7,11
3.30E+03,-8283,910,2203,375,-351,398,1,7,11
3.30E+03,-7920,900,2183,156,-142,608,1,7,11
3.30E+03,-7851,902,2416,181,-135,255,1,7,11
3.30E+03,-7855,969,2376,190,-351,143,1,7,11
3.30E+03,-7896,1000,2362,175,-303,316,1,7,11
3.30E+03,-8209,1286,2344,361,-267,279,1,7,11
3.30E+03,-8229,989,2340,-4,3,269,1,7,11
3.30E+03,-8242,903,2330,-106,21,-25,1,7,11
3.30E+03,-8245,1090,2284,92,50,-102,1,7,11
3.30E+03,-8249,1080,1969,83,100,64,1,7,11
3.30E+03,-8264,1104,1936,73,-74,6,1,7,11
3.30E+03,-8065,1132,1924,50,272,-265,1,7,11
3.30E+03,-8128,1145,1927,33,320,18,1,7,11
3.30E+03,-8160,1126,1925,34,320,68,1,7,11
3.30E+03,-8180,1121,1930,57,293,125,1,7,11
3.30E+03,-8173,1128,1920,95,-9,-83,1,7,11
3.30E+03,-8154,918,1923,-107,-56,-47,1,7,11
3.30E+03,-8137,976,1940,-13,-115,266,1,7,11
3.30E+03,-8111,1297,1945,306,100,319,1,7,11
3.30E+03,-8093,1357,1961,352,65,377,1,7,11
3.30E+03,-8081,1389,1974,382,38,175,1,7,11
3.30E+03,-8067,1172,1972,154,24,200,1,7,11
3.30E+03,-8304,1202,1972,162,23,199,1,7,11
3.30E+03,-8287,1227,1977,152,26,176,1,7,11
3.30E+03,-8276,1249,1994,383,23,142,1,7,11
3.30E+03,-8272,1265,2005,350,14,360,1,7,11
3.30E+03,-8277,1279,2013,305,-261,321,1,7,11
3.30E+03,-8277,1547,1988,256,-278,281,1,7,11
3.30E+03,-8263,1549,1973,-73,-294,-10,1,7,11
3.30E+03,-8220,1270,1945,100,-291,-49,1,7,11
3.30E+03,-8223,1234,1930,18,11,-96,1,7,11
3.31E+03,-8243,1186,2172,-298,65,122,1,7,11
3.31E+03,-8274,1406,1925,-328,-126,85,1,7,11
3.31E+03,-8301,1378,1946,-343,-69,60,1,7,11
3.31E+03,-8319,1340,1971,-347,-44,47,1,7,11
3.31E+03,-8071,1305,1995,-341,-54,36,1,7,11
3.31E+03,-8076,1291,2014,-326,-86,24,1,7,11
3.31E+03,-8075,1286,2018,-293,127,22,1,7,11
3.31E+03,-8315,1311,1992,2,101,33,1,7,11
3.31E+03,-8285,1336,1962,19,107,69,1,7,11
3.31E+03,-8290,1351,1949,25,-114,115,1,7,11
3.31E+03,-8282,1362,1940,29,-84,-94,1,7,11
3.31E+03,-8297,1359,1937,29,-57,-53,1,7,11
3.31E+03,-8070,1344,1946,29,-47,-25,1,7,11
3.31E+03,-8083,1334,1954,41,-63,-20,1,7,11
3.31E+03,-8097,1330,1961,45,-86,-38,1,7,11
3.31E+03,-8110,1322,1974,43,122,-71,1,7,11
3.31E+03,-8103,1329,1973,34,56,-118,1,7,11
3.31E+03,-8097,1334,1991,10,-269,90,1,7,11
3.31E+03,-8076,1332,1987,-274,-328,57,1,7,11
3.31E+03,-8297,1334,1986,-287,-355,40,1,7,11
3.31E+03,-8276,1339,1996,-282,-345,41,1,7,11
3.31E+03,-8258,1346,2012,-258,-319,64,1,7,11
3.31E+03,-8245,1341,2033,24,-281,93,1,7,11
3.31E+03,-8249,1335,2039,64,15,121,1,7,11
3.31E+03,-8263,1342,2030,108,53,-121,1,7,11
3.31E+03,-8277,1369,2019,-116,92,-113,1,7,11
3.31E+03,-8288,1402,2000,-102,122,-101,1,7,11
3.31E+03,-8302,1172,2002,-116,-115,-84,1,7,11
3.31E+03,-8309,1196,1998,120,-117,-65,1,7,11
3.31E+03,-8298,1189,1999,89,122,-51,1,7,11
3.31E+03,-8285,1175,2009,76,100,-60,1,7,11
3.31E+03,-8264,1157,2015,77,78,-87,1,7,11
3.31E+03,-8250,1401,2036,80,63,-126,1,7,11
3.31E+03,-8250,1373,2324,79,34,96,1,7,11
3.31E+03,-8253,1345,2342,79,-273,63,1,7,11
3.31E+03,-8240,1298,2355,77,-327,32,1,7,11
3.31E+03,-8240,1004,2357,81,-362,0,1,7,11
3.31E+03,-8254,995,2362,106,-375,-277,1,7,11
3.31E+03,-8286,1280,2380,-118,-374,-272,1,7,11
3.31E+03,-8320,1317,2384,-75,-373,27,1,7,11
3.32E+03,-8072,1388,2379,-33,-370,104,1,7,11
3.32E+03,-8070,1185,2358,-22,-349,-54,1,7,11
3.32E+03,-8293,1222,2343,-16,-311,299,1,7,11
3.32E+03,-8220,1237,2344,-8,3,374,1,7,11
3.32E+03,-7919,1248,2358,269,73,159,1,7,11
3.32E+03,-7918,1256,2390,294,-120,162,1,7,11
3.32E+03,-8196,1270,2398,304,-96,142,1,7,11
3.32E+03,-8223,1268,2397,286,-110,357,1,7,11
3.32E+03,-8237,1264,2372,258,118,293,1,7,11
3.32E+03,-8232,1269,2348,-24,105,-33,1,7,11
3.32E+03,-8224,1544,2336,-51,122,-86,1,7,11
3.32E+03,-8251,1547,2356,-71,-99,-106,1,7,11
3.32E+03,-8281,1544,2396,-62,-88,-101,1,7,11
3.32E+03,-8302,1554,2424,-24,-108,-96,1,7,11
3.32E+03,-8291,1561,2431,283,108,-109,1,7,11
3.32E+03,-8245,1594,2396,342,78,98,1,7,11
3.32E+03,-8212,1635,2357,373,83,32,1,7,11
3.32E+03,-8212,1659,2338,373,116,-295,1,7,11
3.32E+03,-8215,1656,2329,341,-114,-350,1,7,11
3.32E+03,-8200,1630,2324,306,-109,-158,1,7,11
3.32E+03,-8223,1577,2327,266,-97,-240,1,7,11
3.32E+03,-8251,1269,2319,-20,-111,-583,1,7,11
3.32E+03,-8264,1219,2037,-44,124,-424,1,7,11
3.32E+03,-8070,1197,2022,-68,120,-512,1,7,11
3.32E+03,-8118,1199,2005,-80,96,-794,1,7,11
3.32E+03,-8109,1218,1972,-94,70,-511,1,7,11
3.32E+03,-8090,1219,1967,123,69,-448,1,7,11
3.32E+03,-8086,1400,1996,83,92,-599,1,7,11
3.32E+03,-8115,1358,2041,71,89,-549,1,7,11
3.32E+03,-8108,1343,2306,99,59,-518,1,7,11
3.32E+03,-8097,1362,2315,-102,37,-248,1,7,11
3.32E+03,-8087,1394,2318,-78,25,-238,1,7,11
3.32E+03,-8290,1177,2047,-71,15,-233,1,7,11
3.32E+03,-8262,1186,2323,-96,19,-248,1,7,11
3.32E+03,-8270,1171,2335,122,21,-542,1,7,11
3.32E+03,-8289,1176,2327,78,3,-587,1,7,11
3.32E+03,-8307,1178,2323,10,-267,-637,1,7,11
3.32E+03,-8101,1202,2330,-326,-278,-417,1,7,11
3.32E+03,-8097,1229,2332,-185,-320,-424,1,7,11
3.32E+03,-8312,1192,2337,-597,-355,-407,1,7,11
3.33E+03,-8278,1379,2346,-481,-381,-408,1,7,11
3.33E+03,-8261,1319,2352,-843,-377,-422,1,7,11
3.33E+03,-8277,1019,2369,-654,-344,-430,1,7,11
3.33E+03,-8300,999,2374,-669,-292,-417,1,7,11
3.33E+03,-8284,1020,2356,-642,31,-618,1,7,11
3.33E+03,-8253,1329,2331,-868,127,-524,1,7,11
3.33E+03,-8229,1397,2336,-855,-18,-143,1,7,11
3.33E+03,-8200,1186,2359,-879,321,-258,1,7,11
3.33E+03,-7929,1207,2394,-669,363,118,1,7,11
3.33E+03,-7914,1209,2184,-733,363,-40,1,7,11
3.33E+03,-7872,1389,2224,-1079,331,264,1,7,11
3.33E+03,-7854,1294,2252,-1131,310,-40,1,7,11
3.33E+03,-7838,991,2241,-1121,295,104,1,7,11
3.33E+03,-7851,996,2200,-1093,328,-292,1,7,11
3.33E+03,-7891,1283,2410,-1098,141,-152,1,7,11
3.33E+03,-7911,1313,2367,-900,220,-219,1,7,11
3.33E+03,-7922,1301,2346,-1016,552,-235,1,7,11
3.33E+03,-8208,950,2323,-1161,624,-210,1,7,11
3.33E+03,-8276,1038,2309,-1564,428,-176,1,7,11
3.33E+03,-8097,640,2309,-1631,475,-154,1,7,11
3.33E+03,-8170,796,2321,-1611,504,-140,1,7,11
3.33E+03,-8187,507,2024,-1245,493,-377,1,7,11
3.33E+03,-8186,493,1968,-1393,506,-358,1,7,11
3.33E+03,-8449,465,1931,-1319,778,-349,1,7,11
3.33E+03,-8189,424,2122,-996,778,-337,1,7,11
3.33E+03,-8171,458,1771,-906,788,-311,1,7,11
3.33E+03,-8450,825,1666,-1105,858,39,1,7,11
3.33E+03,-8138,784,1882,-908,676,-12,1,7,11
3.33E+03,-8309,453,1848,-1281,1053,228,1,7,11
3.33E+03,-8258,585,1858,-1157,969,477,1,7,11
3.33E+03,-8084,238,1683,-1249,1182,708,1,7,11
3.33E+03,-8555,623,1683,-1173,1603,957,1,7,11
3.33E+03,-8505,886,1862,-951,1656,1546,1,7,11
3.33E+03,-8073,743,1798,-1151,1419,1696,1,7,11
3.33E+03,-8237,1074,1505,-936,1500,2040,1,7,11
3.33E+03,-7934,1087,1506,-931,1884,2361,1,7,11
3.33E+03,-8243,1125,1507,-1084,1687,2586,1,7,11
3.33E+03,-8520,1287,1494,-797,1888,1980,1,7,11
3.33E+03,-8760,1538,1424,-327,1561,1722,1,7,11
3.33E+03,-8773,1456,1274,230,710,965,1,7,11
3.34E+03,-8333,1802,1378,1054,263,417,1,7,11
3.34E+03,-8162,1894,998,1653,-504,-101,1,7,11
3.34E+03,-8165,1692,991,1952,-758,-251,1,7,11
3.34E+03,-8490,1727,1294,2435,-992,-488,1,7,11
3.34E+03,-8319,1730,1328,3079,-1541,-868,1,7,11
3.34E+03,-7883,1697,1186,3412,-1424,-737,1,7,11
3.34E+03,-8051,2062,1278,3297,-1652,-760,1,7,11
3.34E+03,-7932,2073,1487,3414,-1168,-868,1,7,11
3.34E+03,-8300,1768,1700,3166,-930,-552,1,7,11
3.34E+03,-7873,2156,1755,2923,-681,125,1,7,11
3.34E+03,-8019,1951,2111,2214,-198,600,1,7,11
3.34E+03,-7656,2160,1948,1707,341,912,1,7,11
3.34E+03,-7750,1753,1944,1218,683,1465,1,7,11
3.34E+03,-7782,1876,2157,1052,1415,2163,1,7,11
3.34E+03,-7619,1800,2077,475,2352,2278,1,7,11
3.34E+03,-7949,1521,1709,519,2924,2829,1,7,11
3.34E+03,-8001,1526,1842,377,3386,2809,1,7,11
3.34E+03,-8019,1813,1440,324,3464,3024,1,7,11
3.34E+03,-8057,1850,1246,309,3897,3428,1,7,11
3.34E+03,-8289,1664,1285,358,3933,3372,1,7,11
3.34E+03,-8457,2143,750,202,3675,2981,1,7,11
3.34E+03,-8184,2348,497,221,2988,2781,1,7,11
3.34E+03,-8080,2237,545,193,2822,2523,1,7,11
3.34E+03,-8244,2584,375,175,2260,2243,1,7,11
3.34E+03,-8298,2666,309,158,2334,1989,1,7,11
3.34E+03,-8226,2469,-20,140,2126,2118,1,7,11
3.34E+03,-7859,2492,-62,360,1728,1744,1,7,11
3.34E+03,-8051,2452,-63,341,1671,1695,1,7,11
3.34E+03,-7998,2635,-62,147,1891,1746,1,7,11
3.34E+03,-7969,2288,-89,577,1874,2116,1,7,11
3.34E+03,-8014,2206,-112,857,1836,2006,1,7,11
3.34E+03,-7854,2402,93,1284,1437,2348,1,7,11
3.34E+03,-8261,2226,9,1856,1152,2035,1,7,11
3.34E+03,-8298,2672,-144,2222,677,2138,1,7,11
3.34E+03,-8196,2703,-588,3101,152,1886,1,7,11
3.34E+03,-8029,3370,-784,3623,-291,1613,1,7,11
3.34E+03,-7803,3550,-723,3937,-592,1385,1,7,11
3.34E+03,-7325,3971,-1117,3955,-439,918,1,7,11
3.34E+03,-7493,4299,-1135,3662,-607,692,1,7,11
3.34E+03,-7483,4511,-713,3159,-225,500,1,7,11
3.35E+03,-7129,4701,-834,2283,-201,621,1,7,11
3.35E+03,-7147,4631,-442,1702,-135,165,1,7,11
3.35E+03,-7079,4245,-594,1162,-152,268,1,7,11
3.35E+03,-7055,4402,-527,716,-240,-6,1,7,11
3.35E+03,-7114,4067,-212,629,-561,-187,1,7,11
3.35E+03,-7046,3994,-209,355,-622,-423,1,7,11
3.35E+03,-7286,4057,-213,-60,-746,-766,1,7,11
3.35E+03,-7255,4092,-218,64,-1245,-1368,1,7,11
3.35E+03,-7812,4274,-316,32,-1230,-1902,1,7,11
3.35E+03,-8963,4251,-10,-324,-1749,-1526,1,7,11
3.35E+03,-8560,4150,256,-365,-2899,-1279,1,7,11
3.35E+03,-8196,3891,268,-152,-3238,-1626,1,7,11
3.35E+03,-7185,3361,80,-545,-3961,-1506,1,7,11
3.35E+03,-6761,3099,-155,-163,-3699,-2423,1,7,11
3.35E+03,-6850,2694,-185,-193,-2707,-2703,1,7,11
3.35E+03,-7757,2461,-320,-603,-2316,-2959,1,7,11
3.35E+03,-8261,2236,47,-502,-1683,-2952,1,7,11
3.35E+03,-8491,1974,-113,-691,-1499,-3111,1,7,11
3.35E+03,-8325,1719,-25,-1080,-1648,-2768,1,7,11
3.35E+03,-8424,1519,311,-1152,-1269,-2921,1,7,11
3.35E+03,-8765,1628,379,-944,-1165,-2478,1,7,11
3.35E+03,-8730,1221,182,-1024,-1358,-2256,1,7,11
3.35E+03,-8395,1362,236,-1334,-1014,-2336,1,7,11
3.35E+03,-8570,1340,572,-1358,-1139,-1926,1,7,11
3.35E+03,-8451,1336,389,-1179,-745,-1759,1,7,11
3.35E+03,-8239,1300,395,-1567,-840,-1880,1,7,11
3.35E+03,-8060,1001,596,-1478,-567,-1825,1,7,11
3.35E+03,-7668,909,522,-1676,41,-1804,1,7,11
3.35E+03,-7627,1082,210,-2101,180,-1840,1,7,11
3.35E+03,-7680,1064,218,-1967,804,-1904,1,7,11
3.35E+03,-8017,1026,249,-2406,1046,-1688,1,7,11
3.35E+03,-8059,645,237,-2643,910,-1742,1,7,11
3.35E+03,-8043,791,179,-2834,998,-2086,1,7,11
3.35E+03,-8007,770,360,-2716,1369,-1937,1,7,11
3.35E+03,-7651,868,276,-3101,1265,-2007,1,7,11
3.35E+03,-7785,648,-40,-3407,1492,-2334,1,7,11
3.35E+03,-7743,481,-59,-3896,2060,-2224,1,7,11
3.35E+03,-7774,239,-92,-4088,2360,-2444,1,7,11
3.35E+03,-7989,334,76,-4317,2495,-2751,1,7,11
3.35E+03,-8426,137,61,-4653,3000,-3031,1,7,11
3.36E+03,-9318,155,-91,-4607,3410,-2953,1,7,11
3.36E+03,-9264,329,-46,-4770,3137,-2924,1,7,11
3.36E+03,-9043,326,-73,-4799,2890,-2841,1,7,11
3.36E+03,-8662,308,-43,-5146,2668,-2834,1,7,11
3.36E+03,-8681,325,302,-5136,2392,-2850,1,7,11
3.36E+03,-9061,149,378,-4783,1769,-2491,1,7,11
3.36E+03,-8928,222,154,-4935,1585,-2416,1,7,11
3.36E+03,-8638,169,341,-4757,1078,-1679,1,7,11
3.36E+03,-8575,-27,328,-5194,877,-1467,1,7,11
3.36E+03,-8534,110,154,-5234,721,-1464,1,7,11
3.36E+03,-8464,-93,144,-4855,1066,-1642,1,7,11
3.36E+03,-8307,-50,330,-4804,920,-1261,1,7,11
3.36E+03,-8215,-35,269,-4841,1331,-1192,1,7,11
3.36E+03,-8254,374,259,-4739,1188,-1159,1,7,11
3.36E+03,-8462,606,300,-4585,1264,-1006,1,7,11
3.36E+03,-8424,415,145,-4726,1173,-663,1,7,11
3.36E+03,-8604,815,198,-4053,911,-560,1,7,11
3.36E+03,-8684,727,160,-3512,850,95,1,7,11
3.36E+03,-9027,1050,373,-2966,596,221,1,7,11
3.36E+03,-8662,1094,336,-2643,339,809,1,7,11
3.36E+03,-8367,917,-10,-1778,-118,724,1,7,11
3.36E+03,-8129,966,-112,-1258,127,710,1,7,11
3.36E+03,-8260,976,70,-1122,-21,846,1,7,11
3.36E+03,-8197,916,-309,-895,334,636,1,7,11
3.36E+03,-8238,1150,-334,-794,172,324,1,7,11
3.36E+03,-8186,1110,-384,-509,229,-355,1,7,11
3.36E+03,-8542,1074,-150,-823,171,-256,1,7,11
3.36E+03,-8361,707,-173,-713,307,-604,1,7,11
3.36E+03,-8333,882,-253,-1098,-122,-416,1,7,11
3.36E+03,-8350,828,-531,-954,24,-496,1,7,11
3.36E+03,-8408,782,-256,-1015,-325,-505,1,7,11
3.36E+03,-8424,478,-203,-1009,-186,-419,1,7,11
3.36E+03,-8382,433,-157,-950,-555,-250,1,7,11
3.36E+03,-8333,609,-359,-1111,-627,-321,1,7,11
3.36E+03,-8551,530,-315,-726,-427,74,1,7,11
3.36E+03,-8469,218,-312,-855,-495,127,1,7,11
3.36E+03,-8107,209,-309,-489,-784,78,1,7,11
3.36E+03,-8306,224,-308,-387,-492,-269,1,7,11
3.36E+03,-8292,514,-304,-554,-407,-330,1,7,11
3.36E+03,-8074,532,7,-246,-544,-347,1,7,11
3.37E+03,-8184,553,77,-205,-197,-331,1,7,11
3.37E+03,-8327,590,113,-179,-201,-285,1,7,11
3.37E+03,-8342,421,64,-162,-564,63,1,7,11
3.37E+03,-8569,453,54,-247,-639,-108,1,7,11
3.37E+03,-8321,446,93,-604,-434,-37,1,7,11
3.37E+03,-8548,401,108,-452,-774,296,1,7,11
3.37E+03,-8524,386,74,-789,-845,321,1,7,11
3.37E+03,-8538,401,70,-651,-895,313,1,7,11
3.37E+03,-8526,409,68,-1048,-728,291,1,7,11
3.37E+03,-8538,412,104,-906,-1042,276,1,7,11
3.37E+03,-8380,405,-89,-974,-1078,317,1,7,11
3.37E+03,-8433,421,-93,-990,-932,152,1,7,11
3.37E+03,-8331,426,67,-1325,-1344,222,1,7,11
3.37E+03,-8152,615,-264,-1260,-1163,184,1,7,11
3.37E+03,-8293,570,-284,-1659,-1361,278,1,7,11
3.37E+03,-8237,587,-266,-1456,-943,126,1,7,11
3.37E+03,-7925,587,50,-1455,-710,62,1,7,11
3.37E+03,-7883,557,-97,-1640,-420,68,1,7,11
3.37E+03,-7850,516,-42,-1197,-348,-115,1,7,11
3.37E+03,-8062,234,-12,-911,264,-8,1,7,11
3.37E+03,-8061,203,262,-844,399,352,1,7,11
3.37E+03,-7876,238,-47,-228,755,179,1,7,11
3.37E+03,-8224,249,-109,118,1290,546,1,7,11
3.37E+03,-8075,516,87,227,1542,425,1,7,11
3.37E+03,-8154,524,2,1128,1822,717,1,7,11
3.37E+03,-8182,550,-144,1624,1688,970,1,7,11
3.37E+03,-8451,622,-544,2068,2051,1237,1,7,11
3.37E+03,-8530,468,-389,2401,2118,1489,1,7,11
3.37E+03,-8370,658,-467,2632,2071,1776,1,7,11
3.37E+03,-8566,1061,-852,2679,1916,2405,1,7,11
3.37E+03,-8182,899,-718,2572,1810,2463,1,7,11
3.37E+03,-8094,1105,-699,2022,1522,2887,1,7,11
3.37E+03,-8065,718,-643,1777,1485,2841,1,7,11
3.37E+03,-8297,748,-666,1708,1638,2599,1,7,11
3.37E+03,-8272,1128,-744,1690,1547,2028,1,7,11
3.37E+03,-8256,1330,-1138,1900,1212,1699,1,7,11
3.37E+03,-8218,1549,-1023,1475,1405,1419,1,7,11
3.37E+03,-7935,1427,-1330,1387,1390,1176,1,7,11
3.37E+03,-8244,1428,-1306,704,1402,943,1,7,11
3.37E+03,-8317,1454,-1287,612,1337,727,1,7,11
3.38E+03,-8083,1451,-1007,265,937,776,1,7,11
3.38E+03,-8092,1659,-965,-287,754,554,1,7,11
3.38E+03,-8301,1569,-949,-229,792,323,1,7,11
3.38E+03,-8231,1248,-941,-535,611,41,1,7,11
3.38E+03,-7877,1235,-988,-220,228,-256,1,7,11
3.38E+03,-7971,1189,-1350,-173,173,-837,1,7,11
3.38E+03,-7582,1395,-1194,-179,244,-1005,1,7,11
3.38E+03,-7603,1379,-1199,-525,417,-1503,1,7,11
3.38E+03,-8003,1336,-1353,-433,827,-1961,1,7,11
3.38E+03,-8209,1353,-1007,-783,893,-2565,1,7,11
3.38E+03,-8067,1397,-986,-874,843,-2479,1,7,11
3.38E+03,-8267,1341,-1023,-1044,494,-2523,1,7,11
3.38E+03,-7915,946,-1320,-994,491,-2842,1,7,11
3.38E+03,-8227,1062,-1309,-1202,855,-2710,1,7,11
3.38E+03,-8135,680,-951,-1659,682,-2805,1,7,11
3.38E+03,-8369,778,-1054,-1526,674,-3094,1,7,11
3.38E+03,-8666,436,-676,-1463,819,-2764,1,7,11
3.38E+03,-8844,417,-878,-1542,567,-2497,1,7,11
3.38E+03,-9063,400,-896,-1341,263,-2363,1,7,11
3.38E+03,-8661,629,-687,-908,30,-1705,1,7,11
3.38E+03,-8743,584,-702,-1040,-366,-1594,1,7,11
3.38E+03,-8540,254,-672,-687,-213,-1281,1,7,11
3.38E+03,-8127,243,-653,-781,-522,-1050,1,7,11
3.38E+03,-8298,582,-652,-591,-529,-822,1,7,11
3.38E+03,-8213,423,-659,-165,-534,-524,1,7,11
3.38E+03,-7888,778,-681,-279,-520,66,1,7,11
3.38E+03,-7877,866,-700,55,-230,168,1,7,11
3.38E+03,-7923,885,-690,45,-219,498,1,7,11
3.38E+03,-8265,829,-665,8,-520,723,1,7,11
3.38E+03,-8161,790,-656,38,-608,1087,1,7,11
3.38E+03,-8329,796,-895,-122,-460,1141,1,7,11
3.38E+03,-8402,838,-668,266,-864,931,1,7,11
3.38E+03,-8365,889,-711,134,-718,951,1,7,11
3.38E+03,-8552,728,-758,231,-739,955,1,7,11
3.38E+03,-8083,1066,-1061,192,-689,979,1,7,11
3.38E+03,-7925,761,-1082,356,-857,945,1,7,11
3.38E+03,-7836,718,-1085,325,-451,1090,1,7,11
3.38E+03,-8062,715,-1088,354,-552,675,1,7,11
3.38E+03,-7810,716,-1085,149,-172,483,1,7,11
3.38E+03,-7831,719,-1089,190,-337,526,1,7,11
3.39E+03,-7901,716,-1099,195,-279,307,1,7,11
3.39E+03,-8260,704,-1110,179,-266,110,1,7,11
3.39E+03,-8099,713,-1126,148,-312,-283,1,7,11
3.39E+03,-8168,721,-1108,323,-137,-356,1,7,11
3.39E+03,-8480,727,-1102,-43,-247,-364,1,7,11
3.39E+03,-8479,705,-1102,78,-627,-312,1,7,11
3.39E+03,-8450,670,-1077,-301,-446,2,1,7,11
3.39E+03,-8162,893,-1027,-154,-491,69,1,7,11
3.39E+03,-8108,792,-718,-249,-790,127,1,7,11
3.39E+03,-8074,444,-679,-254,-821,127,1,7,11
3.39E+03,-8101,400,-658,-169,-846,51,1,7,11
3.39E+03,-8192,425,-874,6,-890,-327,1,7,11
3.39E+03,-8546,497,-834,-9,-730,-177,1,7,11
3.39E+03,-8343,869,-802,534,-1119,-222,1,7,11
3.39E+03,-8322,718,-776,836,-1010,-185,1,7,11
3.39E+03,-8558,1087,-483,1144,-1391,-365,1,7,11
3.39E+03,-8353,1133,-410,1352,-1222,-265,1,7,11
3.39E+03,-8357,1110,-590,1249,-1625,114,1,7,11
3.39E+03,-8536,1072,-577,1658,-1793,-94,1,7,11
3.39E+03,-8454,1099,-591,1800,-1913,-119,1,7,11
3.39E+03,-8142,1139,-595,1876,-1729,114,1,7,11
3.39E+03,-8095,896,-602,1856,-1768,117,1,7,11
3.39E+03,-8082,1048,-564,1457,-1777,110,1,7,11
3.39E+03,-8314,864,-557,1538,-2075,45,1,7,11
3.39E+03,-8292,407,-559,1373,-2114,-383,1,7,11
3.39E+03,-8286,515,-553,1001,-2125,-385,1,7,11
3.39E+03,-8080,168,-531,923,-2077,-666,1,7,11
3.39E+03,-8163,186,-214,910,-1737,-1132,1,7,11
3.39E+03,-8453,514,-134,915,-1915,-941,1,7,11
3.39E+03,-8494,565,-282,1149,-1820,-1136,1,7,11
3.39E+03,-8537,555,98,1099,-1498,-719,1,7,11
3.39E+03,-8511,537,-28,1082,-1483,-782,1,7,11
3.39E+03,-8476,529,258,1083,-1444,-634,1,7,11
3.39E+03,-8460,540,382,1084,-1633,-516,1,7,11
3.39E+03,-8457,523,210,1062,-1558,-168,1,7,11
3.39E+03,-8463,525,557,1055,-1232,-354,1,7,11
3.39E+03,-8473,538,389,1056,-1180,-297,1,7,11
3.39E+03,-8520,537,486,1033,-1403,-260,1,7,11
3.39E+03,-8556,553,799,758,-1173,16,1,7,11
3.39E+03,-8532,563,829,736,-1234,32,1,7,11
3.40E+03,-8485,563,844,699,-1270,39,1,7,11
3.40E+03,-8189,545,879,871,-1254,27,1,7,11
3.40E+03,-8449,519,666,802,-1213,11,1,7,11
3.40E+03,-8192,216,717,475,-1180,-275,1,7,11
3.40E+03,-8453,184,763,433,-1405,-336,1,7,11
3.40E+03,-8183,161,1053,411,-1389,-134,1,7,11
3.40E+03,-8145,378,1096,384,-1374,-187,1,7,11
3.40E+03,-8145,335,902,624,-1344,-256,1,7,11
3.40E+03,-8171,308,949,636,-1326,-573,1,7,11
3.40E+03,-8462,312,987,399,-1324,-625,1,7,11
3.40E+03,-8480,346,1014,422,-1328,-396,1,7,11
3.40E+03,-8466,373,1282,411,-1334,-388,1,7,11
3.40E+03,-8186,380,1301,615,-1312,-627,1,7,11
3.40E+03,-8187,359,1338,548,-1011,-607,1,7,11
3.40E+03,-8183,339,1380,239,-965,-585,1,7,11
3.40E+03,-8180,314,1172,205,-913,-574,1,7,11
3.40E+03,-8174,295,1235,174,-1122,-565,1,7,11
3.40E+03,-8140,295,1550,170,-1087,-560,1,7,11
3.40E+03,-8106,301,1589,174,-1036,-559,1,7,11
3.40E+03,-8118,329,1614,192,-702,-562,1,7,11
3.40E+03,-8146,366,1633,203,-868,-539,1,7,11
3.40E+03,-8174,154,1646,201,-780,-232,1,7,11
3.40E+03,-8191,178,1409,165,-449,-161,1,7,11
3.40E+03,-8180,157,1431,354,-402,-350,1,7,11
3.40E+03,-8156,374,1459,292,-626,-323,1,7,11
3.40E+03,-8138,355,1469,-5,-602,-334,1,7,11
3.40E+03,-8161,350,1482,-34,-576,-378,1,7,11
3.40E+03,-8453,357,1518,-58,-567,-158,1,7,11
3.40E+03,-8485,361,1523,-83,-570,-169,1,7,11
3.40E+03,-8510,378,1528,-95,-575,-160,1,7,11
3.40E+03,-8512,154,1532,-97,-575,-374,1,7,11
3.40E+03,-8478,187,1531,-107,-573,-295,1,7,11
3.40E+03,-8183,187,1792,113,-557,77,1,7,11
3.40E+03,-8181,162,1811,54,-532,-128,1,7,11
3.40E+03,-8167,139,1807,4,-256,-102,1,7,11
3.40E+03,-8155,370,1815,-307,-241,-103,1,7,11
3.40E+03,-8178,331,1848,-367,-212,-125,1,7,11
3.40E+03,-8461,318,1880,-147,-206,112,1,7,11
3.40E+03,-8471,319,1912,-148,-209,111,1,7,11
3.40E+03,-8457,331,1668,-136,-211,117,1,7,11
3.41E+03,-8458,351,1668,-346,-201,-125,1,7,11
3.41E+03,-8191,361,1664,-315,-182,-93,1,7,11
3.41E+03,-8185,364,1665,-288,-150,-61,1,7,11
3.41E+03,-8177,370,1676,-259,-377,-26,1,7,11
3.41E+03,-8154,349,1684,12,-350,262,1,7,11
3.41E+03,-8150,355,1680,49,-326,271,1,7,11
3.41E+03,-8155,367,1675,85,-300,282,1,7,11
3.41E+03,-8180,130,1688,108,-270,291,1,7,11
3.41E+03,-8449,151,1693,-125,-259,307,1,7,11
3.41E+03,-8459,164,1704,-109,2,319,1,7,11
3.41E+03,-8451,166,1716,-106,-264,330,1,7,11
3.41E+03,-8457,159,1727,-97,-281,319,1,7,11
3.41E+03,-8187,170,1746,-81,-313,292,1,7,11
3.41E+03,-8161,180,1734,-79,-347,258,1,7,11
3.41E+03,-8147,170,1743,-101,-362,-55,1,7,11
3.41E+03,-8152,167,1755,-120,-373,-120,1,7,11
3.41E+03,-8143,163,1755,118,-377,83,1,7,11
3.41E+03,-8137,177,1760,111,-368,43,1,7,11
3.41E+03,-8135,178,1769,107,-349,31,1,7,11
3.41E+03,-8142,186,1786,112,-325,45,1,7,11
3.41E+03,-8149,183,2050,122,-312,74,1,7,11
3.41E+03,-8151,182,2073,-128,-301,104,1,7,11
3.41E+03,-8160,186,2072,-111,-294,127,1,7,11
3.41E+03,-8163,207,2063,-97,-284,-109,1,7,11
3.41E+03,-8162,229,2068,-95,-266,-77,1,7,11
3.41E+03,-8153,246,2074,-110,19,-53,1,7,11
3.41E+03,-8150,255,2076,-128,44,-32,1,7,11
3.41E+03,-8149,526,2080,98,67,-11,1,7,11
3.41E+03,-8134,524,2077,68,85,260,1,7,11
3.41E+03,-8133,519,2094,40,114,263,1,7,11
3.41E+03,-8130,518,2102,26,124,258,1,7,11
3.41E+03,-8140,521,2097,12,-126,-6,1,7,11
3.41E+03,-8142,521,2102,1,121,-10,1,7,11
3.41E+03,-8141,525,2109,-274,112,-9,1,7,11
3.41E+03,-8132,247,2112,-296,105,-9,1,7,11
3.41E+03,-8154,218,2124,-304,103,-21,1,7,11
3.41E+03,-8178,219,2136,-277,92,-28,1,7,11
3.41E+03,-8158,225,2124,14,79,-19,1,7,11
3.41E+03,-8150,237,2114,53,92,-4,1,7,11
3.41E+03,-8136,533,2113,-122,-115,275,1,7,11
3.42E+03,-8144,559,2114,-83,-93,275,1,7,11
3.42E+03,-8164,580,2115,-52,-83,268,1,7,11
3.42E+03,-8163,611,2114,-22,-89,257,1,7,11
3.42E+03,-8122,395,2088,259,-103,-5,1,7,11
3.42E+03,-8099,411,2077,258,-100,-12,1,7,11
3.42E+03,-8115,416,2088,-7,-103,-30,1,7,11
3.42E+03,-8149,451,2092,-13,126,-45,1,7,11
3.42E+03,-8153,479,2069,-37,86,-45,1,7,11
3.42E+03,-8114,469,2051,-100,57,-44,1,7,11
3.42E+03,-8077,451,1770,91,47,-57,1,7,11
3.42E+03,-8309,397,1748,12,74,-88,1,7,11
3.42E+03,-8074,595,1735,-314,123,127,1,7,11
3.42E+03,-8109,557,1719,-353,-80,85,1,7,11
3.42E+03,-8149,559,1707,-374,-17,69,1,7,11
3.42E+03,-8450,572,1712,-381,304,99,1,7,11
3.42E+03,-8554,610,1767,-366,372,274,1,7,11
3.42E+03,-8563,624,2049,-321,332,383,1,7,11
3.42E+03,-8532,389,2053,2,274,217,1,7,11
3.42E+03,-8167,799,2084,275,-120,249,1,7,11
3.42E+03,-8145,837,2084,300,105,205,1,7,11
3.42E+03,-8128,863,2089,306,75,133,1,7,11
3.42E+03,-8129,878,2095,284,51,299,1,7,11
3.42E+03,-8119,880,2105,-15,17,-55,1,7,11
3.42E+03,-8115,876,2100,-76,-270,107,1,7,11
3.42E+03,-8120,860,2104,101,-292,31,1,7,11
3.42E+03,-8112,829,2096,18,-319,-281,1,7,11
3.42E+03,-8101,789,2078,-330,-333,-321,1,7,11
3.42E+03,-8084,432,2069,-176,-332,-347,1,7,11
3.42E+03,-8098,613,2074,-517,-308,-371,1,7,11
3.42E+03,-8114,553,2084,-569,-284,-381,1,7,11
3.42E+03,-8125,528,2080,-579,2,-348,1,7,11
3.42E+03,-8125,518,2070,-559,33,-279,1,7,11
3.42E+03,-8132,523,2066,-524,80,61,1,7,11
3.42E+03,-8151,524,2076,-226,-117,-108,1,7,11
3.42E+03,-8147,543,2082,-376,-70,-26,1,7,11
3.42E+03,-8140,577,2078,-336,-52,295,1,7,11
3.42E+03,-8146,610,2078,39,-42,339,1,7,11
3.42E+03,-8143,403,2065,117,-41,366,1,7,11
3.42E+03,-8137,455,2053,-75,-39,376,1,7,11
3.42E+03,-8131,504,2050,-27,-35,373,1,7,11
3.43E+03,-8136,800,1787,264,-28,358,1,7,11
3.43E+03,-8148,841,1780,281,-26,339,1,7,11
3.43E+03,-8140,873,1770,282,-38,318,1,7,11
3.43E+03,-8128,650,1766,271,-54,284,1,7,11
3.43E+03,-8119,653,1769,-21,-70,-9,1,7,11
3.43E+03,-8128,641,1763,-69,-89,-49,1,7,11
3.43E+03,-8156,883,1764,-115,-106,-89,1,7,11
3.43E+03,-8150,856,1749,85,114,-121,1,7,11
3.43E+03,-8146,811,1740,27,94,99,1,7,11
3.43E+03,-8154,504,1757,-279,82,61,1,7,11
3.43E+03,-8166,464,1765,-296,75,33,1,7,11
3.43E+03,-8184,434,1791,-297,70,20,1,7,11
3.43E+03,-8188,425,2059,-264,61,28,1,7,11
3.43E+03,-8188,451,2058,44,58,60,1,7,11
3.43E+03,-8175,495,2056,99,61,116,1,7,11
3.43E+03,-8169,795,2069,-120,76,-85,1,7,11
3.43E+03,-8150,833,2078,-103,87,-30,1,7,11
3.43E+03,-8132,864,2081,-100,97,258,1,7,11
3.43E+03,-8110,879,2096,-108,108,257,1,7,11
3.43E+03,-8100,893,2122,-114,-127,-56,1,7,11
3.43E+03,-8086,643,2125,-115,-113,-104,1,7,11
3.43E+03,-8085,645,2122,-120,-106,104,1,7,11
3.43E+03,-8105,642,2115,121,-104,73,1,7,11
3.43E+03,-8114,885,2107,94,-125,61,1,7,11
3.43E+03,-8119,858,2095,56,104,68,1,7,11
3.43E+03,-8104,838,2082,24,86,82,1,7,11
3.43E+03,-8094,833,2068,-1,80,105,1,7,11
3.43E+03,-8082,810,2054,-284,84,-121,1,7,11
3.43E+03,-8076,769,2052,-300,90,-105,1,7,11
3.43E+03,-8096,511,1791,-280,102,-100,1,7,11
3.43E+03,-8101,780,1768,-257,120,-90,1,7,11
3.43E+03,-8089,785,1726,21,-100,-77,1,7,11
3.43E+03,-8117,808,1698,38,-40,-72,1,7,11
3.43E+03,-8146,836,1677,41,270,-61,1,7,11
3.43E+03,-8190,872,1684,41,312,-52,1,7,11
3.43E+03,-8486,667,1701,35,323,-26,1,7,11
3.43E+03,-8497,703,1741,28,306,274,1,7,11
3.43E+03,-8491,738,1757,38,276,328,1,7,11
3.43E+03,-8466,755,1790,66,-18,370,1,7,11
3.43E+03,-8186,764,2066,109,-55,142,1,7,11
3.44E+03,-8165,1026,2072,-92,-93,146,1,7,11
3.44E+03,-8129,1033,2067,-35,-128,383,1,7,11
3.44E+03,-8120,1035,2057,257,109,338,1,7,11
3.44E+03,-8119,1052,1786,275,82,281,1,7,11
3.44E+03,-8108,1049,1782,261,62,-40,1,7,11
3.44E+03,-8112,1046,1779,-35,40,-103,1,7,11
3.44E+03,-8116,1041,1785,-86,10,92,1,7,11
3.44E+03,-8121,1024,2050,105,-271,45,1,7,11
3.44E+03,-8104,734,1787,42,-287,3,1,7,11
3.44E+03,-8102,697,2048,-268,-285,-281,1,7,11
3.44E+03,-8095,658,2058,-299,-269,-293,1,7,11
3.44E+03,-8094,894,2048,-313,12,-283,1,7,11
3.44E+03,-8094,849,2061,-328,49,5,1,7,11
3.44E+03,-8089,825,2073,-329,88,48,1,7,11
3.44E+03,-8079,814,2076,-306,127,88,1,7,11
3.44E+03,-8074,830,2068,-258,-85,-117,1,7,11
3.44E+03,-8080,873,2052,65,-32,-101,1,7,11
3.44E+03,-8102,672,1784,122,279,-63,1,7,11
3.44E+03,-8118,712,1771,-96,314,-10,1,7,11
3.44E+03,-8126,748,1765,-66,340,292,1,7,11
3.44E+03,-8112,1047,1759,-36,354,326,1,7,11
3.44E+03,-8110,1082,1737,-10,360,341,1,7,11
3.44E+03,-8105,1098,1717,-7,361,333,1,7,11
3.44E+03,-8116,1101,1701,-23,352,296,1,7,11
3.44E+03,-8132,1101,1678,-40,339,-5,1,7,11
3.44E+03,-8142,1087,1907,-65,316,-46,1,7,11
3.44E+03,-8150,1059,1898,-115,271,-81,1,7,11
3.44E+03,-8162,1025,1890,116,-21,-113,1,7,11
3.44E+03,-8170,742,1887,102,-53,119,1,7,11
3.44E+03,-8190,740,1883,101,-74,104,1,7,11
3.44E+03,-8465,748,1913,109,-99,-128,1,7,11
3.44E+03,-8456,746,1675,-124,127,-75,1,7,11
3.44E+03,-8168,746,1683,-66,106,-20,1,7,11
3.44E+03,-8131,1036,1676,269,111,272,1,7,11
3.44E+03,-8114,1105,1668,342,-116,273,1,7,11
3.44E+03,-8114,955,1917,381,-89,263,1,7,11
3.44E+03,-8103,1308,1908,352,-84,-2,1,7,11
3.44E+03,-8095,1396,1888,259,-87,-8,1,7,11
3.44E+03,-8084,1186,1881,94,-82,-10,1,7,11
3.44E+03,-8065,1180,1874,-362,-70,-30,1,7,11
3.45E+03,-8065,1171,1884,-555,-39,-63,1,7,11
3.45E+03,-8290,1398,1880,-498,257,-101,1,7,11
3.45E+03,-8274,1338,1887,-688,322,96,1,7,11
3.45E+03,-8286,1021,1893,-1104,135,36,1,7,11
3.45E+03,-8083,951,1897,-977,195,-271,1,7,11
3.45E+03,-8133,1122,1911,-1324,216,-305,1,7,11
3.45E+03,-8154,765,1903,-1359,208,-329,1,7,11
3.45E+03,-8177,678,1911,-1322,192,-343,1,7,11
3.45E+03,-8465,882,1907,-964,163,-343,1,7,11
3.45E+03,-8480,873,1886,-1078,376,-317,1,7,11
3.45E+03,-8501,882,1865,-688,325,-270,1,7,11
3.45E+03,-8506,895,1852,-829,259,52,1,7,11
3.45E+03,-8490,894,1870,-467,-67,119,1,7,11
3.45E+03,-8477,640,1893,-606,127,-81,1,7,11
3.45E+03,-8182,654,1918,-213,72,-38,1,7,11
3.45E+03,-8163,658,1690,-332,44,-16,1,7,11
3.45E+03,-8140,668,1705,74,27,-12,1,7,11
3.45E+03,-8115,678,1717,-19,22,-34,1,7,11
3.45E+03,-8103,729,1708,148,33,-70,1,7,11
3.45E+03,-8084,1043,1684,532,50,-108,1,7,11
3.45E+03,-8072,1113,1897,611,70,110,1,7,11
3.45E+03,-8079,909,1858,622,100,84,1,7,11
3.45E+03,-8087,949,1823,572,117,66,1,7,11
3.45E+03,-8097,947,1809,217,-128,52,1,7,11
3.45E+03,-8107,926,1803,351,-128,35,1,7,11
3.45E+03,-8122,1148,1828,-22,124,24,1,7,11
3.45E+03,-8128,1120,1826,-111,117,26,1,7,11
3.45E+03,-8122,1090,1828,92,111,47,1,7,11
3.45E+03,-8123,1084,1831,77,122,79,1,7,11
3.45E+03,-8125,1098,1830,72,-120,126,1,7,11
3.45E+03,-8137,1094,1823,53,-114,-86,1,7,11
3.45E+03,-8147,1074,1818,31,-118,-67,1,7,11
3.45E+03,-8168,1074,1808,23,-123,-65,1,7,11
3.45E+03,-8174,1072,1795,11,127,-63,1,7,11
3.45E+03,-8169,1086,1522,12,-127,-58,1,7,11
3.45E+03,-8172,1094,1525,18,-116,-43,1,7,11
3.45E+03,-8181,1105,1795,39,-112,-18,1,7,11
3.45E+03,-8188,1126,1804,72,-114,266,1,7,11
3.45E+03,-8189,1136,1831,101,-128,297,1,7,11
3.45E+03,-8173,900,1853,-117,103,320,1,7,11
3.46E+03,-8142,931,1877,-82,83,328,1,7,11
3.46E+03,-8147,962,1890,-34,77,312,1,7,11
3.46E+03,-8157,1006,1913,274,72,299,1,7,11
3.46E+03,-8069,1300,1916,-54,-281,47,1,7,11
3.46E+03,-8317,1016,1904,-108,-302,0,1,7,11
3.46E+03,-8291,986,1884,85,-305,-294,1,7,11
3.46E+03,-8262,929,1868,2,-291,-313,1,7,11
3.46E+03,-8250,1097,1849,-342,2,-340,1,7,11
3.46E+03,-8284,1032,1856,-141,68,-365,1,7,11
3.46E+03,-8074,735,1868,-158,-120,-351,1,7,11
3.46E+03,-8121,730,1877,-139,-50,-287,1,7,11
3.46E+03,-8165,735,1890,-361,268,81,1,7,11
3.46E+03,-8182,748,1905,-318,308,-59,1,7,11
3.46E+03,-8189,1029,1680,-270,315,283,1,7,11
3.46E+03,-8187,1067,1714,39,279,324,1,7,11
3.46E+03,-8157,1103,1715,92,-47,329,1,7,11
3.46E+03,-8164,1132,1731,-121,-110,313,1,7,11
3.46E+03,-8159,924,1749,-62,78,302,1,7,11
3.46E+03,-8162,990,1767,279,19,310,1,7,11
3.46E+03,-8155,1326,1777,367,-297,364,1,7,11
3.46E+03,-8081,1361,1741,145,-375,175,1,7,11
3.46E+03,-8251,1347,1675,366,-166,186,1,7,11
3.46E+03,-8220,1284,1897,284,-158,355,1,7,11
3.46E+03,-8235,987,1867,-60,-134,-53,1,7,11
3.46E+03,-8288,973,1850,101,-348,52,1,7,11
3.46E+03,-8091,978,1826,13,-307,-299,1,7,11
3.46E+03,-8142,1008,1820,-309,-264,-314,1,7,11
3.46E+03,-8152,1006,1817,-371,34,5,1,7,11
3.46E+03,-8137,978,1810,-146,72,99,1,7,11
3.46E+03,-8115,960,1812,-382,126,-71,1,7,11
3.46E+03,-8126,975,1838,-327,-71,256,1,7,11
3.46E+03,-8154,1289,1839,11,-30,321,1,7,11
3.46E+03,-8172,1377,1863,93,-17,142,1,7,11
3.46E+03,-8453,1209,1883,-96,-26,225,1,7,11
3.46E+03,-8191,1270,1908,-49,-72,561,1,7,11
3.46E+03,-8151,1547,1671,-18,118,600,1,7,11
3.46E+03,-8120,1549,1700,-5,62,584,1,7,11
3.46E+03,-8116,1549,1711,-2,5,516,1,7,11
3.46E+03,-8095,1554,1725,-13,-320,165,1,7,11
3.46E+03,-8090,1559,1739,-48,-373,314,1,7,11
3.47E+03,-8320,1545,1740,-102,-154,-38,1,7,11
3.47E+03,-8307,1263,1759,96,-172,-105,1,7,11
3.47E+03,-8300,1227,1776,41,-173,111,1,7,11
3.47E+03,-8284,1192,1783,-260,-160,95,1,7,11
3.47E+03,-8271,1401,2051,-294,-384,87,1,7,11
3.47E+03,-8243,1357,2051,-310,-340,79,1,7,11
3.47E+03,-8228,1338,2051,-303,-274,71,1,7,11
3.47E+03,-8247,1348,2057,-284,51,78,1,7,11
3.47E+03,-8263,1358,1790,-259,115,103,1,7,11
3.47E+03,-8285,1391,1778,28,-98,-107,1,7,11
3.47E+03,-8312,1195,1766,54,-61,-57,1,7,11
3.47E+03,-8314,1231,1752,76,-40,-5,1,7,11
3.47E+03,-8295,1252,1725,91,-25,291,1,7,11
3.47E+03,-8246,1262,1705,96,-2,305,1,7,11
3.47E+03,-8248,1271,1687,107,294,294,1,7,11
3.47E+03,-8249,1277,1916,109,330,274,1,7,11
3.47E+03,-8257,1278,1855,96,361,-11,1,7,11
3.47E+03,-8276,1259,1818,58,143,-44,1,7,11
3.47E+03,-8299,1233,1523,27,183,-78,1,7,11
3.47E+03,-8091,1236,1496,19,232,-93,1,7,11
3.47E+03,-8149,1270,1518,16,539,-72,1,7,11
3.47E+03,-8190,1590,1849,-89,371,247,1,7,11
3.47E+03,-8168,1618,1861,260,276,241,1,7,11
3.47E+03,-8147,1418,1858,327,-63,209,1,7,11
3.47E+03,-8111,1469,1858,368,123,172,1,7,11
3.47E+03,-8077,1497,1859,133,74,375,1,7,11
3.47E+03,-8315,1508,1876,129,41,299,1,7,11
3.47E+03,-8312,1511,1888,365,9,-45,1,7,11
3.47E+03,-8313,1517,1881,332,-288,120,1,7,11
3.47E+03,-8303,1519,1874,270,-328,49,1,7,11
3.47E+03,-8283,1507,1872,-74,-354,-257,1,7,11
3.47E+03,-8271,1466,1878,75,-360,-289,1,7,11
3.47E+03,-8272,1658,1886,-283,-349,-309,1,7,11
3.47E+03,-8257,1589,1894,-356,-337,-321,1,7,11
3.47E+03,-8257,1541,1906,-134,-296,-319,1,7,11
3.47E+03,-8237,1260,1902,-139,9,-289,1,7,11
3.47E+03,-8246,1246,1909,-380,75,11,1,7,11
3.47E+03,-8235,1241,1889,-348,-118,71,1,7,11
3.47E+03,-8232,1251,1867,-309,-47,127,1,7,11
3.47E+03,-8234,1279,1840,-263,278,-79,1,7,11
3.48E+03,-8261,1576,1825,34,346,-34,1,7,11
3.48E+03,-8284,1605,1811,67,137,268,1,7,11
3.48E+03,-8304,1634,1798,100,159,305,1,7,11
3.48E+03,-8316,1650,1794,-126,161,332,1,7,11
3.48E+03,-8070,1421,1534,-103,142,337,1,7,11
3.48E+03,-8088,1445,1525,-94,372,325,1,7,11
3.48E+03,-8105,1468,1522,-100,324,304,1,7,11
3.48E+03,-8115,1491,1511,-115,265,276,1,7,11
3.48E+03,-8114,1509,1510,116,-54,-1,1,7,11
3.48E+03,-8097,1509,1508,84,-112,-19,1,7,11
3.48E+03,-8079,1491,1508,58,101,-39,1,7,11
3.48E+03,-8309,1472,1532,47,68,-63,1,7,11
3.48E+03,-8293,1450,1535,47,43,-84,1,7,11
3.48E+03,-8284,1443,1530,62,27,-100,1,7,11
3.48E+03,-8286,1439,1521,85,27,-103,1,7,11
3.48E+03,-8290,1441,1510,111,37,-88,1,7,11
3.48E+03,-8293,1457,1497,-117,56,-60,1,7,11
3.48E+03,-8303,1458,1495,-100,85,-14,1,7,11
3.48E+03,-8309,1470,1499,-84,117,-1,1,7,11
3.48E+03,-8308,1496,1495,-72,-127,263,1,7,11
3.48E+03,-8300,1804,1488,-55,-120,273,1,7,11
3.48E+03,-8285,1840,1478,-53,-108,286,1,7,11
3.48E+03,-8290,1859,1487,-63,-91,294,1,7,11
3.48E+03,-8304,1865,1499,-72,-92,296,1,7,11
3.48E+03,-8317,1861,1522,-82,-110,290,1,7,11
3.48E+03,-8307,1853,1796,-85,115,274,1,7,11
3.48E+03,-8290,1843,1806,-87,87,-15,1,7,11
3.48E+03,-8279,1834,1826,-88,67,-63,1,7,11
3.48E+03,-8266,1820,1852,-86,44,-119,1,7,11
3.48E+03,-8275,1818,1868,-79,26,81,1,7,11
3.48E+03,-8278,1830,1878,-83,-257,45,1,7,11
3.48E+03,-8257,1831,1860,-104,-281,29,1,7,11
3.48E+03,-8240,1816,1843,115,-275,24,1,7,11
3.48E+03,-8240,1799,1844,77,21,27,1,7,11
3.48E+03,-8242,1529,1825,52,68,47,1,7,11
3.48E+03,-8250,1523,1817,38,115,85,1,7,11
3.48E+03,-8265,1497,1813,21,-101,-124,1,7,11
3.48E+03,-8286,1480,1814,16,-75,-87,1,7,11
3.48E+03,-8296,1468,1812,22,-68,-60,1,7,11
3.48E+03,-8310,1474,1811,39,-69,-38,1,7,11
3.49E+03,-8316,1519,1812,59,-77,-14,1,7,11
3.49E+03,-8313,1816,1795,78,-84,265,1,7,11
3.49E+03,-8288,1866,1523,94,-79,275,1,7,11
3.49E+03,-8307,1669,1526,105,-54,262,1,7,11
3.49E+03,-8305,1729,1534,112,-65,-6,1,7,11
3.49E+03,-8289,1747,1796,94,-90,-24,1,7,11
3.49E+03,-8265,1727,1799,60,125,-59,1,7,11
3.49E+03,-8266,1676,1801,34,82,-122,1,7,11
3.49E+03,-8270,1891,1531,28,37,64,1,7,11
3.49E+03,-8263,1870,1502,32,15,10,1,7,11
3.49E+03,-8270,1855,1484,35,31,-260,1,7,11
3.49E+03,-8290,1848,1484,36,62,26,1,7,11
3.49E+03,-8298,1836,1499,44,90,76,1,7,11
3.49E+03,-8311,1810,1529,56,94,-128,1,7,11
3.49E+03,-8307,1793,1797,83,69,-92,1,7,11
3.49E+03,-8291,1793,1811,114,36,-78,1,7,11
3.49E+03,-8290,1827,1811,-103,12,-76,1,7,11
3.49E+03,-8285,1863,1819,-77,-261,-67,1,7,11
3.49E+03,-8267,1907,1836,-59,-273,-53,1,7,11
3.49E+03,-8266,1689,1857,-49,-294,-41,1,7,11
3.49E+03,-8247,1722,1868,-52,-325,-35,1,7,11
3.49E+03,-8220,1733,1883,-74,-352,-35,1,7,11
