timestamp,ax,ay,az,gx,gy,gz,Label1,Label2,Label3
1.06E+03,-7931,-1412,-1079,-1509,-108,-1197,1,7,11
1.07E+03,-7909,-1836,-749,-1430,-281,-1166,1,7,11
1.09E+03,-7981,-1665,-1047,-1219,-223,-1164,1,7,11
1.12E+03,-7781,-1883,-907,-1312,-530,-1572,1,7,11
1.14E+03,-7756,-1823,-1001,-1301,-181,-1813,1,7,11
1.17E+03,-7579,-1839,-1011,-1155,-360,-1682,1,7,11
1.20E+03,-7606,-1702,-957,-1545,-148,-1919,1,7,11
1.22E+03,-7588,-2131,-908,-1622,-233,-1878,1,7,11
1.23E+03,-7556,-2012,-901,-1608,-550,-1859,1,7,11
1.22E+03,-7760,-2318,-937,-1547,-591,-1847,1,7,11
1.21E+03,-7707,-2309,-970,-1254,-593,-1840,1,7,11
1.18E+03,-7411,-2026,-987,-1269,-559,-1806,1,7,11
1.15E+03,-7396,-2012,-991,-1574,-247,-1464,1,7,11
1.11E+03,-7424,-2026,-986,-1618,-175,-1606,1,7,11
1.09E+03,-7714,-2018,-985,-1625,-359,-1199,1,7,11
1.10E+03,-7741,-1961,-1297,-1632,-281,-1304,1,7,11
1.13E+03,-7753,-2131,-1361,-1451,27,-906,1,7,11
1.17E+03,-7703,-2078,-1387,-1896,26,-1050,1,7,11
1.20E+03,-7416,-2127,-1365,-2142,75,-1029,1,7,11
1.22E+03,-7718,-1994,-1001,-2320,-77,-1072,1,7,11
1.20E+03,-7794,-2308,-936,-2414,268,-1066,1,7,11
1.15E+03,-7558,-2350,-912,-2392,287,-764,1,7,11
1.08E+03,-7799,-2362,-937,-2323,300,-689,1,7,11
1.01E+03,-7786,-2368,-974,-2008,323,-867,1,7,11
9.63E+02,-7771,-2385,-996,-1955,343,-775,1,7,11
9.38E+02,-7749,-2414,-1288,-2145,360,-425,1,7,11
9.32E+02,-7738,-2190,-1314,-2063,359,-598,1,7,11
9.38E+02,-7712,-2225,-1343,-1724,336,-531,1,7,11
9.53E+02,-7709,-2276,-1356,-1886,323,-244,1,7,11
9.72E+02,-7718,-2570,-1377,-1503,308,-216,1,7,11
9.93E+02,-7721,-2574,-1398,-1616,286,-182,1,7,11
1.01E+03,-7712,-2569,-1163,-1225,-1,-130,1,7,11
1.03E+03,-7415,-2298,-1203,-1342,-16,-327,1,7,11
1.05E+03,-7395,-2292,-1231,-981,-6,-297,1,7,11
1.06E+03,-7385,-2274,-1254,-1140,268,-269,1,7,11
1.08E+03,-7385,-2259,-1277,-1074,281,-265,1,7,11
1.09E+03,-7390,-2229,-1553,-1033,276,-260,1,7,11
1.10E+03,-7388,-2188,-1584,-760,-1,6,1,7,11
1.11E+03,-7395,-2400,-1616,-1035,-14,-268,1,7,11
1.12E+03,-7419,-2366,-1640,-1100,-48,-281,1,7,11
1.13E+03,-7694,-2350,-1656,-936,-105,-290,1,7,11
1.13E+03,-7723,-2346,-1409,-1286,92,-316,1,7,11
1.14E+03,-7747,-2331,-1418,-1361,14,-338,1,7,11
1.15E+03,-7751,-2048,-1439,-1182,-340,-367,1,7,11
1.15E+03,-7756,-2006,-1462,-1265,-172,-146,1,7,11
1.15E+03,-7782,-1965,-1458,-1629,-248,-185,1,7,11
1.15E+03,-7582,-1944,-1450,-1489,-614,-212,1,7,11
1.15E+03,-7629,-2171,-1428,-1832,-498,-211,1,7,11
1.14E+03,-7943,-2132,-1413,-1909,-656,-204,1,7,11
1.14E+03,-7986,-2114,-1634,-1736,-1107,-149,1,7,11
1.13E+03,-7978,-2127,-1588,-2073,-1333,-318,1,7,11
1.12E+03,-7652,-2160,-1537,-2136,-1561,4,1,7,11
1.12E+03,-7555,-1958,-1235,-2170,-1474,16,1,7,11
1.11E+03,-7722,-1996,-1191,-2149,-1819,-299,1,7,11
1.11E+03,-7391,-2025,-1382,-2102,-1844,-144,1,7,11
1.10E+03,-7347,-2334,-1312,-1779,-1806,-514,1,7,11
1.10E+03,-7331,-2366,-971,-1909,-1450,-605,1,7,11
1.09E+03,-7331,-2405,-915,-1493,-1571,-408,1,7,11
1.08E+03,-7329,-2200,-1124,-1549,-1158,-423,1,7,11
1.08E+03,-7328,-2232,-1109,-1316,-970,-417,1,7,11
1.07E+03,-7326,-2256,-1088,-1078,-1026,-397,1,7,11
1.07E+03,-7341,-2259,-1087,-830,-814,-632,1,7,11
1.06E+03,-7379,-2243,-1104,-581,-595,-621,1,7,11
1.05E+03,-7696,-2219,-1127,-364,-135,-609,1,7,11
1.05E+03,-7760,-2202,-1139,126,73,-591,1,7,11
1.04E+03,-7782,-2429,-905,-4,-122,-562,1,7,11
1.04E+03,-7565,-2414,-920,324,-89,-565,1,7,11
1.04E+03,-7597,-2410,-912,373,-104,-558,1,7,11
1.04E+03,-7617,-2177,-1142,140,115,-553,1,7,11
1.04E+03,-7623,-2188,-1128,171,57,-532,1,7,11
1.05E+03,-7616,-2193,-1121,208,1,-516,1,7,11
1.06E+03,-7604,-2201,-1105,235,-302,-239,1,7,11
1.08E+03,-7589,-2205,-1086,251,-357,-209,1,7,11
1.09E+03,-7577,-2208,-1065,526,-366,-178,1,7,11
1.11E+03,-7576,-2211,-1033,532,-362,-137,1,7,11
1.12E+03,-7574,-2213,-738,541,-359,-338,1,7,11
1.12E+03,-7575,-2217,-713,549,-359,-279,1,7,11
1.11E+03,-7576,-2223,-677,556,-358,38,1,7,11
1.10E+03,-7560,-2232,-662,564,-365,97,1,7,11
1.08E+03,-7800,-2231,-656,583,-357,-127,1,7,11
1.04E+03,-7792,-2214,-658,600,-336,-122,1,7,11
1.01E+03,-7805,-2203,-649,601,-312,-120,1,7,11
9.86E+02,-7571,-2189,-642,592,-287,-106,1,7,11
9.69E+02,-7589,-2185,-883,582,-273,-68,1,7,11
9.64E+02,-7578,-2177,-871,573,-265,-15,1,7,11
9.67E+02,-7567,-2432,-863,565,12,288,1,7,11
9.77E+02,-7565,-2184,-852,561,49,329,1,7,11
9.93E+02,-7570,-2192,-841,575,97,371,1,7,11
1.01E+03,-7580,-2200,-826,599,-102,173,1,7,11
1.03E+03,-7607,-2192,-801,388,-44,255,1,7,11
1.05E+03,-7628,-2191,-792,441,256,626,1,7,11
1.07E+03,-7636,-2199,-785,493,283,511,1,7,11
1.09E+03,-7624,-2212,-782,806,297,657,1,7,11
1.10E+03,-7602,-2222,-781,874,304,1034,1,7,11
1.11E+03,-7586,-2222,-501,695,317,1117,1,7,11
1.11E+03,-7590,-2194,-497,1045,348,901,1,7,11
1.11E+03,-7604,-2390,-495,1129,375,915,1,7,11
1.11E+03,-7628,-2325,-501,924,133,908,1,7,11
1.10E+03,-7647,-1992,-509,944,133,1148,1,7,11
1.08E+03,-7655,-1923,-509,936,131,1117,1,7,11
1.06E+03,-7669,-2104,-769,914,139,1075,1,7,11
1.03E+03,-7959,-1771,-509,1112,141,1033,1,7,11
1.01E+03,-7967,-1737,-505,1046,129,717,1,7,11
9.85E+02,-7974,-1708,-508,725,375,669,1,7,11
9.75E+02,-7980,-1700,-506,652,358,875,1,7,11
9.73E+02,-7974,-1695,-507,807,347,819,1,7,11
9.79E+02,-7973,-1678,-769,505,348,501,1,7,11
9.91E+02,-7989,-1917,-782,453,340,445,1,7,11
1.01E+03,-7988,-1903,-788,395,321,412,1,7,11
1.02E+03,-8002,-1881,-781,605,316,384,1,7,11
1.04E+03,-8024,-1862,-780,563,305,396,1,7,11
1.05E+03,-8036,-1854,-781,520,292,451,1,7,11
1.07E+03,-8031,-1855,-779,226,276,774,1,7,11
1.08E+03,-8021,-1856,-773,199,272,834,1,7,11
1.08E+03,-8033,-1858,-503,180,273,874,1,7,11
1.08E+03,-8034,-1853,-491,180,265,645,1,7,11
1.06E+03,-8010,-1825,-485,195,-12,665,1,7,11
1.04E+03,-7980,-1794,-497,200,-18,653,1,7,11
1.02E+03,-7975,-1508,-512,190,-8,865,1,7,11
1.00E+03,-7986,-1475,-783,178,-3,812,1,7,11
9.92E+02,-7999,-1446,-789,155,-5,495,1,7,11
9.95E+02,-8011,-1422,-778,131,-9,435,1,7,11
1.00E+03,-8017,-1658,-776,363,-20,634,1,7,11
1.02E+03,-8031,-1654,-781,330,-27,573,1,7,11
1.03E+03,-8061,-1662,-510,296,-35,255,1,7,11
1.05E+03,-8047,-1643,-499,287,-75,222,1,7,11
1.06E+03,-7977,-1589,-770,285,-103,197,1,7,11
1.07E+03,-7976,-1558,-804,257,-59,134,1,7,11
1.08E+03,-8044,-1555,-817,-56,-11,348,1,7,11
1.08E+03,-7827,-1579,-822,-115,-10,349,1,7,11
1.09E+03,-7836,-1598,-801,86,-32,327,1,7,11
1.10E+03,-7820,-1596,-799,71,-65,307,1,7,11
1.11E+03,-8063,-1575,-782,48,86,-48,1,7,11
1.13E+03,-7825,-1572,-777,47,66,-50,1,7,11
1.15E+03,-7815,-1571,-772,48,33,-31,1,7,11
1.17E+03,-8043,-1568,-506,55,8,-18,1,7,11
1.17E+03,-8011,-1542,-775,78,17,-23,1,7,11
1.15E+03,-8018,-1250,-792,85,62,-45,1,7,11
1.09E+03,-7810,-1234,-792,63,109,-54,1,7,11
1.03E+03,-7848,-1237,-786,38,118,-23,1,7,11
9.59E+02,-7848,-1240,-775,26,110,269,1,7,11
9.13E+02,-7850,-1246,-491,24,107,281,1,7,11
8.97E+02,-7856,-1255,-481,32,100,284,1,7,11
9.05E+02,-7838,-1242,-479,51,80,284,1,7,11
9.27E+02,-7829,-1232,-482,79,65,280,1,7,11
9.53E+02,-7816,-1220,-471,89,55,251,1,7,11
9.80E+02,-7816,-1218,-449,91,46,-33,1,7,11
1.01E+03,-7829,-1222,-428,103,41,-52,1,7,11
1.03E+03,-7826,-1217,-426,120,31,-54,1,7,11
1.06E+03,-7818,-1209,-423,-128,29,-58,1,7,11
1.08E+03,-8062,-1207,-423,-126,38,-68,1,7,11
1.10E+03,-7810,-1212,-411,-127,55,-84,1,7,11
1.12E+03,-7824,-1210,-406,-121,69,-104,1,7,11
1.14E+03,-7837,-1221,-403,-113,67,-110,1,7,11
1.15E+03,-7838,-1220,-410,-106,64,-114,1,7,11
1.16E+03,-7845,-1224,-408,-111,65,-126,1,7,11
1.17E+03,-7845,-1234,-399,-112,65,126,1,7,11
1.17E+03,-7848,-1232,-387,-107,69,117,1,7,11
1.16E+03,-7849,-1232,-630,-104,71,111,1,7,11
1.14E+03,-7843,-1237,-618,-96,71,118,1,7,11
1.12E+03,-7837,-1236,-605,-86,77,116,1,7,11
1.09E+03,-7828,-1234,-600,-82,85,116,1,7,11
1.06E+03,-7821,-1236,-604,-81,101,109,1,7,11
1.04E+03,-7815,-1230,-594,-87,118,100,1,7,11
1.01E+03,-8060,-1228,-590,-96,-124,90,1,7,11
9.91E+02,-8055,-1215,-600,-110,-103,75,1,7,11
9.70E+02,-8057,-1207,-613,126,-79,63,1,7,11
9.46E+02,-8061,-1205,-615,99,-52,62,1,7,11
9.22E+02,-8063,-1193,-623,66,-17,60,1,7,11
8.98E+02,-8061,-1190,-626,26,-1,61,1,7,11
8.75E+02,-8051,-1193,-635,-296,267,61,1,7,11
8.55E+02,-8042,-1208,-391,-344,261,57,1,7,11
8.39E+02,-8030,-1240,-395,-371,-4,31,1,7,11
8.27E+02,-8060,-1259,-403,-154,272,-267,1,7,11
8.21E+02,-7848,-1258,-403,-165,267,-274,1,7,11
8.21E+02,-7829,-1254,-414,-165,-16,18,1,7,11
8.26E+02,-8048,-1257,-450,-163,-15,41,1,7,11
8.37E+02,-8044,-1254,-479,-172,290,39,1,7,11
8.52E+02,-7831,-1265,-469,-185,351,32,1,7,11
8.71E+02,-7868,-1537,-456,-179,375,59,1,7,11
8.94E+02,-7874,-1280,-440,-144,372,104,1,7,11
9.17E+02,-7828,-1277,-449,-361,348,-100,1,7,11
9.36E+02,-8044,-1545,-479,-335,356,-89,1,7,11
9.48E+02,-8027,-1268,-787,-296,148,-103,1,7,11
9.47E+02,-8039,-1215,-804,-282,206,-122,1,7,11
9.36E+02,-7827,-1190,-808,-288,253,-119,1,7,11
9.24E+02,-7821,-1192,-826,-318,255,-99,1,7,11
9.20E+02,-8051,-1198,-841,-340,212,-71,1,7,11
9.30E+02,-8060,-1200,-851,-353,192,-99,1,7,11
9.53E+02,-7812,-1192,-867,-361,165,-108,1,7,11
9.83E+02,-7821,-1190,-872,-130,144,-113,1,7,11
1.01E+03,-7830,-1195,-862,-135,380,-109,1,7,11
1.04E+03,-7834,-1203,-852,-377,349,-101,1,7,11
1.06E+03,-7828,-1205,-836,-346,310,-98,1,7,11
1.07E+03,-8052,-1204,-844,-312,257,-103,1,7,11
1.07E+03,-8026,-1208,-850,-281,-31,-128,1,7,11
1.06E+03,-8011,-1195,-870,14,-38,102,1,7,11
1.04E+03,-8007,-1180,-891,27,-31,79,1,7,11
1.02E+03,-8041,-1175,-641,17,-19,63,1,7,11
9.92E+02,-7837,-1188,-877,-262,-35,51,1,7,11
9.61E+02,-7864,-1199,-870,-273,-97,76,1,7,11
9.30E+02,-7840,-1189,-876,-268,88,114,1,7,11
9.04E+02,-7848,-1185,-876,-278,54,-121,1,7,11
8.89E+02,-7867,-1197,-852,-288,33,-81,1,7,11
8.88E+02,-7881,-1219,-824,-290,11,-31,1,7,11
8.99E+02,-7866,-1226,-799,-258,-268,266,1,7,11
9.13E+02,-7846,-1210,-775,47,-271,281,1,7,11
9.23E+02,-7837,-1181,-508,87,-268,283,1,7,11
9.23E+02,-7816,-1390,-501,110,-258,292,1,7,11
9.16E+02,-8060,-1359,-502,107,20,291,1,7,11
9.06E+02,-8062,-1334,-512,81,42,286,1,7,11
9.00E+02,-7809,-1332,-506,44,60,281,1,7,11
8.98E+02,-7827,-1338,-492,11,72,273,1,7,11
8.95E+02,-7828,-1351,-469,-269,61,265,1,7,11
8.86E+02,-7822,-1362,-453,-277,48,258,1,7,11
8.66E+02,-7829,-1358,-451,-270,49,-13,1,7,11
8.41E+02,-7844,-1338,-454,-266,58,-22,1,7,11
8.19E+02,-7856,-1320,-458,-267,63,-15,1,7,11
8.07E+02,-7860,-1309,-459,-275,69,-6,1,7,11
8.05E+02,-7873,-1306,-447,-287,69,262,1,7,11
8.08E+02,-7875,-1321,-440,-299,63,264,1,7,11
8.07E+02,-7854,-1323,-430,-288,55,-5,1,7,11
8.05E+02,-7828,-1299,-429,-266,56,-27,1,7,11
8.10E+02,-8064,-1019,-424,5,65,-54,1,7,11
8.32E+02,-8039,-974,-450,21,72,-64,1,7,11
8.78E+02,-8056,-970,-464,-265,93,-94,1,7,11
9.34E+02,-7825,-971,-486,-301,109,-97,1,7,11
9.86E+02,-7843,-987,-489,-350,108,-111,1,7,11
1.02E+03,-7827,-1008,-482,-129,78,-109,1,7,11
1.02E+03,-7823,-1015,-462,-142,87,124,1,7,11
9.99E+02,-7845,-1024,-457,-144,96,115,1,7,11
9.65E+02,-7867,-1281,-450,-139,107,-123,1,7,11
9.32E+02,-7889,-1024,-451,-381,115,-98,1,7,11
9.07E+02,-7879,-1288,-444,-363,120,-71,1,7,11
8.90E+02,-7854,-1282,-451,-336,-123,-65,1,7,11
8.76E+02,-7841,-1011,-469,-314,-68,-100,1,7,11
8.64E+02,-7852,-989,-488,-294,-18,121,1,7,11
8.55E+02,-7865,-977,-493,-310,271,91,1,7,11
8.53E+02,-7878,-983,-484,-335,279,79,1,7,11
8.62E+02,-7873,-999,-475,-347,271,71,1,7,11
8.81E+02,-7863,-1004,-476,-350,257,58,1,7,11
9.03E+02,-7845,-1009,-487,-350,-10,44,1,7,11
9.18E+02,-7836,-1005,-502,-362,-9,31,1,7,11
9.20E+02,-7836,-1014,-508,-381,257,17,1,7,11
9.07E+02,-7835,-1022,-770,-136,-1,14,1,7,11
8.82E+02,-7810,-1019,-781,-149,-13,16,1,7,11
8.48E+02,-8050,-1015,-799,-165,-5,4,1,7,11
8.12E+02,-8052,-1006,-816,-197,259,-272,1,7,11
7.83E+02,-7809,-1003,-823,-247,262,-275,1,7,11
7.72E+02,-7816,-1011,-831,-547,259,-271,1,7,11
7.85E+02,-7822,-1022,-841,-577,-2,0,1,7,11
8.14E+02,-7834,-1018,-842,-593,-4,28,1,7,11
8.49E+02,-7828,-1013,-852,-603,-16,62,1,7,11
8.80E+02,-7824,-1004,-857,-609,-20,96,1,7,11
9.04E+02,-7841,-1015,-853,-614,-13,120,1,7,11
9.21E+02,-7860,-1285,-844,-597,-26,-108,1,7,11
9.33E+02,-7857,-1295,-827,-561,-54,-91,1,7,11
9.40E+02,-7869,-1282,-828,-247,-76,-90,1,7,11
9.44E+02,-7868,-971,-848,-192,-100,-98,1,7,11
9.44E+02,-7881,-947,-855,-180,-125,-117,1,7,11
9.40E+02,-7896,-936,-841,-191,99,124,1,7,11
9.32E+02,-7891,-941,-827,-207,65,106,1,7,11
9.24E+02,-7880,-943,-814,-219,39,99,1,7,11
9.16E+02,-7863,-956,-781,-224,13,88,1,7,11
9.10E+02,-7846,-972,-510,-212,9,83,1,7,11
9.08E+02,-7822,-979,-501,-182,23,61,1,7,11
9.08E+02,-7813,-975,-496,-141,60,32,1,7,11
9.10E+02,-7818,-957,-498,-377,94,13,1,7,11
9.14E+02,-7822,-963,-509,-377,117,8,1,7,11
9.15E+02,-7844,-970,-510,-383,-123,-259,1,7,11
9.09E+02,-7850,-976,-501,-131,120,-261,1,7,11
8.91E+02,-7872,-988,-478,-133,107,-270,1,7,11
8.62E+02,-7885,-992,-474,-380,81,1,1,7,11
8.31E+02,-7870,-980,-473,-374,54,35,1,7,11
8.11E+02,-7849,-978,-479,-380,47,50,1,7,11
8.07E+02,-7853,-973,-479,-140,60,52,1,7,11
8.15E+02,-7859,-976,-466,-162,65,50,1,7,11
8.27E+02,-7860,-975,-453,-178,58,48,1,7,11
8.35E+02,-7863,-965,-446,-174,52,41,1,7,11
8.38E+02,-7861,-951,-435,-178,45,43,1,7,11
8.39E+02,-7862,-945,-426,-189,41,49,1,7,11
8.41E+02,-7854,-957,-422,-199,37,58,1,7,11
8.44E+02,-7842,-958,-423,-194,48,58,1,7,11
8.50E+02,-7844,-966,-413,-179,65,46,1,7,11
8.58E+02,-7856,-952,-410,-166,78,29,1,7,11
8.68E+02,-7861,-938,-406,-152,81,15,1,7,11
8.78E+02,-7868,-922,-417,-147,87,-263,1,7,11
8.89E+02,-7862,-916,-428,-155,89,-281,1,7,11
8.98E+02,-7857,-909,-436,-183,103,-308,1,7,11
9.05E+02,-7855,-916,-433,-221,-125,-337,1,7,11
9.14E+02,-7851,-929,-435,-250,-98,-364,1,7,11
9.27E+02,-7836,-946,-463,-529,-81,-129,1,7,11
9.48E+02,-8059,-954,-493,-546,-50,-167,1,7,11
9.70E+02,-7809,-968,-775,-589,-4,-216,1,7,11
9.86E+02,-7818,-972,-784,-625,283,-251,1,7,11
9.84E+02,-7836,-992,-792,-408,306,-531,1,7,11
9.58E+02,-7842,-1021,-802,-436,298,-527,1,7,11
9.14E+02,-7838,-1310,-813,-459,287,-531,1,7,11
8.68E+02,-7853,-1336,-820,-459,287,-546,1,7,11
8.39E+02,-7878,-1340,-820,-443,287,-553,1,7,11
8.33E+02,-7890,-1346,-812,-424,275,-528,1,7,11
8.46E+02,-7870,-1349,-824,-403,264,-240,1,7,11
8.71E+02,-7868,-1348,-808,-385,290,-239,1,7,11
8.99E+02,-7907,-1331,-777,-612,331,-242,1,7,11
9.29E+02,-7915,-1326,-506,-595,319,-222,1,7,11
9.58E+02,-7863,-1312,-794,-575,294,-215,1,7,11
9.84E+02,-8060,-1303,-839,-572,303,-513,1,7,11
1.01E+03,-8017,-1292,-884,-591,341,-576,1,7,11
1.02E+03,-7982,-1304,-681,-628,135,-632,1,7,11
1.04E+03,-7980,-1327,-703,-425,190,-429,1,7,11
1.05E+03,-7985,-1357,-728,-465,237,-456,1,7,11
1.06E+03,-8019,-1155,-726,-498,243,-460,1,7,11
1.07E+03,-8016,-1211,-732,-501,209,-435,1,7,11
1.08E+03,-8019,-1253,-729,-481,181,-435,1,7,11
1.08E+03,-8040,-1544,-733,-445,137,-424,1,7,11
1.09E+03,-8055,-1558,-729,-412,335,-389,1,7,11
1.09E+03,-8051,-1567,-732,-385,273,-598,1,7,11
1.09E+03,-8041,-1577,-729,-615,-34,-554,1,7,11
1.09E+03,-8040,-1594,-721,-597,-68,-520,1,7,11
1.09E+03,-7812,-1622,-695,-575,-125,-228,1,7,11
1.09E+03,-7824,-1628,-678,-553,78,-195,1,7,11
1.09E+03,-7828,-1634,-668,-526,33,-159,1,7,11
1.08E+03,-7831,-1644,-896,-242,-263,-381,1,7,11
1.08E+03,-7817,-1638,-884,-212,-301,-333,1,7,11
1.07E+03,-8059,-1637,-868,-182,-319,-301,1,7,11
1.06E+03,-8045,-1641,-833,-151,-322,-280,1,7,11
1.05E+03,-8038,-1645,-783,-131,-326,-265,1,7,11
1.03E+03,-8027,-1649,-773,-353,-326,2,1,7,11
1.01E+03,-7995,-1633,-774,-308,-318,9,1,7,11
9.90E+02,-7968,-1624,-775,-279,-291,-265,1,7,11
9.67E+02,-7952,-1600,-801,-266,7,-310,1,7,11
9.46E+02,-7977,-1589,-814,-276,49,-343,1,7,11
9.30E+02,-8008,-1579,-806,-302,99,-354,1,7,11
9.22E+02,-8029,-1582,-794,-344,114,-336,1,7,11
9.22E+02,-8056,-1592,-781,-361,120,-303,1,7,11
9.29E+02,-8051,-1605,-774,-370,112,1,1,7,11
9.42E+02,-8034,-1626,-773,-375,108,38,1,7,11
9.60E+02,-8013,-1631,-786,-362,-125,59,1,7,11
9.82E+02,-8015,-1628,-790,-352,-84,62,1,7,11
1.00E+03,-8015,-1617,-792,-338,-48,71,1,7,11
1.02E+03,-8032,-1624,-792,-338,-12,71,1,7,11
1.03E+03,-8046,-1634,-796,-327,-16,80,1,7,11
1.04E+03,-8018,-1632,-809,-302,-37,97,1,7,11
1.02E+03,-7978,-1615,-836,-273,-32,88,1,7,11
9.87E+02,-7965,-1590,-878,-259,-1,63,1,7,11
9.36E+02,-7977,-1560,-668,-274,300,43,1,7,11
8.86E+02,-8012,-1547,-700,-311,342,35,1,7,11
8.55E+02,-7810,-1554,-716,-357,367,49,1,7,11
8.57E+02,-7840,-1570,-722,-140,352,83,1,7,11
8.87E+02,-7834,-1594,-720,-156,315,111,1,7,11
9.34E+02,-8061,-1617,-729,-149,279,115,1,7,11
9.85E+02,-8020,-1614,-748,-375,264,99,1,7,11
1.03E+03,-8019,-1606,-764,-356,284,58,1,7,11
1.07E+03,-8055,-1599,-1027,-339,304,32,1,7,11
1.10E+03,-7824,-1599,-765,-328,288,45,1,7,11
1.12E+03,-8058,-1595,-764,-317,-2,72,1,7,11
1.14E+03,-8031,-1606,-754,-311,-41,86,1,7,11
1.14E+03,-7993,-1611,-753,-294,-57,76,1,7,11
1.13E+03,-7980,-1607,-758,-281,-62,47,1,7,11
1.12E+03,-7978,-1601,-764,-291,-69,33,1,7,11
1.10E+03,-7976,-1602,-766,-313,-80,23,1,7,11
1.08E+03,-7974,-1601,-762,-331,-89,-261,1,7,11
1.06E+03,-7978,-1596,-764,-347,-94,-297,1,7,11
1.03E+03,-7997,-1582,-767,-359,-104,-337,1,7,11
1.01E+03,-8023,-1577,-763,-374,124,-354,1,7,11
1.00E+03,-8035,-1598,-751,-381,82,-343,1,7,11
9.97E+02,-8038,-1607,-745,-375,51,-324,1,7,11
9.95E+02,-8039,-1616,-732,-360,24,-303,1,7,11
9.94E+02,-8048,-1624,-723,-335,9,-277,1,7,11
9.92E+02,-8061,-1625,-693,-309,-263,14,1,7,11
9.87E+02,-8063,-1635,-677,-280,-281,61,1,7,11
9.80E+02,-7811,-1648,-892,5,-298,94,1,7,11
9.70E+02,-7809,-1658,-871,46,-314,122,1,7,11
9.59E+02,-8061,-1656,-850,85,-328,-119,1,7,11
9.45E+02,-8060,-1648,-837,119,-339,-100,1,7,11
9.31E+02,-8047,-1638,-821,-116,-347,-94,1,7,11
9.17E+02,-8040,-1631,-805,-99,-360,-83,1,7,11
9.04E+02,-8031,-1623,-791,-82,-368,-78,1,7,11
8.95E+02,-8032,-1607,-772,-64,-365,-81,1,7,11
8.95E+02,-8034,-1596,-499,-59,-356,-83,1,7,11
9.07E+02,-8035,-1600,-476,-61,-354,-81,1,7,11
9.29E+02,-8035,-1595,-452,-54,-358,-77,1,7,11
9.58E+02,-8026,-1597,-440,-41,-364,-72,1,7,11
9.88E+02,-8011,-1598,-428,-25,-360,-75,1,7,11
1.02E+03,-7994,-1585,-440,-6,-348,-82,1,7,11
1.04E+03,-7999,-1577,-440,-11,-320,-109,1,7,11
1.06E+03,-8015,-1561,-445,-37,-291,-127,1,7,11
1.08E+03,-8051,-1562,-432,-75,-268,118,1,7,11
1.09E+03,-7826,-1580,-413,-111,-272,125,1,7,11
1.10E+03,-7831,-1598,-390,-126,-291,-111,1,7,11
1.11E+03,-7833,-1606,-386,126,-288,-114,1,7,11
1.12E+03,-7839,-1609,-634,-125,-277,-118,1,7,11
1.13E+03,-7835,-1597,-629,-122,-260,-118,1,7,11
1.13E+03,-7811,-1576,-632,-115,21,-120,1,7,11
1.13E+03,-8064,-1556,-634,-126,61,124,1,7,11
1.12E+03,-8058,-1547,-633,103,90,110,1,7,11
1.12E+03,-8038,-1552,-638,73,114,91,1,7,11
1.10E+03,-8015,-1558,-388,42,-95,35,1,7,11
1.08E+03,-8025,-1565,-392,-284,-63,-267,1,7,11
1.06E+03,-8032,-1583,-414,-335,-45,-304,1,7,11
1.03E+03,-8046,-1583,-418,-375,-37,-330,1,7,11
1.01E+03,-8032,-1569,-445,-157,-36,-335,1,7,11
9.89E+02,-8037,-1580,-470,-213,-36,-336,1,7,11
9.74E+02,-8035,-1592,-475,-519,-40,-316,1,7,11
9.63E+02,-8051,-1608,-478,-557,-37,-306,1,7,11
9.53E+02,-8060,-1625,-478,-576,-49,-281,1,7,11
9.44E+02,-8053,-1635,-484,-586,-65,4,1,7,11
9.36E+02,-8046,-1645,-516,-588,-73,25,1,7,11
9.34E+02,-8034,-1638,-785,-582,-68,45,1,7,11
9.39E+02,-8059,-1643,-771,-580,-34,55,1,7,11
9.52E+02,-7825,-1645,-503,-556,-26,75,1,7,11
9.71E+02,-7830,-1653,-503,-521,-30,102,1,7,11
9.88E+02,-7815,-1660,-503,-224,-35,118,1,7,11
9.99E+02,-8058,-1409,-508,-177,-38,119,1,7,11
1.00E+03,-8044,-1659,-781,-137,-32,108,1,7,11
9.97E+02,-8036,-1642,-792,-360,-24,88,1,7,11
9.94E+02,-8038,-1625,-799,-343,-20,73,1,7,11
9.95E+02,-8040,-1604,-807,-335,-32,73,1,7,11
1.01E+03,-8042,-1592,-824,-341,-52,80,1,7,11
1.02E+03,-8037,-1593,-818,-352,-72,92,1,7,11
1.04E+03,-8030,-1590,-814,-356,-90,106,1,7,11
1.06E+03,-8031,-1599,-816,-356,-100,118,1,7,11
1.07E+03,-8041,-1603,-803,-351,-106,-121,1,7,11
1.08E+03,-8050,-1608,-797,-335,-117,-102,1,7,11
1.09E+03,-8059,-1610,-794,-308,125,-83,1,7,11
1.09E+03,-7811,-1596,-786,-273,114,-65,1,7,11
1.08E+03,-7831,-1583,-778,8,104,-55,1,7,11
1.07E+03,-7848,-1575,-503,33,87,-38,1,7,11
1.06E+03,-7854,-1567,-488,56,59,-17,1,7,11
1.04E+03,-7841,-1561,-467,82,40,-9,1,7,11
1.02E+03,-7833,-1555,-454,106,37,-11,1,7,11
9.98E+02,-7821,-1275,-437,123,42,-26,1,7,11
9.83E+02,-7826,-1255,-429,119,46,-49,1,7,11
9.75E+02,-7816,-1248,-422,104,41,-62,1,7,11
9.79E+02,-7824,-1256,-402,78,39,-91,1,7,11
9.94E+02,-7825,-1266,-388,61,21,-108,1,7,11
1.02E+03,-7820,-1270,-633,57,8,122,1,7,11
1.04E+03,-7823,-1264,-623,59,11,113,1,7,11
1.06E+03,-7822,-1251,-618,58,23,120,1,7,11
1.08E+03,-7817,-1245,-617,55,43,-125,1,7,11
1.10E+03,-7823,-1238,-617,52,70,-116,1,7,11
1.11E+03,-7833,-1235,-617,48,97,-112,1,7,11
1.12E+03,-7836,-1233,-607,50,113,-107,1,7,11
1.12E+03,-7833,-1225,-602,48,114,-109,1,7,11
1.12E+03,-7820,-1218,-616,44,116,-117,1,7,11
1.11E+03,-7813,-1208,-626,25,127,111,1,7,11
1.09E+03,-7831,-1214,-620,-258,-113,77,1,7,11
1.07E+03,-7851,-1223,-610,-275,-107,62,1,7,11
1.04E+03,-7835,-1224,-610,-282,-114,72,1,7,11
1.01E+03,-7825,-1243,-610,-302,-111,75,1,7,11
9.83E+02,-8062,-1261,-616,-313,-106,80,1,7,11
9.69E+02,-7816,-1269,-609,-312,-78,52,1,7,11
9.69E+02,-7825,-1276,-613,-302,-62,38,1,7,11
9.80E+02,-7832,-1274,-623,-300,-49,31,1,7,11
1.00E+03,-7832,-1275,-630,-293,-34,30,1,7,11
1.03E+03,-7815,-1269,-392,-292,-12,36,1,7,11
1.06E+03,-8064,-1272,-403,-298,274,26,1,7,11
1.08E+03,-7816,-1279,-417,-310,304,6,1,7,11
1.09E+03,-7820,-1543,-426,-323,314,-272,1,7,11
1.09E+03,-7818,-1563,-434,-334,310,-287,1,7,11
1.06E+03,-7809,-1583,-452,-335,299,-297,1,7,11
1.02E+03,-8054,-1596,-462,-323,296,-296,1,7,11
9.79E+02,-8049,-1612,-456,-304,308,-291,1,7,11
9.45E+02,-8041,-1431,-423,-285,304,-276,1,7,11
9.27E+02,-7985,-1519,-402,60,313,9,1,7,11
9.23E+02,-7938,-1912,-637,-63,359,-264,1,7,11
9.32E+02,-7581,-1769,-615,190,188,-260,1,7,11
9.52E+02,-7758,-1961,-547,775,608,-303,1,7,11
9.77E+02,-7733,-2341,-546,1364,642,-305,1,7,11
1.00E+03,-7743,-2350,-622,2060,955,-261,1,7,11
1.02E+03,-7345,-2279,-406,2625,1401,-100,1,7,11
1.02E+03,-7085,-2686,-594,3398,1813,302,1,7,11
1.00E+03,-7230,-2414,-1309,4451,2279,332,1,7,11
9.80E+02,-6886,-884,-1908,5102,3057,147,1,7,11
9.56E+02,-8044,-35,-1743,4795,4164,-252,1,7,11
9.41E+02,-8927,595,-1801,3370,4200,-994,1,7,11
9.40E+02,-9376,776,-1486,1325,2384,-992,1,7,11
9.51E+02,-9593,634,-1460,-2157,253,-978,1,7,11
9.75E+02,-9141,122,-1597,-2968,-622,-966,1,7,11
1.01E+03,-8906,-1039,-1336,-5134,-2831,-1095,1,7,11
1.05E+03,-8760,-1971,-1032,-6292,-3714,-770,1,7,11
1.10E+03,-8056,-3332,-867,-6003,-4659,-269,1,7,11
1.14E+03,-6844,-4110,-861,-4405,-4333,145,1,7,11
1.17E+03,-6419,-4407,-852,-2081,-3410,133,1,7,11
1.19E+03,-6408,-4159,-665,847,-1242,126,1,7,11
1.19E+03,-6504,-2764,-1331,3272,607,267,1,7,11
1.18E+03,-6644,-1244,-1470,4873,2112,264,1,7,11
1.15E+03,-7637,-246,-1640,4022,2854,-190,1,7,11
1.12E+03,-8653,274,-1330,2529,2295,-502,1,7,11
1.07E+03,-9154,417,-992,1051,1311,-723,1,7,11
1.03E+03,-9212,785,-1296,-1314,-612,-987,1,7,11
9.91E+02,-9290,250,-984,-3589,-2151,-1184,1,7,11
9.63E+02,-8937,-575,-706,-5373,-3449,-1194,1,7,11
9.49E+02,-8819,-1694,-638,-6572,-4653,-687,1,7,11
9.46E+02,-8029,-3068,-155,-6292,-5035,-115,1,7,11
9.51E+02,-6815,-4050,-320,-4941,-4762,496,1,7,11
9.59E+02,-6096,-4760,62,-2287,-3523,656,1,7,11
9.67E+02,-5843,-5155,69,893,-1449,785,1,7,11
9.77E+02,-5829,-4422,-617,4035,449,808,1,7,11
9.89E+02,-5841,-2914,-1323,6585,2576,727,1,7,11
1.00E+03,-6759,-1549,-1662,7048,3802,514,1,7,11
1.02E+03,-8035,-452,-1216,6234,4693,-310,1,7,11
1.03E+03,-9015,296,-1324,4487,4106,-357,1,7,11
1.05E+03,-9121,733,-1356,2520,2659,28,1,7,11
1.07E+03,-9571,890,-721,-381,665,-378,1,7,11
1.09E+03,-9456,-157,-351,-2787,-1044,-152,1,7,11
1.11E+03,-9237,-1464,-74,-4115,-2600,144,1,7,11
1.12E+03,-8298,-2189,83,-3694,-3379,668,1,7,11
1.12E+03,-7136,-2938,-289,-2820,-3003,758,1,7,11
1.09E+03,-6531,-3045,-305,-1245,-2142,842,1,7,11
1.06E+03,-6322,-2769,-226,442,-367,568,1,7,11
1.02E+03,-6540,-1772,-872,2364,1474,268,1,7,11
9.92E+02,-7400,-906,-675,2303,2768,-243,1,7,11
9.89E+02,-8363,-777,-417,1522,2999,-782,1,7,11
1.01E+03,-8857,-188,-424,883,2606,-817,1,7,11
1.04E+03,-9270,122,-839,-560,1242,-720,1,7,11
1.08E+03,-9274,-91,-779,-2156,-15,-1138,1,7,11
1.12E+03,-8927,-197,-388,-3488,-947,-921,1,7,11
1.15E+03,-8851,-1214,-242,-4875,-1996,-750,1,7,11
1.17E+03,-8506,-2009,-199,-5219,-3279,40,1,7,11
1.19E+03,-6888,-3424,-333,-2983,-3072,466,1,7,11
1.21E+03,-8548,-500,-610,3123,2534,-340,1,7,11
1.22E+03,-9010,-160,-604,2424,1949,-148,1,7,11
1.23E+03,-8951,6,-386,1367,924,-144,1,7,11
1.23E+03,-8901,-348,-396,114,40,-364,1,7,11
1.22E+03,-9011,-510,-567,-1343,-982,-327,1,7,11
1.20E+03,-8747,-1391,-179,-2136,-1774,73,1,7,11
1.16E+03,-8313,-1689,-329,-1974,-2194,305,1,7,11
1.12E+03,-7640,-2032,-277,-1478,-2393,149,1,7,11
1.07E+03,-7411,-2197,5,-673,-1692,154,1,7,11
1.03E+03,-7518,-2367,-304,291,-1343,192,1,7,11
1.00E+03,-7504,-2114,-381,1097,-422,172,1,7,11
1.00E+03,-7387,-1858,-380,1276,-90,323,1,7,11
1.01E+03,-7630,-1654,-270,1451,598,-56,1,7,11
1.03E+03,-7905,-1190,35,1481,792,121,1,7,11
1.04E+03,-8126,-898,25,1598,468,-105,1,7,11
1.05E+03,-8138,-1104,16,967,222,-40,1,7,11
1.06E+03,-8116,-903,25,452,-97,258,1,7,11
1.07E+03,-8097,-1021,43,-7,-227,-33,1,7,11
1.07E+03,-8075,-1155,61,-593,-418,-44,1,7,11
1.08E+03,-8281,-1279,78,-799,-833,-23,1,7,11
1.09E+03,-8211,-1646,99,-892,-665,268,1,7,11
1.09E+03,-7870,-1456,83,-880,-685,286,1,7,11
1.08E+03,-7811,-1483,80,-806,-893,275,1,7,11
1.07E+03,-8038,-1455,70,-469,-810,-31,1,7,11
1.05E+03,-7810,-1656,93,-410,-469,-113,1,7,11
1.02E+03,-7875,-1606,-124,-392,-396,59,1,7,11
9.97E+02,-7935,-1219,-113,-617,-618,22,1,7,11
9.78E+02,-7928,-1314,111,-424,-411,15,1,7,11
9.64E+02,-8202,-991,-128,-705,-468,-304,1,7,11
9.59E+02,-8228,-1300,-30,-1320,-810,-382,1,7,11
9.64E+02,-8246,-1377,317,-1572,-895,-178,1,7,11
9.79E+02,-8233,-1192,368,-1459,-716,-203,1,7,11
1.00E+03,-7921,-1230,379,-1525,-732,-211,1,7,11
1.03E+03,-7871,-1237,352,-1815,-669,-235,1,7,11
1.06E+03,-7863,-1251,346,-1867,-815,-232,1,7,11
1.10E+03,-7863,-1567,362,-1665,-490,-174,1,7,11
1.13E+03,-7831,-1424,144,-1667,-423,-360,1,7,11
1.16E+03,-7814,-1519,176,-1812,-571,-342,1,7,11
1.19E+03,-7834,-1521,179,-1567,-183,-338,1,7,11
1.21E+03,-7813,-1415,326,-1307,-353,-296,1,7,11
1.23E+03,-7811,-1575,324,-936,-273,-296,1,7,11
1.25E+03,-7859,-1588,364,-943,55,-350,1,7,11
1.26E+03,-8218,-1612,145,-1132,91,-176,1,7,11
1.25E+03,-8249,-1643,174,-1051,34,-160,1,7,11
1.23E+03,-8243,-1421,185,-696,-286,-137,1,7,11
1.19E+03,-8232,-1436,183,-844,-338,-374,1,7,11
1.14E+03,-8203,-1428,173,-488,-139,-341,1,7,11
1.07E+03,-8193,-1436,188,-432,-171,-333,1,7,11
1.02E+03,-8204,-1460,204,-637,-198,-312,1,7,11
9.92E+02,-8225,-1517,225,-573,-234,-235,1,7,11
9.93E+02,-8242,-1504,250,-210,-255,74,1,7,11
1.01E+03,-8287,-1454,236,-340,-519,-98,1,7,11
1.05E+03,-8252,-1659,219,19,-584,256,1,7,11
1.08E+03,-8280,-1661,524,-262,-584,-5,1,7,11
1.10E+03,-8288,-1627,547,35,-604,264,1,7,11
1.11E+03,-8277,-1615,589,51,-635,275,1,7,11
1.11E+03,-8238,-1633,617,25,-426,281,1,7,11
1.12E+03,-7896,-1451,404,18,-465,274,1,7,11
1.12E+03,-7817,-1508,433,101,-452,-33,1,7,11
1.13E+03,-8021,-1819,458,-67,-398,74,1,7,11
1.14E+03,-7978,-1884,491,294,-609,-310,1,7,11
1.13E+03,-7954,-1871,490,239,-538,-210,1,7,11
1.12E+03,-7976,-1514,476,417,-162,-612,1,7,11
1.09E+03,-7883,-1615,448,484,-281,-440,1,7,11
1.05E+03,-8228,-1537,442,423,-299,-563,1,7,11
1.02E+03,-7934,-1220,401,410,-348,-161,1,7,11
9.86E+02,-8237,-1170,403,623,-293,-139,1,7,11
9.66E+02,-8092,-1391,429,527,31,-365,1,7,11
9.59E+02,-8163,-1173,482,382,20,-295,1,7,11
9.67E+02,-8176,-1170,778,310,-295,28,1,7,11
9.88E+02,-8134,-1401,806,286,-132,121,1,7,11
1.02E+03,-8289,-1399,848,-82,-207,-58,1,7,11
1.06E+03,-8201,-1222,886,27,-250,-75,1,7,11
1.08E+03,-7903,-1571,662,-317,-515,111,1,7,11
1.09E+03,-7860,-1426,675,-322,-235,45,1,7,11
1.08E+03,-7880,-1429,686,-265,-154,-280,1,7,11
1.04E+03,-7870,-1412,704,65,-350,-262,1,7,11
1.00E+03,-7833,-1418,683,-101,-330,65,1,7,11
9.78E+02,-7834,-1423,673,-31,-257,67,1,7,11
9.84E+02,-8049,-1472,666,-56,61,86,1,7,11
1.02E+03,-8054,-1466,658,35,-73,1,1,7,11
1.06E+03,-7933,-1651,650,139,329,-370,1,7,11
1.11E+03,-8232,-1589,863,171,351,-340,1,7,11
1.16E+03,-8223,-1547,852,144,356,-302,1,7,11
1.19E+03,-8246,-1250,820,137,379,-330,1,7,11
1.20E+03,-8290,-1241,850,-34,356,-140,1,7,11
1.21E+03,-8084,-1556,659,45,288,-157,1,7,11
1.22E+03,-8301,-1601,674,-303,-87,-153,1,7,11
1.22E+03,-8206,-1636,660,-339,53,-151,1,7,11
1.21E+03,-7847,-1426,640,-372,1,-167,1,7,11
1.21E+03,-7828,-1474,660,-140,39,-219,1,7,11
1.21E+03,-7887,-1815,730,-142,65,-516,1,7,11
1.20E+03,-7885,-1892,1037,-294,63,-196,1,7,11
1.20E+03,-7876,-1699,1063,-126,89,-377,1,7,11
1.19E+03,-7846,-1725,1070,335,-118,-266,1,7,11
1.19E+03,-8064,-1729,1060,550,-39,120,1,7,11
1.19E+03,-7975,-1731,737,486,293,-5,1,7,11
1.18E+03,-7652,-1721,693,869,180,261,1,7,11
1.18E+03,-7985,-1667,679,724,391,-108,1,7,11
1.18E+03,-7887,-1826,690,1030,813,85,1,7,11
1.18E+03,-8253,-1474,685,1028,867,-121,1,7,11
1.18E+03,-8274,-1630,641,745,847,-53,1,7,11
1.18E+03,-8312,-1217,820,828,831,-42,1,7,11
1.18E+03,-8316,-1174,790,209,484,-50,1,7,11
1.18E+03,-8301,-1154,791,117,636,-69,1,7,11
1.17E+03,-8084,-1153,820,-184,546,-128,1,7,11
1.17E+03,-8093,-1398,806,-410,166,-114,1,7,11
1.17E+03,-8305,-1196,799,-895,287,-58,1,7,11
1.17E+03,-8242,-1273,795,-1041,-61,260,1,7,11
1.17E+03,-8203,-1631,823,-1098,-106,301,1,7,11
1.17E+03,-7881,-1473,816,-1030,-124,332,1,7,11
1.17E+03,-7842,-1813,802,-867,-96,343,1,7,11
1.17E+03,-8049,-1836,502,-611,-34,329,1,7,11
1.17E+03,-8000,-1533,440,-319,347,280,1,7,11
1.16E+03,-8025,-1480,408,-97,521,-44,1,7,11
1.16E+03,-7838,-1421,402,355,419,-96,1,7,11
1.16E+03,-7917,-1644,398,243,769,-122,1,7,11
1.15E+03,-7930,-1626,388,635,820,120,1,7,11
1.15E+03,-8206,-1586,596,466,851,107,1,7,11
1.15E+03,-8224,-1550,559,498,867,108,1,7,11
1.15E+03,-8253,-1554,527,777,850,114,1,7,11
1.15E+03,-8294,-1562,248,794,829,-119,1,7,11
1.15E+03,-8300,-1613,246,461,772,-82,1,7,11
1.15E+03,-8276,-1648,228,422,441,-56,1,7,11
1.15E+03,-8250,-1652,185,431,624,-33,1,7,11
1.15E+03,-8215,-1613,143,461,597,-12,1,7,11
1.15E+03,-8228,-1590,131,414,587,-15,1,7,11
1.15E+03,-8229,-1599,142,610,548,264,1,7,11
1.14E+03,-8226,-1633,157,573,255,291,1,7,11
1.13E+03,-7929,-1415,163,579,218,322,1,7,11
1.11E+03,-7882,-1440,155,615,221,315,1,7,11
1.09E+03,-7867,-1447,153,409,515,294,1,7,11
1.07E+03,-7875,-1422,158,460,565,283,1,7,11
1.04E+03,-7901,-1416,166,502,591,300,1,7,11
1.01E+03,-7867,-1647,145,823,603,369,1,7,11
9.71E+02,-7867,-1664,140,869,388,151,1,7,11
9.39E+02,-7864,-1657,380,705,426,190,1,7,11
9.15E+02,-7841,-1632,333,1060,460,216,1,7,11
9.01E+02,-7824,-1587,298,1133,499,224,1,7,11
8.98E+02,-7831,-1539,263,915,803,224,1,7,11
9.04E+02,-7874,-1242,-14,906,840,203,1,7,11
9.17E+02,-7909,-1184,-38,1118,846,175,1,7,11
9.36E+02,-7936,-1158,-44,767,821,140,1,7,11
9.58E+02,-8250,-1154,-33,650,779,353,1,7,11
9.80E+02,-8274,-1384,-64,811,432,310,1,7,11
1.00E+03,-8280,-1346,-98,441,594,-22,1,7,11
1.02E+03,-8287,-1314,124,536,249,-79,1,7,11
1.04E+03,-8296,-1352,-120,323,153,-109,1,7,11
1.05E+03,-8250,-1199,-82,-98,303,-96,1,7,11
1.07E+03,-8246,-1263,-68,60,-30,127,1,7,11
1.07E+03,-8209,-1539,-81,52,-111,119,1,7,11
1.08E+03,-7922,-1563,-76,55,86,70,1,7,11
1.08E+03,-7925,-1600,-59,67,60,25,1,7,11
1.09E+03,-8204,-1636,-37,105,29,8,1,7,11
1.09E+03,-7930,-1654,-52,-67,-280,3,1,7,11
1.09E+03,-8196,-1662,-80,-9,-336,-264,1,7,11
1.08E+03,-8194,-1421,-79,268,-143,-265,1,7,11
1.08E+03,-8217,-1434,-48,315,-184,-279,1,7,11
1.07E+03,-8267,-1638,-21,376,-237,-297,1,7,11
1.07E+03,-8270,-1268,-37,380,-577,-276,1,7,11
1.06E+03,-8259,-1194,-3,-24,-413,-277,1,7,11
1.05E+03,-8226,-1380,292,58,-485,-304,1,7,11
1.03E+03,-8205,-1306,330,-160,-502,-366,1,7,11
1.02E+03,-8208,-998,132,-389,-502,-152,1,7,11
1.01E+03,-7929,-947,159,-889,-490,-165,1,7,11
9.88E+02,-7896,-953,175,-910,-457,-162,1,7,11
9.70E+02,-7826,-986,198,-1204,-408,-137,1,7,11
9.51E+02,-8034,-1292,217,-1460,-553,-156,1,7,11
9.33E+02,-8016,-1329,228,-1676,-165,-202,1,7,11
9.18E+02,-8003,-1394,239,-2150,-294,-522,1,7,11
9.09E+02,-8046,-1573,208,-2408,340,-420,1,7,11
9.07E+02,-8058,-1628,209,-2394,184,-420,1,7,11
9.07E+02,-7825,-1662,196,-2338,527,-410,1,7,11
9.07E+02,-7869,-1481,214,-2001,575,-638,1,7,11
9.03E+02,-7903,-1844,249,-2102,600,-606,1,7,11
8.93E+02,-8287,-2056,567,-1795,599,-590,1,7,11
8.81E+02,-8081,-2077,500,-1007,514,-227,1,7,11
8.68E+02,-8288,-1766,153,-437,144,-132,1,7,11
8.58E+02,-8220,-1697,341,17,318,-353,1,7,11
8.52E+02,-8239,-1903,327,366,289,-371,1,7,11
8.51E+02,-8232,-1822,332,412,261,-361,1,7,11
8.55E+02,-8272,-1463,348,650,272,-353,1,7,11
8.64E+02,-8251,-1615,337,1043,-31,-291,1,7,11
8.76E+02,-8207,-1563,345,1056,-66,12,1,7,11
8.89E+02,-8209,-1538,350,650,-49,40,1,7,11
9.00E+02,-8197,-1268,366,775,-36,90,1,7,11
9.12E+02,-7911,-1234,364,634,259,123,1,7,11
9.23E+02,-7903,-1230,362,198,318,-96,1,7,11
9.34E+02,-7878,-1239,363,288,366,-32,1,7,11
9.45E+02,-7838,-1545,369,96,143,259,1,7,11
9.57E+02,-7845,-1589,375,-301,200,-17,1,7,11
9.69E+02,-7865,-1616,134,-139,231,-34,1,7,11
9.81E+02,-7833,-1646,380,-178,238,-44,1,7,11
9.93E+02,-7820,-1414,345,-189,523,-94,1,7,11
1.00E+03,-7830,-1454,321,-186,558,74,1,7,11
1.01E+03,-7913,-1450,318,-374,591,-298,1,7,11
1.02E+03,-7894,-1440,270,-272,528,-332,1,7,11
1.03E+03,-7873,-1460,-31,63,241,-158,1,7,11
1.03E+03,-7868,-1479,-55,-123,241,-253,1,7,11
1.03E+03,-7894,-1502,-56,-60,247,-571,1,7,11
1.03E+03,-7899,-1514,-64,278,232,-586,1,7,11
1.02E+03,-7902,-1504,-95,342,215,-568,1,7,11
1.01E+03,-7897,-1509,-107,354,204,-515,1,7,11
9.92E+02,-7912,-1491,-115,373,205,-188,1,7,11
9.71E+02,-7921,-1453,123,136,195,-344,1,7,11
9.51E+02,-7857,-1440,105,362,167,27,1,7,11
9.38E+02,-7830,-1442,99,306,184,73,1,7,11
9.36E+02,-7881,-1423,103,-68,188,95,1,7,11
9.43E+02,-7885,-1453,99,69,380,-96,1,7,11
9.54E+02,-7851,-1477,99,9,350,-65,1,7,11
9.62E+02,-7842,-1477,100,-296,346,-81,1,7,11
9.63E+02,-7827,-1485,99,-355,341,-62,1,7,11
9.60E+02,-8046,-1798,116,-162,337,-34,1,7,11
9.56E+02,-8044,-1880,-118,-165,369,-48,1,7,11
9.58E+02,-7810,-1678,-99,-347,129,-80,1,7,11
9.68E+02,-8037,-1696,-107,35,134,-120,1,7,11
9.78E+02,-8018,-1666,109,-68,187,56,1,7,11
9.81E+02,-8038,-1902,73,291,247,-273,1,7,11
9.68E+02,-8049,-1666,61,349,553,-318,1,7,11
9.37E+02,-8026,-1726,68,177,585,-129,1,7,11
9.00E+02,-8050,-1724,51,585,385,-522,1,7,11
8.74E+02,-7814,-1913,8,451,390,-640,1,7,11
8.71E+02,-7845,-1856,-293,480,611,-494,1,7,11
8.91E+02,-7860,-1817,-322,451,561,-820,1,7,11
9.23E+02,-7853,-1859,-319,609,226,-858,1,7,11
9.56E+02,-7834,-1917,-317,542,167,-675,1,7,11
9.80E+02,-7836,-1686,-315,240,380,-1056,1,7,11
9.93E+02,-7878,-1679,-318,202,341,-1151,1,7,11
9.96E+02,-7892,-1916,-324,132,267,-903,1,7,11
9.91E+02,-7836,-1724,-319,274,-83,-1090,1,7,11
9.78E+02,-8038,-1783,-318,-30,-99,-1086,1,7,11
9.59E+02,-8042,-2051,-305,-36,-76,-1114,1,7,11
9.37E+02,-8051,-2087,-280,-73,-100,-1104,1,7,11
9.14E+02,-7997,-2147,-307,-65,124,-1057,1,7,11
8.92E+02,-7969,-2176,-322,-61,-126,-1057,1,7,11
8.76E+02,-7969,-1959,-312,-51,-85,-1078,1,7,11
8.70E+02,-7972,-2004,-303,-73,-72,-1090,1,7,11
8.79E+02,-8023,-2015,-300,-50,-74,-1114,1,7,11
8.99E+02,-8050,-2031,-303,-34,-120,-1050,1,7,11
9.27E+02,-8029,-2047,-309,-36,89,-715,1,7,11
9.56E+02,-7984,-2333,-319,-23,57,-656,1,7,11
9.84E+02,-7951,-2383,-315,-41,52,-885,1,7,11
1.01E+03,-7941,-2184,-293,-29,72,-653,1,7,11
1.03E+03,-7979,-2230,4,259,89,-690,1,7,11
1.05E+03,-7983,-2224,15,336,79,-683,1,7,11
1.06E+03,-7958,-2246,17,305,-281,-674,1,7,11
1.07E+03,-7939,-2261,22,258,-316,-658,1,7,11
1.08E+03,-7645,-2295,26,-57,-333,-643,1,7,11
1.08E+03,-7611,-2594,41,-106,-330,-659,1,7,11
1.07E+03,-7606,-2646,64,101,-314,-664,1,7,11
1.04E+03,-7587,-2450,91,79,-301,-664,1,7,11
1.00E+03,-7600,-2490,120,84,-272,-688,1,7,11
9.62E+02,-7627,-2510,-121,87,-279,-674,1,7,11
9.33E+02,-7604,-2526,121,102,-276,-865,1,7,11
9.22E+02,-7575,-2549,125,-126,18,-830,1,7,11
9.24E+02,-7565,-2858,-116,105,49,-783,1,7,11
9.34E+02,-7763,-2917,-122,95,60,-493,1,7,11
9.45E+02,-7775,-2938,-106,122,117,-793,1,7,11
9.52E+02,-7565,-2712,-88,-95,-97,-838,1,7,11
9.60E+02,-7592,-2716,-73,-24,-81,-804,1,7,11
9.71E+02,-7585,-2745,-61,303,-81,-467,1,7,11
9.88E+02,-7796,-2743,-87,144,-56,-613,1,7,11
1.01E+03,-7800,-2736,-109,213,-12,-591,1,7,11
1.04E+03,-7801,-2712,-127,252,277,-530,1,7,11
1.05E+03,-7789,-2728,-113,211,275,-209,1,7,11
1.04E+03,-7781,-2735,-116,172,277,-172,1,7,11
1.01E+03,-7806,-2733,-103,140,286,-168,1,7,11
9.62E+02,-7577,-2727,-102,346,287,-143,1,7,11
9.20E+02,-7562,-2730,-105,260,264,-364,1,7,11
8.98E+02,-7808,-2716,-108,-39,269,-324,1,7,11
9.01E+02,-7808,-2702,-128,-109,272,-283,1,7,11
9.19E+02,-7803,-2712,-114,41,-5,19,1,7,11
9.42E+02,-7564,-2744,-95,-297,-23,61,1,7,11
9.60E+02,-7802,-2738,-98,-333,-55,-107,1,7,11
9.70E+02,-7742,-2747,-114,-345,-62,-84,1,7,11
9.78E+02,-7724,-2768,-118,-383,-44,-98,1,7,11
9.89E+02,-7713,-2804,-96,-134,-3,106,1,7,11
1.01E+03,-7790,-2806,-84,-343,297,73,1,7,11
1.03E+03,-7797,-2804,-87,-304,261,110,1,7,11
1.05E+03,-7794,-2796,-102,3,-9,-123,1,7,11
1.07E+03,-7782,-2762,123,46,-29,-123,1,7,11
1.08E+03,-7584,-2751,-128,-262,-93,61,1,7,11
1.09E+03,-7568,-2759,112,-271,119,33,1,7,11
1.08E+03,-7802,-2763,104,12,-116,-264,1,7,11
1.06E+03,-7554,-2724,107,34,-72,-286,1,7,11
1.04E+03,-7784,-2745,121,-274,-81,-276,1,7,11
1.02E+03,-7771,-2750,122,-281,-54,-306,1,7,11
9.88E+02,-7788,-2785,-100,-354,-50,-372,1,7,11
9.64E+02,-7782,-2782,-110,-384,-119,-138,1,7,11
9.45E+02,-7781,-2785,-127,-378,101,-168,1,7,11
9.36E+02,-7787,-2750,-128,-332,111,-151,1,7,11
9.32E+02,-7791,-2735,122,-366,123,-334,1,7,11
9.30E+02,-7799,-2764,-118,-170,121,20,1,7,11
9.25E+02,-7752,-2774,-124,-186,102,-123,1,7,11
9.17E+02,-7707,-2801,118,-202,112,-51,1,7,11
9.11E+02,-7424,-3083,124,-204,-91,-9,1,7,11
9.12E+02,-7722,-3086,-128,-210,-27,-5,1,7,11
9.26E+02,-7778,-3093,-111,-206,-9,284,1,7,11
9.51E+02,-7792,-2796,120,-153,-24,352,1,7,11
9.81E+02,-7808,-2761,100,-147,-29,161,1,7,11
1.01E+03,-7584,-2763,98,-184,-52,232,1,7,11
1.03E+03,-7803,-2803,122,-249,127,550,1,7,11
1.04E+03,-7750,-2800,105,-219,98,544,1,7,11
1.04E+03,-7753,-2751,92,-184,120,210,1,7,11
1.03E+03,-7779,-2736,95,-197,120,159,1,7,11
1.01E+03,-7779,-2700,92,-191,124,156,1,7,11
9.81E+02,-7808,-2938,97,-215,-123,153,1,7,11
9.57E+02,-7596,-2908,109,-218,-119,171,1,7,11
9.44E+02,-7622,-2899,111,-534,89,221,1,7,11
9.48E+02,-7556,-2941,110,-592,16,556,1,7,11
9.69E+02,-7757,-2927,101,-578,18,558,1,7,11
1.00E+03,-7777,-2921,109,-577,55,247,1,7,11
1.04E+03,-7561,-2886,109,-576,62,237,1,7,11
1.07E+03,-7597,-2907,-128,-614,26,552,1,7,11
1.09E+03,-7565,-2925,-126,-586,-269,420,1,7,11
1.11E+03,-7791,-2932,115,-534,-274,474,1,7,11
1.12E+03,-7805,-2856,93,-170,25,488,1,7,11
1.12E+03,-7619,-2485,67,-351,88,496,1,7,11
1.11E+03,-7945,-2646,66,-346,97,825,1,7,11
1.09E+03,-7674,-2606,69,-136,58,693,1,7,11
1.06E+03,-7669,-2604,83,-180,43,742,1,7,11
1.02E+03,-7941,-2614,82,-200,21,749,1,7,11
9.71E+02,-7957,-2628,114,-153,21,726,1,7,11
9.26E+02,-7946,-2603,126,-328,20,681,1,7,11
8.95E+02,-7945,-2290,123,-304,18,882,1,7,11
8.86E+02,-7938,-2279,122,-352,-266,858,1,7,11
9.03E+02,-7670,-2266,118,-369,-289,821,1,7,11
9.34E+02,-7943,-2243,-104,-384,-297,782,1,7,11
9.71E+02,-7983,-2272,-37,-135,-308,507,1,7,11
1.00E+03,-8046,-2263,311,-116,-150,657,1,7,11
1.02E+03,-7880,-2208,317,293,-183,1051,1,7,11
1.04E+03,-8200,-2389,322,155,-514,1021,1,7,11
1.04E+03,-8229,-2350,366,226,-627,1270,1,7,11
1.04E+03,-8225,-2351,187,577,-512,1506,1,7,11
1.04E+03,-8211,-2337,551,469,-662,1889,1,7,11
1.04E+03,-8222,-1989,623,691,-1029,1688,1,7,11
1.03E+03,-8242,-2079,443,901,-1139,1735,1,7,11
1.03E+03,-8223,-1670,476,991,-1298,2052,1,7,11
1.02E+03,-7841,-1836,481,980,-1187,2143,1,7,11
1.01E+03,-7937,-1811,508,897,-1200,2115,1,7,11
9.97E+02,-7579,-1492,811,1146,-1295,1693,1,7,11
9.89E+02,-7603,-1649,882,922,-766,1472,1,7,11
9.84E+02,-7656,-1564,650,957,-496,1605,1,7,11
9.84E+02,-7645,-1242,852,979,-255,1581,1,7,11
9.88E+02,-7615,-1402,768,980,65,1546,1,7,11
9.98E+02,-7941,-1011,445,947,214,1228,1,7,11
1.01E+03,-8009,-903,386,1083,801,1256,1,7,11
1.03E+03,-8041,-1106,586,676,1074,1576,1,7,11
1.05E+03,-8059,-1092,542,810,1331,1556,1,7,11
1.06E+03,-7857,-752,219,775,1603,1248,1,7,11
1.07E+03,-7878,-879,367,491,1813,1222,1,7,11
1.05E+03,-7863,-795,-16,608,1700,1236,1,7,11
1.02E+03,-7816,-806,-94,147,2065,1193,1,7,11
9.83E+02,-8026,-855,86,-31,1922,1359,1,7,11
9.32E+02,-8034,-895,43,-123,2321,935,1,7,11
8.77E+02,-7866,-646,-269,86,2431,733,1,7,11
8.25E+02,-7923,-675,-329,-5,2181,855,1,7,11
7.89E+02,-7926,-753,-368,-315,2420,798,1,7,11
7.75E+02,-8193,-1049,-182,-266,2427,460,1,7,11
7.77E+02,-8271,-762,-544,72,2178,586,1,7,11
7.83E+02,-8100,-700,-636,114,2350,233,1,7,11
7.83E+02,-8125,-683,-447,70,2167,179,1,7,11
7.75E+02,-8460,-1037,-439,-262,1694,335,1,7,11
7.66E+02,-8464,-1107,-449,76,1409,330,1,7,11
7.60E+02,-8171,-1124,-504,-20,1366,310,1,7,11
7.60E+02,-8086,-1027,-866,139,1085,304,1,7,11
7.62E+02,-7811,-697,-702,-71,533,336,1,7,11
7.65E+02,-7976,-663,-695,33,559,365,1,7,11
7.66E+02,-7945,-747,-882,12,603,-17,1,7,11
7.63E+02,-8024,-705,-846,-107,405,-35,1,7,11
7.53E+02,-7851,-677,-822,340,618,255,1,7,11
7.39E+02,-8034,-836,-882,512,546,713,1,7,11
7.25E+02,-7500,-576,-987,179,634,845,1,7,11
7.17E+02,-7961,-241,-1057,-651,839,-631,1,7,11
7.15E+02,-8234,-461,-717,-1648,-38,-991,1,7,11
7.16E+02,-8247,-774,-838,-1523,-546,-904,1,7,11
7.19E+02,-8089,-857,-793,-1240,-640,-992,1,7,11
7.19E+02,-8194,-779,-890,-787,-382,-72,1,7,11
7.15E+02,-7846,-573,-742,206,463,231,1,7,11
7.04E+02,-7890,-532,-1028,433,1284,209,1,7,11
6.93E+02,-7881,-541,-1077,505,1808,163,1,7,11
6.89E+02,-7914,-833,-1078,942,1468,-507,1,7,11
6.96E+02,-7869,-473,-926,1225,1486,-1281,1,7,11
7.09E+02,-7912,-789,-1115,1555,1437,-1681,1,7,11
7.20E+02,-7928,-791,-918,1382,1649,-2094,1,7,11
7.24E+02,-8202,-1002,-1053,1342,912,-2927,1,7,11
7.24E+02,-8220,-1005,-993,1613,306,-3859,1,7,11
7.22E+02,-7895,-1078,-1157,760,106,-3689,1,7,11
7.19E+02,-8230,-974,-1381,-200,142,-2585,1,7,11
7.21E+02,-8185,-1559,-971,-983,-87,-1256,1,7,11
7.30E+02,-7878,-1433,-995,-1003,-1105,-688,1,7,11
7.44E+02,-7402,-1558,-1275,-1005,-267,-423,1,7,11
7.54E+02,-7748,-1158,-1210,-1505,2297,-540,1,7,11
7.50E+02,-7356,-1283,-1410,-2399,3545,-386,1,7,11
7.35E+02,-7332,-923,-1473,-2998,5018,-235,1,7,11
7.20E+02,-7631,-967,-1842,-3823,6744,212,1,7,11
7.17E+02,-7894,-1332,-1864,-4504,6019,1326,1,7,11
7.23E+02,-8220,-1013,-1776,-4769,4167,1272,1,7,11
7.29E+02,-7956,-1124,-2045,-5379,1904,1209,1,7,11
7.26E+02,-7758,-667,-2346,-5964,470,1547,1,7,11
7.16E+02,-7501,-807,-2206,-6351,185,1825,1,7,11
7.10E+02,-7380,-781,-2395,-6576,525,1832,1,7,11
7.13E+02,-7564,-423,-2369,-6341,-28,2124,1,7,11
7.20E+02,-7941,-579,-2347,-6058,-217,2501,1,7,11
7.22E+02,-8003,-249,-1945,-5695,-743,3160,1,7,11
7.12E+02,-7646,-258,-1953,-4594,-1160,3427,1,7,11
6.98E+02,-7746,-31,-1935,-4126,-1845,3269,1,7,11
6.93E+02,-7773,141,-2109,-3232,-2086,3298,1,7,11
7.00E+02,-7418,252,-2102,-2696,-2414,3405,1,7,11
7.12E+02,-7352,607,-2054,-2637,-2309,2874,1,7,11
7.18E+02,-7301,440,-1735,-2368,-1905,1987,1,7,11
7.17E+02,-7468,428,-1723,-1736,-1017,1463,1,7,11
7.14E+02,-7060,477,-1746,-1303,-461,860,1,7,11
7.19E+02,-7169,468,-1761,-186,372,-359,1,7,11
7.29E+02,-7217,422,-1714,1343,1783,-1223,1,7,11
7.35E+02,-7111,135,-1875,2471,2800,-1838,1,7,11
7.28E+02,-7516,-1,-1771,4636,3693,-2579,1,7,11
7.11E+02,-7759,-62,-1977,6007,2984,-3944,1,7,11
6.95E+02,-7605,-104,-2420,6125,1779,-4558,1,7,11
6.92E+02,-7972,110,-2595,5620,1112,-4874,1,7,11
6.97E+02,-8091,-83,-2442,4612,-94,-3802,1,7,11
7.01E+02,-8160,38,-2651,2816,-1644,-2337,1,7,11
6.94E+02,-8058,-222,-2217,1278,-2784,-1093,1,7,11
6.81E+02,-7729,-624,-2363,883,-3274,-498,1,7,11
6.66E+02,-7368,-437,-1972,389,-2794,-586,1,7,11
6.55E+02,-7717,-621,-2175,426,-2329,-193,1,7,11
6.52E+02,-7742,-551,-2151,559,-1858,-378,1,7,11
6.60E+02,-7784,-527,-2106,-10,-1221,-298,1,7,11
6.71E+02,-7640,-629,-1685,-356,-927,95,1,7,11
6.72E+02,-7674,-487,-1667,-172,-937,64,1,7,11
6.54E+02,-7672,-512,-1908,-134,-929,6,1,7,11
6.32E+02,-7631,-443,-1900,1,-1109,-215,1,7,11
6.24E+02,-7961,-385,-1873,36,-726,-825,1,7,11
6.34E+02,-7945,-497,-1526,-198,-1047,-642,1,7,11
6.49E+02,-7656,-856,-1453,-603,-1069,-720,1,7,11
6.55E+02,-7649,-813,-1453,-439,-1082,-1041,1,7,11
6.54E+02,-7632,-856,-1428,-845,-1102,-908,1,7,11
6.47E+02,-7634,-690,-1635,-869,-1102,-1182,1,7,11
6.39E+02,-7963,-728,-1617,-836,-1130,-1569,1,7,11
6.34E+02,-7948,-1127,-1639,-846,-1292,-1638,1,7,11
6.35E+02,-7602,-918,-1635,-394,-1367,-1484,1,7,11
6.40E+02,-7617,-943,-1627,-371,-1017,-1720,1,7,11
6.48E+02,-7673,-1121,-1641,-110,-972,-1924,1,7,11
6.53E+02,-7640,-1116,-1625,79,-1131,-1993,1,7,11
6.53E+02,-7656,-968,-1542,-316,-704,-2020,1,7,11
6.43E+02,-7977,-1341,-1247,-324,-882,-1986,1,7,11
6.29E+02,-7949,-1395,-1204,-282,-676,-2121,1,7,11
6.24E+02,-7622,-1196,-1156,-329,-658,-1694,1,7,11
6.35E+02,-7589,-1567,-1345,-156,-845,-1800,1,7,11
6.46E+02,-7619,-1647,-966,-367,-479,-1420,1,7,11
6.39E+02,-7638,-1652,-900,1,-404,-1236,1,7,11
6.16E+02,-7587,-1499,-1092,31,-402,-1287,1,7,11
5.97E+02,-7692,-1807,-1056,63,-423,-900,1,7,11
5.96E+02,-7557,-1828,-709,86,-558,-898,1,7,11
6.06E+02,-7673,-1535,-651,-87,-197,-1086,1,7,11
6.18E+02,-8056,-1798,-847,-65,-188,-686,1,7,11
6.24E+02,-7890,-1808,-801,-37,-229,-458,1,7,11
6.22E+02,-7878,-1796,-804,-15,-544,-194,1,7,11
6.10E+02,-7821,-1514,-831,269,-572,-274,1,7,11
6.00E+02,-7999,-1491,-831,261,-563,81,1,7,11
6.00E+02,-7973,-1494,-818,-31,-231,119,1,7,11
6.08E+02,-7995,-1472,-812,-42,-169,-111,1,7,11
6.11E+02,-7989,-1487,-811,-79,-134,-81,1,7,11
6.05E+02,-8024,-1478,-783,-71,-339,-87,1,7,11
6.01E+02,-7992,-1418,-799,-56,-351,-98,1,7,11
6.04E+02,-7644,-1650,-810,-107,-371,95,1,7,11
6.09E+02,-7627,-1636,-800,73,-306,-281,1,7,11
6.09E+02,-7676,-1638,-774,-295,14,-366,1,7,11
6.02E+02,-7966,-1663,-511,-165,29,-136,1,7,11
5.93E+02,-7978,-1425,-799,-523,35,-133,1,7,11
5.86E+02,-7940,-1435,-876,-579,56,-135,1,7,11
5.82E+02,-7679,-1434,-661,-583,-78,-210,1,7,11
5.80E+02,-8000,-1449,-693,-552,314,-552,1,7,11
5.84E+02,-8030,-1485,-658,-252,128,-595,1,7,11
5.96E+02,-8021,-1448,-710,-196,194,-603,1,7,11
6.19E+02,-7826,-1457,-743,-519,230,-590,1,7,11
6.51E+02,-7820,-1457,-754,-613,199,-520,1,7,11
6.94E+02,-8057,-1453,-759,-475,136,-214,1,7,11
7.45E+02,-8014,-1476,-1051,-879,272,-185,1,7,11
8.01E+02,-7955,-1535,-1109,-693,-96,-192,1,7,11
8.60E+02,-7617,-1818,-912,-646,-114,-522,1,7,11
9.18E+02,-7623,-1805,-934,-871,-37,-411,1,7,11
9.75E+02,-7659,-1803,-929,-704,-33,-782,1,7,11
1.03E+03,-7629,-1820,-930,-1107,-107,-863,1,7,11
1.08E+03,-7639,-1860,-928,-971,-113,-722,1,7,11
1.12E+03,-7956,-1850,-932,-1320,-122,-1053,1,7,11
1.15E+03,-8010,-1843,-929,-1184,89,-1041,1,7,11
1.18E+03,-8037,-1889,-925,-1573,17,-684,1,7,11
1.20E+03,-7996,-1726,-1144,-1461,-324,-788,1,7,11
1.21E+03,-7957,-2102,-1110,-1796,-381,-408,1,7,11
1.23E+03,-7646,-1926,-1086,-1532,-170,-575,1,7,11
1.23E+03,-7621,-1952,-1070,-1428,-200,-593,1,7,11
1.24E+03,-7611,-2175,-1086,-1264,-204,-607,1,7,11
1.24E+03,-7637,-2145,-1090,-1318,-177,-573,1,7,11
1.23E+03,-7646,-2137,-1086,-1006,-167,-242,1,7,11
1.22E+03,-7603,-2136,-1092,-995,-185,-183,1,7,11
1.20E+03,-7795,-2131,-1126,-983,-171,-191,1,7,11
1.19E+03,-7767,-2059,-1146,-952,-357,-523,1,7,11
1.17E+03,-7765,-1719,-946,-952,-292,-615,1,7,11
1.15E+03,-7567,-1702,-961,-1281,26,-435,1,7,11
1.13E+03,-7619,-1706,-952,-1390,6,-512,1,7,11
1.12E+03,-7655,-1709,-951,-1249,-316,-845,1,7,11
1.11E+03,-7658,-1738,-942,-1625,-131,-668,1,7,11
1.11E+03,-7632,-1776,-913,-1460,-170,-744,1,7,11
1.13E+03,-7644,-2095,-1126,-1795,-170,-1064,1,7,11
1.15E+03,-7663,-2149,-1065,-1861,-198,-1100,1,7,11
1.19E+03,-7679,-1930,-1035,-1894,-249,-1084,1,7,11
1.23E+03,-7672,-1946,-1032,-1920,-573,-759,1,7,11
1.27E+03,-7654,-1965,-1032,-1695,-628,-896,1,7,11
1.30E+03,-7602,-1972,-1069,-1707,-412,-487,1,7,11
1.32E+03,-7554,-1951,-1104,-1720,-386,-392,1,7,11
1.33E+03,-7570,-1969,-1088,-1785,-569,-606,1,7,11
1.32E+03,-7600,-2017,-1050,-2107,-527,-552,1,7,11
1.31E+03,-7620,-2316,-1033,-2092,-518,-255,1,7,11
1.28E+03,-7613,-2323,-1046,-1750,-529,-222,1,7,11
1.24E+03,-7615,-2040,-1045,-1673,-534,-198,1,7,11
1.19E+03,-7621,-1992,-759,-1899,-535,-152,1,7,11
1.15E+03,-7610,-1953,-1033,-1678,-542,-339,1,7,11
1.13E+03,-7578,-1958,-1043,-1699,-539,-280,1,7,11
1.13E+03,-7579,-1928,-1039,-1915,-245,-279,1,7,11
1.15E+03,-7615,-2101,-1058,-1857,-190,-279,1,7,11
1.18E+03,-7619,-1683,-1127,-1520,-192,-270,1,7,11
1.21E+03,-7632,-1520,-923,-1878,-220,-340,1,7,11
1.24E+03,-7985,-1645,-938,-2154,-515,-231,1,7,11
1.27E+03,-7839,-1589,-913,-2300,-398,-621,1,7,11
1.28E+03,-7883,-1574,-1144,-2724,-875,-439,1,7,11
1.28E+03,-7854,-1573,-1140,-3381,-1104,-474,1,7,11
1.27E+03,-8041,-1613,-1137,-3560,-1022,-493,1,7,11
1.26E+03,-7956,-1467,-1125,-3987,-1402,-440,1,7,11
1.25E+03,-7783,-1673,-1101,-4633,-1217,-539,1,7,11
1.23E+03,-7533,-1924,-1072,-4587,-1159,29,1,7,11
1.22E+03,-7077,-2328,-1058,-4507,-1063,233,1,7,11
1.21E+03,-7096,-2389,-1033,-4238,-209,1065,1,7,11
1.20E+03,-7463,-2430,-746,-4140,314,1848,1,7,11
1.20E+03,-7496,-2413,-721,-3463,392,2634,1,7,11
1.20E+03,-7342,-2336,-752,-3024,641,2745,1,7,11
1.21E+03,-8110,-1112,-1385,-2142,543,2093,1,7,11
1.22E+03,-8170,-1052,-1405,-2015,2,1496,1,7,11
1.24E+03,-8185,-1059,-1342,-2403,-464,1155,1,7,11
1.25E+03,-8166,-929,-1015,-2405,-1059,1122,1,7,11
1.26E+03,-8118,-1006,-946,-1969,-998,891,1,7,11
1.27E+03,-8067,-1377,-1128,-1694,-1324,462,1,7,11
1.28E+03,-8222,-1236,-1043,-1609,-1302,570,1,7,11
1.29E+03,-7873,-1568,-725,-898,-1110,230,1,7,11
1.30E+03,-8022,-1580,-679,-345,-656,189,1,7,11
1.31E+03,-7977,-1279,-682,243,-596,138,1,7,11
1.31E+03,-7975,-1190,-695,1088,38,345,1,7,11
1.31E+03,-7632,-1004,-733,1567,358,355,1,7,11
1.31E+03,-7589,-1109,-765,1802,414,299,1,7,11
1.31E+03,-7617,-1053,-741,1875,866,-18,1,7,11
1.30E+03,-7678,-1074,-670,1886,687,-49,1,7,11
1.30E+03,-7983,-911,-868,1904,872,-90,1,7,11
1.29E+03,-7998,-953,-853,1770,507,-104,1,7,11
1.29E+03,-7987,-947,-877,1946,398,-101,1,7,11
1.28E+03,-7940,-1297,-895,2328,551,-58,1,7,11
1.28E+03,-7627,-1406,-649,2280,544,260,1,7,11
1.29E+03,-7678,-1247,-677,2854,393,279,1,7,11
1.29E+03,-8025,-1271,-743,3025,472,338,1,7,11
1.29E+03,-7817,-1229,-1078,3695,459,221,1,7,11
1.29E+03,-8034,-1223,-1148,3781,422,404,1,7,11
1.29E+03,-7965,-1186,-916,4069,448,807,1,7,11
1.29E+03,-7660,-1359,-923,4276,791,886,1,7,11
1.27E+03,-7646,-987,-915,4660,643,675,1,7,11
1.26E+03,-7585,-1133,-910,4723,765,713,1,7,11
1.24E+03,-7769,-1066,-1147,4681,956,683,1,7,11
1.21E+03,-7770,-768,-1112,4342,1232,844,1,7,11
1.19E+03,-7553,-747,-1089,4475,1469,484,1,7,11
1.18E+03,-7597,-719,-1116,4058,1899,421,1,7,11
1.17E+03,-7624,-723,-944,4101,1745,631,1,7,11
1.18E+03,-7641,-718,-1324,3916,2096,621,1,7,11
1.20E+03,-7640,-704,-1224,3467,1920,618,1,7,11
1.22E+03,-7636,-723,-1611,3247,1971,603,1,7,11
1.24E+03,-7639,-1039,-1473,3014,2014,537,1,7,11
1.26E+03,-7949,-1150,-1535,2813,2019,153,1,7,11
1.27E+03,-7675,-909,-1857,2941,1936,280,1,7,11
1.28E+03,-7866,-1099,-1673,2486,2146,88,1,7,11
1.28E+03,-8237,-1119,-1686,2190,1836,64,1,7,11
1.28E+03,-8255,-1089,-1690,2165,1223,90,1,7,11
1.28E+03,-8310,-1032,-1711,1873,1110,108,1,7,11
1.27E+03,-8250,-764,-1741,1540,399,-22,1,7,11
1.26E+03,-7908,-1057,-1747,1135,-52,141,1,7,11
1.25E+03,-8043,-937,-1701,461,-211,215,1,7,11
1.23E+03,-7624,-1392,-1883,148,-879,193,1,7,11
1.21E+03,-7559,-1564,-1798,310,-687,273,1,7,11
1.18E+03,-7808,-1616,-1469,316,-682,-122,1,7,11
1.16E+03,-7802,-1624,-1434,417,-672,80,1,7,11
1.14E+03,-7751,-1432,-1642,683,-895,118,1,7,11
1.14E+03,-7695,-1429,-1620,954,-496,-107,1,7,11
1.15E+03,-7728,-1442,-1606,1385,-568,-79,1,7,11
1.18E+03,-7418,-1490,-1608,1571,-158,312,1,7,11
1.22E+03,-7365,-1508,-1629,1795,88,354,1,7,11
1.26E+03,-7413,-1496,-1603,1745,376,339,1,7,11
1.29E+03,-7719,-1796,-1563,2117,566,376,1,7,11
1.31E+03,-7704,-1916,-1275,1993,419,200,1,7,11
1.31E+03,-7392,-1752,-1275,2255,851,545,1,7,11
1.31E+03,-7382,-1734,-1554,2852,1045,591,1,7,11
1.30E+03,-7314,-1776,-1272,3092,898,438,1,7,11
1.29E+03,-7475,-2023,-1172,3063,1297,826,1,7,11
1.28E+03,-7459,-2624,-1354,3879,1561,752,1,7,11
1.28E+03,-7539,-2465,-1195,4927,1664,999,1,7,11
1.27E+03,-7354,-2252,-1432,5771,1943,1571,1,7,11
1.27E+03,-7684,-1938,-1904,6559,2395,1729,1,7,11
1.27E+03,-7794,-1879,-2060,7203,2252,2189,1,7,11
1.27E+03,-7590,-1559,-1924,7256,2422,2716,1,7,11
1.27E+03,-7802,-965,-2345,7014,2172,3371,1,7,11
1.27E+03,-7587,-666,-2225,6428,1864,3424,1,7,11
1.27E+03,-8063,-392,-2268,5337,1227,3120,1,7,11
1.27E+03,-8099,-153,-2241,4638,664,2664,1,7,11
1.27E+03,-8326,14,-2342,3618,-122,1959,1,7,11
1.27E+03,-8407,30,-2003,2589,-767,1859,1,7,11
1.27E+03,-8390,-370,-2059,1431,-1869,1608,1,7,11
1.27E+03,-8547,-554,-1863,1024,-2597,1173,1,7,11
1.27E+03,-8117,-480,-1608,630,-3122,1319,1,7,11
1.27E+03,-7923,-665,-1223,197,-3369,958,1,7,11
1.27E+03,-7664,-764,-1355,367,-3333,1112,1,7,11
1.27E+03,-7554,-1094,-978,282,-3104,643,1,7,11
1.27E+03,-7740,-1135,-1136,-46,-2592,781,1,7,11
1.26E+03,-7708,-917,-1051,-92,-1957,439,1,7,11
1.26E+03,-7411,-1146,-717,10,-1812,635,1,7,11
1.26E+03,-7400,-1112,-867,288,-1153,564,1,7,11
1.26E+03,-7737,-1103,-488,-25,-1065,238,1,7,11
1.26E+03,-7573,-1095,-406,-99,-873,234,1,7,11
1.26E+03,-7625,-1043,-612,72,-789,526,1,7,11
1.26E+03,-7938,-756,-580,-315,-500,581,1,7,11
1.25E+03,-7957,-744,-567,-177,-489,403,1,7,11
1.25E+03,-7973,-745,-561,-528,-456,434,1,7,11
1.25E+03,-7989,-746,-562,-580,-385,406,1,7,11
1.25E+03,-8038,-712,-562,-589,-528,584,1,7,11
1.25E+03,-7856,-652,-577,-594,-167,521,1,7,11
1.24E+03,-7904,-858,-586,-624,-357,249,1,7,11
1.24E+03,-8206,-847,-595,-432,-307,233,1,7,11
1.24E+03,-8221,-845,-591,-489,-284,229,1,7,11
1.24E+03,-8229,-854,-586,-802,-271,199,1,7,11
1.24E+03,-8242,-847,-568,-841,4,149,1,7,11
1.23E+03,-8254,-816,-558,-873,9,354,1,7,11
1.23E+03,-8258,-796,-543,-670,-262,315,1,7,11
1.23E+03,-8235,-508,-531,-714,-292,281,1,7,11
1.23E+03,-8212,-462,-539,-1025,-304,-33,1,7,11
1.23E+03,-7935,-414,-550,-1114,-303,-116,1,7,11
1.23E+03,-7932,-618,-560,-1001,-305,31,1,7,11
1.23E+03,-7927,-545,-570,-1202,-334,-330,1,7,11
1.22E+03,-7930,-218,-581,-1495,-143,-215,1,7,11
1.22E+03,-8221,-173,-577,-2128,-235,-392,1,7,11
1.21E+03,-8265,-383,-579,-2300,-611,-834,1,7,11
1.21E+03,-8066,-342,-589,-2746,-509,-742,1,7,11
1.20E+03,-8306,-281,-638,-3204,-723,-1112,1,7,11
1.20E+03,-8285,9,-435,-3750,-934,-999,1,7,11
1.20E+03,-8267,48,-473,-4352,-1387,-1280,1,7,11
1.20E+03,-8277,94,-466,-5028,-1635,-1511,1,7,11
1.20E+03,-8081,2,-623,-6253,-1795,-1703,1,7,11
1.20E+03,-8088,-210,-228,-6576,-1715,-1754,1,7,11
1.21E+03,-8305,-449,-344,-7191,-2121,-1735,1,7,11
1.21E+03,-8215,-678,12,-7071,-1949,-1669,1,7,11
1.21E+03,-7861,-1146,104,-7284,-1927,-1859,1,7,11
1.21E+03,-8037,-1323,-101,-6821,-2059,-1803,1,7,11
1.21E+03,-7967,-1217,-58,-6761,-1858,-1486,1,7,11
1.21E+03,-7667,-1613,-7,-6099,-1595,-1412,1,7,11
1.21E+03,-7643,-1454,284,-5600,-1287,-1591,1,7,11
1.21E+03,-7646,-1519,290,-5034,-710,-1261,1,7,11
1.21E+03,-7658,-1807,276,-4677,-387,-1203,1,7,11
1.21E+03,-7938,-1795,257,-3810,-331,-1158,1,7,11
1.21E+03,-8016,-1525,-6,-3263,-61,-1383,1,7,11
1.21E+03,-7836,-1493,-12,-2747,138,-1305,1,7,11
1.21E+03,-7894,-1459,-47,-2283,528,-954,1,7,11
1.22E+03,-8214,-1433,-73,-2147,575,-1109,1,7,11
1.22E+03,-8249,-1656,-110,-1528,553,-727,1,7,11
1.23E+03,-8242,-1606,94,-1212,238,-878,1,7,11
1.24E+03,-8224,-1558,55,-980,184,-801,1,7,11
1.25E+03,-7934,-1267,17,-1070,137,-471,1,7,11
1.27E+03,-7892,-1262,-276,-704,356,-412,1,7,11
1.28E+03,-7893,-1265,-284,-652,354,-635,1,7,11
1.29E+03,-7906,-1273,-272,-856,324,-593,1,7,11
1.30E+03,-7917,-1279,-277,-815,272,-529,1,7,11
1.31E+03,-7913,-1554,-279,-798,-44,-211,1,7,11
1.32E+03,-7902,-1584,-277,-771,-106,-150,1,7,11
1.33E+03,-7876,-1601,-296,-451,103,-347,1,7,11
1.34E+03,-7865,-1592,-307,-633,96,-301,1,7,11
1.34E+03,-7862,-1571,-318,-574,96,-269,1,7,11
1.35E+03,-7891,-1570,-304,-564,94,14,1,7,11
1.36E+03,-7915,-1584,-289,-556,69,47,1,7,11
1.37E+03,-7924,-1599,-262,-541,31,120,1,7,11
1.37E+03,-7928,-1589,-258,-211,-291,-78,1,7,11
1.37E+03,-7926,-1591,11,-377,-332,-22,1,7,11
1.37E+03,-7909,-1580,18,-254,-371,282,1,7,11
1.38E+03,-7892,-1546,5,65,-378,298,1,7,11
1.38E+03,-7903,-1263,-260,80,-378,284,1,7,11
1.38E+03,-7903,-1224,15,82,-130,272,1,7,11
1.38E+03,-7924,-1202,35,68,-149,256,1,7,11
1.38E+03,-8198,-1197,61,44,-195,272,1,7,11
1.37E+03,-7935,-1211,80,33,-241,299,1,7,11
1.37E+03,-7916,-1219,97,63,-521,306,1,7,11
1.37E+03,-7913,-1211,110,105,-521,291,1,7,11
1.37E+03,-7916,-1167,107,-126,-516,270,1,7,11
1.36E+03,-7927,-1389,106,108,-245,-1,1,7,11
1.36E+03,-8201,-1384,-122,58,-250,260,1,7,11
1.35E+03,-8215,-1156,-82,20,-523,269,1,7,11
1.35E+03,-8227,-1397,-59,39,-537,285,1,7,11
1.34E+03,-8233,-1367,-50,55,-558,307,1,7,11
1.34E+03,-8203,-1333,-35,53,-592,336,1,7,11
1.34E+03,-8193,-1317,-20,18,-585,317,1,7,11
1.33E+03,-8218,-1328,276,-297,-586,288,1,7,11
1.33E+03,-8230,-1350,312,-324,-609,280,1,7,11
1.32E+03,-8237,-1347,338,-297,-613,264,1,7,11
1.32E+03,-8249,-1325,337,-272,-620,-17,1,7,11
1.32E+03,-8242,-1287,337,-273,-623,257,1,7,11
1.31E+03,-8234,-1016,362,-302,-605,257,1,7,11
1.31E+03,-8251,-1023,149,-335,-576,-12,1,7,11
1.30E+03,-8232,-1295,173,-352,-578,266,1,7,11
1.29E+03,-8209,-1311,200,-342,-558,271,1,7,11
1.28E+03,-8203,-1311,218,-297,-515,-38,1,7,11
1.27E+03,-7927,-1301,217,22,-214,-42,1,7,11
1.25E+03,-7908,-1294,225,78,-149,-70,1,7,11
1.22E+03,-7929,-1293,246,109,-337,-110,1,7,11
1.20E+03,-8200,-1305,516,-118,-297,-123,1,7,11
1.19E+03,-8203,-1316,255,-65,-286,108,1,7,11
1.18E+03,-8230,-1321,525,-3,-281,72,1,7,11
1.18E+03,-8210,-1002,237,316,-306,66,1,7,11
1.18E+03,-8221,-985,239,275,-277,27,1,7,11
1.18E+03,-8253,-956,237,-52,-267,-269,1,7,11
1.15E+03,-8264,-976,254,98,-278,-273,1,7,11
1.07E+03,-8250,-1001,530,24,-284,-272,1,7,11
9.45E+02,-8243,-1284,547,-283,-271,-269,1,7,11
8.62E+02,-8226,-1318,560,-308,-260,-263,1,7,11
8.34E+02,-8203,-1331,567,-319,33,-259,1,7,11
8.34E+02,-8202,-1329,573,-323,76,-270,1,7,11
8.35E+02,-8208,-1342,583,-334,111,-258,1,7,11
8.31E+02,-8209,-1349,587,-310,-106,18,1,7,11
8.31E+02,-8223,-1370,611,0,-117,37,1,7,11
8.42E+02,-8207,-1379,597,64,120,63,1,7,11
8.67E+02,-8204,-1376,607,101,-102,85,1,7,11
8.97E+02,-8193,-1368,592,-118,-69,101,1,7,11
9.25E+02,-7908,-1349,570,-83,-34,109,1,7,11
9.41E+02,-7909,-1308,550,-67,270,72,1,7,11
9.44E+02,-7936,-1286,545,-95,306,42,1,7,11
9.39E+02,-8219,-1299,553,120,319,34,1,7,11
9.31E+02,-8236,-1321,583,120,309,45,1,7,11
9.24E+02,-8247,-1309,551,-80,266,54,1,7,11
9.19E+02,-8254,-1301,530,-109,258,66,1,7,11
9.16E+02,-8240,-1303,523,120,-4,80,1,7,11
9.15E+02,-8227,-1302,518,108,262,84,1,7,11
9.16E+02,-8223,-1289,530,94,265,90,1,7,11
9.20E+02,-8228,-1297,532,66,271,92,1,7,11
9.24E+02,-8223,-1306,524,52,268,82,1,7,11
9.30E+02,-8214,-1312,520,39,260,78,1,7,11
9.37E+02,-8218,-1332,528,24,-10,80,1,7,11
9.46E+02,-8211,-1352,534,26,-27,77,1,7,11
9.55E+02,-8219,-1357,529,54,-43,61,1,7,11
9.65E+02,-8228,-1356,550,78,-69,61,1,7,11
9.77E+02,-8232,-1348,531,-123,-109,68,1,7,11
9.91E+02,-8231,-1332,512,-122,-89,92,1,7,11
1.01E+03,-8238,-1321,517,123,-56,124,1,7,11
1.03E+03,-8251,-1312,515,121,-37,-109,1,7,11
1.05E+03,-8259,-1305,520,117,-31,-91,1,7,11
1.06E+03,-8248,-1294,519,-125,-40,-84,1,7,11
1.08E+03,-8249,-1019,513,124,-58,-81,1,7,11
1.09E+03,-8232,-1012,527,117,-86,-86,1,7,11
1.09E+03,-8210,-1006,241,-114,126,-110,1,7,11
1.09E+03,-8225,-990,242,109,-106,122,1,7,11
1.09E+03,-8228,-992,243,61,-96,117,1,7,11
1.09E+03,-8230,-1018,516,26,-94,96,1,7,11
1.09E+03,-8228,-1021,522,23,-100,87,1,7,11
1.09E+03,-8252,-1023,544,46,-120,58,1,7,11
1.09E+03,-8282,-996,248,81,117,49,1,7,11
1.10E+03,-8110,-971,246,50,-90,78,1,7,11
1.11E+03,-8186,-990,253,-262,-97,-117,1,7,11
1.13E+03,-8182,-1310,541,14,67,-80,1,7,11
1.14E+03,-8131,-1299,547,86,-268,-78,1,7,11
1.14E+03,-8315,-1296,574,89,-304,-109,1,7,11
1.12E+03,-8244,-1283,594,110,-303,62,1,7,11
1.10E+03,-7931,-995,619,-102,-282,-279,1,7,11
1.07E+03,-7877,-956,588,-85,-291,-347,1,7,11
1.05E+03,-7821,-961,595,97,14,-131,1,7,11
1.06E+03,-8046,-986,596,31,78,-181,1,7,11
1.08E+03,-7831,-985,599,-266,-103,-249,1,7,11
1.11E+03,-7883,-990,589,-333,-93,-520,1,7,11
1.16E+03,-7884,-1288,569,-354,96,-250,1,7,11
1.19E+03,-7925,-1325,552,-380,117,-514,1,7,11
1.22E+03,-8311,-1311,562,-140,-84,-240,1,7,11
1.24E+03,-8125,-1315,573,-183,-114,-142,1,7,11
1.25E+03,-8082,-1401,601,-224,106,46,1,7,11
1.25E+03,-8293,-1278,634,-529,111,125,1,7,11
1.25E+03,-7925,-1660,445,-167,-105,-91,1,7,11
1.24E+03,-7820,-1450,768,-102,-16,-119,1,7,11
1.24E+03,-7957,-1626,455,547,383,106,1,7,11
1.24E+03,-7624,-1540,622,826,590,68,1,7,11
1.24E+03,-7587,-1213,571,715,819,8,1,7,11
1.24E+03,-7607,-1183,544,764,747,-368,1,7,11
1.25E+03,-7662,-1164,515,1031,1110,-528,1,7,11
1.25E+03,-8007,-1394,219,743,900,-463,1,7,11
1.26E+03,-7887,-1337,171,656,896,-890,1,7,11
1.27E+03,-8315,-1290,138,497,1083,-717,1,7,11
1.28E+03,-8449,-1017,366,521,667,-681,1,7,11
1.28E+03,-8514,-1319,367,257,476,-799,1,7,11
1.27E+03,-8554,-1371,350,65,568,-625,1,7,11
1.26E+03,-8562,-1403,315,-344,160,-153,1,7,11
1.25E+03,-8530,-1190,315,-247,304,78,1,7,11
1.24E+03,-8496,-1209,336,-609,-7,302,1,7,11
1.23E+03,-8480,-1198,357,-406,-53,524,1,7,11
1.22E+03,-8144,-1180,359,-397,68,483,1,7,11
1.21E+03,-8267,-1188,353,-443,-294,886,1,7,11
1.21E+03,-7882,-1211,376,-462,-340,666,1,7,11
1.21E+03,-8045,-1194,381,-401,-359,807,1,7,11
1.20E+03,-7980,-1161,355,-585,-372,592,1,7,11
1.20E+03,-7679,-1401,355,-532,-372,295,1,7,11
1.20E+03,-7673,-1397,350,-210,-342,-285,1,7,11
1.20E+03,-7974,-1405,361,-132,-284,-543,1,7,11
1.21E+03,-7853,-1169,372,-309,38,-451,1,7,11
1.21E+03,-8254,-1175,365,63,-104,-771,1,7,11
1.21E+03,-8140,-1154,358,118,-8,-393,1,7,11
1.22E+03,-8486,-1364,347,-94,301,-178,1,7,11
1.22E+03,-8485,-1332,323,-95,314,90,1,7,11
1.22E+03,-8449,-1335,316,123,340,340,1,7,11
1.22E+03,-8150,-1367,350,91,376,519,1,7,11
1.21E+03,-8099,-1168,149,84,140,631,1,7,11
1.20E+03,-8231,-1242,197,-105,144,430,1,7,11
1.20E+03,-7852,-1240,186,283,129,471,1,7,11
1.19E+03,-7659,-1206,159,160,358,479,1,7,11
1.19E+03,-7565,-1372,379,556,215,606,1,7,11
1.19E+03,-7594,-1002,333,409,590,144,1,7,11
1.19E+03,-7650,-925,290,638,405,-42,1,7,11
1.18E+03,-7954,-1106,-25,558,441,18,1,7,11
1.17E+03,-8024,-762,-99,162,447,-205,1,7,11
1.15E+03,-7887,-709,125,-91,399,-419,1,7,11
1.14E+03,-8305,-744,95,-382,537,-851,1,7,11
1.13E+03,-8143,-1060,93,-438,139,-675,1,7,11
1.14E+03,-8502,-1138,102,-702,283,-691,1,7,11
1.16E+03,-8362,-938,108,-1143,-64,-887,1,7,11
1.20E+03,-8707,-989,117,-1305,81,-480,1,7,11
1.24E+03,-8413,-1347,-110,-1173,-314,-243,1,7,11
1.28E+03,-8549,-1215,-74,-1214,-145,-305,1,7,11
1.32E+03,-8186,-1592,-26,-1399,-156,77,1,7,11
1.34E+03,-8095,-1467,291,-978,-381,-109,1,7,11
1.34E+03,-8240,-1837,359,-693,-355,-61,1,7,11
1.33E+03,-7833,-1910,155,-588,-313,-53,1,7,11
1.32E+03,-7957,-1696,196,86,36,-81,1,7,11
1.29E+03,-7587,-1912,174,544,-105,-124,1,7,11
1.26E+03,-7763,-1838,129,695,289,115,1,7,11
1.23E+03,-7694,-1440,317,1284,178,120,1,7,11
1.20E+03,-7713,-1579,272,1220,601,105,1,7,11
1.18E+03,-7808,-1276,262,1550,454,77,1,7,11
1.16E+03,-7629,-1275,258,1593,481,24,1,7,11
1.15E+03,-7966,-1248,-40,1413,480,-341,1,7,11
1.15E+03,-8062,-1179,-109,1435,463,-203,1,7,11
1.16E+03,-7915,-1377,91,1610,437,-540,1,7,11
1.17E+03,-8278,-1327,47,1202,414,-560,1,7,11
1.19E+03,-8145,-1289,10,1000,390,-538,1,7,11
1.20E+03,-8508,-1024,-267,734,586,-200,1,7,11
1.22E+03,-8570,-1311,-258,443,238,-344,1,7,11
1.24E+03,-8327,-1364,27,181,148,43,1,7,11
1.25E+03,-8532,-1186,62,-33,321,-79,1,7,11
1.26E+03,-8148,-1259,106,100,266,291,1,7,11
1.26E+03,-8301,-1569,-112,51,269,332,1,7,11
1.26E+03,-8217,-1603,-68,34,277,373,1,7,11
1.25E+03,-8045,-1434,272,53,265,157,1,7,11
1.24E+03,-7907,-1425,296,-98,270,182,1,7,11
1.21E+03,-7596,-1643,293,318,300,364,1,7,11
1.18E+03,-7578,-1604,270,200,350,273,1,7,11
1.15E+03,-7555,-1581,-3,553,345,-113,1,7,11
1.13E+03,-7804,-1565,-6,629,321,-279,1,7,11
1.12E+03,-7615,-1565,-6,402,300,-186,1,7,11
1.13E+03,-7981,-1617,-3,565,282,-556,1,7,11
1.15E+03,-7865,-1417,-5,225,-5,-412,1,7,11
1.18E+03,-8244,-1644,-43,164,-64,-489,1,7,11
1.20E+03,-8318,-1591,-112,276,113,-480,1,7,11
1.23E+03,-8069,-1586,83,51,55,-388,1,7,11
1.25E+03,-8090,-1617,55,-187,49,-526,1,7,11
1.27E+03,-8094,-1409,42,-640,39,-383,1,7,11
1.29E+03,-8090,-1449,32,-786,37,10,1,7,11
1.30E+03,-8083,-1444,40,-873,33,-99,1,7,11
1.30E+03,-8268,-1425,52,-672,0,322,1,7,11
1.30E+03,-7927,-1411,60,-682,-285,188,1,7,11
1.30E+03,-7849,-1645,74,-679,-310,526,1,7,11
1.30E+03,-8050,-1637,76,-655,-334,565,1,7,11
1.29E+03,-8019,-1605,64,-856,-355,558,1,7,11
1.29E+03,-8007,-1275,53,-816,-383,246,1,7,11
1.28E+03,-8030,-1204,49,-834,-145,188,1,7,11
1.28E+03,-7817,-1400,60,-642,-168,151,1,7,11
1.27E+03,-7863,-1381,100,-722,-191,160,1,7,11
1.25E+03,-7885,-1354,118,-764,-206,199,1,7,11
1.24E+03,-7908,-1311,-126,-1039,-182,252,1,7,11
1.22E+03,-8215,-1008,-125,-1052,-373,600,1,7,11
1.20E+03,-8224,-977,-104,-1059,-329,506,1,7,11
1.19E+03,-8265,-957,-97,-1030,1,798,1,7,11
1.18E+03,-8316,-987,-45,-1051,60,640,1,7,11
1.18E+03,-8299,-1332,-2,-1027,77,699,1,7,11
1.19E+03,-8279,-1399,268,-836,107,702,1,7,11
1.20E+03,-8232,-1408,-29,-329,-109,704,1,7,11
1.21E+03,-7901,-1192,-66,-3,-53,701,1,7,11
1.21E+03,-7824,-1230,-92,610,296,680,1,7,11
1.22E+03,-8046,-1210,-120,744,175,873,1,7,11
1.21E+03,-7809,-1155,99,1353,551,809,1,7,11
1.21E+03,-7835,-1328,51,1639,384,771,1,7,11
1.20E+03,-7878,-1030,-380,1877,472,447,1,7,11
1.20E+03,-8211,-676,-158,1535,478,450,1,7,11
1.19E+03,-8314,-865,-147,1630,426,477,1,7,11
1.18E+03,-8139,-841,-361,1176,550,768,1,7,11
1.18E+03,-8465,-826,-316,1012,377,779,1,7,11
1.19E+03,-8505,-769,-285,1127,-74,771,1,7,11
1.20E+03,-8498,-450,-266,703,-282,771,1,7,11
1.21E+03,-8452,-399,19,491,-209,507,1,7,11
1.23E+03,-8183,-413,94,240,-601,473,1,7,11
1.25E+03,-8151,-477,-90,302,-470,452,1,7,11
1.26E+03,-8075,-804,-31,-56,-825,408,1,7,11
1.27E+03,-8248,-854,-5,-85,-857,597,1,7,11
1.27E+03,-7909,-706,319,-86,-826,556,1,7,11
1.27E+03,-7861,-1068,132,321,-450,519,1,7,11
1.27E+03,-8063,-1095,143,625,-554,220,1,7,11
1.27E+03,-8005,-1042,350,717,-365,155,1,7,11
1.27E+03,-7958,-735,313,954,109,336,1,7,11
1.27E+03,-7656,-700,303,1406,366,258,1,7,11
1.27E+03,-7656,-891,279,1580,404,-112,1,7,11
1.27E+03,-7992,-802,-5,1427,674,40,1,7,11
1.28E+03,-7818,-404,-60,1408,1091,-289,1,7,11
1.29E+03,-7971,-556,-110,1262,923,-147,1,7,11
1.30E+03,-8093,-186,112,989,920,-521,1,7,11
1.31E+03,-8470,-356,106,836,1082,-602,1,7,11
1.32E+03,-8521,-330,71,94,507,-540,1,7,11
1.34E+03,-8524,-361,60,-425,525,-180,1,7,11
1.34E+03,-8512,-131,46,-1149,314,-337,1,7,11
1.35E+03,-8488,-315,3,-1588,-120,-283,1,7,11
1.35E+03,-8457,90,-316,-2111,-312,-291,1,7,11
1.35E+03,-8498,127,-280,-2840,-539,-346,1,7,11
1.34E+03,-8545,-259,77,-3302,-827,-356,1,7,11
1.33E+03,-8528,-513,-67,-3824,-1135,-312,1,7,11
1.31E+03,-8472,-792,291,-4040,-1368,-259,1,7,11
1.29E+03,-8161,-759,365,-3982,-1236,37,1,7,11
1.27E+03,-8110,-914,146,-3724,-1558,87,1,7,11
1.26E+03,-8087,-1292,165,-3591,-1598,-97,1,7,11
1.25E+03,-8081,-1403,216,-3100,-1635,-35,1,7,11
1.26E+03,-8135,-1214,528,-2405,-1659,-30,1,7,11
1.27E+03,-8372,-1267,591,-1248,-1467,-10,1,7,11
1.28E+03,-8586,-1623,563,-176,-1730,560,1,7,11
1.28E+03,-8418,-1464,185,670,-2419,1052,1,7,11
1.28E+03,-8283,-1827,379,1900,-2687,1308,1,7,11
1.27E+03,-7976,-1862,226,2842,-2647,918,1,7,11
1.25E+03,-7789,-2162,779,3988,-2379,405,1,7,11
1.23E+03,-7379,-2161,849,5372,-1753,-13,1,7,11
1.22E+03,-7332,-1843,835,6998,-1398,-524,1,7,11
1.22E+03,-7351,-1325,778,7815,-395,-800,1,7,11
1.23E+03,-7380,-624,637,8349,358,-813,1,7,11
1.25E+03,-7712,-41,583,8075,754,-423,1,7,11
1.28E+03,-7599,609,626,7492,1564,-194,1,7,11
1.31E+03,-8044,794,460,6037,1710,93,1,7,11
1.34E+03,-7920,854,806,4739,1937,176,1,7,11
1.36E+03,-8205,885,813,3679,2037,771,1,7,11
1.38E+03,-8195,892,771,2336,2379,1055,1,7,11
1.39E+03,-7933,664,416,1035,2252,1348,1,7,11
1.39E+03,-7935,677,554,-533,2637,1635,1,7,11
1.39E+03,-8214,668,187,-1807,2514,1685,1,7,11
1.39E+03,-8279,790,65,-6014,2776,2360,1,7,11
1.38E+03,-8678,234,-526,-8233,1203,-591,1,7,11
1.37E+03,-8678,-127,-524,-7777,774,-836,1,7,11
1.35E+03,-8787,-317,-516,-6875,-124,-1127,1,7,11
1.33E+03,-8391,-360,-185,-6126,-637,-1240,1,7,11
1.31E+03,-8571,-497,-139,-5309,-1096,-1667,1,7,11
1.28E+03,-8386,-726,-341,-4239,-1256,-2188,1,7,11
1.26E+03,-8427,-1042,-136,-3168,-1730,-2886,1,7,11
1.23E+03,-8559,-1051,-367,-1854,-2186,-3169,1,7,11
1.22E+03,-8074,-1142,41,98,-2834,-3377,1,7,11
1.21E+03,-8305,-1374,279,1098,-2693,-3403,1,7,11
1.21E+03,-8065,-1615,198,2033,-2771,-3039,1,7,11
1.23E+03,-8276,-1643,219,3666,-3075,-3132,1,7,11
1.25E+03,-7891,-1241,170,4954,-2775,-2901,1,7,11
1.27E+03,-8027,-1000,162,5936,-2822,-2588,1,7,11
1.29E+03,-7995,-739,517,6299,-2182,-2126,1,7,11
1.31E+03,-7956,-456,384,6619,-1733,-1191,1,7,11
1.32E+03,-7633,-210,501,6616,-1274,-415,1,7,11
1.33E+03,-7806,-289,866,6360,-1033,310,1,7,11
1.34E+03,-7710,-87,670,6245,-198,692,1,7,11
1.34E+03,-7413,154,705,5695,187,1153,1,7,11
1.33E+03,-7749,570,765,4908,1073,1470,1,7,11
1.32E+03,-7600,397,1056,3779,1598,1752,1,7,11
1.30E+03,-7679,413,1064,3158,1777,1998,1,7,11
1.27E+03,-7989,456,739,2377,2423,2207,1,7,11
1.25E+03,-8027,777,845,1569,2472,2281,1,7,11
1.23E+03,-7862,811,464,465,2714,2389,1,7,11
1.20E+03,-8286,854,629,-345,3129,2131,1,7,11
1.19E+03,-8178,875,538,-1080,3130,1896,1,7,11
1.18E+03,-8495,661,322,-1435,2760,1487,1,7,11
1.18E+03,-8461,722,-95,-2020,2818,1614,1,7,11
1.20E+03,-8183,780,79,-2756,2583,1366,1,7,11
1.23E+03,-8505,468,-266,-3294,2349,659,1,7,11
1.26E+03,-8557,475,-362,-3875,2069,351,1,7,11
1.29E+03,-8559,465,-171,-4170,1451,-447,1,7,11
1.31E+03,-8542,617,-196,-4476,1304,-676,1,7,11
1.31E+03,-8497,190,-198,-4481,655,-1354,1,7,11
1.30E+03,-8516,285,-167,-4877,553,-1508,1,7,11
1.28E+03,-8519,-116,-361,-4601,-44,-1995,1,7,11
1.26E+03,-8483,-293,-284,-4731,-292,-2177,1,7,11
1.23E+03,-8159,-528,75,-4388,-847,-2304,1,7,11
1.20E+03,-8096,-448,-105,-3936,-1054,-2459,1,7,11
1.19E+03,-8091,-802,-51,-3339,-931,-2875,1,7,11
1.18E+03,-8078,-829,-40,-2648,-1021,-2937,1,7,11
1.17E+03,-8314,-829,-14,-1745,-1322,-2847,1,7,11
1.18E+03,-8285,-881,302,-1164,-1325,-2619,1,7,11
1.21E+03,-8251,-707,128,-861,-999,-2017,1,7,11
1.24E+03,-8204,-1035,194,-271,-1134,-1841,1,7,11
1.27E+03,-7861,-1070,211,567,-709,-1405,1,7,11
1.30E+03,-8051,-1045,208,1100,-471,-1028,1,7,11
1.33E+03,-8008,-718,178,1540,-191,-424,1,7,11
1.35E+03,-7980,-649,158,1847,110,-367,1,7,11
1.36E+03,-7976,-849,148,1772,149,-91,1,7,11
1.36E+03,-7970,-780,144,2127,432,154,1,7,11
1.36E+03,-8099,22,-33,1398,1154,306,1,7,11
1.35E+03,-8497,78,-56,728,1329,-20,1,7,11
1.33E+03,-8328,112,109,590,907,-87,1,7,11
1.31E+03,-8352,100,84,-80,673,-128,1,7,11
1.29E+03,-8354,-24,63,-213,437,74,1,7,11
1.27E+03,-8548,-338,39,-487,212,-46,1,7,11
1.26E+03,-8531,-155,34,-740,-10,-357,1,7,11
1.25E+03,-8487,-515,46,-968,33,-210,1,7,11
1.26E+03,-8191,-586,77,-1378,-160,-542,1,7,11
1.27E+03,-8121,-420,114,-1219,-604,-605,1,7,11
1.28E+03,-8294,-770,-105,-1246,-541,-614,1,7,11
1.30E+03,-8205,-893,-40,-1237,-870,-614,1,7,11
1.31E+03,-7859,-741,262,-1335,-852,-599,1,7,11
1.32E+03,-8033,-1079,297,-1119,-507,-626,1,7,11
1.32E+03,-8035,-1119,329,-830,-600,-413,1,7,11
1.32E+03,-7992,-1096,334,-249,-176,-423,1,7,11
1.32E+03,-8008,-1029,328,38,42,-460,1,7,11
1.31E+03,-8038,-688,317,-21,-18,-485,1,7,11
1.30E+03,-7858,-878,314,315,165,-778,1,7,11
1.29E+03,-8220,-841,325,328,547,-819,1,7,11
1.27E+03,-8284,-790,317,287,586,-836,1,7,11
1.26E+03,-8319,-497,317,-63,580,-864,1,7,11
1.24E+03,-8074,-441,281,69,555,-877,1,7,11
1.21E+03,-8080,-395,-26,-139,513,-881,1,7,11
1.19E+03,-8079,-398,-40,-441,188,-866,1,7,11
1.18E+03,-8068,-438,-42,-723,376,-849,1,7,11
1.17E+03,-8312,-508,-37,-995,275,-852,1,7,11
1.17E+03,-8267,-868,-22,-1200,-104,-853,1,7,11
1.18E+03,-8199,-670,-53,-1567,78,-834,1,7,11
1.19E+03,-7858,-716,-84,-1447,71,-851,1,7,11
1.21E+03,-7822,-732,-111,-1832,-125,-654,1,7,11
1.23E+03,-7865,-761,-115,-1709,-57,-706,1,7,11
1.25E+03,-7896,-1077,-108,-2088,-22,-682,1,7,11
1.26E+03,-7909,-916,-83,-2175,-14,-876,1,7,11
1.27E+03,-7907,-961,-114,-2148,-1,-843,1,7,11
1.27E+03,-7932,-1011,116,-2123,257,-817,1,7,11
1.26E+03,-8200,-1287,80,-2058,261,-478,1,7,11
1.25E+03,-8252,-1329,63,-1748,278,-431,1,7,11
1.23E+03,-8282,-1361,60,-1841,283,-607,1,7,11
1.22E+03,-8304,-1382,68,-1450,286,-543,1,7,11
1.20E+03,-8252,-1164,60,-1548,-6,-188,1,7,11
1.19E+03,-8212,-1204,47,-1357,-11,-152,1,7,11
1.19E+03,-7930,-1201,23,-1152,-10,-161,1,7,11
1.19E+03,-7904,-1170,-262,-709,266,-182,1,7,11
1.20E+03,-7896,-1377,-288,-809,300,-209,1,7,11
1.22E+03,-7881,-1329,-257,-460,331,-218,1,7,11
1.24E+03,-7918,-1296,14,-387,360,-237,1,7,11
1.26E+03,-7927,-1018,39,-590,346,-207,1,7,11
1.28E+03,-7913,-1013,47,-561,323,-183,1,7,11
1.30E+03,-7871,-991,41,-538,281,-165,1,7,11
1.32E+03,-7846,-962,9,-552,280,-167,1,7,11
1.33E+03,-7906,-1318,-301,-668,161,-600,1,7,11
1.33E+03,-8229,-1166,-142,-734,354,-375,1,7,11
1.32E+03,-7935,-1159,-158,-698,327,-352,1,7,11
1.31E+03,-8197,-1158,-146,-701,332,1,1,7,11
1.29E+03,-7936,-1192,-155,-864,295,-128,1,7,11
1.27E+03,-7879,-1230,-182,-502,278,282,1,7,11
1.25E+03,-7899,-1577,-243,107,173,-39,1,7,11
1.23E+03,-8210,-1565,-240,128,166,-69,1,7,11
1.22E+03,-8242,-1542,-252,407,133,-39,1,7,11
1.21E+03,-8231,-1252,-527,690,354,269,1,7,11
1.21E+03,-8197,-1197,-561,942,336,306,1,7,11
1.23E+03,-7913,-1392,-588,1387,336,317,1,7,11
1.25E+03,-7890,-1302,-621,1263,357,296,1,7,11
1.28E+03,-7927,-936,-632,1563,374,-5,1,7,11
1.32E+03,-8216,-1106,-626,1239,333,-18,1,7,11
1.35E+03,-8224,-1035,-625,1355,-11,-29,1,7,11
1.37E+03,-7945,-322,-877,706,95,90,1,7,11
1.38E+03,-8104,-72,-676,333,-284,-349,1,7,11
1.38E+03,-8482,7,-447,-1134,-524,-249,1,7,11
1.38E+03,-8477,-581,-205,-2351,-871,-535,1,7,11
1.37E+03,-8113,-675,-317,-3105,-1344,-600,1,7,11
1.36E+03,-8222,-988,18,-3592,-1219,-627,1,7,11
1.35E+03,-7860,-1249,54,-3326,-1169,-386,1,7,11
1.35E+03,-7851,-1482,106,-3357,-1008,-617,1,7,11
1.35E+03,-7837,-1897,125,-2886,-1060,-513,1,7,11
1.34E+03,-8059,-1712,116,-2023,-833,-142,1,7,11
1.33E+03,-8033,-1730,92,-1409,-617,-316,1,7,11
1.32E+03,-8060,-1754,81,-1075,-169,14,1,7,11
1.30E+03,-8057,-1730,62,-207,-290,67,1,7,11
1.28E+03,-7833,-1915,25,338,92,73,1,7,11
1.26E+03,-7880,-1534,-264,779,-86,60,1,7,11
1.25E+03,-7924,-1419,-267,1063,-92,43,1,7,11
1.24E+03,-7913,-1591,-269,977,95,59,1,7,11
1.25E+03,-7909,-1561,7,1286,26,53,1,7,11
1.27E+03,-7919,-1556,17,1304,-300,41,1,7,11
1.29E+03,-7894,-1240,-259,1344,-363,26,1,7,11
1.31E+03,-7815,-1305,-331,1345,-140,12,1,7,11
1.32E+03,-8011,-1128,-376,1072,-383,-283,1,7,11
1.32E+03,-8035,-907,23,566,-343,-341,1,7,11
1.31E+03,-7810,-960,120,-111,-317,-147,1,7,11
1.30E+03,-7900,-979,-68,-131,-283,-238,1,7,11
1.27E+03,-8215,-1023,-3,-628,7,-252,1,7,11
1.25E+03,-8247,-1394,322,-830,18,-361,1,7,11
1.23E+03,-8194,-1256,320,-648,-274,52,1,7,11
1.21E+03,-7866,-1608,284,-776,6,-101,1,7,11
1.19E+03,-7829,-1664,-9,-612,86,-38,1,7,11
1.17E+03,-7896,-1457,-8,-131,-54,-8,1,7,11
1.16E+03,-7931,-1478,-6,-78,-10,380,1,7,11
1.15E+03,-7889,-1507,-34,535,262,548,1,7,11
1.15E+03,-7880,-1526,-59,685,318,421,1,7,11
1.16E+03,-7877,-1531,-66,1381,378,814,1,7,11
1.17E+03,-7888,-1478,-83,1878,193,671,1,7,11
1.20E+03,-7904,-1635,-99,2377,532,1059,1,7,11
1.23E+03,-7889,-1242,105,2830,635,950,1,7,11
1.28E+03,-7908,-1365,77,3193,508,1347,1,7,11
1.32E+03,-7933,-1014,76,3219,876,1232,1,7,11
1.35E+03,-7923,-941,67,3459,699,1591,1,7,11
1.38E+03,-7874,-1081,24,3891,759,1635,1,7,11
1.39E+03,-7848,-710,-294,3933,1076,1262,1,7,11
1.39E+03,-7854,-796,-376,3885,1124,1280,1,7,11
1.38E+03,-7919,-386,-172,3709,1148,748,1,7,11
1.36E+03,-8239,-546,-158,3407,1102,768,1,7,11
1.33E+03,-8311,-502,-149,2797,1027,575,1,7,11
1.30E+03,-8107,-225,-159,2464,647,144,1,7,11
1.27E+03,-8094,-520,-148,2349,468,261,1,7,11
1.24E+03,-8074,-618,-369,1702,554,96,1,7,11
1.21E+03,-8317,-482,-353,1628,156,0,1,7,11
1.19E+03,-8263,-830,-359,1399,226,-342,1,7,11
1.18E+03,-8223,-667,-356,955,-103,-183,1,7,11
1.17E+03,-8205,-1075,-325,695,85,-255,1,7,11
1.17E+03,-7928,-968,-285,695,61,-558,1,7,11
1.18E+03,-8206,-941,-319,1134,100,-590,1,7,11
1.20E+03,-8253,-1151,-348,945,108,-540,1,7,11
1.23E+03,-8229,-913,-336,920,79,-198,1,7,11
1.25E+03,-8204,-932,-316,925,86,-169,1,7,11
1.28E+03,-8207,-916,-294,921,118,-192,1,7,11
1.30E+03,-8239,-1097,-271,927,-99,-199,1,7,11
1.32E+03,-8225,-1035,-265,1099,-107,-175,1,7,11
1.33E+03,-7929,-1039,24,692,-118,-145,1,7,11
1.33E+03,-7913,-1079,54,815,-102,-147,1,7,11
1.33E+03,-7916,-1127,71,445,-77,-169,1,7,11
1.32E+03,-7905,-918,96,614,-74,-195,1,7,11
1.30E+03,-7881,-946,84,567,-43,-234,1,7,11
1.28E+03,-7901,-987,86,228,265,-255,1,7,11
1.25E+03,-7909,-1321,85,168,292,-248,1,7,11
1.22E+03,-7902,-1398,67,168,299,-245,1,7,11
1.20E+03,-7912,-1178,20,234,296,-532,1,7,11
1.19E+03,-7927,-1235,29,213,274,-542,1,7,11
1.20E+03,-8202,-1275,33,237,-23,-573,1,7,11
1.22E+03,-8241,-1261,19,544,-84,-623,1,7,11
1.24E+03,-8230,-1204,-273,573,88,-635,1,7,11
1.25E+03,-8244,-1407,-286,518,11,-397,1,7,11
1.25E+03,-8258,-1375,-285,151,-342,-399,1,7,11
1.22E+03,-8251,-1369,-263,-19,-207,-401,1,7,11
1.18E+03,-8251,-1396,36,78,-563,-417,1,7,11
1.14E+03,-8265,-1165,96,-286,-391,-414,1,7,11
1.11E+03,-8259,-1198,-107,-352,-464,-621,1,7,11
1.09E+03,-8206,-1258,-79,-377,-785,-553,1,7,11
1.09E+03,-7896,-1573,-58,-371,-784,-236,1,7,11
1.11E+03,-7869,-1664,-21,-331,-481,-190,1,7,11
1.13E+03,-7869,-1485,279,33,-407,-171,1,7,11
1.15E+03,-7824,-1793,274,-63,-619,-148,1,7,11
1.17E+03,-8024,-1818,-4,347,-538,-172,1,7,11
1.18E+03,-8016,-1815,-9,237,-165,-226,1,7,11
1.18E+03,-8028,-1795,-29,394,-285,-517,1,7,11
1.18E+03,-8061,-1607,-40,453,384,-335,1,7,11
1.18E+03,-7871,-1619,-37,608,406,-344,1,7,11
1.18E+03,-8208,-1593,-36,249,393,-381,1,7,11
1.18E+03,-8367,-1158,-113,-383,-768,-442,1,7,11
1.18E+03,-8466,-1355,66,-471,-1221,-600,1,7,11
1.18E+03,-8098,-1222,-112,-1110,-1453,-219,1,7,11
1.18E+03,-7892,-1544,257,-1304,-1803,-285,1,7,11
1.17E+03,-7893,-1708,147,-1012,-1657,94,1,7,11
1.17E+03,-7588,-1781,255,-764,-1338,84,1,7,11
1.16E+03,-7580,-1779,590,-475,-494,86,1,7,11
1.14E+03,-7576,-1712,604,-115,-370,110,1,7,11
1.12E+03,-7594,-1899,600,141,259,-125,1,7,11
1.09E+03,-7961,-1813,598,520,580,113,1,7,11
1.08E+03,-7821,-1469,597,540,508,-114,1,7,11
1.07E+03,-7925,-1467,623,180,800,-83,1,7,11
1.08E+03,-7916,-1815,390,312,455,-43,1,7,11
1.11E+03,-7817,-1839,584,278,619,-104,1,7,11
1.15E+03,-8037,-1804,524,-19,609,4,1,7,11
1.19E+03,-7826,-1462,221,-83,621,-357,1,7,11
1.23E+03,-7888,-1413,197,33,597,-334,1,7,11
1.26E+03,-7920,-1446,214,-133,240,37,1,7,11
1.28E+03,-7890,-1820,228,-253,367,-105,1,7,11
1.29E+03,-7817,-1855,186,-197,306,-58,1,7,11
1.29E+03,-7837,-1847,173,-139,298,114,1,7,11
1.28E+03,-7922,-1534,163,-352,-13,46,1,7,11
1.28E+03,-8213,-1514,141,-343,115,72,1,7,11
1.27E+03,-8194,-1490,353,-296,50,124,1,7,11
1.26E+03,-8215,-1480,346,-261,59,109,1,7,11
1.25E+03,-8199,-1482,336,-260,53,111,1,7,11
1.24E+03,-8196,-1510,351,-265,41,66,1,7,11
1.24E+03,-7925,-1494,348,10,33,17,1,7,11
1.24E+03,-7917,-1484,343,-266,28,-281,1,7,11
1.24E+03,-8200,-1488,367,2,70,-297,1,7,11
1.23E+03,-7935,-1483,375,58,89,-274,1,7,11
1.23E+03,-7885,-1504,365,111,-113,7,1,7,11
1.21E+03,-7858,-1472,352,-73,-9,-275,1,7,11
1.19E+03,-7865,-1463,365,-88,335,-279,1,7,11
1.17E+03,-7891,-1464,134,124,128,6,1,7,11
1.16E+03,-7878,-1484,147,71,376,17,1,7,11
1.15E+03,-7889,-1465,146,11,331,2,1,7,11
1.16E+03,-7893,-1434,148,-349,263,-260,1,7,11
1.18E+03,-7921,-1430,150,-211,-71,19,1,7,11
1.20E+03,-7872,-1473,135,-559,112,79,1,7,11
1.22E+03,-7836,-1795,141,-596,125,77,1,7,11
1.24E+03,-7841,-1795,382,-551,-70,46,1,7,11
1.25E+03,-7842,-1798,363,-546,-24,44,1,7,11
1.26E+03,-7870,-1816,361,-556,257,54,1,7,11
1.26E+03,-7900,-1811,360,-553,260,82,1,7,11
1.26E+03,-7917,-1812,372,-544,-2,93,1,7,11
1.26E+03,-7906,-1806,354,-234,-14,90,1,7,11
1.26E+03,-7911,-1535,342,-182,-44,75,1,7,11
1.27E+03,-7932,-1528,343,-168,-66,79,1,7,11
1.27E+03,-7931,-1796,357,-169,-122,115,1,7,11
1.26E+03,-7922,-1812,369,-144,112,-102,1,7,11
1.25E+03,-7915,-1809,372,-349,112,-69,1,7,11
1.23E+03,-7923,-1534,373,-289,127,-35,1,7,11
1.20E+03,-7924,-1801,374,2,-117,259,1,7,11
1.18E+03,-8193,-1813,135,35,-121,270,1,7,11
1.16E+03,-7933,-1533,136,75,114,292,1,7,11
1.15E+03,-7920,-1493,137,103,81,312,1,7,11
1.15E+03,-7900,-1482,130,93,51,340,1,7,11
1.17E+03,-7864,-1511,143,57,26,359,1,7,11
1.18E+03,-7834,-1530,129,64,12,331,1,7,11
1.20E+03,-7837,-1489,374,98,26,283,1,7,11
1.21E+03,-7856,-1459,374,76,23,261,1,7,11
1.22E+03,-7844,-1462,381,68,34,267,1,7,11
1.22E+03,-7880,-1462,143,68,60,-16,1,7,11
1.22E+03,-7897,-1445,135,86,73,-1,1,7,11
1.23E+03,-7924,-1439,130,104,65,264,1,7,11
1.23E+03,-7920,-1415,367,126,64,269,1,7,11
1.22E+03,-8226,-1655,373,127,89,-9,1,7,11
1.22E+03,-8286,-1598,348,-105,127,-3,1,7,11
1.21E+03,-8083,-1276,320,-118,120,294,1,7,11
1.19E+03,-8066,-1237,313,101,97,364,1,7,11
1.16E+03,-8279,-1236,339,46,65,130,1,7,11
1.12E+03,-8218,-1545,136,0,41,354,1,7,11
1.10E+03,-7933,-1550,145,12,29,294,1,7,11
1.08E+03,-7881,-1582,153,14,28,-59,1,7,11
1.09E+03,-8039,-1610,164,27,48,103,1,7,11
1.12E+03,-8042,-1618,189,69,-114,-284,1,7,11
1.15E+03,-7825,-1595,201,-128,-24,-382,1,7,11
1.20E+03,-7859,-1567,211,-107,263,-372,1,7,11
1.24E+03,-7858,-1278,190,-80,291,-320,1,7,11
1.27E+03,-7868,-1257,161,-120,312,-275,1,7,11
1.28E+03,-7869,-1268,159,54,317,5,1,7,11
1.29E+03,-7900,-1277,172,-270,322,-276,1,7,11
1.29E+03,-8203,-1543,183,-351,297,-293,1,7,11
1.29E+03,-8208,-1272,172,-163,-2,-269,1,7,11
1.29E+03,-8195,-1553,168,-237,-33,14,1,7,11
1.28E+03,-7909,-1584,155,-535,-19,42,1,7,11
1.28E+03,-7866,-1629,139,-559,287,21,1,7,11
1.27E+03,-7896,-1413,154,-568,337,-282,1,7,11
1.26E+03,-7925,-1430,174,-559,344,-294,1,7,11
1.25E+03,-8202,-1434,179,-537,317,-282,1,7,11
1.23E+03,-7924,-1426,140,-228,291,33,1,7,11
1.22E+03,-7855,-1438,366,-204,312,70,1,7,11
1.21E+03,-7860,-1445,359,-193,347,25,1,7,11
1.21E+03,-7879,-1420,336,-208,348,-267,1,7,11
1.22E+03,-7910,-1655,319,-239,339,-267,1,7,11
1.24E+03,-8201,-1626,304,-555,327,19,1,7,11
1.26E+03,-8198,-1641,300,-625,291,103,1,7,11
1.28E+03,-7922,-1433,316,-423,271,-104,1,7,11
1.29E+03,-7910,-1432,315,-409,270,-96,1,7,11
1.29E+03,-7885,-1618,273,-499,38,258,1,7,11
1.28E+03,-7893,-1573,275,-861,-270,307,1,7,11
1.26E+03,-7885,-1611,298,-767,-324,366,1,7,11
1.24E+03,-7869,-1654,335,-1073,-340,140,1,7,11
1.23E+03,-7887,-1640,334,-1062,-326,366,1,7,11
1.22E+03,-7903,-1580,337,-1056,-313,379,1,7,11
1.22E+03,-7899,-1608,335,-1108,-343,232,1,7,11
1.23E+03,-7926,-1609,362,-1091,-336,211,1,7,11
1.23E+03,-7915,-1653,367,-1079,-360,213,1,7,11
1.22E+03,-7899,-1597,356,-642,-355,171,1,7,11
1.21E+03,-8205,-1558,353,-800,-372,139,1,7,11
1.19E+03,-8197,-1259,347,-450,-160,168,1,7,11
1.16E+03,-8193,-1250,340,-625,-197,128,1,7,11
1.14E+03,-7934,-1220,358,-514,-201,357,1,7,11
1.13E+03,-7897,-1208,372,-131,-183,287,1,7,11
1.13E+03,-7880,-1407,343,18,-366,-93,1,7,11
1.15E+03,-7883,-1344,332,76,-292,39,1,7,11
1.17E+03,-7886,-1283,335,59,34,-284,1,7,11
1.19E+03,-7896,-1019,378,-314,94,-313,1,7,11
1.21E+03,-8201,-1319,207,-178,-113,-315,1,7,11
1.22E+03,-8231,-1355,241,-231,-120,-261,1,7,11
1.23E+03,-8203,-1354,230,-225,-113,62,1,7,11
1.23E+03,-8202,-1345,222,-224,-62,44,1,7,11
1.22E+03,-8200,-1387,239,-235,-17,39,1,7,11
1.19E+03,-7915,-1212,521,-185,269,-261,1,7,11
1.16E+03,-7897,-1263,230,-286,309,-322,1,7,11
1.13E+03,-7850,-1541,198,-100,368,-154,1,7,11
1.10E+03,-7853,-1556,154,363,212,-547,1,7,11
1.09E+03,-7859,-1270,367,573,560,-420,1,7,11
1.10E+03,-7867,-1250,343,434,389,-789,1,7,11
1.13E+03,-7881,-1568,339,488,457,-888,1,7,11
1.16E+03,-7906,-1579,293,863,508,-763,1,7,11
1.19E+03,-8216,-1561,274,709,798,-1129,1,7,11
1.21E+03,-8255,-1279,-10,718,770,-1146,1,7,11
1.23E+03,-8237,-1556,-13,871,413,-1121,1,7,11
1.23E+03,-7923,-1609,-25,495,571,-1093,1,7,11
1.23E+03,-7897,-1414,-14,398,535,-1103,1,7,11
1.23E+03,-7917,-1442,-30,596,530,-1110,1,7,11
1.22E+03,-7916,-1444,-52,535,238,-1051,1,7,11
1.21E+03,-7868,-1479,-67,177,189,-701,1,7,11
1.19E+03,-8052,-1519,-84,320,181,-896,1,7,11
1.18E+03,-8059,-1824,-50,-45,227,-650,1,7,11
1.18E+03,-7812,-1896,-49,-76,251,-882,1,7,11
1.17E+03,-7821,-1910,-69,-47,547,-860,1,7,11
1.17E+03,-7823,-1699,-114,-123,202,-418,1,7,11
1.18E+03,-7869,-1756,62,809,1072,-457,1,7,11
1.19E+03,-7921,-1685,37,756,911,-440,1,7,11
1.20E+03,-7930,-1710,39,668,1074,-592,1,7,11
1.21E+03,-7874,-1779,58,505,743,-566,1,7,11
1.23E+03,-7876,-1756,13,396,730,-391,1,7,11
1.24E+03,-7926,-1772,10,244,694,-458,1,7,11
1.24E+03,-7923,-2059,-265,330,808,-401,1,7,11
1.24E+03,-7890,-2153,-288,-73,550,-627,1,7,11
1.22E+03,-7822,-1937,-333,112,166,-615,1,7,11
1.20E+03,-7811,-1952,-364,82,361,-390,1,7,11
1.17E+03,-8032,-1943,-376,77,277,-599,1,7,11
1.14E+03,-8001,-2037,-354,-271,-81,-566,1,7,11
1.11E+03,-7974,-2387,-313,6,115,-576,1,7,11
1.09E+03,-8027,-2398,-306,108,88,-628,1,7,11
1.08E+03,-8028,-2421,-295,-53,33,-611,1,7,11
1.09E+03,-7969,-2398,-312,319,10,-572,1,7,11
1.10E+03,-7645,-2404,-340,349,2,-568,1,7,11
1.13E+03,-7626,-2415,-345,353,55,-592,1,7,11
1.17E+03,-7676,-2415,-330,357,108,-620,1,7,11
1.21E+03,-7985,-2410,-309,366,-122,-588,1,7,11
1.24E+03,-8017,-2395,-306,135,118,-253,1,7,11
1.26E+03,-7993,-2393,-316,381,57,-154,1,7,11
1.27E+03,-7954,-2379,-331,332,22,-360,1,7,11
1.26E+03,-8006,-2384,-300,-24,4,-377,1,7,11
1.24E+03,-8032,-2342,-276,-82,-315,-307,1,7,11
1.21E+03,-8040,-2321,-261,107,-381,70,1,7,11
1.18E+03,-7989,-2027,-265,118,-152,-59,1,7,11
1.15E+03,-7977,-1969,-260,116,-363,256,1,7,11
1.12E+03,-7993,-1946,15,28,-350,323,1,7,11
1.11E+03,-7963,-1991,46,-356,-384,151,1,7,11
1.11E+03,-7943,-2318,81,-383,-381,161,1,7,11
1.12E+03,-7992,-2350,98,-301,-360,353,1,7,11
1.14E+03,-7666,-2334,78,92,-137,355,1,7,11
1.17E+03,-7680,-2350,80,-104,-378,272,1,7,11
1.20E+03,-7679,-2332,66,-35,-363,-67,1,7,11
1.22E+03,-8016,-2008,71,-10,-335,-116,1,7,11
1.24E+03,-8022,-1978,72,-53,-366,-52,1,7,11
1.24E+03,-8032,-1964,71,-121,-339,261,1,7,11
1.24E+03,-8048,-1958,83,83,-312,319,1,7,11
1.24E+03,-8049,-1956,109,52,-292,380,1,7,11
1.23E+03,-7830,-1939,-122,26,22,195,1,7,11
1.23E+03,-8058,-1945,121,1,18,568,1,7,11
1.22E+03,-7998,-2017,-118,-317,-288,593,1,7,11
1.22E+03,-7988,-2039,-110,-256,33,520,1,7,11
1.22E+03,-8037,-2005,-91,85,88,179,1,7,11
1.23E+03,-7829,-1947,-107,-87,83,147,1,7,11
1.23E+03,-7825,-2173,-126,-43,15,176,1,7,11
1.24E+03,-7826,-1939,127,-5,-283,192,1,7,11
1.24E+03,-7856,-1940,-116,346,-296,202,1,7,11
1.25E+03,-7913,-2149,-80,172,-170,614,1,7,11
1.25E+03,-7851,-2124,-99,516,-254,510,1,7,11
1.25E+03,-8056,-1782,-118,617,-245,852,1,7,11
1.24E+03,-7866,-1744,-86,551,-229,885,1,7,11
1.24E+03,-7905,-2051,258,171,-571,754,1,7,11
1.24E+03,-7830,-2147,346,366,-411,1108,1,7,11
1.24E+03,-8025,-1922,137,216,-404,1089,1,7,11
1.24E+03,-8032,-2136,148,386,-604,754,1,7,11
1.24E+03,-8061,-2083,174,797,-552,712,1,7,11
1.24E+03,-8054,-1775,163,711,-234,741,1,7,11
1.23E+03,-8045,-1723,167,1122,-140,744,1,7,11
1.21E+03,-8028,-1916,173,969,-288,759,1,7,11
1.19E+03,-8039,-1866,191,1288,96,748,1,7,11
1.17E+03,-7821,-1831,208,1346,-60,727,1,7,11
1.15E+03,-7868,-1508,202,1390,269,733,1,7,11
1.15E+03,-7903,-1456,213,1153,298,1031,1,7,11
1.15E+03,-7916,-1415,212,1398,304,1082,1,7,11
1.16E+03,-7911,-1663,217,1379,284,1132,1,7,11
1.18E+03,-7887,-1659,196,1401,281,1144,1,7,11
1.20E+03,-7906,-1644,200,1209,317,1090,1,7,11
1.22E+03,-8200,-1601,198,1562,337,1048,1,7,11
1.23E+03,-8211,-1587,208,1635,316,1042,1,7,11
1.23E+03,-8235,-1609,246,1480,296,1034,1,7,11
1.23E+03,-8208,-1624,524,1909,265,1056,1,7,11
1.23E+03,-7934,-1576,244,2163,292,1056,1,7,11
1.23E+03,-8208,-1218,208,2419,343,1055,1,7,11
1.23E+03,-8208,-1364,161,2300,365,1131,1,7,11
1.23E+03,-8206,-1282,383,2586,377,948,1,7,11
1.23E+03,-8212,-938,150,2588,152,994,1,7,11
1.23E+03,-8222,-907,175,2574,187,992,1,7,11
1.22E+03,-8281,-1105,215,2274,216,945,1,7,11
1.20E+03,-8302,-757,515,2243,186,932,1,7,11
1.19E+03,-8072,-650,548,2409,141,1122,1,7,11
1.17E+03,-8093,-829,583,1955,291,1062,1,7,11
1.16E+03,-8067,-812,612,1753,-89,736,1,7,11
1.15E+03,-8291,-822,390,1825,70,874,1,7,11
1.15E+03,-8286,-797,417,1434,47,438,1,7,11
1.15E+03,-8076,-782,458,1552,50,146,1,7,11
1.15E+03,-8066,-801,490,1366,-283,287,1,7,11
1.16E+03,-8071,-869,782,1138,-364,-118,1,7,11
1.18E+03,-8070,-658,790,888,-376,21,1,7,11
1.20E+03,-8315,-665,800,502,-369,-306,1,7,11
1.22E+03,-8300,-681,817,396,-339,-331,1,7,11
1.25E+03,-8262,-740,839,565,-310,-287,1,7,11
1.26E+03,-8228,-1032,859,535,21,-286,1,7,11
1.28E+03,-8234,-1079,880,240,69,-298,1,7,11
1.28E+03,-8213,-1088,885,218,91,-282,1,7,11
1.28E+03,-8202,-1116,868,201,115,-285,1,7,11
1.26E+03,-7901,-1133,838,226,-113,-279,1,7,11
1.23E+03,-7846,-906,824,515,-39,-321,1,7,11
1.19E+03,-7857,-1123,803,574,333,-150,1,7,11
1.15E+03,-7898,-1096,775,563,141,-161,1,7,11
1.11E+03,-7894,-1084,494,559,205,-367,1,7,11
1.08E+03,-7934,-1096,479,250,522,-350,1,7,11
1.07E+03,-8217,-1125,457,203,551,-319,1,7,11
1.09E+03,-8272,-1138,453,175,547,-307,1,7,11
1.11E+03,-8285,-1127,448,137,229,-277,1,7,11
1.15E+03,-8283,-1107,452,309,132,16,1,7,11
1.18E+03,-8234,-1135,432,-92,259,67,1,7,11
1.22E+03,-7932,-929,420,49,-69,108,1,7,11
1.25E+03,-7887,-969,628,12,-60,-104,1,7,11
1.27E+03,-7849,-1018,609,52,288,-48,1,7,11
1.29E+03,-7847,-1284,603,-109,186,-11,1,7,11
1.29E+03,-7902,-1024,596,-45,568,298,1,7,11
1.29E+03,-7922,-1288,596,-27,632,140,1,7,11
1.27E+03,-8208,-1345,582,-31,432,202,1,7,11
1.25E+03,-8236,-1353,561,-15,470,237,1,7,11
1.21E+03,-8241,-1334,557,-5,486,512,1,7,11
1.17E+03,-8232,-1304,549,-17,504,526,1,7,11
1.12E+03,-8241,-998,521,-8,781,522,1,7,11
1.08E+03,-8223,-931,215,287,802,566,1,7,11
1.06E+03,-7936,-1149,176,-3,831,600,1,7,11
1.06E+03,-7927,-1106,159,-44,884,604,1,7,11
1.09E+03,-7931,-1080,140,-128,683,565,1,7,11
1.13E+03,-8241,-1113,362,57,719,530,1,7,11
1.18E+03,-8203,-1050,323,90,733,555,1,7,11
1.23E+03,-8233,-686,262,39,763,249,1,7,11
1.26E+03,-8271,-884,-19,-376,702,556,1,7,11
1.29E+03,-8251,-714,-33,-521,831,406,1,7,11
1.29E+03,-7919,-1052,-38,-215,507,431,1,7,11
1.28E+03,-7910,-1044,-59,-337,775,613,1,7,11
1.26E+03,-7922,-1031,-82,-259,491,523,1,7,11
1.23E+03,-7907,-714,116,77,440,217,1,7,11
1.20E+03,-7876,-644,55,-102,418,165,1,7,11
1.16E+03,-7879,-847,24,-55,445,154,1,7,11
1.13E+03,-7912,-847,32,259,508,178,1,7,11
1.11E+03,-8238,-811,-258,135,811,248,1,7,11
1.11E+03,-8277,-486,-300,239,784,393,1,7,11
1.13E+03,-8285,-453,-345,242,498,833,1,7,11
1.15E+03,-8212,-430,-140,193,431,1066,1,7,11
1.18E+03,-7931,-456,-342,273,431,930,1,7,11
1.20E+03,-8262,-466,3,-63,417,989,1,7,11
1.21E+03,-8318,-396,8,-85,542,1363,1,7,11
1.21E+03,-8257,-636,-264,-109,360,1205,1,7,11
1.21E+03,-8229,-560,-277,-70,286,1183,1,7,11
1.20E+03,-8216,-231,-311,-40,-26,1380,1,7,11
1.18E+03,-7929,-182,-347,267,-75,1321,1,7,11
1.15E+03,-7923,-358,-366,350,-83,960,1,7,11
1.12E+03,-8240,-226,-150,132,125,1131,1,7,11
1.10E+03,-8204,81,-188,134,35,1130,1,7,11
1.09E+03,-7924,89,-199,350,23,1064,1,7,11
1.10E+03,-8230,76,-178,326,92,868,1,7,11
1.12E+03,-8313,101,-151,375,-69,476,1,7,11
1.15E+03,-8101,-112,-133,189,-33,410,1,7,11
1.18E+03,-8104,-57,-370,223,-47,394,1,7,11
1.20E+03,-8105,262,-379,182,-80,418,1,7,11
1.21E+03,-8275,272,-166,313,-128,865,1,7,11
1.22E+03,-8238,321,-172,151,-17,874,1,7,11
1.21E+03,-8226,351,-146,219,348,839,1,7,11
1.20E+03,-8251,131,-368,554,204,819,1,7,11
1.18E+03,-8081,133,-333,614,251,802,1,7,11
1.16E+03,-8089,338,-260,429,185,826,1,7,11
1.14E+03,-8233,147,-285,862,153,806,1,7,11
1.11E+03,-8075,179,-273,884,374,390,1,7,11
1.09E+03,-8316,240,-281,728,294,608,1,7,11
1.08E+03,-8065,563,-267,714,-32,255,1,7,11
1.07E+03,-8093,549,8,640,-107,218,1,7,11
1.07E+03,-8286,238,39,821,66,239,1,7,11
1.08E+03,-8241,241,22,844,76,193,1,7,11
1.10E+03,-8207,208,6,832,116,143,1,7,11
1.13E+03,-7862,139,5,887,273,322,1,7,11
1.15E+03,-7888,163,-286,718,211,-114,1,7,11
1.17E+03,-7904,196,-320,757,596,45,1,7,11
1.17E+03,-7900,207,-326,664,417,-279,1,7,11
1.16E+03,-8214,173,-316,797,489,-305,1,7,11
1.15E+03,-7899,281,-347,144,815,86,1,7,11
1.14E+03,-7912,261,-366,174,839,80,1,7,11
1.14E+03,-7896,274,-142,212,832,99,1,7,11
1.15E+03,-7885,286,-202,246,836,127,1,7,11
1.17E+03,-7831,282,-256,243,850,-92,1,7,11
1.19E+03,-7854,-1,-564,520,664,-96,1,7,11
1.20E+03,-7864,263,-583,599,696,-73,1,7,11
1.21E+03,-7868,268,-612,410,753,-63,1,7,11
1.21E+03,-7908,305,-407,793,1065,-77,1,7,11
1.21E+03,-7933,349,-483,809,1036,-36,1,7,11
1.19E+03,-7895,332,-779,497,715,284,1,7,11
1.18E+03,-7886,336,-827,438,694,307,1,7,11
1.15E+03,-7888,309,-874,405,672,330,1,7,11
1.13E+03,-7859,262,-652,471,682,364,1,7,11
1.12E+03,-7840,-1,-694,858,745,372,1,7,11
1.11E+03,-7844,-36,-722,668,1032,354,1,7,11
1.11E+03,-7842,-19,-764,1051,1063,347,1,7,11
1.12E+03,-7828,298,-1088,940,1085,375,1,7,11
1.14E+03,-7866,329,-1139,1005,1127,379,1,7,11
1.17E+03,-7893,343,-951,999,1078,157,1,7,11
1.19E+03,-7906,339,-1283,945,758,184,1,7,11
1.21E+03,-7913,321,-1305,1129,669,159,1,7,11
1.22E+03,-8200,296,-1015,1082,823,378,1,7,11
1.22E+03,-8229,289,-961,1135,439,362,1,7,11
1.21E+03,-8235,292,-939,966,517,129,1,7,11
1.19E+03,-8194,269,-912,1290,347,151,1,7,11
1.15E+03,-7841,306,-1148,1381,-47,174,1,7,11
1.11E+03,-7957,149,-1144,1219,-105,150,1,7,11
1.07E+03,-7957,556,-902,1274,256,303,1,7,11
1.05E+03,-8039,491,-951,1208,359,283,1,7,11
1.05E+03,-7845,835,-1000,911,360,359,1,7,11
1.07E+03,-8050,818,-1328,806,321,207,1,7,11
1.11E+03,-7998,770,-1396,208,375,183,1,7,11
1.15E+03,-8037,450,-1170,-92,240,298,1,7,11
1.20E+03,-7853,414,-1174,-304,572,-71,1,7,11
1.23E+03,-7906,607,-1155,-250,531,89,1,7,11
1.24E+03,-7916,235,-1365,-393,155,14,1,7,11
1.25E+03,-7886,151,-1330,-428,278,-314,1,7,11
1.25E+03,-7879,365,-1314,-389,-87,-145,1,7,11
1.24E+03,-7860,154,-1353,-571,92,-185,1,7,11
1.22E+03,-7867,187,-1372,-622,21,-231,1,7,11
1.21E+03,-7863,173,-1338,-451,-318,-211,1,7,11
1.19E+03,-7839,154,-1022,-791,-379,-204,1,7,11
1.18E+03,-7865,175,-1008,-803,-374,-204,1,7,11
1.18E+03,-7930,253,-994,-770,-341,-201,1,7,11
1.18E+03,-8209,526,-942,-874,-143,-178,1,7,11
1.19E+03,-7905,229,-1141,-742,-209,-167,1,7,11
1.19E+03,-7856,199,-1117,-1036,-208,-230,1,7,11
1.19E+03,-7809,209,-1118,-752,-170,-569,1,7,11
1.18E+03,-8047,187,-1113,-1034,-362,-406,1,7,11
1.17E+03,-8038,145,-1119,-1043,-285,-468,1,7,11
1.14E+03,-8053,338,-1123,-1032,65,-808,1,7,11
1.11E+03,-8026,-20,-1095,-1079,58,-852,1,7,11
1.09E+03,-7972,124,-1071,-1042,61,-886,1,7,11
1.08E+03,-7947,101,-1096,-649,104,-678,1,7,11
1.08E+03,-7664,115,-1127,-824,-102,-677,1,7,11
1.08E+03,-7649,111,-1140,-787,-67,-880,1,7,11
1.08E+03,-7610,45,-1128,-825,-59,-823,1,7,11
1.08E+03,-7608,-300,-1118,-814,-17,-798,1,7,11
1.08E+03,-7627,-337,-1119,-490,303,-793,1,7,11
1.07E+03,-7650,-371,-1114,-440,345,-792,1,7,11
1.05E+03,-7646,-377,-1124,-402,140,-499,1,7,11
1.04E+03,-7951,-140,-1136,-410,194,-480,1,7,11
1.02E+03,-8008,-173,-1135,-414,234,-429,1,7,11
1.01E+03,-8047,-177,-924,-393,250,-611,1,7,11
1.01E+03,-7833,-152,-970,-640,515,-540,1,7,11
1.02E+03,-7835,-164,-988,-438,230,-182,1,7,11
1.04E+03,-8051,-194,-975,-441,223,-342,1,7,11
1.08E+03,-8018,-138,-1009,-597,253,-271,1,7,11
1.11E+03,-7985,-269,-1332,-252,553,68,1,7,11
1.15E+03,-7994,99,-1396,-217,625,-122,1,7,11
1.18E+03,-8016,-32,-1209,-203,426,-23,1,7,11
1.20E+03,-8028,312,-1268,-540,431,352,1,7,11
1.21E+03,-8013,340,-1558,-391,406,196,1,7,11
1.21E+03,-8010,356,-1583,-482,395,204,1,7,11
1.21E+03,-7810,361,-1596,-822,622,132,1,7,11
1.19E+03,-7835,358,-1593,-886,534,329,1,7,11
1.17E+03,-7833,342,-1594,-674,168,260,1,7,11
1.14E+03,-7809,337,-1598,-693,323,-66,1,7,11
1.12E+03,-8059,343,-1593,-705,-10,114,1,7,11
1.11E+03,-7832,347,-1588,-720,-71,32,1,7,11
1.11E+03,-7839,317,-1547,-757,76,-311,1,7,11
1.12E+03,-7848,265,-1241,-762,13,-132,1,7,11
1.14E+03,-7864,-41,-1194,-731,-303,-197,1,7,11
1.15E+03,-7868,-79,-1167,-685,-361,-230,1,7,11
1.17E+03,-7860,-98,-1156,-891,-139,-246,1,7,11
1.18E+03,-7855,-91,-1404,-844,-141,-521,1,7,11
1.18E+03,-7873,-76,-1397,-817,-137,-529,1,7,11
1.19E+03,-7875,-83,-1385,-832,-165,-525,1,7,11
1.19E+03,-7874,-100,-1366,-859,-189,-551,1,7,11
1.19E+03,-7902,-91,-1367,-894,-224,-576,1,7,11
1.19E+03,-7893,-57,-1381,-721,-547,-583,1,7,11
1.18E+03,-7887,-22,-1394,-1138,-618,-388,1,7,11
1.16E+03,-7902,-23,-1366,-1338,-440,-474,1,7,11
1.12E+03,-7915,-28,-1339,-1278,-796,-798,1,7,11
1.08E+03,-7913,-23,-1329,-1469,-655,-846,1,7,11
1.04E+03,-7903,270,-1341,-1676,-1029,-891,1,7,11
1.01E+03,-7906,310,-1352,-1924,-1139,-688,1,7,11
1.01E+03,-8209,329,-1319,-2220,-1013,-1026,1,7,11
1.03E+03,-8274,330,-1016,-2513,-1178,-1076,1,7,11
1.07E+03,-8306,290,-956,-2810,-1655,-1089,1,7,11
1.12E+03,-8318,-26,-1139,-3055,-1864,-1097,1,7,11
1.16E+03,-8311,-96,-1069,-3270,-2058,-1103,1,7,11
1.20E+03,-8298,93,-753,-3687,-1962,-1116,1,7,11
1.23E+03,-8073,32,-680,-3548,-2344,-916,1,7,11
1.24E+03,-8069,-282,-772,-3867,-2228,-930,1,7,11
1.24E+03,-8264,-173,-626,-3889,-2612,-929,1,7,11
1.24E+03,-8243,-516,-240,-3544,-2639,-963,1,7,11
1.23E+03,-8254,-544,-144,-3612,-2597,-944,1,7,11
1.21E+03,-7927,-549,-336,-3059,-2302,-903,1,7,11
1.18E+03,-7885,-534,10,-3160,-2187,-945,1,7,11
1.15E+03,-7915,-537,-94,-3079,-2326,-1015,1,7,11
1.11E+03,-7879,-598,324,-2737,-2021,-982,1,7,11
1.06E+03,-8061,-401,191,-2838,-1947,-931,1,7,11
1.03E+03,-7994,-389,202,-2667,-2080,-1139,1,7,11
1.01E+03,-7624,-388,196,-2624,-1712,-1067,1,7,11
1.02E+03,-7770,-402,222,-2675,-1518,-1052,1,7,11
1.05E+03,-7797,-476,600,-2527,-1259,-1123,1,7,11
1.10E+03,-7635,-812,789,-2846,-1299,-897,1,7,11
1.16E+03,-7680,-869,697,-2817,-909,-1083,1,7,11
1.21E+03,-7678,-870,1041,-2499,-1056,-746,1,7,11
1.26E+03,-7980,-841,1117,-2517,-661,-700,1,7,11
1.29E+03,-8033,-807,943,-2835,-794,-876,1,7,11
1.30E+03,-8041,-446,993,-2861,-412,-472,1,7,11
1.30E+03,-7968,-587,987,-2705,-550,-524,1,7,11
1.29E+03,-7679,-544,949,-3118,-143,-379,1,7,11
1.28E+03,-7622,-241,1055,-2987,34,-262,1,7,11
1.25E+03,-7606,-173,876,-3417,268,15,1,7,11
1.23E+03,-7631,-359,410,-3655,549,15,1,7,11
1.20E+03,-8016,-332,518,-3953,875,11,1,7,11
1.17E+03,-7910,-304,128,-4199,902,83,1,7,11
1.14E+03,-8108,-301,279,-4393,1369,-80,1,7,11
1.11E+03,-8531,-292,-33,-4226,1194,369,1,7,11
1.09E+03,-8522,-266,-114,-4229,1399,617,1,7,11
1.07E+03,-8484,16,66,-4447,1351,426,1,7,11
1.07E+03,-8492,57,51,-4368,1310,565,1,7,11
1.08E+03,-8571,91,64,-4012,984,362,1,7,11
1.09E+03,-8403,99,109,-4148,1083,-58,1,7,11
1.11E+03,-8710,-98,123,-3713,885,-125,1,7,11
1.14E+03,-8393,333,88,-3544,438,-95,1,7,11
1.16E+03,-8550,518,61,-3542,557,-112,1,7,11
1.19E+03,-8524,612,74,-3751,240,38,1,7,11
1.20E+03,-8322,550,-125,-4361,184,-361,1,7,11
1.21E+03,-8346,535,-95,-4709,355,-519,1,7,11
1.21E+03,-8364,415,-61,-5204,-39,-838,1,7,11
1.20E+03,-8428,465,-47,-5631,-295,-1008,1,7,11
1.17E+03,-8718,809,-76,-6734,-499,-1627,1,7,11
1.14E+03,-8392,859,-74,-7698,-1334,-1819,1,7,11
1.11E+03,-8071,738,-246,-8448,-1771,-1482,1,7,11
1.08E+03,-7866,699,-610,-9631,-2163,-1210,1,7,11
1.06E+03,-8023,401,-529,-11246,-2076,-1062,1,7,11
1.05E+03,-8035,-68,-301,-11956,-1794,-530,1,7,11
1.06E+03,-8016,-529,-99,-12390,-1207,132,1,7,11
1.07E+03,-7571,-657,306,-12081,-1081,766,1,7,11
1.11E+03,-7355,-898,190,-11177,-532,1300,1,7,11
1.15E+03,-7493,-1317,606,-10515,170,931,1,7,11
1.19E+03,-7326,-1290,424,-9278,990,497,1,7,11
1.23E+03,-7580,-1125,424,-7966,1677,-83,1,7,11
1.24E+03,-7903,-889,592,-6721,2402,-579,1,7,11
1.25E+03,-8107,-437,172,-5692,2285,-896,1,7,11
1.23E+03,-8140,-247,-42,-4593,2256,-1119,1,7,11
1.20E+03,-8463,-272,15,-3985,2246,-1398,1,7,11
1.17E+03,-8445,95,-366,-3895,2412,-1617,1,7,11
1.14E+03,-8625,103,-163,-3653,2130,-1594,1,7,11
1.10E+03,-8696,67,-191,-3202,1467,-1247,1,7,11
1.08E+03,-8674,-284,-218,-3038,994,-1189,1,7,11
1.07E+03,-8636,-147,-201,-3179,826,-1211,1,7,11
1.07E+03,-8808,-538,-174,-2811,167,-1218,1,7,11
1.10E+03,-8374,-566,-180,-2886,121,-1178,1,7,11
1.14E+03,-8179,-246,-205,-2476,-299,-1386,1,7,11
1.18E+03,-8314,-224,-228,-2480,-362,-1023,1,7,11
1.22E+03,-7925,-546,-195,-2528,-355,-1084,1,7,11
1.25E+03,-7973,-391,-154,-2501,-312,-847,1,7,11
1.27E+03,-7694,-477,-170,-2650,90,-410,1,7,11
1.27E+03,-7501,-806,-178,-2286,155,-450,1,7,11
1.27E+03,-7475,-667,-170,-2402,824,-873,1,7,11
1.24E+03,-7521,-1026,-212,-2111,979,-725,1,7,11
1.21E+03,-7315,-1076,-571,-1417,1633,-747,1,7,11
1.17E+03,-7424,-719,-414,-959,1758,-766,1,7,11
1.14E+03,-7601,-649,-815,-882,1988,-751,1,7,11
1.11E+03,-7639,-643,-687,-452,2354,-886,1,7,11
1.10E+03,-8005,-653,-1053,-401,2219,-885,1,7,11
1.11E+03,-7934,-849,-910,-626,2625,-807,1,7,11
1.15E+03,-8103,-462,-1298,-540,2575,-581,1,7,11
1.19E+03,-8458,-573,-1211,-540,2399,12,1,7,11
1.24E+03,-8500,-544,-1595,-398,2107,358,1,7,11
1.27E+03,-8458,-624,-1420,-502,1508,396,1,7,11
1.29E+03,-8128,-433,-1459,-481,1205,511,1,7,11
1.30E+03,-8306,-411,-1505,-637,943,423,1,7,11
1.29E+03,-8263,-388,-1507,-594,648,161,1,7,11
1.27E+03,-8215,-408,-1486,-555,569,-122,1,7,11
1.23E+03,-7880,-428,-1451,-231,-7,-356,1,7,11
1.18E+03,-8028,-391,-1441,-373,-280,-249,1,7,11
1.13E+03,-7589,-610,-1440,-330,-238,-594,1,7,11
1.08E+03,-7717,-387,-1411,-156,-603,-769,1,7,11
1.05E+03,-7412,-486,-1609,-252,-640,-689,1,7,11
1.04E+03,-7393,-874,-1273,-574,-403,-1049,1,7,11
1.05E+03,-7372,-1065,-1211,-596,-411,-1100,1,7,11
1.07E+03,-7327,-970,-1200,-525,-617,-1132,1,7,11
1.11E+03,-7319,-1331,-1197,-169,-235,-942,1,7,11
1.14E+03,-7371,-1166,-1185,-349,-345,-981,1,7,11
1.17E+03,-7693,-1242,-1172,19,56,-945,1,7,11
1.21E+03,-7779,-1272,-1187,-90,-79,-1084,1,7,11
1.24E+03,-7558,-1256,-1215,289,256,-886,1,7,11
1.26E+03,-7808,-1220,-1245,360,342,-465,1,7,11
1.27E+03,-7639,-1215,-1239,364,202,-633,1,7,11
1.28E+03,-7998,-1220,-1232,131,253,-531,1,7,11
1.27E+03,-7830,-1203,-1208,213,528,-181,1,7,11
1.26E+03,-7908,-1164,-1195,573,237,-329,1,7,11
1.23E+03,-7906,-1380,-1187,639,132,41,1,7,11
1.18E+03,-7884,-1350,-1180,384,276,101,1,7,11
1.14E+03,-7881,-1356,-1396,596,-88,94,1,7,11
1.10E+03,-7871,-1332,-1388,595,73,87,1,7,11
1.07E+03,-8057,-988,-1402,609,-306,89,1,7,11
1.07E+03,-7947,-954,-1392,545,-134,26,1,7,11
1.09E+03,-7976,-932,-1335,154,-169,-131,1,7,11
1.12E+03,-8031,-939,-1005,264,-228,-259,1,7,11
1.16E+03,-8062,-996,-917,-115,-591,-532,1,7,11
1.19E+03,-8053,-1286,-1099,108,-476,-524,1,7,11
1.20E+03,-8025,-1002,-1070,-20,-779,-526,1,7,11
1.21E+03,-7983,-931,-1077,313,-790,-530,1,7,11
1.20E+03,-7984,-1140,-1061,302,-777,-581,1,7,11
1.19E+03,-8038,-897,-739,268,-471,-598,1,7,11
1.18E+03,-7878,-913,-690,281,-444,-557,1,7,11
1.17E+03,-7877,-1135,-662,159,-508,-182,1,7,11
1.17E+03,-7840,-1075,-676,194,-794,-354,1,7,11
1.16E+03,-7853,-1075,-893,371,-789,-354,1,7,11
1.17E+03,-7885,-1097,-828,342,-777,-326,1,7,11
1.17E+03,-7924,-1098,-771,332,-497,-272,1,7,11
1.18E+03,-8226,-1111,-454,319,-777,41,1,7,11
1.18E+03,-7908,-1061,-437,375,-834,-95,1,7,11
1.19E+03,-7836,-735,-435,298,-853,-67,1,7,11
1.20E+03,-8059,-1033,-427,-70,-840,-60,1,7,11
1.22E+03,-8018,-1095,-409,-87,-506,-44,1,7,11
1.23E+03,-8029,-1099,-400,-29,-601,-66,1,7,11
1.24E+03,-7852,-1134,-628,-7,-223,-81,1,7,11
1.25E+03,-7811,-929,-622,354,-176,286,1,7,11
1.25E+03,-8041,-932,-390,178,-361,312,1,7,11
1.25E+03,-8062,-955,-387,215,-286,322,1,7,11
1.25E+03,-7812,-956,-630,553,38,368,1,7,11
1.25E+03,-8038,-1126,-434,416,90,179,1,7,11
1.24E+03,-8029,-1055,-461,393,-112,181,1,7,11
1.23E+03,-8052,-763,-469,566,-64,146,1,7,11
1.21E+03,-7840,-1039,-460,194,-46,367,1,7,11
1.20E+03,-7875,-1073,-458,365,-47,358,1,7,11
1.19E+03,-7916,-1097,-453,294,-46,321,1,7,11
1.18E+03,-8226,-1125,-458,-16,-86,311,1,7,11
1.17E+03,-8196,-1118,-472,-40,118,324,1,7,11
1.17E+03,-7933,-1098,-485,-101,70,263,1,7,11
1.17E+03,-7918,-1137,-463,71,34,-40,1,7,11
1.17E+03,-8197,-927,-438,37,31,-106,1,7,11
1.18E+03,-8235,-985,-400,53,19,113,1,7,11
1.18E+03,-8226,-1287,-617,-121,-276,-116,1,7,11
1.18E+03,-7919,-1323,-603,292,-289,-89,1,7,11
1.17E+03,-7862,-1010,-630,237,-276,-83,1,7,11
1.15E+03,-7879,-925,-386,607,-258,-99,1,7,11
1.13E+03,-7920,-906,-617,637,-274,-91,1,7,11
1.11E+03,-7919,-1127,-615,427,-331,281,1,7,11
1.09E+03,-7888,-1129,-590,414,-159,323,1,7,11
1.10E+03,-7833,-1079,-602,431,-152,340,1,7,11
1.13E+03,-8031,-1062,-615,416,-378,257,1,7,11
1.17E+03,-8016,-1098,-606,564,-288,-119,1,7,11
1.22E+03,-8026,-1116,-619,239,-51,30,1,7,11
1.26E+03,-8035,-1125,-635,191,337,-277,1,7,11
1.30E+03,-8018,-899,-396,339,159,-267,1,7,11
1.31E+03,-7998,-922,-408,288,236,-264,1,7,11
1.31E+03,-8024,-939,-420,-11,563,-257,1,7,11
1.30E+03,-8036,-975,-403,-61,609,36,1,7,11
1.28E+03,-7832,-980,-639,-47,419,59,1,7,11
1.27E+03,-7902,-935,-386,263,474,113,1,7,11
1.26E+03,-8215,-907,-634,296,486,-70,1,7,11
1.25E+03,-8274,-737,-465,146,461,313,1,7,11
1.25E+03,-8280,-709,-473,322,632,351,1,7,11
1.24E+03,-8256,-702,-480,-25,244,373,1,7,11
1.22E+03,-8232,-761,-456,120,381,357,1,7,11
1.20E+03,-8242,-1026,-459,103,276,323,1,7,11
1.17E+03,-8216,-759,-461,67,-91,314,1,7,11
1.16E+03,-7924,-762,-463,30,88,306,1,7,11
1.14E+03,-7865,-1030,-467,-258,49,293,1,7,11
1.15E+03,-7825,-762,-482,-281,45,-16,1,7,11
1.16E+03,-7832,-1038,-455,-331,53,-86,1,7,11
1.18E+03,-7871,-1073,-436,-328,53,112,1,7,11
1.21E+03,-7920,-1044,-448,4,57,83,1,7,11
1.23E+03,-8211,-763,-452,25,26,101,1,7,11
1.24E+03,-8209,-761,-459,33,-271,-102,1,7,11
1.24E+03,-7936,-1031,-456,37,-293,-77,1,7,11
1.24E+03,-7892,-1032,-468,52,-304,-59,1,7,11
1.23E+03,-7866,-1056,-470,33,-292,-78,1,7,11
1.22E+03,-7872,-1096,-432,31,-264,-123,1,7,11
1.21E+03,-7884,-1104,-400,81,-258,102,1,7,11
1.21E+03,-7880,-1086,-415,-106,-262,86,1,7,11
1.20E+03,-7899,-1063,-422,-64,4,69,1,7,11
1.20E+03,-7911,-1065,-431,-67,-266,74,1,7,11
1.19E+03,-7869,-1019,-452,-10,4,117,1,7,11
1.19E+03,-7873,-1032,-430,-45,22,-125,1,7,11
1.18E+03,-7842,-1044,-431,-42,47,-91,1,7,11
1.17E+03,-7841,-1076,-422,-50,78,-92,1,7,11
1.17E+03,-7884,-1091,-413,-61,115,-120,1,7,11
1.17E+03,-7908,-1078,-423,-37,-127,-104,1,7,11
1.17E+03,-7905,-1063,-439,-14,105,-73,1,7,11
1.18E+03,-7891,-750,-630,316,27,-5,1,7,11
1.19E+03,-7888,-730,-623,274,2,-23,1,7,11
1.20E+03,-7883,-722,-601,-15,-270,-34,1,7,11
1.22E+03,-7887,-707,-594,-59,-285,-56,1,7,11
1.22E+03,-7887,-717,-581,-104,-295,-69,1,7,11
1.23E+03,-7887,-721,-564,-124,-296,-71,1,7,11
1.23E+03,-7873,-719,-561,-114,-287,-70,1,7,11
1.22E+03,-7878,-709,-558,-123,2,-80,1,7,11
1.21E+03,-7891,-714,-540,103,34,-82,1,7,11
1.19E+03,-7894,-731,-528,100,59,-68,1,7,11
1.17E+03,-7893,-735,-529,114,83,-57,1,7,11
1.15E+03,-7896,-755,-523,115,113,-49,1,7,11
1.14E+03,-7918,-1032,-243,123,-117,-61,1,7,11
1.14E+03,-8195,-1035,-241,-86,-114,-57,1,7,11
1.15E+03,-7929,-764,-515,-54,119,-25,1,7,11
1.17E+03,-7909,-767,-527,-49,111,-9,1,7,11
1.19E+03,-7929,-1044,-520,-41,-127,282,1,7,11
1.20E+03,-7911,-1085,-521,-11,-128,359,1,7,11
1.22E+03,-7882,-1090,-547,334,-83,178,1,7,11
1.23E+03,-7888,-1043,-575,155,-26,215,1,7,11
1.23E+03,-7917,-734,-597,162,259,248,1,7,11
1.24E+03,-7930,-703,-594,135,-10,538,1,7,11
1.24E+03,-7935,-663,-609,360,-36,547,1,7,11
1.24E+03,-7934,-880,-602,306,-74,532,1,7,11
1.23E+03,-8195,-845,-584,-23,-108,235,1,7,11
1.22E+03,-8203,-798,-570,-86,104,204,1,7,11
1.21E+03,-8197,-792,-563,97,62,185,1,7,11
1.19E+03,-8194,-787,-544,25,41,167,1,7,11
1.18E+03,-8196,-791,-526,-291,32,142,1,7,11
1.16E+03,-8194,-819,-248,-329,32,383,1,7,11
1.15E+03,-7917,-831,-252,-340,36,370,1,7,11
1.15E+03,-7912,-831,-252,-334,65,349,1,7,11
1.16E+03,-7900,-810,-518,-305,104,315,1,7,11
1.19E+03,-7901,-798,-516,-288,-101,302,1,7,11
1.22E+03,-7914,-778,-520,-292,-72,277,1,7,11
1.25E+03,-8206,-509,-256,-294,-60,262,1,7,11
1.28E+03,-8226,-494,-254,-289,-76,286,1,7,11
1.29E+03,-8245,-483,-254,-277,-106,334,1,7,11
1.29E+03,-8216,-488,-521,-257,106,154,1,7,11
1.29E+03,-7919,-486,-532,32,100,217,1,7,11
1.28E+03,-7915,-490,-520,65,114,250,1,7,11
1.26E+03,-7905,-479,-524,108,121,543,1,7,11
1.23E+03,-7910,-451,-521,-107,124,542,1,7,11
1.21E+03,-7922,-413,-251,-83,124,518,1,7,11
1.18E+03,-8214,-607,-252,-85,126,222,1,7,11
1.16E+03,-8241,-567,-237,-120,92,203,1,7,11
1.14E+03,-8232,-544,-235,94,54,194,1,7,11
1.13E+03,-8231,-538,-229,55,42,171,1,7,11
1.13E+03,-8227,-534,-220,18,39,167,1,7,11
1.14E+03,-8207,-522,-215,-264,46,167,1,7,11
1.15E+03,-8205,-256,-221,-295,66,137,1,7,11
1.17E+03,-8217,-236,-221,-330,82,359,1,7,11
1.20E+03,-8232,-232,-220,-366,86,330,1,7,11
1.23E+03,-8231,-230,-224,-133,77,311,1,7,11
1.25E+03,-8232,-238,-227,-160,67,288,1,7,11
1.27E+03,-8209,-254,-220,-183,63,271,1,7,11
1.28E+03,-8201,-543,-209,-192,63,-11,1,7,11
1.27E+03,-7934,-560,-205,-157,70,-40,1,7,11
1.26E+03,-7930,-554,-203,-366,93,-76,1,7,11
1.24E+03,-8215,-547,-200,-331,118,-106,1,7,11
1.22E+03,-8224,-534,-205,-295,117,-107,1,7,11
1.20E+03,-8225,-528,-206,-263,125,-100,1,7,11
1.19E+03,-8234,-256,-206,18,120,-103,1,7,11
1.17E+03,-8214,-230,-223,36,109,-93,1,7,11
1.17E+03,-7929,-215,-221,28,109,-115,1,7,11
1.17E+03,-7932,-216,-215,-257,127,99,1,7,11
1.17E+03,-8211,-230,-202,-277,-106,66,1,7,11
1.18E+03,-8218,-238,-192,-286,-106,46,1,7,11
1.20E+03,-8212,-234,-198,-285,-124,48,1,7,11
1.21E+03,-8206,-241,-200,-293,121,40,1,7,11
1.22E+03,-8205,-246,-202,-298,-126,33,1,7,11
1.22E+03,-8229,-248,-198,-291,-109,20,1,7,11
1.22E+03,-8246,-247,-186,-286,-119,31,1,7,11
1.21E+03,-8232,-246,-188,-284,108,63,1,7,11
1.19E+03,-8207,-238,-190,-291,95,83,1,7,11
1.16E+03,-8195,-224,-193,-309,97,74,1,7,11
1.13E+03,-8204,-230,-189,-341,99,74,1,7,11
1.10E+03,-8209,-234,-185,-358,99,79,1,7,11
1.08E+03,-8214,-233,-183,-369,96,78,1,7,11
1.07E+03,-8220,-232,-190,-384,82,84,1,7,11
1.09E+03,-8206,-222,-195,-145,56,85,1,7,11
1.12E+03,-8198,-240,-180,-177,43,76,1,7,11
1.16E+03,-8213,-521,-163,-185,44,58,1,7,11
1.20E+03,-8234,-540,-147,-153,56,48,1,7,11
1.22E+03,-8251,-543,-144,-350,63,55,1,7,11
1.22E+03,-8237,-527,-153,-296,66,72,1,7,11
1.21E+03,-8218,-255,-146,-258,80,79,1,7,11
1.18E+03,-8215,-244,-149,20,105,64,1,7,11
1.15E+03,-8215,-247,-145,29,118,51,1,7,11
1.12E+03,-8212,-515,-137,50,-121,47,1,7,11
1.09E+03,-8201,-526,-130,79,-102,34,1,7,11
1.06E+03,-7928,-521,-131,118,-85,31,1,7,11
1.04E+03,-7927,-523,-132,-119,-61,-257,1,7,11
1.02E+03,-7935,-542,-383,-94,-39,-275,1,7,11
1.01E+03,-8194,-608,-345,-67,-29,-291,1,7,11
1.01E+03,-8222,-473,-279,-27,-23,-309,1,7,11
1.02E+03,-8216,-892,37,357,-43,-315,1,7,11
1.04E+03,-7911,-744,36,414,-40,-316,1,7,11
1.07E+03,-7862,-756,-264,1146,293,-347,1,7,11
1.10E+03,-7852,-1033,-291,1596,238,-133,1,7,11
1.12E+03,-7867,-1142,-288,1720,398,-153,1,7,11
1.13E+03,-7901,-967,-315,2227,837,-147,1,7,11
1.12E+03,-7927,-979,-374,3375,730,-137,1,7,11
1.09E+03,-7918,-947,-202,3737,1083,-353,1,7,11
1.07E+03,-7867,-905,-547,4291,923,-314,1,7,11
1.06E+03,-7861,-1125,-618,4738,1306,-294,1,7,11
1.07E+03,-7898,-1137,-406,5117,1155,9,1,7,11
1.11E+03,-7916,-1075,-500,5532,1217,108,1,7,11
1.15E+03,-7922,-712,-868,5814,1190,-103,1,7,11
1.20E+03,-7891,-884,-695,6166,1351,-79,1,7,11
1.24E+03,-7856,-862,-729,5861,1016,-100,1,7,11
1.27E+03,-7864,-882,-748,5778,970,-121,1,7,11
1.27E+03,-7878,-890,-765,5941,927,-115,1,7,11
1.26E+03,-7882,-654,-1031,5556,1117,124,1,7,11
1.24E+03,-7897,-651,-1042,5669,1048,79,1,7,11
1.21E+03,-7936,-884,-1035,5493,714,40,1,7,11
1.18E+03,-8238,-878,-748,5003,863,40,1,7,11
1.16E+03,-8296,-673,-700,4774,487,94,1,7,11
1.13E+03,-8318,-749,-671,4891,602,-38,1,7,11
1.11E+03,-8261,-1061,-692,4541,192,352,1,7,11
1.08E+03,-7905,-1110,-714,4672,328,159,1,7,11
1.07E+03,-7842,-908,-686,4254,281,380,1,7,11
1.05E+03,-7860,-988,-873,4361,268,295,1,7,11
1.05E+03,-8194,-1339,-818,4062,-20,-19,1,7,11
1.05E+03,-8244,-1154,-802,4375,-115,-9,1,7,11
1.06E+03,-8209,-1162,-825,4462,20,298,1,7,11
1.07E+03,-7878,-1390,-851,4259,-311,316,1,7,11
1.09E+03,-7815,-1343,-859,4245,-329,292,1,7,11
1.10E+03,-8053,-1313,-837,4403,-317,-9,1,7,11
1.12E+03,-8052,-1292,-798,4016,-296,-44,1,7,11
1.12E+03,-8062,-1024,-489,4113,-285,-75,1,7,11
1.12E+03,-8055,-1011,-445,3947,-273,-100,1,7,11
1.10E+03,-8053,-989,-398,3476,-258,111,1,7,11
1.08E+03,-8040,-950,-623,3221,7,76,1,7,11
1.05E+03,-8038,-911,-603,3168,18,24,1,7,11
1.02E+03,-7815,-1139,-585,2818,30,-293,1,7,11
1.00E+03,-7867,-1117,-538,2176,18,-324,1,7,11
1.01E+03,-7925,-1127,-187,1760,-281,-338,1,7,11
1.04E+03,-8206,-1302,-328,994,-200,-313,1,7,11
1.08E+03,-7935,-1328,-302,708,-524,-325,1,7,11
1.13E+03,-7922,-1364,-286,474,-567,-341,1,7,11
1.17E+03,-7909,-1173,-262,248,-599,-354,1,7,11
1.20E+03,-7882,-1224,25,304,-610,-370,1,7,11
1.21E+03,-7879,-1545,72,121,-605,-154,1,7,11
1.21E+03,-7875,-1617,121,-284,-595,-173,1,7,11
1.20E+03,-7863,-1425,-93,-168,-558,-187,1,7,11
1.19E+03,-7860,-1456,-61,-212,-518,-191,1,7,11
1.17E+03,-7859,-1477,-33,-256,-221,-164,1,7,11
1.16E+03,-7856,-1506,260,-571,-179,-351,1,7,11
1.15E+03,-7838,-1794,300,-624,-139,5,1,7,11
1.14E+03,-7814,-1831,341,-405,-366,116,1,7,11
1.13E+03,-8004,-1854,348,-403,-350,-28,1,7,11
1.13E+03,-7956,-1815,324,-586,-285,270,1,7,11
1.13E+03,-7982,-1471,261,-525,54,-10,1,7,11
1.14E+03,-8057,-1434,-20,-548,90,-41,1,7,11
1.15E+03,-7845,-1417,-26,-546,81,-54,1,7,11
1.16E+03,-7876,-1651,-30,-255,81,-94,1,7,11
1.17E+03,-7925,-1628,-30,-218,77,109,1,7,11
1.17E+03,-8231,-1626,-24,-195,56,64,1,7,11
1.18E+03,-8261,-1646,-11,-150,18,38,1,7,11
1.19E+03,-8281,-1656,-16,-321,-276,29,1,7,11
1.18E+03,-8281,-1650,-21,19,-306,27,1,7,11
1.18E+03,-8258,-1639,-32,86,-326,24,1,7,11
1.17E+03,-8240,-1624,-44,-127,-324,4,1,7,11
1.16E+03,-8231,-1624,-35,-109,-325,-273,1,7,11
1.14E+03,-8206,-1620,-31,-93,-325,-289,1,7,11
1.12E+03,-8202,-1613,-19,-89,-319,-314,1,7,11
1.10E+03,-7934,-1606,-9,-83,-318,-312,1,7,11
1.09E+03,-7902,-1592,-16,-92,-321,-287,1,7,11
1.09E+03,-7853,-1577,-16,-110,-307,2,1,7,11
1.10E+03,-7824,-1572,-16,107,-276,24,1,7,11
1.11E+03,-8064,-1578,-14,58,22,35,1,7,11
1.13E+03,-7816,-1587,256,18,61,48,1,7,11
1.14E+03,-7818,-1588,-6,-271,87,71,1,7,11
1.13E+03,-7815,-1592,-18,-308,114,92,1,7,11
1.11E+03,-7922,-1621,-65,-198,282,286,1,7,11
1.08E+03,-8193,-1632,-68,-202,293,281,1,7,11
1.06E+03,-8200,-1640,-57,-209,297,261,1,7,11
1.04E+03,-8194,-1633,-56,-191,279,-12,1,7,11
1.03E+03,-8193,-1632,-57,-167,256,-41,1,7,11
1.03E+03,-7918,-1636,-51,-149,-26,-68,1,7,11
1.04E+03,-7895,-1658,-38,-153,-53,-128,1,7,11
1.07E+03,-7868,-1428,-30,-133,-62,44,1,7,11
1.10E+03,-7855,-1415,-29,-343,-53,-304,1,7,11
1.14E+03,-7850,-1631,-46,-322,-38,-137,1,7,11
1.18E+03,-7857,-1594,-58,-325,-25,-200,1,7,11
1.22E+03,-7879,-1565,-92,-363,-9,-234,1,7,11
1.24E+03,-7914,-1569,-91,-171,-9,-239,1,7,11
1.25E+03,-7924,-1584,-93,-234,-32,-218,1,7,11
1.24E+03,-7927,-1614,-100,-533,-59,-199,1,7,11
1.23E+03,-7924,-1639,-96,-555,-87,-187,1,7,11
1.20E+03,-7924,-1643,-98,-557,-110,-168,1,7,11
1.18E+03,-7913,-1655,-95,-569,119,-146,1,7,11
1.15E+03,-7910,-1412,-90,-575,103,-377,1,7,11
1.12E+03,-7904,-1430,-84,-569,94,-346,1,7,11
1.11E+03,-7890,-1445,-91,-550,88,-299,1,7,11
1.10E+03,-7882,-1455,-83,-533,93,-265,1,7,11
1.12E+03,-7873,-1463,-76,-252,102,36,1,7,11
1.15E+03,-7861,-1460,-77,-224,110,77,1,7,11
1.18E+03,-7853,-1454,-84,-202,113,113,1,7,11
1.21E+03,-7860,-1453,-81,-185,126,-119,1,7,11
1.23E+03,-7871,-1460,-70,-168,114,-94,1,7,11
1.24E+03,-7888,-1464,-51,-137,102,-82,1,7,11
1.24E+03,-7905,-1465,-40,-350,92,-81,1,7,11
1.23E+03,-7912,-1447,-40,-291,90,-67,1,7,11
1.22E+03,-7910,-1426,-54,23,97,-47,1,7,11
1.21E+03,-7898,-1413,-66,68,127,-38,1,7,11
1.21E+03,-7906,-1663,-65,100,-92,-38,1,7,11
1.21E+03,-7911,-1663,-59,-122,-71,-35,1,7,11
1.20E+03,-7917,-1652,-58,-81,-54,-41,1,7,11
1.19E+03,-7908,-1623,-66,-56,-56,-42,1,7,11
1.16E+03,-7896,-1602,-76,-72,-70,-54,1,7,11
1.13E+03,-7877,-1590,-89,-111,-78,-82,1,7,11
1.10E+03,-7876,-1605,-75,103,-79,-128,1,7,11
1.07E+03,-7878,-1611,-68,84,-77,81,1,7,11
1.05E+03,-7908,-1617,-70,65,-93,32,1,7,11
1.04E+03,-7907,-1627,-68,48,90,7,1,7,11
1.05E+03,-7916,-1657,-70,44,44,-276,1,7,11
1.06E+03,-7914,-1415,-70,67,9,-298,1,7,11
1.08E+03,-7917,-1437,-70,94,-278,-320,1,7,11
1.10E+03,-7926,-1455,-58,-113,-302,-344,1,7,11
1.12E+03,-7917,-1484,-49,-61,-319,-348,1,7,11
1.12E+03,-7898,-1504,-31,269,-323,-351,1,7,11
1.12E+03,-7883,-1501,-22,357,-302,-355,1,7,11
1.09E+03,-7872,-1492,-5,176,-273,-336,1,7,11
1.04E+03,-7856,-1477,-3,236,18,-309,1,7,11
9.97E+02,-7860,-1474,269,517,55,-283,1,7,11
9.69E+02,-7857,-1455,268,536,86,22,1,7,11
9.70E+02,-7847,-1446,273,521,106,76,1,7,11
9.99E+02,-7838,-1439,286,251,122,118,1,7,11
1.04E+03,-7833,-1429,287,220,-126,-116,1,7,11
1.10E+03,-7928,-1474,304,544,304,-554,1,7,11
1.15E+03,-7933,-1469,309,554,304,-565,1,7,11
1.19E+03,-7914,-1478,311,542,295,-546,1,7,11
1.22E+03,-7900,-1489,318,519,290,-522,1,7,11
1.23E+03,-7879,-1497,328,238,274,-231,1,7,11
1.24E+03,-7863,-1500,322,198,-3,-208,1,7,11
1.23E+03,-7858,-1500,315,149,-11,-197,1,7,11
1.21E+03,-7867,-1502,318,340,-14,-182,1,7,11
1.18E+03,-7870,-1487,312,280,-21,-143,1,7,11
1.14E+03,-7866,-1480,318,-52,-29,-353,1,7,11
1.10E+03,-7868,-1469,318,112,-16,-302,1,7,11
1.06E+03,-7883,-1493,338,-282,-12,21,1,7,11
1.03E+03,-7876,-1492,342,-181,-13,74,1,7,11
9.97E+02,-7867,-1489,348,-544,273,106,1,7,11
9.72E+02,-7867,-1497,347,-418,301,117,1,7,11
9.55E+02,-7865,-1512,351,-508,315,118,1,7,11
9.46E+02,-7849,-1505,336,-836,331,125,1,7,11
9.47E+02,-7855,-1512,337,-683,350,115,1,7,11
9.56E+02,-7847,-1806,347,-1027,339,120,1,7,11
9.73E+02,-7852,-1830,369,-1057,355,103,1,7,11
9.99E+02,-7852,-1842,359,-1056,373,90,1,7,11
1.03E+03,-7829,-1857,339,-1047,381,84,1,7,11
1.07E+03,-8056,-1872,320,-1022,160,46,1,7,11
1.12E+03,-8044,-1892,290,-745,187,21,1,7,11
1.15E+03,-8040,-1891,272,-669,513,-315,1,7,11
1.18E+03,-7811,-1865,-4,-840,633,-369,1,7,11
1.18E+03,-7839,-1844,-18,-788,416,-131,1,7,11
1.15E+03,-7857,-1860,-32,-807,416,-132,1,7,11
1.10E+03,-7865,-1889,-42,-817,393,-372,1,7,11
1.05E+03,-7856,-1902,-73,-795,609,-348,1,7,11
1.01E+03,-7843,-1896,-102,-774,575,-333,1,7,11
9.93E+02,-7839,-1873,-126,-777,554,-319,1,7,11
1.00E+03,-7856,-1877,109,-810,531,-301,1,7,11
1.02E+03,-7861,-1669,99,-812,240,-264,1,7,11
1.04E+03,-7853,-1695,91,-484,214,13,1,7,11
1.07E+03,-7845,-1678,52,-633,198,30,1,7,11
1.08E+03,-7851,-1893,-260,-557,177,54,1,7,11
1.09E+03,-7857,-1879,-306,-534,137,85,1,7,11
1.10E+03,-7847,-1892,-321,-519,353,114,1,7,11
