timestamp,ax,ay,az,gx,gy,gz,Label1,Label2,Label3
1.08E+00,-5757,4670,-2217,-748,198,-567,1,7,11
1.33E+00,-5575,4525,-2243,-992,550,-545,1,7,11
1.58E+00,-5611,4582,-2272,-1570,638,-214,1,7,11
1.83E+00,-5992,4550,-2275,-1900,439,-368,1,7,11
2.08E+00,-5786,4678,-2243,-2107,431,-278,1,7,11
2.33E+00,-5853,4642,-2246,-1750,452,-335,1,7,11
2.58E+00,-5867,4686,-2274,-1508,447,-151,1,7,11
2.83E+00,-6158,4700,-2292,-1542,469,-228,1,7,11
3.08E+00,-6208,4642,-2276,-1309,510,-250,1,7,11
3.33E+00,-6166,4295,-2281,-1061,768,-215,1,7,11
3.58E+00,-5874,4228,-2302,-819,486,-215,1,7,11
3.83E+00,-5878,4417,-2276,-571,427,-185,1,7,11
4.08E+00,-6155,4457,-2284,-284,600,-144,1,7,11
4.33E+00,-6218,4446,-2213,43,178,-274,1,7,11
4.58E+00,-5786,4473,-2200,-55,-40,258,1,7,11
4.83E+00,-5806,4402,-2385,-61,97,375,1,7,11
5.08E+00,-5798,4003,-2309,340,-354,530,1,7,11
5.33E+00,-5919,4081,-1993,484,-563,616,1,7,11
5.58E+00,-5512,4611,-2432,1120,-385,390,1,7,11
5.83E+00,-5690,4658,-2197,1113,-629,502,1,7,11
6.08E+00,-5302,4347,-2178,922,-237,493,1,7,11
6.33E+00,-5655,4687,-2208,1333,-280,610,1,7,11
6.58E+00,-5669,4496,-2244,1338,52,638,1,7,11
6.83E+00,-5666,4509,-2283,1302,124,385,1,7,11
7.08E+00,-5699,4607,-2591,1307,-83,566,1,7,11
7.33E+00,-5668,4969,-2669,1290,-61,526,1,7,11
7.58E+00,-5587,4770,-2446,920,-10,157,1,7,11
7.83E+00,-5931,4809,-2501,1050,-7,192,1,7,11
8.08E+00,-5762,4817,-2541,665,-89,219,1,7,11
8.33E+00,-5833,4793,-2554,699,115,242,1,7,11
8.58E+00,-5887,4750,-2820,554,90,519,1,7,11
8.83E+00,-6207,4920,-2535,374,61,547,1,7,11
9.08E+00,-6188,4507,-2436,-39,-259,610,1,7,11
9.33E+00,-5794,4676,-2637,-36,-300,389,1,7,11
9.58E+00,-5931,4345,-2568,-124,-323,627,1,7,11
9.83E+00,-5533,4473,-2211,40,-307,636,1,7,11
1.01E+01,-5755,4391,-2378,-269,36,400,1,7,11
1.03E+01,-5512,3998,-2004,-350,70,823,1,7,11
1.06E+01,-5335,3768,-2130,-356,34,916,1,7,11
1.08E+01,-5381,3715,-2106,260,117,1014,1,7,11
1.11E+01,-5024,4208,-1988,511,270,940,1,7,11
1.13E+01,-5015,4226,-2394,1049,236,1100,1,7,11
1.16E+01,-5094,4704,-2270,920,388,1055,1,7,11
1.18E+01,-5064,4555,-2662,1014,446,1055,1,7,11
1.21E+01,-5024,4957,-2842,1223,782,892,1,7,11
1.23E+01,-4994,5238,-2808,1484,845,578,1,7,11
1.26E+01,-4995,5278,-3047,1534,644,-15,1,7,11
1.28E+01,-5469,5699,-3203,1605,704,-319,1,7,11
1.31E+01,-5648,5755,-3316,1299,887,-160,1,7,11
1.33E+01,-5759,5679,-3621,671,486,-186,1,7,11
1.36E+01,-5576,5319,-3659,591,578,-204,1,7,11
1.38E+01,-5594,5434,-3630,-10,164,-196,1,7,11
1.41E+01,-5626,5158,-3224,-331,309,-210,1,7,11
1.43E+01,-5609,4803,-3336,-614,-77,-177,1,7,11
1.46E+01,-5517,4483,-3164,-866,26,-384,1,7,11
1.48E+01,-5653,4323,-2753,-730,-328,-146,1,7,11
1.51E+01,-5333,4428,-2861,-1025,-353,-186,1,7,11
1.53E+01,-5496,4385,-2556,-700,-366,-376,1,7,11
1.56E+01,-5408,4095,-2537,-881,-317,-277,1,7,11
1.58E+01,-5088,4073,-2522,-848,76,40,1,7,11
1.61E+01,-5090,4352,-2518,-442,-17,51,1,7,11
1.63E+01,-5090,4407,-2538,-550,376,82,1,7,11
1.66E+01,-5117,4254,-2862,-143,241,76,1,7,11
1.68E+01,-5419,4618,-2932,-305,588,124,1,7,11
1.71E+01,-5445,4721,-2745,-278,639,-54,1,7,11
1.73E+01,-5441,4512,-2800,-306,417,309,1,7,11
1.76E+01,-5398,4587,-3143,-274,465,355,1,7,11
1.78E+01,-5398,4985,-2986,4,788,295,1,7,11
1.81E+01,-5441,4842,-3053,-342,843,-43,1,7,11
1.83E+01,-5296,5153,-3059,-518,837,-89,1,7,11
1.86E+01,-5310,4833,-3014,-469,462,-46,1,7,11
1.88E+01,-5296,4919,-3170,-847,612,-40,1,7,11
1.91E+01,-5272,4596,-3121,-771,521,-75,1,7,11
1.93E+01,-5499,4594,-3120,-436,184,-69,1,7,11
1.96E+01,-5427,4544,-3108,-411,129,-14,1,7,11
1.98E+01,-5425,4515,-2815,-622,139,-28,1,7,11
2.01E+01,-5400,4531,-2788,-579,155,-49,1,7,11
2.03E+01,-5412,4578,-2784,-564,171,-59,1,7,11
2.06E+01,-5426,4542,-2755,-593,170,-31,1,7,11
2.08E+01,-5439,4539,-2761,-529,148,-50,1,7,11
2.11E+01,-5426,4581,-2793,-193,383,-30,1,7,11
2.13E+01,-5034,4910,-3075,-129,144,-7,1,7,11
2.16E+01,-5403,4812,-3146,-366,534,94,1,7,11
2.18E+01,-5390,4809,-3116,-520,247,-18,1,7,11
2.21E+01,-5161,4745,-3137,-551,540,-48,1,7,11
2.23E+01,-5108,4969,-3163,-218,234,-46,1,7,11
2.26E+01,-5119,4910,-3142,-228,165,-108,1,7,11
2.28E+01,-5377,4901,-3129,-137,358,114,1,7,11
2.31E+01,-5085,4925,-3158,36,318,105,1,7,11
2.33E+01,-5033,4891,-3169,69,295,123,1,7,11
2.36E+01,-5005,4887,-3182,-117,317,90,1,7,11
2.38E+01,-5040,4912,-3200,-55,331,30,1,7,11
2.41E+01,-5077,4932,-2954,-50,329,15,1,7,11
2.43E+01,-5059,4946,-2954,-76,320,53,1,7,11
2.46E+01,-5062,4977,-2950,-117,316,102,1,7,11
2.48E+01,-5015,4929,-3192,29,283,-80,1,7,11
2.51E+01,-5246,4873,-3156,31,288,-109,1,7,11
2.53E+01,-5035,4970,-3197,100,286,48,1,7,11
2.56E+01,-5074,4972,-2952,45,257,48,1,7,11
2.58E+01,-5052,4755,-2986,40,-26,65,1,7,11
2.61E+01,-5041,4748,-2987,-317,-30,108,1,7,11
2.63E+01,-5053,4949,-2967,-169,-25,102,1,7,11
2.66E+01,-5082,4883,-3177,-214,-60,82,1,7,11
2.68E+01,-5046,4887,-3189,-131,108,73,1,7,11
2.71E+01,-5073,4881,-3186,-310,52,57,1,7,11
2.73E+01,-5041,4899,-2945,31,-257,101,1,7,11
2.76E+01,-5001,4924,-2959,94,-282,-120,1,7,11
2.78E+01,-5010,4926,-2959,125,-275,124,1,7,11
2.81E+01,-5029,4897,-2950,-92,-276,122,1,7,11
2.83E+01,-5026,4899,-2952,-27,-294,118,1,7,11
2.86E+01,-5217,4937,-2961,266,-302,-117,1,7,11
2.88E+01,-5155,4971,-2994,-48,27,-124,1,7,11
2.91E+01,-5215,4879,-3200,64,-80,87,1,7,11
2.93E+01,-5021,4585,-3145,85,-45,47,1,7,11
2.96E+01,-5088,4887,-3170,109,-45,11,1,7,11
2.98E+01,-5063,4872,-3184,33,-98,65,1,7,11
3.01E+01,-5003,4596,-2953,19,-115,94,1,7,11
3.03E+01,-5000,4591,-2962,26,-68,73,1,7,11
3.06E+01,-5053,4599,-2992,67,-25,77,1,7,11
3.08E+01,-5063,4591,-2981,112,-32,123,1,7,11
3.11E+01,-5097,4874,-2994,-56,-41,-100,1,7,11
3.13E+01,-5393,4892,-3008,257,-108,-54,1,7,11
3.16E+01,-5106,4928,-3022,296,37,-1,1,7,11
3.18E+01,-5068,4971,-3048,286,-289,275,1,7,11
3.21E+01,-5004,4738,-3055,259,-303,297,1,7,11
3.23E+01,-5042,4754,-3070,-66,0,262,1,7,11
3.26E+01,-5100,4963,-3036,84,2,257,1,7,11
3.28E+01,-5379,4947,-3020,59,-281,-12,1,7,11
3.31E+01,-5424,4741,-3005,17,-329,-31,1,7,11
3.33E+01,-5400,4743,-2999,-367,-145,269,1,7,11
3.36E+01,-5023,4751,-3199,-165,-193,373,1,7,11
3.38E+01,-5095,4523,-3094,-563,-129,304,1,7,11
3.41E+01,-5096,4569,-3097,-153,-381,-4,1,7,11
3.43E+01,-5004,4866,-3107,-288,-179,-35,1,7,11
3.46E+01,-5027,4598,-3087,-279,-187,-56,1,7,11
3.48E+01,-5034,4585,-2803,-272,-157,-23,1,7,11
3.51E+01,-5041,4597,-2792,67,-145,277,1,7,11
3.53E+01,-5036,4928,-3085,-91,-378,306,1,7,11
3.56E+01,-5087,4946,-3131,-114,-360,326,1,7,11
3.58E+01,-5042,4921,-3135,-95,-143,362,1,7,11
3.61E+01,-5005,4981,-3134,-3,-140,311,1,7,11
3.63E+01,-5004,4795,-3146,258,-356,281,1,7,11
3.66E+01,-5246,4822,-3140,-47,-304,274,1,7,11
3.68E+01,-5220,4850,-3141,123,-261,-3,1,7,11
3.71E+01,-5161,5137,-3156,27,30,-28,1,7,11
3.73E+01,-5180,4861,-3154,-362,101,-103,1,7,11
3.76E+01,-5187,4828,-3128,-174,-126,107,1,7,11
3.78E+01,-5065,4763,-3119,-195,-61,-153,1,7,11
3.81E+01,-5380,4981,-3096,-212,-75,-211,1,7,11
3.83E+01,-5405,4970,-3089,-184,-120,-215,1,7,11
3.86E+01,-5434,4969,-3074,-149,98,-177,1,7,11
3.88E+01,-5465,4952,-2806,-136,50,-359,1,7,11
3.91E+01,-5469,4902,-2806,-378,-271,11,1,7,11
3.93E+01,-5420,4586,-2793,-138,-354,87,1,7,11
3.96E+01,-5048,4574,-2791,-377,-371,91,1,7,11
3.98E+01,-5245,4866,-2779,-153,-297,27,1,7,11
4.01E+01,-5176,4922,-3111,-199,-127,-270,1,7,11
4.03E+01,-5055,4886,-3107,-563,259,13,1,7,11
4.06E+01,-5004,4488,-3073,-564,267,104,1,7,11
4.08E+01,-5011,4713,-2792,-368,353,33,1,7,11
4.11E+01,-5051,4548,-2811,-99,133,-282,1,7,11
4.13E+01,-5075,4879,-3110,294,133,-257,1,7,11
4.16E+01,-5060,4905,-3124,342,376,58,1,7,11
4.18E+01,-5070,4916,-3127,373,379,32,1,7,11
4.21E+01,-5095,4944,-3148,143,338,-270,1,7,11
4.23E+01,-5089,4741,-3180,141,277,-328,1,7,11
4.26E+01,-5026,4826,-3001,132,-4,-335,1,7,11
4.28E+01,-5087,4779,-3010,290,307,-357,1,7,11
4.31E+01,-5024,4971,-3017,-14,308,-273,1,7,11
4.33E+01,-5054,4894,-2996,262,336,-6,1,7,11
4.36E+01,-5390,4591,-2961,359,144,-299,1,7,11
4.38E+01,-5088,4973,-3022,233,344,-306,1,7,11
4.41E+01,-5400,4971,-3027,339,342,-327,1,7,11
4.43E+01,-5385,4607,-2981,-55,277,-258,1,7,11
4.46E+01,-5068,4868,-2993,-100,-4,-317,1,7,11
4.48E+01,-5079,4895,-2985,13,259,-354,1,7,11
4.51E+01,-5106,4875,-2980,-166,274,-364,1,7,11
4.53E+01,-5402,4576,-2971,-546,-25,-307,1,7,11
4.56E+01,-5073,4729,-2950,-622,-71,44,1,7,11
4.58E+01,-5081,4702,-3192,-537,-41,49,1,7,11
4.61E+01,-5023,4531,-2962,-232,-43,123,1,7,11
4.63E+01,-4993,4589,-2992,-557,258,-102,1,7,11
4.66E+01,-5087,4554,-2995,-620,288,-105,1,7,11
4.68E+01,-5108,4533,-2982,-554,-7,-88,1,7,11
4.71E+01,-5423,4882,-3026,-181,-69,97,1,7,11
4.73E+01,-5408,4741,-3342,-228,91,126,1,7,11
4.76E+01,-5103,4742,-3072,-403,19,-89,1,7,11
4.78E+01,-5070,4970,-3021,-798,-276,120,1,7,11
4.81E+01,-5096,4810,-3028,-876,-309,21,1,7,11
4.83E+01,-5435,4820,-2951,-1110,-357,14,1,7,11
4.86E+01,-5391,4798,-3162,-1284,-166,70,1,7,11
4.88E+01,-5108,4815,-3130,-1166,-201,94,1,7,11
4.91E+01,-5017,4821,-3096,-1547,-221,127,1,7,11
4.93E+01,-5065,4790,-2782,-1416,-139,76,1,7,11
4.96E+01,-5406,4759,-2709,-1453,-348,63,1,7,11
4.98E+01,-5094,4789,-2693,-1654,-378,95,1,7,11
5.01E+01,-5232,5214,-2762,-1621,-378,2,1,7,11
5.03E+01,-5197,5427,-3079,-1800,-291,-185,1,7,11
5.06E+01,-5082,5307,-3107,-1921,47,-586,1,7,11
5.08E+01,-5430,5331,-3076,-2616,15,-585,1,7,11
5.11E+01,-5307,5316,-2752,-2746,-342,-602,1,7,11
5.13E+01,-5338,5375,-2752,-3025,-531,-573,1,7,11
5.16E+01,-5330,5741,-2733,-3593,-482,-539,1,7,11
5.18E+01,-5688,5740,-2926,-3743,-690,-200,1,7,11
5.21E+01,-5726,5351,-2556,-4049,-981,-262,1,7,11
5.23E+01,-5672,5315,-2666,-4376,-1200,-83,1,7,11
5.26E+01,-5602,5260,-2571,-4470,-1640,308,1,7,11
5.28E+01,-5705,5026,-2318,-4258,-1719,464,1,7,11
5.31E+01,-5338,5142,-2084,-4218,-2132,804,1,7,11
5.33E+01,-5367,4803,-1857,-3851,-2007,859,1,7,11
5.36E+01,-5496,4760,-1637,-3363,-2405,738,1,7,11
5.38E+01,-5045,4810,-1203,-2554,-2426,1067,1,7,11
5.41E+01,-5195,5222,-1354,-2344,-2019,757,1,7,11
5.43E+01,-5132,5104,-946,-2054,-2052,665,1,7,11
5.46E+01,-5172,5461,-746,-1840,-1521,769,1,7,11
5.48E+01,-5001,5299,-812,-1636,-1545,422,1,7,11
5.51E+01,-5030,5356,-403,-1214,-1360,444,1,7,11
5.53E+01,-5029,5348,-477,-1299,-926,486,1,7,11
5.56E+01,-5228,5657,-152,-732,-739,435,1,7,11
5.58E+01,-5028,5737,-137,-550,-486,435,1,7,11
5.61E+01,-5097,5506,-152,99,-524,273,1,7,11
5.63E+01,-5116,5545,-198,385,-339,117,1,7,11
5.66E+01,-5403,5616,-531,777,-240,2,1,7,11
5.68E+01,-5422,5926,-602,694,71,-297,1,7,11
5.71E+01,-5112,5944,-420,725,124,-283,1,7,11
5.73E+01,-5054,6015,-776,761,-42,-357,1,7,11
5.76E+01,-5054,6157,-892,693,345,-210,1,7,11
5.78E+01,-5110,6208,-695,436,248,-516,1,7,11
5.81E+01,-5254,6189,-716,158,607,-531,1,7,11
5.83E+01,-5315,5851,-727,-91,569,-205,1,7,11
5.86E+01,-5265,6011,-734,22,240,-168,1,7,11
5.88E+01,-5474,6004,-1042,-261,209,-207,1,7,11
5.91E+01,-5113,5807,-1138,-348,243,-218,1,7,11
5.93E+01,-5064,5859,-915,-542,620,-532,1,7,11
5.96E+01,-5396,5857,-1148,-495,812,-597,1,7,11
5.98E+01,-5314,5977,-1060,-673,675,-559,1,7,11
6.01E+01,-5653,5536,-728,-657,685,-172,1,7,11
6.03E+01,-5349,5354,-687,-808,885,-295,1,7,11
6.06E+01,-5315,5410,-656,-619,837,1,1,7,11
6.08E+01,-5495,5060,-666,-291,797,-285,1,7,11
6.11E+01,-5468,5394,-758,325,818,-166,1,7,11
6.13E+01,-5251,5266,-1113,577,824,-524,1,7,11
6.16E+01,-5364,5372,-937,452,801,-601,1,7,11
6.18E+01,-5674,5718,-1002,505,433,-534,1,7,11
6.21E+01,-5504,5628,-1393,444,582,-141,1,7,11
6.23E+01,-5398,5971,-1198,133,611,-149,1,7,11
6.26E+01,-5406,5763,-1201,63,464,-254,1,7,11
6.28E+01,-5492,5797,-1200,-234,813,-590,1,7,11
6.31E+01,-5499,5823,-1223,-452,832,-566,1,7,11
6.33E+01,-5399,6166,-1220,-895,847,-594,1,7,11
6.36E+01,-5384,6202,-1204,-1133,760,-445,1,7,11
6.38E+01,-5093,6199,-1398,-1606,905,-772,1,7,11
6.41E+01,-5065,6038,-1361,-1906,1347,-676,1,7,11
6.43E+01,-4992,6293,-1185,-2325,1566,-1074,1,7,11
6.46E+01,-4312,6532,-1557,-2981,1779,-1277,1,7,11
6.48E+01,-4396,6776,-1406,-4630,2857,-2362,1,7,11
6.51E+01,-4317,6520,-1126,-5771,3468,-3010,1,7,11
6.53E+01,-4527,6247,-655,-6985,4389,-3738,1,7,11
6.56E+01,-4792,6075,-673,-7488,4583,-4642,1,7,11
6.58E+01,-5495,6458,-1067,-7886,4806,-5129,1,7,11
6.61E+01,-5779,6264,-1130,-8674,4926,-5060,1,7,11
6.63E+01,-6425,5610,-903,-9115,4266,-5121,1,7,11
6.66E+01,-6376,5420,-1093,-9091,3742,-4516,1,7,11
6.68E+01,-6350,4768,-744,-8613,3206,-4423,1,7,11
6.71E+01,-6382,4653,-801,-7809,2810,-4211,1,7,11
6.73E+01,-6685,4381,-614,-6973,2450,-3953,1,7,11
6.76E+01,-6746,4218,-221,-5750,2354,-3684,1,7,11
6.78E+01,-6533,3828,-348,-4258,1737,-3368,1,7,11
6.81E+01,-6740,4113,-326,-2952,1627,-3105,1,7,11
6.83E+01,-6706,4055,-160,-2129,1335,-2928,1,7,11
6.86E+01,-6723,4461,-216,-1236,1130,-2666,1,7,11
6.88E+01,-6769,4423,-188,-1129,715,-2323,1,7,11
6.91E+01,-6570,4362,-156,-777,826,-1722,1,7,11
6.93E+01,-6564,4057,-158,-219,398,-1664,1,7,11
6.96E+01,-6576,4029,-183,12,250,-1232,1,7,11
6.98E+01,-6614,4001,-175,-106,354,-1308,1,7,11
7.01E+01,-6919,4223,-169,-12,-59,-1071,1,7,11
7.03E+01,-6934,4166,-174,297,24,-464,1,7,11
7.06E+01,-6650,4096,-184,316,-369,-290,1,7,11
7.08E+01,-6607,3777,-182,345,-204,143,1,7,11
7.11E+01,-6597,3760,-170,150,-240,846,1,7,11
7.13E+01,-6573,3745,-268,363,-557,1359,1,7,11
7.16E+01,-6291,3860,28,358,-435,1840,1,7,11
7.18E+01,-6078,3938,-297,430,-425,1807,1,7,11
7.21E+01,-6140,4292,-360,651,-553,1584,1,7,11
7.23E+01,-6345,4524,-328,843,-178,1158,1,7,11
7.26E+01,-6549,4865,51,413,-364,1177,1,7,11
7.28E+01,-6628,4506,-102,517,-252,1590,1,7,11
7.31E+01,-6949,4623,-50,580,-411,1640,1,7,11
7.33E+01,-6994,4329,-66,999,-842,1421,1,7,11
7.36E+01,-6978,4251,-110,1820,-1042,1842,1,7,11
7.38E+01,-6932,4391,92,2247,-966,2124,1,7,11
7.41E+01,-6644,4022,15,3036,-1157,2262,1,7,11
7.43E+01,-6546,4207,-365,4184,-1624,3079,1,7,11
7.46E+01,-6713,4153,-543,5124,-1819,3493,1,7,11
7.48E+01,-6501,4103,-431,5787,-1765,4307,1,7,11
7.51E+01,-6265,3797,-820,6618,-2111,5024,1,7,11
7.53E+01,-5891,3784,-732,7539,-1929,5799,1,7,11
7.56E+01,-5388,3801,-1062,8057,-2164,6284,1,7,11
7.58E+01,-4492,4058,-1356,8354,-2057,6398,1,7,11
7.61E+01,-4074,4825,-1844,9044,-1457,5905,1,7,11
7.63E+01,-4417,5805,-1966,8631,-1303,4546,1,7,11
7.66E+01,-4880,7204,-2277,7871,-767,3845,1,7,11
7.68E+01,-4753,7162,-2609,6993,-735,2959,1,7,11
7.71E+01,-4781,7318,-2650,5509,-942,2872,1,7,11
7.73E+01,-4870,7430,-2437,4679,-1398,2192,1,7,11
7.76E+01,-4572,7120,-2487,3881,-1204,1801,1,7,11
7.78E+01,-4596,7253,-2496,3188,-1225,988,1,7,11
7.81E+01,-4601,6791,-2440,2235,-1234,610,1,7,11
7.83E+01,-4893,6557,-2616,1909,-1407,320,1,7,11
7.86E+01,-4960,6525,-2221,1184,-1318,-119,1,7,11
7.88E+01,-4797,6216,-2048,871,-973,48,1,7,11
7.91E+01,-5135,5932,-2139,470,-918,39,1,7,11
7.93E+01,-4855,5676,-1766,457,-904,85,1,7,11
7.96E+01,-4811,5251,-1709,813,-1106,119,1,7,11
7.98E+01,-4790,5447,-1700,728,-746,90,1,7,11
8.01E+01,-4772,5447,-1730,1054,-876,86,1,7,11
8.03E+01,-4778,5450,-1743,1058,-459,117,1,7,11
8.06E+01,-4791,5442,-1752,730,-556,-86,1,7,11
8.08E+01,-4832,5393,-1754,641,-150,-69,1,7,11
8.11E+01,-5152,5113,-1781,869,-300,-107,1,7,11
8.13E+01,-5176,5404,-2105,884,14,125,1,7,11
8.16E+01,-5169,5482,-1998,865,66,63,1,7,11
8.18E+01,-5187,5271,-2025,772,-106,54,1,7,11
8.21E+01,-5181,5287,-2327,408,-43,76,1,7,11
8.23E+01,-5209,5291,-2383,559,284,81,1,7,11
8.26E+01,-5003,5287,-2180,250,344,107,1,7,11
8.28E+01,-5002,5294,-2219,517,366,-97,1,7,11
8.31E+01,-5048,5352,-2269,531,374,90,1,7,11
8.33E+01,-5113,5364,-2283,204,356,-102,1,7,11
8.36E+01,-5110,5326,-2277,363,306,-15,1,7,11
8.38E+01,-5416,5284,-2250,328,-23,271,1,7,11
8.41E+01,-5415,5273,-2251,328,104,299,1,7,11
8.43E+01,-5117,5250,-2235,326,-281,316,1,7,11
8.46E+01,-5045,5254,-2240,362,-384,289,1,7,11
8.48E+01,-5012,5250,-2226,355,-172,-9,1,7,11
8.51E+01,-5217,5255,-2226,333,-189,-4,1,7,11
8.53E+01,-5199,5269,-2221,293,-166,-27,1,7,11
8.56E+01,-5198,5320,-2229,-18,-139,-61,1,7,11
8.58E+01,-5213,5292,-2186,127,-147,-114,1,7,11
8.61E+01,-5221,5476,-2416,7,-132,-51,1,7,11
8.63E+01,-5189,5389,-2390,-262,-361,282,1,7,11
8.66E+01,-5126,5069,-2371,78,-325,338,1,7,11
8.68E+01,-4771,5109,-2403,279,-273,319,1,7,11
8.71E+01,-4752,5501,-2220,196,93,-19,1,7,11
8.73E+01,-5123,5361,-2277,216,-50,-31,1,7,11
8.76E+01,-5126,5367,-2287,148,-2,345,1,7,11
8.78E+01,-5205,5296,-2262,349,308,146,1,7,11
8.81E+01,-5178,5494,-2268,142,303,224,1,7,11
8.83E+01,-5182,5264,-2288,242,305,146,1,7,11
8.86E+01,-5166,5337,-2581,556,276,267,1,7,11
8.88E+01,-5157,5653,-2592,532,257,-70,1,7,11
8.91E+01,-5138,5633,-2574,150,-2,-104,1,7,11
8.93E+01,-4821,5302,-2571,304,261,-49,1,7,11
8.96E+01,-4756,5492,-2580,270,313,-28,1,7,11
8.98E+01,-4743,5462,-2610,278,129,-73,1,7,11
9.01E+01,-4973,5460,-2624,282,193,-72,1,7,11
9.03E+01,-4965,5451,-2616,262,255,-82,1,7,11
9.06E+01,-4959,5411,-2612,-36,571,-58,1,7,11
9.08E+01,-4927,5094,-2606,-65,613,-56,1,7,11
9.11E+01,-4765,5376,-2613,-6,637,107,1,7,11
9.13E+01,-4979,5498,-2441,295,573,126,1,7,11
9.16E+01,-4754,5313,-2526,-126,576,118,1,7,11
9.18E+01,-4823,5251,-2538,-133,594,-32,1,7,11
9.21E+01,-4848,5453,-2528,-516,572,331,1,7,11
9.23E+01,-4792,5405,-2497,-599,538,345,1,7,11
9.26E+01,-4754,5116,-2687,-531,560,-2,1,7,11
9.28E+01,-4984,5388,-2662,-333,608,81,1,7,11
9.31E+01,-4758,5252,-2460,-69,402,-305,1,7,11
9.33E+01,-4757,5671,-2822,311,410,32,1,7,11
9.36E+01,-4962,5700,-2867,-97,400,-53,1,7,11
9.38E+01,-4607,5320,-2893,-287,444,363,1,7,11
9.41E+01,-4739,5479,-2843,-348,461,379,1,7,11
9.43E+01,-4513,5454,-2820,-277,570,365,1,7,11
9.46E+01,-4951,5304,-2856,-279,604,-48,1,7,11
9.48E+01,-4553,5496,-2832,-247,197,314,1,7,11
9.51E+01,-4895,5395,-2482,-400,171,279,1,7,11
9.53E+01,-4874,5011,-2468,-387,284,380,1,7,11
9.56E+01,-4893,5088,-2524,-216,-7,138,1,7,11
9.58E+01,-4920,5482,-2866,-269,-41,161,1,7,11
9.61E+01,-4928,5343,-2931,127,-70,222,1,7,11
9.63E+01,-4980,5670,-2788,-76,-23,270,1,7,11
9.66E+01,-4922,5738,-3087,-65,-37,588,1,7,11
9.68E+01,-4899,5750,-3116,123,-66,585,1,7,11
9.71E+01,-4921,5559,-3174,89,-62,547,1,7,11
9.73E+01,-4797,5605,-3199,-302,-77,514,1,7,11
9.76E+01,-4834,5525,-3144,-236,8,577,1,7,11
9.78E+01,-4846,5537,-3115,-526,-216,244,1,7,11
9.81E+01,-4817,5571,-3105,-608,-454,248,1,7,11
9.83E+01,-4809,5525,-2798,-494,-646,538,1,7,11
9.86E+01,-4746,5680,-2694,-875,-1089,596,1,7,11
9.88E+01,-4943,5330,-2834,-891,-970,639,1,7,11
9.91E+01,-4878,5637,-2492,-770,-1300,441,1,7,11
9.93E+01,-4715,5737,-2623,-492,-1297,785,1,7,11
9.96E+01,-4231,6010,-2475,-563,-1126,426,1,7,11
9.98E+01,-4483,6101,-2936,-410,-663,790,1,7,11
1.00E+02,-4228,5871,-2547,-1087,-765,899,1,7,11
1.00E+02,-4340,5780,-2456,-763,-862,713,1,7,11
1.01E+02,-4633,5767,-2632,-720,-873,886,1,7,11
1.01E+02,-4335,5982,-2568,-726,-664,467,1,7,11
1.01E+02,-4631,5611,-2194,-1042,-724,255,1,7,11
1.01E+02,-4705,5722,-2351,-1084,-1076,378,1,7,11
1.02E+02,-4736,5284,-1981,-1094,-949,307,1,7,11
1.02E+02,-4594,5392,-2088,-739,-1017,-112,1,7,11
1.02E+02,-4882,5106,-1782,-448,-1401,-127,1,7,11
1.02E+02,-4718,5470,-2104,-347,-1211,-7,1,7,11
1.03E+02,-4676,5644,-1980,-95,-1289,341,1,7,11
1.03E+02,-4656,5628,-2022,259,-758,521,1,7,11
1.03E+02,-4609,6007,-2065,-66,-449,404,1,7,11
1.03E+02,-4681,6209,-2332,-63,-169,452,1,7,11
1.04E+02,-4719,6265,-2313,121,27,483,1,7,11
1.04E+02,-4534,6251,-1979,16,78,438,1,7,11
1.04E+02,-4577,6156,-1954,-308,22,500,1,7,11
1.04E+02,-4591,5804,-2082,-382,-365,339,1,7,11
1.05E+02,-4565,5984,-1758,-355,-628,-41,1,7,11
1.05E+02,-4542,5923,-1699,-301,-490,-96,1,7,11
1.05E+02,-4497,5597,-1857,-288,-836,-75,1,7,11
1.05E+02,-4489,5895,-1857,114,-818,-66,1,7,11
1.06E+02,-4698,5996,-1891,-75,-496,-15,1,7,11
1.06E+02,-4611,5855,-1667,302,-618,-85,1,7,11
1.06E+02,-4656,6256,-1758,355,-146,56,1,7,11
1.06E+02,-4672,6067,-2051,-41,108,67,1,7,11
1.07E+02,-4487,6039,-1762,76,338,123,1,7,11
1.07E+02,-4505,6175,-1714,-296,216,-100,1,7,11
1.07E+02,-4638,5814,-1692,3,250,110,1,7,11
1.07E+02,-4262,5854,-1708,120,598,-354,1,7,11
1.08E+02,-4478,5881,-1723,109,480,-562,1,7,11
1.08E+02,-4329,5881,-1741,104,829,-421,1,7,11
1.08E+02,-4343,6010,-1753,101,818,-431,1,7,11
1.08E+02,-4679,5937,-1773,-69,818,-489,1,7,11
1.09E+02,-4664,5918,-2092,302,799,-509,1,7,11
1.09E+02,-4682,5898,-1926,342,859,-792,1,7,11
1.09E+02,-4527,5565,-1982,291,703,-848,1,7,11
1.09E+02,-4504,5606,-2341,331,762,-706,1,7,11
1.10E+02,-4495,5805,-2231,328,1090,-958,1,7,11
1.10E+02,-4704,6041,-2592,-52,923,-1392,1,7,11
1.10E+02,-4712,6494,-2449,-295,1020,-1655,1,7,11
1.10E+02,-4490,6674,-2857,-800,1366,-1805,1,7,11
1.11E+02,-4288,6576,-2938,-1203,1391,-1964,1,7,11
1.11E+02,-4682,7244,-2816,-2089,1224,-2954,1,7,11
1.11E+02,-4577,7368,-3196,-3175,1196,-3783,1,7,11
1.11E+02,-4937,7311,-3108,-4543,1391,-4435,1,7,11
1.12E+02,-4935,6849,-2849,-6236,1376,-4347,1,7,11
1.12E+02,-4580,6690,-2671,-7231,1167,-4674,1,7,11
1.12E+02,-4597,6048,-2424,-8023,1655,-4907,1,7,11
1.12E+02,-4797,5998,-1696,-8497,1898,-4787,1,7,11
1.13E+02,-5201,5230,-1266,-8733,2057,-4960,1,7,11
1.13E+02,-5735,4710,-946,-8557,2097,-4628,1,7,11
1.13E+02,-5615,4029,-723,-7487,1906,-3855,1,7,11
1.13E+02,-5893,3720,-831,-6103,1516,-3359,1,7,11
1.14E+02,-5994,3966,-801,-4777,1452,-3107,1,7,11
1.14E+02,-5873,4160,-836,-3846,1569,-2863,1,7,11
1.14E+02,-6253,4416,-859,-2714,1397,-2582,1,7,11
1.14E+02,-6020,4324,-692,-2321,941,-2010,1,7,11
1.15E+02,-6094,4653,-1046,-1908,1028,-1711,1,7,11
1.15E+02,-6052,4700,-1053,-1559,832,-1643,1,7,11
1.15E+02,-6434,4690,-767,-1337,398,-1229,1,7,11
1.15E+02,-6421,4647,-724,-1030,169,-1109,1,7,11
1.16E+02,-6474,4650,-700,-429,270,-779,1,7,11
1.16E+02,-6668,4313,-889,-377,-107,-363,1,7,11
1.16E+02,-6691,4444,-867,318,-358,249,1,7,11
1.16E+02,-6351,4017,-848,830,-392,896,1,7,11
1.17E+02,-6459,4116,-647,1235,-883,1482,1,7,11
1.17E+02,-6265,3898,-698,2100,-1100,1982,1,7,11
1.17E+02,-5879,3497,-727,2896,-945,2302,1,7,11
1.17E+02,-5863,3582,-1073,3500,-1302,2825,1,7,11
1.18E+02,-5971,3738,-1333,4317,-1199,3197,1,7,11
1.18E+02,-5956,4166,-1390,5239,-1540,3266,1,7,11
1.18E+02,-5679,4386,-1254,5630,-1417,3743,1,7,11
1.18E+02,-5551,4871,-1813,6453,-1252,3759,1,7,11
1.19E+02,-5556,5076,-1765,6738,-1589,4058,1,7,11
1.19E+02,-5467,5607,-2017,6916,-1443,4432,1,7,11
1.19E+02,-5065,6113,-2236,6707,-1606,4364,1,7,11
1.19E+02,-4971,6521,-2590,5985,-1550,4443,1,7,11
1.20E+02,-4349,6023,-2245,4814,-1344,4217,1,7,11
1.20E+02,-4242,5856,-2408,4245,-1055,3602,1,7,11
1.20E+02,-4246,5887,-2381,3791,-793,2896,1,7,11
1.20E+02,-4690,5847,-2029,3437,-616,1992,1,7,11
1.21E+02,-4674,5831,-1972,2935,-612,1510,1,7,11
1.21E+02,-4675,6200,-2034,2415,-515,1296,1,7,11
1.21E+02,-4537,5848,-2045,1521,-135,642,1,7,11
1.21E+02,-4537,6146,-2333,1240,79,797,1,7,11
1.22E+02,-4560,6238,-2192,1375,-44,254,1,7,11
1.22E+02,-4598,6259,-2286,1088,371,538,1,7,11
1.22E+02,-4874,5832,-2227,424,530,553,1,7,11
1.22E+02,-4927,5993,-2418,522,605,192,1,7,11
1.23E+02,-4971,5625,-2352,363,567,372,1,7,11
1.23E+02,-4980,5716,-1997,283,212,283,1,7,11
1.23E+02,-4883,5665,-1978,176,275,-71,1,7,11
1.23E+02,-4935,5639,-2019,167,-35,-69,1,7,11
1.24E+02,-4541,5454,-1937,-48,-50,134,1,7,11
1.24E+02,-4567,5412,-1954,-29,361,382,1,7,11
1.24E+02,-4781,5251,-1986,379,543,226,1,7,11
1.24E+02,-4845,5663,-2037,544,395,482,1,7,11
1.25E+02,-5129,5889,-2409,803,492,709,1,7,11
1.25E+02,-4874,5867,-2675,1080,638,909,1,7,11
1.25E+02,-4300,6043,-2697,1100,473,934,1,7,11
1.25E+02,-4288,6082,-2801,842,1028,1054,1,7,11
1.26E+02,-4250,6236,-2765,633,1118,872,1,7,11
1.26E+02,-4479,5876,-2694,544,1104,580,1,7,11
1.26E+02,-4394,6001,-2892,217,1031,190,1,7,11
1.26E+02,-4359,5565,-2849,130,1040,351,1,7,11
1.27E+02,-4214,5300,-2536,325,1030,233,1,7,11
1.27E+02,-3716,5403,-2836,230,1134,248,1,7,11
1.27E+02,-3814,5407,-2900,429,1396,296,1,7,11
1.27E+02,-3983,5438,-2704,851,1546,-38,1,7,11
1.28E+02,-4041,5461,-3084,1052,1609,-36,1,7,11
1.28E+02,-4071,5289,-2979,1391,1613,120,1,7,11
1.28E+02,-4039,5742,-3229,1264,1654,-80,1,7,11
1.28E+02,-4094,5577,-3645,1280,1507,319,1,7,11
1.29E+02,-4369,5903,-3520,748,1797,218,1,7,11
1.29E+02,-4412,5991,-3895,506,1506,555,1,7,11
1.29E+02,-4469,5781,-3962,521,1636,402,1,7,11
1.29E+02,-4444,5766,-3946,326,1386,488,1,7,11
1.30E+02,-4066,5777,-3957,261,1138,437,1,7,11
1.30E+02,-4065,5826,-3761,330,861,181,1,7,11
1.30E+02,-4191,5805,-3771,-67,616,216,1,7,11
1.30E+02,-4164,6011,-3748,111,178,378,1,7,11
1.31E+02,-3783,5896,-3948,-294,-63,355,1,7,11
1.31E+02,-3916,5694,-3557,-142,44,-23,1,7,11
1.31E+02,-3905,5644,-3472,-374,-266,-281,1,7,11
1.31E+02,-3953,5655,-3632,-343,-285,-219,1,7,11
1.32E+02,-3738,5513,-3645,-353,-287,-548,1,7,11
1.32E+02,-3734,5520,-3634,-221,-275,-216,1,7,11
1.32E+02,-3891,5721,-3302,-470,94,-185,1,7,11
1.32E+02,-3996,5658,-3263,-878,-75,-344,1,7,11
1.33E+02,-4370,5670,-3264,-653,-32,-312,1,7,11
1.33E+02,-4424,5739,-3294,-829,-26,4,1,7,11
1.33E+02,-4462,5590,-3315,-510,-36,-260,1,7,11
1.33E+02,-4239,5621,-3300,-850,-85,44,1,7,11
1.34E+02,-4302,5568,-3236,-896,60,59,1,7,11
1.34E+02,-4329,5572,-3412,-786,-163,117,1,7,11
1.34E+02,-4354,5593,-3413,-430,-460,260,1,7,11
1.34E+02,-4146,5625,-3442,-542,-879,108,1,7,11
1.35E+02,-3748,5918,-3236,-588,-859,119,1,7,11
1.35E+02,-3723,5589,-3400,-394,-468,49,1,7,11
1.35E+02,-3749,5914,-3363,-620,-426,-261,1,7,11
1.35E+02,-3744,5589,-2945,-770,-486,-371,1,7,11
1.36E+02,-3864,5549,-3129,-832,-796,-224,1,7,11
1.36E+02,-3920,5541,-3144,-733,-443,-612,1,7,11
1.36E+02,-3868,5363,-3093,-967,-395,-524,1,7,11
1.36E+02,-3550,5394,-2730,-970,-207,-583,1,7,11
1.37E+02,-3914,5110,-2704,-648,37,-849,1,7,11
1.37E+02,-4100,5641,-3085,-233,-105,-762,1,7,11
1.37E+02,-4194,5627,-3032,-208,-122,-678,1,7,11
1.37E+02,-4142,5926,-3418,-562,-59,-885,1,7,11
1.38E+02,-4395,6050,-3694,-246,139,-664,1,7,11
1.38E+02,-4063,6110,-3535,-695,135,-508,1,7,11
1.38E+02,-4419,6129,-3539,-995,176,-694,1,7,11
1.38E+02,-4248,6471,-3551,-1587,312,-1286,1,7,11
1.39E+02,-4320,6319,-3523,-1706,103,-1853,1,7,11
1.39E+02,-4732,6702,-3460,-2190,-170,-2178,1,7,11
1.39E+02,-4535,6710,-3614,-3089,-780,-2846,1,7,11
1.39E+02,-4670,6660,-3261,-3542,-1113,-3143,1,7,11
1.40E+02,-4320,6317,-3364,-4291,-1292,-3297,1,7,11
1.40E+02,-4329,6511,-3159,-5024,-1334,-3796,1,7,11
1.40E+02,-4664,6422,-2935,-5767,-1316,-4254,1,7,11
1.40E+02,-4486,6229,-2670,-6761,-978,-4577,1,7,11
1.41E+02,-4963,5948,-2036,-7052,-1099,-4793,1,7,11
1.41E+02,-4821,5752,-1864,-7488,-712,-4788,1,7,11
1.41E+02,-5065,5691,-1633,-7431,-470,-4919,1,7,11
1.41E+02,-5287,5434,-1345,-7111,-238,-4614,1,7,11
1.42E+02,-5728,4796,-748,-7249,-326,-4165,1,7,11
1.42E+02,-5664,4614,-435,-6629,-264,-3517,1,7,11
1.42E+02,-5361,4222,-188,-6267,52,-3042,1,7,11
1.42E+02,-5646,4111,-363,-4707,258,-3197,1,7,11
1.43E+02,-5664,4173,-351,-3477,375,-3091,1,7,11
1.43E+02,-5560,4017,-342,-2721,211,-2931,1,7,11
1.43E+02,-5984,4039,-316,-2247,240,-2459,1,7,11
1.43E+02,-5870,3978,-278,-2145,181,-2214,1,7,11
1.44E+02,-6237,3986,-295,-1462,356,-2383,1,7,11
1.44E+02,-6444,4390,-351,-998,321,-2041,1,7,11
1.44E+02,-6518,4609,-220,-875,-25,-1741,1,7,11
1.44E+02,-6521,4529,-569,-491,-70,-1663,1,7,11
1.45E+02,-6339,4931,-615,-466,270,-1402,1,7,11
1.45E+02,-6776,4835,-387,-770,380,-902,1,7,11
1.45E+02,-6591,4824,-597,-740,379,-842,1,7,11
1.45E+02,-6578,4932,-248,-907,310,-583,1,7,11
1.46E+02,-6392,4522,-173,-1137,-79,-177,1,7,11
1.46E+02,-6404,4492,-185,-714,85,-200,1,7,11
1.46E+02,-6264,4679,-158,-651,104,-615,1,7,11
1.46E+02,-6246,4647,-376,-790,-99,-503,1,7,11
1.47E+02,-6063,4630,-342,-500,-43,-863,1,7,11
1.47E+02,-6141,4260,-279,-841,-54,-688,1,7,11
1.47E+02,-6509,4468,19,-793,-43,-1061,1,7,11
1.47E+02,-6385,4254,39,-465,-44,-1107,1,7,11
1.48E+02,-6737,4338,50,-401,-41,-748,1,7,11
1.48E+02,-6760,4729,15,-630,-3,-838,1,7,11
1.48E+02,-6947,4982,-282,-597,134,-395,1,7,11
1.48E+02,-6982,5209,-321,-451,172,-305,1,7,11
1.49E+02,-7001,5039,-325,-668,196,296,1,7,11
1.49E+02,-6551,5230,-327,-904,129,403,1,7,11
1.49E+02,-6478,4743,-310,-1326,335,779,1,7,11
1.49E+02,-6226,4586,-326,-981,369,584,1,7,11
1.50E+02,-5865,4548,-339,-1068,206,270,1,7,11
1.50E+02,-6218,4510,-293,-667,553,-314,1,7,11
1.50E+02,-6130,4727,-310,-772,516,-190,1,7,11
1.50E+02,-6411,4675,-343,-391,178,-134,1,7,11
1.51E+02,-6490,4630,-381,-524,132,-341,1,7,11
1.51E+02,-6353,4609,-142,-132,203,50,1,7,11
1.51E+02,-6668,4333,-139,-269,241,-62,1,7,11
1.51E+02,-6531,4554,-201,-30,614,380,1,7,11
1.52E+02,-6542,4917,-253,-76,635,535,1,7,11
1.52E+02,-6767,4635,-242,109,394,388,1,7,11
1.52E+02,-6681,4929,-216,-50,415,614,1,7,11
1.52E+02,-6713,4573,-372,127,438,555,1,7,11
1.53E+02,-6533,4523,-347,-15,403,183,1,7,11
1.53E+02,-6757,4669,-299,364,535,191,1,7,11
1.53E+02,-6680,4630,-292,390,336,183,1,7,11
1.53E+02,-6763,4426,50,890,-57,575,1,7,11
1.54E+02,-6582,4105,95,962,-121,1025,1,7,11
1.54E+02,-6614,3552,66,1850,-444,1644,1,7,11
1.54E+02,-6693,3608,-328,3004,-1087,2397,1,7,11
1.54E+02,-6129,3605,-558,4375,-1155,3136,1,7,11
1.55E+02,-5839,3509,-845,4939,-1582,3700,1,7,11
1.55E+02,-5894,3779,-904,6133,-1424,4147,1,7,11
1.55E+02,-5745,4226,-1243,7169,-1433,4314,1,7,11
1.55E+02,-5364,4575,-1463,7520,-1441,4768,1,7,11
1.56E+02,-5102,4963,-1851,7355,-1450,5450,1,7,11
1.56E+02,-5135,5141,-1758,7771,-1629,5458,1,7,11
1.56E+02,-4982,5366,-2307,8021,-1198,5226,1,7,11
1.56E+02,-4920,5841,-2293,7659,-912,4923,1,7,11
1.57E+02,-4883,6423,-2672,7469,-871,4708,1,7,11
1.57E+02,-4532,6524,-2444,6752,-627,4389,1,7,11
1.57E+02,-4547,6668,-2499,5872,-167,3471,1,7,11
1.57E+02,-4900,6931,-2826,5486,-295,2705,1,7,11
1.58E+02,-4803,6845,-2864,4688,-300,1961,1,7,11
1.58E+02,-4800,6815,-2876,3658,-373,1893,1,7,11
1.58E+02,-4936,6581,-2554,2672,-137,1562,1,7,11
1.58E+02,-4869,6325,-2476,1826,-334,954,1,7,11
1.59E+02,-4564,6266,-2607,914,34,828,1,7,11
1.59E+02,-4879,5812,-2265,823,-95,155,1,7,11
1.59E+02,-4934,5926,-2224,573,-10,-106,1,7,11
1.59E+02,-4928,5512,-2210,374,320,-257,1,7,11
1.60E+02,-4897,5649,-2223,-16,171,-373,1,7,11
1.60E+02,-4600,5317,-2280,-81,548,-191,1,7,11
1.60E+02,-4573,5274,-2569,-121,446,-548,1,7,11
1.60E+02,-4869,5482,-2606,108,833,-551,1,7,11
1.61E+02,-4907,5417,-2603,98,680,-229,1,7,11
1.61E+02,-4892,4993,-2641,-43,730,10,1,7,11
1.61E+02,-4918,5215,-2644,381,1031,-274,1,7,11
1.61E+02,-4942,5038,-2454,550,1026,-258,1,7,11
1.62E+02,-4939,5107,-2509,392,746,101,1,7,11
1.62E+02,-4929,5470,-2853,445,726,-22,1,7,11
1.62E+02,-4917,5410,-2842,545,658,172,1,7,11
1.62E+02,-4587,5376,-2848,520,872,218,1,7,11
1.63E+02,-4605,5456,-2938,521,877,164,1,7,11
1.63E+02,-4518,5294,-2741,189,868,195,1,7,11
1.63E+02,-4484,5355,-2813,309,716,151,1,7,11
1.63E+02,-4331,5407,-2783,36,753,254,1,7,11
1.64E+02,-4665,5410,-3091,-258,1104,241,1,7,11
1.64E+02,-4707,5471,-3138,-108,928,127,1,7,11
1.64E+02,-4685,5405,-3125,-127,929,93,1,7,11
1.64E+02,-4647,5013,-2813,111,978,88,1,7,11
1.65E+02,-4614,4785,-2721,102,1320,-123,1,7,11
1.65E+02,-4330,4497,-2833,51,1235,-29,1,7,11
1.65E+02,-4682,4457,-2629,34,1477,161,1,7,11
1.65E+02,-4331,4136,-2200,38,1845,807,1,7,11
1.66E+02,-4160,4073,-2635,482,1709,1060,1,7,11
1.66E+02,-4105,4857,-2981,1306,1939,416,1,7,11
1.66E+02,-4520,5570,-3541,1291,2032,62,1,7,11
1.66E+02,-4779,6059,-3999,726,1842,118,1,7,11
1.67E+02,-4773,6314,-4262,428,1307,-106,1,7,11
1.67E+02,-4927,6761,-4723,192,869,328,1,7,11
1.67E+02,-4654,6337,-4691,-351,616,615,1,7,11
1.67E+02,-4271,6270,-4277,-402,515,411,1,7,11
1.68E+02,-4230,5984,-4088,-498,352,596,1,7,11
1.68E+02,-4390,5716,-4138,-404,-112,194,1,7,11
1.68E+02,-4096,5365,-3766,-145,2,-3,1,7,11
1.68E+02,-4080,5282,-3914,-280,-356,-110,1,7,11
1.69E+02,-4057,5398,-3532,80,-160,110,1,7,11
1.69E+02,-4057,5062,-3690,-4,-197,71,1,7,11
1.69E+02,-3992,5054,-3630,169,-248,89,1,7,11
1.69E+02,-4199,5070,-3585,244,-254,76,1,7,11
1.70E+02,-4222,5089,-3294,520,-225,51,1,7,11
1.70E+02,-3996,5116,-3294,238,-247,53,1,7,11
1.70E+02,-4012,5113,-3292,192,-541,18,1,7,11
1.70E+02,-3975,5424,-3289,180,-579,-258,1,7,11
1.71E+02,-3981,5305,-3652,151,-537,-329,1,7,11
1.71E+02,-3995,5333,-3639,-109,-585,55,1,7,11
1.71E+02,-4162,5471,-3606,-331,-570,72,1,7,11
1.71E+02,-3997,5266,-3629,-338,-228,-270,1,7,11
1.72E+02,-4025,5412,-3601,-155,-225,-279,1,7,11
1.72E+02,-4044,5100,-3596,-349,-200,-335,1,7,11
1.72E+02,-4077,5089,-3609,90,-165,-139,1,7,11
1.72E+02,-4368,5072,-3614,302,-143,-175,1,7,11
1.73E+02,-4421,5095,-3646,222,-154,-234,1,7,11
1.73E+02,-4226,5470,-3502,583,-186,-231,1,7,11
1.73E+02,-4234,5490,-3539,250,-220,-180,1,7,11
1.73E+02,-4257,5279,-3575,196,-231,-156,1,7,11
1.74E+02,-4617,5309,-3842,-116,-236,-148,1,7,11
1.74E+02,-4736,5476,-3544,-265,-587,-162,1,7,11
1.74E+02,-4555,5440,-3527,-340,-777,-170,1,7,11
1.74E+02,-4725,5469,-3554,-181,-754,-129,1,7,11
1.75E+02,-4639,5101,-3481,-456,-1149,-142,1,7,11
1.75E+02,-4474,5025,-3704,-496,-1147,-192,1,7,11
1.75E+02,-4651,5064,-3672,-806,-1035,-593,1,7,11
1.75E+02,-4628,5214,-3310,-841,-1066,-517,1,7,11
1.76E+02,-4532,5028,-3284,-447,-1042,-588,1,7,11
1.76E+02,-4605,5005,-3267,-440,-902,-172,1,7,11
1.76E+02,-4509,5169,-3436,-483,-1001,-311,1,7,11
1.76E+02,-4725,5121,-3348,-423,-1004,-298,1,7,11
1.77E+02,-4680,5135,-3047,-395,-961,-328,1,7,11
1.77E+02,-4489,4830,-2957,-430,-1136,-131,1,7,11
1.77E+02,-4527,4749,-3111,-426,-1107,-378,1,7,11
1.77E+02,-4521,4603,-2732,-614,-1118,-338,1,7,11
1.78E+02,-4316,4541,-2732,-281,-1068,21,1,7,11
1.78E+02,-4693,4510,-2921,342,-850,-362,1,7,11
1.78E+02,-4610,4573,-2724,644,-448,-174,1,7,11
1.78E+02,-4501,4798,-3093,1157,-187,-416,1,7,11
1.79E+02,-4588,5238,-3171,1430,-313,-774,1,7,11
1.79E+02,-4587,5455,-3063,1502,41,-845,1,7,11
1.79E+02,-4593,5423,-3345,1182,-93,-852,1,7,11
1.79E+02,-4874,5062,-3069,908,325,-654,1,7,11
1.80E+02,-4975,5071,-3049,688,153,-679,1,7,11
1.80E+02,-4944,5034,-3362,418,148,-843,1,7,11
1.80E+02,-4786,5010,-3447,147,164,-848,1,7,11
1.80E+02,-5130,5182,-3272,83,350,-499,1,7,11
1.81E+02,-5135,5124,-3279,-227,277,-390,1,7,11
1.81E+02,-5147,4789,-3244,-552,-34,-553,1,7,11
1.81E+02,-5157,4895,-3395,-709,-86,-179,1,7,11
1.81E+02,-5122,4897,-3409,-652,117,-340,1,7,11
1.82E+02,-5155,4922,-3425,-890,77,-260,1,7,11
1.82E+02,-5168,4937,-3419,-876,31,109,1,7,11
1.82E+02,-4816,4944,-3399,-867,40,-33,1,7,11
1.82E+02,-5019,4597,-3008,-667,84,-28,1,7,11
1.83E+02,-4805,4690,-3134,-503,-279,171,1,7,11
1.83E+02,-4809,4728,-3118,-350,38,346,1,7,11
1.83E+02,-4925,4566,-3163,-50,45,352,1,7,11
1.83E+02,-4908,4887,-3182,146,-77,-9,1,7,11
1.84E+02,-4935,4906,-3169,543,309,-111,1,7,11
1.84E+02,-4978,4956,-3174,462,145,62,1,7,11
1.84E+02,-4990,4746,-2960,818,187,27,1,7,11
1.84E+02,-4940,4748,-3013,858,213,13,1,7,11
1.85E+02,-4925,4823,-3376,660,520,-377,1,7,11
1.85E+02,-4990,5194,-3226,847,550,-230,1,7,11
1.85E+02,-4763,5198,-3285,624,524,-225,1,7,11
1.85E+02,-4748,5123,-3319,169,232,-213,1,7,11
1.86E+02,-4967,4839,-3623,316,227,-173,1,7,11
1.86E+02,-4977,4836,-3683,-96,539,-172,1,7,11
1.86E+02,-4738,4779,-3711,-260,535,-347,1,7,11
1.86E+02,-4992,4747,-3475,-345,547,-322,1,7,11
1.87E+02,-4817,4771,-3481,-171,536,-303,1,7,11
1.87E+02,-4846,4741,-3702,-597,214,34,1,7,11
1.87E+02,-4816,4917,-3601,-485,382,-125,1,7,11
1.87E+02,-4738,4930,-3307,-496,310,-67,1,7,11
1.88E+02,-4748,4930,-3288,-808,279,-93,1,7,11
1.88E+02,-4972,4947,-3291,-784,-29,-127,1,7,11
1.88E+02,-4964,4797,-3312,-479,-41,47,1,7,11
1.88E+02,-4976,4848,-3590,-464,-42,-313,1,7,11
1.89E+02,-4906,5157,-3598,-821,-44,-366,1,7,11
1.89E+02,-4912,5196,-3662,-699,287,-197,1,7,11
1.89E+02,-4965,4812,-3628,-1109,289,-201,1,7,11
1.89E+02,-4980,4744,-3641,-1036,277,-546,1,7,11
1.90E+02,-4847,4974,-3669,-738,-61,-607,1,7,11
1.90E+02,-4848,4961,-3702,-670,49,-616,1,7,11
1.90E+02,-5181,4788,-3530,-808,-352,-391,1,7,11
1.90E+02,-5231,5158,-3907,-777,-540,-547,1,7,11
1.91E+02,-5003,5012,-3759,-870,-475,-170,1,7,11
1.91E+02,-5052,5080,-4102,-1077,-684,-310,1,7,11
1.91E+02,-4864,5093,-4198,-1282,-1148,127,1,7,11
1.91E+02,-5035,5410,-3979,-1212,-955,-287,1,7,11
1.92E+02,-5024,5445,-4193,-1614,-1187,-283,1,7,11
1.92E+02,-5381,5321,-4177,-1462,-1651,-335,1,7,11
1.92E+02,-5412,5303,-3816,-1716,-1920,13,1,7,11
1.92E+02,-5105,5269,-3966,-1936,-2096,-98,1,7,11
1.93E+02,-5377,5108,-3668,-2229,-1948,269,1,7,11
1.93E+02,-5434,5179,-3033,-2604,-2029,132,1,7,11
1.93E+02,-5328,4782,-2895,-2195,-2417,245,1,7,11
1.93E+02,-5493,5124,-2656,-1748,-2671,507,1,7,11
1.94E+02,-5159,5434,-2254,-1424,-2863,709,1,7,11
1.94E+02,-4918,5308,-2130,-1867,-2867,696,1,7,11
1.94E+02,-4945,5488,-1567,-2153,-2493,466,1,7,11
1.94E+02,-5189,5078,-1048,-1973,-2464,512,1,7,11
1.95E+02,-5135,5075,-834,-1757,-2840,574,1,7,11
1.95E+02,-4942,5193,-402,-1850,-2832,437,1,7,11
1.95E+02,-4619,4809,-560,-1170,-2285,407,1,7,11
1.95E+02,-4622,4820,-591,-867,-1919,146,1,7,11
1.96E+02,-4676,4776,-396,-132,-1289,-48,1,7,11
1.96E+02,-4872,4767,-865,366,-395,-285,1,7,11
1.96E+02,-4963,5127,-747,878,113,-299,1,7,11
1.96E+02,-4768,5053,-1327,921,632,-310,1,7,11
1.97E+02,-4856,5481,-1630,997,1139,-309,1,7,11
1.97E+02,-5024,5653,-1727,921,1551,-381,1,7,11
1.97E+02,-5493,5713,-2143,651,1512,-160,1,7,11
1.97E+02,-5690,5436,-2151,558,1849,-220,1,7,11
1.98E+02,-5642,5475,-2312,638,1431,36,1,7,11
1.98E+02,-5320,5273,-2190,773,1629,-363,1,7,11
1.98E+02,-5702,5426,-2223,391,1418,-392,1,7,11
1.98E+02,-5678,5100,-2218,244,1180,-585,1,7,11
1.99E+02,-5660,5425,-2565,583,1285,-445,1,7,11
1.99E+02,-5669,5112,-2574,204,929,-460,1,7,11
1.99E+02,-5443,5086,-2594,276,1052,-464,1,7,11
1.99E+02,-5484,5100,-2846,-520,710,-2437,1,7,11
2.00E+02,-5721,4842,-2048,-2785,-334,-3840,1,7,11
2.00E+02,-5954,4328,-1898,-3291,-673,-4238,1,7,11
2.00E+02,-5889,4686,-1838,-2271,-1824,-4746,1,7,11
2.00E+02,-5613,4920,-1690,-1759,-2095,-5023,1,7,11
2.01E+02,-6189,4848,-1755,-2343,-1905,-4491,1,7,11
2.01E+02,-6447,4496,-1768,-2780,-2102,-3543,1,7,11
2.01E+02,-6377,4923,-1695,-3896,-2953,-2974,1,7,11
2.01E+02,-6324,5164,-1613,-5125,-4494,-2060,1,7,11
2.02E+02,-6096,4842,-1314,-6509,-6498,-2331,1,7,11
2.02E+02,-5814,4671,-845,-6694,-6670,-3124,1,7,11
2.02E+02,-6006,4609,-485,-5239,-4760,-3435,1,7,11
2.02E+02,-6179,4649,-148,-3325,-3136,-3390,1,7,11
2.03E+02,-6407,4280,25,-1532,-1212,-2551,1,7,11
2.03E+02,-6293,4675,-180,-62,207,-2095,1,7,11
2.03E+02,-6783,4502,-215,1041,1736,-801,1,7,11
2.03E+02,-7023,4729,-250,909,2200,-116,1,7,11
2.04E+02,-7002,4642,-554,703,1253,60,1,7,11
2.04E+02,-6298,4244,-774,530,174,-345,1,7,11
2.04E+02,-6074,4032,-401,-254,275,-200,1,7,11
2.04E+02,-6489,3918,-164,-406,318,-1801,1,7,11
2.05E+02,-6036,4028,-462,-320,-6,-4576,1,7,11
2.05E+02,-6357,4424,-625,-512,-637,-6212,1,7,11
2.05E+02,-6951,4614,-344,-2387,-1053,-6760,1,7,11
2.05E+02,-7186,3920,-299,-3076,-374,-6250,1,7,11
2.06E+02,-7081,3229,90,-2152,848,-5352,1,7,11
2.06E+02,-7047,2960,17,-609,1893,-5652,1,7,11
2.06E+02,-7383,2959,-198,985,2478,-6202,1,7,11
2.06E+02,-7606,2953,-896,2162,2794,-5837,1,7,11
2.07E+02,-8005,2756,-1044,2345,3115,-5163,1,7,11
2.07E+02,-7857,2777,-1288,1502,2451,-3683,1,7,11
2.07E+02,-8218,2753,-1373,570,2601,-2089,1,7,11
2.07E+02,-7869,2921,-1392,-700,2895,-318,1,7,11
2.08E+02,-7582,2880,-1378,-2159,2713,1240,1,7,11
2.08E+02,-7335,2553,-1401,-3072,3136,2821,1,7,11
2.08E+02,-7374,2836,-1122,-3952,3637,4442,1,7,11
2.08E+02,-7470,2535,-749,-3698,3222,5423,1,7,11
2.09E+02,-6883,2695,-1080,-2873,2931,5404,1,7,11
2.09E+02,-6626,2973,-985,-1858,2226,4175,1,7,11
2.09E+02,-6304,3423,-1208,-765,1731,2191,1,7,11
2.09E+02,-6382,3234,-1275,17,1555,795,1,7,11
2.10E+02,-6738,3640,-1613,727,1001,-521,1,7,11
2.10E+02,-6623,3702,-1619,1523,1256,-596,1,7,11
2.10E+02,-6605,3473,-1457,1978,1744,-11,1,7,11
2.10E+02,-6743,3689,-1870,2013,2181,811,1,7,11
2.11E+02,-6844,3517,-1714,1937,1939,898,1,7,11
2.11E+02,-7460,3545,-1742,2129,454,1636,1,7,11
2.11E+02,-7452,3887,-1899,1746,-1470,1425,1,7,11
2.11E+02,-6909,3552,-1851,1661,-3188,990,1,7,11
2.12E+02,-6927,3567,-1803,951,-3569,187,1,7,11
2.12E+02,-6989,3878,-1476,518,-3005,-554,1,7,11
2.12E+02,-7052,4438,-1714,-577,-2702,-480,1,7,11
2.12E+02,-7518,3825,-1646,-2277,-2211,796,1,7,11
2.13E+02,-7062,3722,-1393,-3206,-3033,224,1,7,11
2.13E+02,-6875,3690,-1043,-3592,-3608,-441,1,7,11
2.13E+02,-7148,3049,-195,-2311,-3272,-1360,1,7,11
2.13E+02,-7645,2969,211,607,-4062,-1837,1,7,11
2.14E+02,-8038,3085,84,5184,-4157,2207,1,7,11
2.14E+02,-6469,4117,-1848,6875,-4066,7276,1,7,11
2.14E+02,-5849,4103,-1447,4059,-3671,4665,1,7,11
2.14E+02,-6738,3749,-920,2749,-2610,2842,1,7,11
2.15E+02,-6715,4198,-748,2398,-2584,2313,1,7,11
2.15E+02,-6298,4166,-775,1678,-2568,1616,1,7,11
2.15E+02,-6512,4056,-424,1427,-2094,677,1,7,11
2.15E+02,-6322,4450,-572,1327,-1573,162,1,7,11
2.16E+02,-6674,4318,-253,1143,-988,118,1,7,11
2.16E+02,-6706,4669,-540,739,-1125,48,1,7,11
2.16E+02,-6676,4637,-533,489,-738,-278,1,7,11
2.16E+02,-6685,4330,-513,515,-462,-377,1,7,11
2.17E+02,-6603,4438,-196,-14,-200,-237,1,7,11
2.17E+02,-6581,4057,-173,119,-371,-214,1,7,11
2.17E+02,-6587,4200,-147,40,57,-563,1,7,11
2.17E+02,-6947,3826,-365,-301,261,-432,1,7,11
2.18E+02,-6969,3957,-324,-131,374,-438,1,7,11
2.18E+02,-6937,3869,-146,-173,233,-474,1,7,11
2.18E+02,-6988,3531,-210,-251,578,-463,1,7,11
2.18E+02,-6612,3293,-209,-498,624,-640,1,7,11
2.19E+02,-6613,3381,-250,-816,506,-628,1,7,11
2.19E+02,-6598,3031,-228,-634,703,-506,1,7,11
2.19E+02,-6656,3048,-201,-375,904,-848,1,7,11
2.19E+02,-6925,3426,-194,-87,1304,-713,1,7,11
2.20E+02,-7009,3445,-538,297,1286,-1073,1,7,11
2.20E+02,-6927,3420,-565,377,909,-753,1,7,11
2.20E+02,-6943,3357,-522,170,977,-1108,1,7,11
2.20E+02,-6808,3453,-542,411,1304,-1129,1,7,11
2.21E+02,-6856,3311,-627,804,999,-705,1,7,11
2.21E+02,-7026,3705,-769,642,955,-459,1,7,11
2.21E+02,-6998,3729,-742,1064,986,-538,1,7,11
2.21E+02,-7026,4212,-982,862,1381,51,1,7,11
2.22E+02,-7005,4203,-1306,194,1544,383,1,7,11
2.22E+02,-6982,4158,-1347,-14,1459,557,1,7,11
2.22E+02,-7005,3815,-1328,-126,1795,554,1,7,11
2.22E+02,-6952,3722,-1163,282,1526,221,1,7,11
2.23E+02,-6647,3930,-1246,194,1820,-43,1,7,11
2.23E+02,-6934,3921,-1607,416,1900,-323,1,7,11
2.23E+02,-6925,3957,-1505,809,1912,-221,1,7,11
2.23E+02,-6650,3928,-1863,816,1889,-615,1,7,11
2.24E+02,-6954,3919,-1909,829,1876,-491,1,7,11
2.24E+02,-7014,3912,-1721,800,1808,-836,1,7,11
2.24E+02,-6797,3929,-2063,790,1457,-896,1,7,11
2.24E+02,-6796,3725,-2158,505,1604,-641,1,7,11
2.25E+02,-6810,3717,-1983,442,1213,-718,1,7,11
2.25E+02,-6833,3714,-2045,234,1374,-700,1,7,11
2.25E+02,-6837,3858,-2013,281,1000,-717,1,7,11
2.25E+02,-6821,3558,-2021,-32,1142,-728,1,7,11
2.26E+02,-6835,3498,-2015,-109,1032,-1032,1,7,11
2.26E+02,-6838,3705,-1988,96,652,-1042,1,7,11
2.26E+02,-6905,3658,-1955,33,794,-1081,1,7,11
2.26E+02,-6860,3616,-1956,2,391,-720,1,7,11
2.27E+02,-6806,3289,-1957,-291,245,-664,1,7,11
2.27E+02,-7013,3215,-1971,-311,146,-645,1,7,11
2.27E+02,-7023,3451,-1964,-279,143,-674,1,7,11
2.27E+02,-6820,3434,-1939,-267,133,-672,1,7,11
2.28E+02,-6854,3376,-2147,-302,327,-892,1,7,11
2.28E+02,-6843,3053,-2121,-317,-4,-816,1,7,11
2.28E+02,-6997,3002,-2136,-284,-65,-479,1,7,11
2.28E+02,-6925,2979,-1924,1,-42,-477,1,7,11
2.29E+02,-6935,2971,-1923,0,289,-775,1,7,11
2.29E+02,-6960,3198,-1926,-286,330,-778,1,7,11
2.29E+02,-6938,3169,-1928,-294,352,-473,1,7,11
2.29E+02,-6629,3139,-1945,-337,364,-433,1,7,11
2.30E+02,-6593,3072,-1926,-164,153,-450,1,7,11
2.30E+02,-6616,2732,-2159,-237,197,-499,1,7,11
2.30E+02,-6649,2903,-2138,-522,220,-793,1,7,11
2.30E+02,-6969,2862,-2164,-240,239,-781,1,7,11
2.31E+02,-7001,2549,-1938,-541,242,-441,1,7,11
2.31E+02,-7012,2521,-1965,-584,531,-568,1,7,11
2.31E+02,-6985,2510,-1992,-394,570,-175,1,7,11
2.31E+02,-7019,2520,-1981,-435,637,-342,1,7,11
2.32E+02,-6806,2828,-1974,-410,411,31,1,7,11
2.32E+02,-7169,2908,-1968,-617,411,-100,1,7,11
2.32E+02,-7197,2752,-1984,-553,576,353,1,7,11
2.32E+02,-7180,3102,-2008,-239,202,234,1,7,11
2.33E+02,-6804,3004,-2306,-159,347,570,1,7,11
2.33E+02,-6792,3387,-2392,-160,331,246,1,7,11
2.33E+02,-6866,3360,-2380,-211,278,196,1,7,11
2.33E+02,-6885,3059,-2391,-327,-45,136,1,7,11
2.34E+02,-6908,3372,-2395,88,-73,331,1,7,11
2.34E+02,-6843,3212,-2404,-73,-112,316,1,7,11
2.34E+02,-7016,3447,-2364,-114,-123,258,1,7,11
2.34E+02,-7025,3401,-2028,73,-91,125,1,7,11
2.35E+02,-6799,3059,-1931,4,-85,-37,1,7,11
2.35E+02,-6841,3017,-2145,16,-101,-343,1,7,11
2.35E+02,-7038,3028,-2169,88,94,-272,1,7,11
2.35E+02,-6961,3057,-1973,-123,93,16,1,7,11
2.36E+02,-6940,3040,-1981,96,-107,-263,1,7,11
2.36E+02,-6649,2969,-1955,-290,263,-273,1,7,11
2.36E+02,-6647,3140,-1928,-283,371,-317,1,7,11
2.36E+02,-6931,3107,-1930,56,223,-319,1,7,11
2.37E+02,-6919,3076,-1959,119,570,21,1,7,11
2.37E+02,-6603,2783,-1992,-88,396,104,1,7,11
2.37E+02,-6596,2720,-2003,-33,501,-98,1,7,11
2.37E+02,-6562,2933,-2016,316,847,-29,1,7,11
2.38E+02,-6758,2905,-2024,178,679,298,1,7,11
2.38E+02,-6708,2924,-2045,571,1060,137,1,7,11
2.38E+02,-6365,2706,-2378,400,934,578,1,7,11
2.38E+02,-6328,2758,-2189,625,1369,434,1,7,11
2.39E+02,-6337,2794,-2233,196,1249,800,1,7,11
2.39E+02,-6358,2793,-2251,-93,1557,863,1,7,11
2.39E+02,-6314,3088,-2572,-326,1275,821,1,7,11
2.39E+02,-6707,2996,-2653,-189,1548,551,1,7,11
2.40E+02,-6582,3292,-2544,-253,1188,374,1,7,11
2.40E+02,-6965,3644,-2861,-881,946,275,1,7,11
2.40E+02,-6976,3622,-2896,-1151,872,-49,1,7,11
2.40E+02,-6975,3625,-2933,-1193,568,-90,1,7,11
2.41E+02,-6974,3599,-2885,-1511,304,-79,1,7,11
2.41E+02,-7008,3643,-2901,-1913,80,-18,1,7,11
2.41E+02,-7036,3464,-2871,-1768,-223,293,1,7,11
2.41E+02,-6828,3578,-2894,-2147,-496,177,1,7,11
2.42E+02,-7021,3865,-2913,-2339,-1038,561,1,7,11
2.42E+02,-7020,3897,-2889,-2183,-909,558,1,7,11
2.42E+02,-6803,3939,-2818,-2214,-1284,552,1,7,11
2.42E+02,-6995,3713,-2463,-2369,-1205,528,1,7,11
2.43E+02,-6622,3800,-2597,-2012,-1587,173,1,7,11
2.43E+02,-6589,4167,-2237,-1933,-1656,-127,1,7,11
2.43E+02,-6998,4159,-2377,-2110,-1533,-519,1,7,11
2.43E+02,-6930,4104,-1978,-2053,-1699,-533,1,7,11
2.44E+02,-6956,3791,-2119,-2052,-1756,-624,1,7,11
2.44E+02,-6602,3912,-1744,-2110,-2112,-570,1,7,11
2.44E+02,-6531,3528,-1866,-2102,-2064,-437,1,7,11
2.44E+02,-6544,3700,-1485,-2057,-1708,-826,1,7,11
2.45E+02,-6764,3295,-1602,-2052,-1852,-848,1,7,11
2.45E+02,-6734,3348,-1169,-1718,-1412,-837,1,7,11
2.45E+02,-6725,3160,-1001,-1824,-1183,-770,1,7,11
2.45E+02,-6745,2738,-1071,-1662,-948,-638,1,7,11
2.46E+02,-6686,2934,-725,-1174,-1063,-378,1,7,11
2.46E+02,-6311,2940,-685,-957,-658,94,1,7,11
2.46E+02,-6304,3123,-731,-659,-414,-11,1,7,11
2.46E+02,-6723,3060,-1040,-485,-162,153,1,7,11
2.47E+02,-6535,3240,-1126,-583,2,449,1,7,11
2.47E+02,-6550,3621,-930,-185,-90,822,1,7,11
2.47E+02,-6651,3567,-978,38,360,458,1,7,11
2.47E+02,-6841,3793,-1313,-43,253,547,1,7,11
2.48E+02,-7260,3970,-1386,320,522,225,1,7,11
2.48E+02,-7283,4061,-1189,377,184,236,1,7,11
2.48E+02,-7284,4080,-1215,182,339,217,1,7,11
2.48E+02,-7231,4066,-1222,181,-9,224,1,7,11
2.49E+02,-6888,4219,-1180,149,-67,171,1,7,11
2.49E+02,-6848,4137,-1404,182,-89,366,1,7,11
2.49E+02,-6791,3782,-1361,206,-119,348,1,7,11
2.49E+02,-7001,3916,-1318,238,-127,327,1,7,11
2.50E+02,-6973,3539,-1010,578,118,320,1,7,11
2.50E+02,-6916,3466,-990,454,110,361,1,7,11
2.50E+02,-6570,3655,-996,815,100,173,1,7,11
2.50E+02,-6690,3623,-1312,663,126,200,1,7,11
2.51E+02,-6675,3690,-1375,761,-32,335,1,7,11
2.51E+02,-6718,3495,-1176,1081,309,-22,1,7,11
2.51E+02,-6553,3509,-1214,1091,373,-97,1,7,11
2.51E+02,-6601,3520,-1253,1092,193,-82,1,7,11
2.52E+02,-6591,3534,-1565,1138,215,21,1,7,11
2.52E+02,-6532,3524,-1624,930,515,353,1,7,11
2.52E+02,-6556,3538,-1438,955,633,302,1,7,11
2.52E+02,-6644,3556,-1502,1003,430,-21,1,7,11
2.53E+02,-6980,3552,-1795,1280,422,-48,1,7,11
2.53E+02,-6987,3514,-1834,1311,639,-31,1,7,11
2.53E+02,-6941,3478,-1861,1321,606,286,1,7,11
2.53E+02,-6580,3710,-1862,1333,607,375,1,7,11
2.54E+02,-6776,3701,-1859,1329,395,164,1,7,11
2.54E+02,-6536,3666,-1864,1322,432,180,1,7,11
2.54E+02,-6576,3643,-1880,1357,446,210,1,7,11
2.54E+02,-6619,3641,-1916,1403,445,522,1,7,11
2.55E+02,-6610,3608,-1686,1162,426,384,1,7,11
2.55E+02,-6534,3586,-1690,1185,437,770,1,7,11
2.55E+02,-6752,3599,-1696,1215,495,872,1,7,11
2.55E+02,-6698,3325,-1678,1203,792,1031,1,7,11
2.56E+02,-6660,3320,-1666,1240,857,923,1,7,11
2.56E+02,-6679,3311,-1673,1268,665,1343,1,7,11
2.56E+02,-6687,3270,-1679,1235,700,1566,1,7,11
2.56E+02,-6353,3403,-1901,1372,727,1821,1,7,11
2.57E+02,-6517,3046,-1876,980,1051,2094,1,7,11
2.57E+02,-6199,3085,-1857,1084,732,2202,1,7,11
2.57E+02,-5532,3118,-1694,1405,940,2250,1,7,11
2.57E+02,-5583,3280,-1978,1879,1654,2166,1,7,11
2.58E+02,-5821,3914,-2196,1863,1687,1766,1,7,11
2.58E+02,-5865,3834,-2592,1622,1747,2151,1,7,11
2.58E+02,-5957,4079,-2827,1577,1762,2310,1,7,11
2.58E+02,-5956,4310,-2758,1261,2074,2077,1,7,11
2.59E+02,-6257,4495,-3200,1232,2093,1496,1,7,11
2.59E+02,-6131,4581,-3060,1308,1837,1544,1,7,11
2.59E+02,-6143,4879,-3403,937,1264,1325,1,7,11
2.59E+02,-6264,4955,-3269,1120,939,904,1,7,11
2.60E+02,-5858,4809,-3640,1054,702,780,1,7,11
2.60E+02,-6166,4850,-3670,665,833,152,1,7,11
2.60E+02,-6177,4784,-3592,569,606,-59,1,7,11
2.60E+02,-5836,4823,-3280,304,373,97,1,7,11
2.61E+02,-5995,4644,-3453,99,-47,-264,1,7,11
2.61E+02,-5906,4447,-3335,-333,124,-348,1,7,11
2.61E+02,-5564,4010,-2982,-151,75,-372,1,7,11
2.61E+02,-5528,4126,-3154,-381,75,-157,1,7,11
2.62E+02,-5529,3770,-3100,-268,-102,-165,1,7,11
2.62E+02,-5508,3961,-2806,-53,-51,-344,1,7,11
2.62E+02,-5660,3887,-2791,322,-27,39,1,7,11
2.62E+02,-5314,3852,-3074,230,321,58,1,7,11
2.63E+02,-5668,3898,-3131,402,230,-293,1,7,11
2.63E+02,-5732,3960,-3200,496,550,-262,1,7,11
2.63E+02,-5730,3729,-3014,790,577,58,1,7,11
2.63E+02,-5712,3771,-3364,841,638,116,1,7,11
2.64E+02,-5712,3833,-3213,852,466,-102,1,7,11
2.64E+02,-5751,4136,-3290,815,813,-101,1,7,11
2.64E+02,-5627,4197,-3599,506,872,115,1,7,11
2.64E+02,-5982,3970,-3609,410,817,-120,1,7,11
2.65E+02,-5772,4206,-3610,585,451,-85,1,7,11
2.65E+02,-5781,4189,-3620,540,583,-53,1,7,11
2.65E+02,-6001,4164,-3632,230,209,-31,1,7,11
2.65E+02,-6001,4162,-3631,230,134,-56,1,7,11
2.66E+02,-5999,4190,-3642,228,315,-53,1,7,11
2.66E+02,-5978,4202,-3629,160,-24,-8,1,7,11
2.66E+02,-5911,4159,-3607,296,-116,298,1,7,11
2.66E+02,-5890,3822,-3301,-53,93,274,1,7,11
2.67E+02,-5598,3795,-3265,-50,57,-19,1,7,11
2.67E+02,-5587,3786,-3222,-32,43,-73,1,7,11
2.67E+02,-5571,3787,-3231,284,29,-70,1,7,11
2.67E+02,-5525,3757,-3232,303,21,-56,1,7,11
2.68E+02,-5742,3733,-3233,305,50,-92,1,7,11
2.68E+02,-5705,3962,-3221,278,90,122,1,7,11
2.68E+02,-5694,3926,-3212,-26,-116,49,1,7,11
2.68E+02,-5679,3897,-3213,-68,-46,16,1,7,11
2.69E+02,-5677,3893,-3236,-123,265,-287,1,7,11
2.69E+02,-5681,3918,-3282,64,304,-314,1,7,11
2.69E+02,-5344,3892,-3321,-324,305,-270,1,7,11
2.69E+02,-5259,3574,-3589,-196,357,-293,1,7,11
2.70E+02,-5458,3532,-3637,-528,168,-357,1,7,11
2.70E+02,-5457,3530,-3704,-523,518,-193,1,7,11
2.70E+02,-5331,3517,-3706,-250,384,-525,1,7,11
2.70E+02,-5722,3483,-3692,-234,437,-215,1,7,11
2.71E+02,-5516,3634,-3641,-254,634,-306,1,7,11
2.71E+02,-5706,3295,-3620,-215,528,46,1,7,11
2.71E+02,-5682,3301,-3628,-375,213,-274,1,7,11
2.71E+02,-5682,3659,-3666,10,168,-327,1,7,11
2.72E+02,-5726,3478,-3674,2,370,-327,1,7,11
2.72E+02,-5760,3494,-3637,-351,285,40,1,7,11
2.72E+02,-5739,3469,-3593,-160,-68,-82,1,7,11
2.72E+02,-5732,3540,-3312,-370,-109,-12,1,7,11
2.73E+02,-5517,3768,-3612,-269,-99,335,1,7,11
2.73E+02,-5566,3991,-3657,-343,124,248,1,7,11
2.73E+02,-5568,4076,-3629,-617,57,433,1,7,11
2.73E+02,-5563,4221,-3275,-658,40,503,1,7,11
2.74E+02,-5588,4157,-3410,-889,100,461,1,7,11
2.74E+02,-5616,4078,-3428,-455,-95,636,1,7,11
2.74E+02,-5944,4404,-3422,-461,-78,587,1,7,11
2.74E+02,-5892,4418,-3427,-396,-87,578,1,7,11
2.75E+02,-5739,4338,-3301,-158,290,211,1,7,11
2.75E+02,-5691,4670,-3623,-190,383,376,1,7,11
2.75E+02,-5358,4696,-3672,-541,222,343,1,7,11
2.75E+02,-5331,4668,-3709,-385,560,275,1,7,11
2.76E+02,-5291,4278,-3682,-396,606,-65,1,7,11
2.76E+02,-5317,4471,-3699,-238,423,39,1,7,11
2.76E+02,-5648,4382,-3680,-201,420,-316,1,7,11
2.76E+02,-5308,4065,-3686,-372,569,-272,1,7,11
2.77E+02,-5453,4014,-3463,-327,252,-282,1,7,11
2.77E+02,-5107,4178,-3473,-285,514,-346,1,7,11
2.77E+02,-5109,4156,-3497,43,630,-140,1,7,11
2.77E+02,-5103,4163,-3536,79,454,-130,1,7,11
2.78E+02,-5398,3835,-3530,-299,476,-336,1,7,11
2.78E+02,-5103,3740,-3515,-300,495,-266,1,7,11
2.78E+02,-5459,3754,-3543,25,827,-326,1,7,11
2.78E+02,-5327,3759,-3566,54,808,-295,1,7,11
2.79E+02,-5349,3775,-3858,79,465,47,1,7,11
2.79E+02,-5304,3805,-3879,-258,224,-89,1,7,11
2.79E+02,-5286,3797,-3583,-321,176,-120,1,7,11
2.79E+02,-5298,3837,-3540,-324,148,-90,1,7,11
2.80E+02,-5292,4120,-3527,-328,362,-36,1,7,11
2.80E+02,-5488,4117,-3525,-365,260,312,1,7,11
2.80E+02,-5453,4111,-3508,-136,-3,315,1,7,11
2.80E+02,-5469,4144,-3505,-331,284,306,1,7,11
2.81E+02,-5473,4178,-3484,-355,270,131,1,7,11
2.81E+02,-5403,4180,-3486,-362,259,199,1,7,11
2.81E+02,-5378,4211,-3477,-336,307,137,1,7,11
2.81E+02,-5444,4006,-3509,21,369,260,1,7,11
2.82E+02,-5503,4053,-3538,31,145,-31,1,7,11
2.82E+02,-5266,4049,-3524,18,140,-2,1,7,11
2.82E+02,-5478,4046,-3526,23,376,315,1,7,11
2.82E+02,-5410,4020,-3541,30,382,316,1,7,11
2.83E+02,-5392,4038,-3584,81,188,-42,1,7,11
2.83E+02,-5452,4088,-3888,116,523,82,1,7,11
2.83E+02,-5252,4390,-3921,94,547,41,1,7,11
2.83E+02,-5254,4393,-3932,-258,253,78,1,7,11
2.84E+02,-5424,4095,-3925,-359,194,-118,1,7,11
2.84E+02,-5383,4035,-3900,-155,181,80,1,7,11
2.84E+02,-5406,4021,-3913,-381,172,17,1,7,11
2.84E+02,-5429,4008,-3908,-346,383,3,1,7,11
2.85E+02,-5422,4008,-3897,-292,321,49,1,7,11
2.85E+02,-5380,3997,-3896,2,-1,-120,1,7,11
2.85E+02,-5039,4223,-3877,15,-51,-45,1,7,11
2.85E+02,-4994,4219,-3872,64,-46,-74,1,7,11
2.86E+02,-5011,4023,-3880,-110,-10,-125,1,7,11
2.86E+02,-5023,4094,-3897,-83,-7,-117,1,7,11
2.86E+02,-5247,4391,-3912,-110,-29,-45,1,7,11
2.86E+02,-5172,4379,-3914,74,-78,-9,1,7,11
2.87E+02,-4863,4381,-3936,16,-82,-31,1,7,11
2.87E+02,-5152,4378,-3937,-342,-26,113,1,7,11
2.87E+02,-4994,4369,-3916,-173,268,34,1,7,11
2.87E+02,-5048,4368,-3903,-212,258,47,1,7,11
2.88E+02,-5067,4085,-3889,-254,-26,99,1,7,11
2.88E+02,-5030,4038,-3871,-551,-54,-107,1,7,11
2.88E+02,-5015,4017,-3861,-552,-67,-120,1,7,11
2.88E+02,-5068,4044,-3861,-240,-27,10,1,7,11
2.89E+02,-5095,4078,-3862,-165,-24,1,1,7,11
2.89E+02,-5077,4070,-3856,-156,-42,56,1,7,11
2.89E+02,-5041,4032,-3844,-157,-43,96,1,7,11
2.89E+02,-5023,3970,-3861,-155,-35,89,1,7,11
2.90E+02,-5022,3968,-3907,-342,-1,26,1,7,11
2.90E+02,-5078,3979,-3929,-274,305,-303,1,7,11
2.90E+02,-5118,3982,-3935,30,328,-260,1,7,11
2.90E+02,-5072,4204,-3934,45,301,39,1,7,11
2.91E+02,-5017,4161,-3936,86,299,9,1,7,11
2.91E+02,-5016,4170,-3953,-87,334,-330,1,7,11
2.91E+02,-5030,4211,-3722,-24,353,-132,1,7,11
2.91E+02,-5050,4219,-3727,-35,348,-144,1,7,11
2.92E+02,-5045,4199,-3733,-73,320,-360,1,7,11
2.92E+02,-5003,4151,-3739,-118,290,-332,1,7,11
2.92E+02,-5017,4131,-3742,-106,304,-374,1,7,11
2.92E+02,-5037,4143,-3766,-82,304,-131,1,7,11
2.93E+02,-5060,4150,-3769,-84,289,-374,1,7,11
2.93E+02,-5055,4145,-3777,-74,264,-325,1,7,11
2.93E+02,-5054,4140,-3775,-74,-14,-281,1,7,11
2.93E+02,-5020,4122,-3783,-83,-47,22,1,7,11
2.94E+02,-5001,4123,-3785,-61,-53,30,1,7,11
2.94E+02,-5003,4165,-3795,-12,-45,34,1,7,11
2.94E+02,-5003,4173,-3791,-45,-58,65,1,7,11
2.94E+02,-4995,4146,-3767,-47,-73,84,1,7,11
2.95E+02,-5009,4167,-3791,267,-65,68,1,7,11
2.95E+02,-5044,4188,-3812,-18,-49,80,1,7,11
2.95E+02,-5071,4205,-3813,-51,-50,95,1,7,11
2.95E+02,-5071,3974,-3814,-80,-59,122,1,7,11
2.96E+02,-5067,3985,-3809,-118,-75,-120,1,7,11
2.96E+02,-5049,3974,-3790,86,-94,-121,1,7,11
2.96E+02,-5040,3976,-3779,58,-97,113,1,7,11
2.96E+02,-5037,3970,-3773,23,-108,95,1,7,11
2.97E+02,-5031,4216,-3764,-263,-124,67,1,7,11
2.97E+02,-5044,3984,-3767,-259,-125,32,1,7,11
2.97E+02,-5017,3995,-3780,-279,114,54,1,7,11
2.97E+02,-5225,3989,-3797,-315,105,65,1,7,11
2.98E+02,-5218,3982,-3793,-136,-125,44,1,7,11
2.98E+02,-5220,4220,-3788,-173,-114,10,1,7,11
2.98E+02,-5225,4211,-3784,-171,-112,-270,1,7,11
2.98E+02,-5228,3980,-3787,-150,-111,-278,1,7,11
2.99E+02,-5233,3988,-3778,-182,126,-270,1,7,11
2.99E+02,-5011,4006,-3774,-227,101,0,1,7,11
2.99E+02,-5028,4038,-3783,-539,48,23,1,7,11
2.99E+02,-5058,4046,-3783,-607,-257,16,1,7,11
3.00E+02,-5079,4059,-3754,-395,-301,27,1,7,11
3.00E+02,-5086,4082,-3751,-431,-329,33,1,7,11
3.00E+02,-5389,4361,-3767,-467,-335,4,1,7,11
3.00E+02,-5428,4412,-3794,-462,-334,0,1,7,11
3.01E+02,-5475,4468,-3803,-479,-330,-273,1,7,11
3.01E+02,-5253,4463,-3774,-794,-354,-261,1,7,11
3.01E+02,-5504,4453,-3772,-804,-144,-264,1,7,11
3.01E+02,-5484,4469,-3796,-791,-185,-318,1,7,11
3.02E+02,-5287,4471,-3776,-795,-171,-211,1,7,11
3.02E+02,-5346,4263,-3752,-506,-180,-543,1,7,11
3.02E+02,-5649,4296,-3967,-804,-212,-618,1,7,11
3.02E+02,-5371,4301,-3937,-849,-556,-625,1,7,11
3.03E+02,-5304,4262,-3894,-691,-635,-446,1,7,11
3.03E+02,-5494,4418,-3525,-731,-425,-830,1,7,11
3.03E+02,-5446,4069,-3499,-646,-404,-757,1,7,11
3.03E+02,-5444,4010,-3461,-482,-600,-960,1,7,11
3.04E+02,-5430,3996,-3487,-579,-519,-1401,1,7,11
3.04E+02,-5447,4119,-3525,-174,-132,-1617,1,7,11
3.04E+02,-5277,4428,-3530,-185,-288,-1829,1,7,11
3.04E+02,-5638,4358,-3470,-402,-313,-1669,1,7,11
3.05E+02,-5354,4078,-3464,-507,-150,-1701,1,7,11
3.05E+02,-5660,4063,-3472,-846,-175,-1776,1,7,11
3.05E+02,-5751,4043,-3478,-728,-177,-2102,1,7,11
3.05E+02,-5608,3985,-3701,-1115,-215,-1933,1,7,11
3.06E+02,-5931,4178,-3687,-942,-592,-1949,1,7,11
3.06E+02,-5979,3779,-3618,-1312,-473,-1965,1,7,11
3.06E+02,-5777,3776,-3654,-986,-820,-1961,1,7,11
3.06E+02,-5844,3962,-3655,-1328,-725,-1959,1,7,11
3.07E+02,-5806,3715,-3709,-993,-1130,-1972,1,7,11
3.07E+02,-6231,4108,-3465,-912,-989,-2204,1,7,11
3.07E+02,-6430,4178,-3668,-1309,-1275,-2252,1,7,11
3.07E+02,-6049,3992,-3694,-1215,-1671,-2409,1,7,11
3.08E+02,-6184,4292,-3576,-1499,-2103,-2442,1,7,11
3.08E+02,-6059,4713,-3559,-2292,-1986,-3145,1,7,11
3.08E+02,-6088,4485,-3699,-3234,-2423,-3266,1,7,11
3.08E+02,-6512,4492,-3316,-4473,-2584,-3964,1,7,11
3.09E+02,-6337,4490,-3223,-5354,-2934,-4053,1,7,11
3.09E+02,-6388,4310,-3027,-6923,-3335,-4669,1,7,11
3.09E+02,-6731,4076,-2788,-7895,-3483,-4965,1,7,11
3.09E+02,-6770,3804,-2559,-8950,-4101,-4763,1,7,11
3.10E+02,-6704,3516,-2597,-10062,-4081,-4601,1,7,11
3.10E+02,-6316,3450,-2319,-10778,-4387,-4678,1,7,11
3.10E+02,-6350,3077,-1709,-11335,-4194,-4649,1,7,11
3.10E+02,-6740,2649,-1432,-11637,-3912,-4231,1,7,11
3.11E+02,-6591,2012,-1066,-11594,-3606,-4131,1,7,11
3.11E+02,-6951,1616,-480,-11311,-3053,-3631,1,7,11
3.11E+02,-6956,1011,-143,-10840,-2752,-2756,1,7,11
3.11E+02,-6654,739,-50,-10286,-2439,-2360,1,7,11
3.12E+02,-6961,658,539,-9489,-2026,-1598,1,7,11
3.12E+02,-6895,694,806,-8508,-1852,-738,1,7,11
3.12E+02,-6910,1034,1034,-7549,-1385,-289,1,7,11
3.12E+02,-6975,918,1003,-5779,-969,175,1,7,11
3.13E+02,-6957,1418,1309,-4536,-882,168,1,7,11
3.13E+02,-6820,2015,1015,-3566,-256,-66,1,7,11
3.13E+02,-7139,2623,1344,-3002,56,-189,1,7,11
3.13E+02,-7389,2504,1212,-2636,-16,-815,1,7,11
3.14E+02,-7570,2733,1216,-1500,190,-1008,1,7,11
3.14E+02,-7990,3028,1355,-703,636,-1621,1,7,11
3.14E+02,-8037,3454,956,-212,773,-1830,1,7,11
3.14E+02,-8062,3413,1124,44,640,-1686,1,7,11
3.15E+02,-8046,3005,1090,-40,744,-1710,1,7,11
3.15E+02,-8043,3083,1053,364,1080,-1707,1,7,11
3.15E+02,-8022,2896,731,196,1108,-1906,1,7,11
3.15E+02,-7971,2470,671,516,1109,-1842,1,7,11
3.16E+02,-7679,2607,851,532,1087,-1502,1,7,11
3.16E+02,-7639,2231,823,199,1046,-1581,1,7,11
3.16E+02,-7553,2319,838,350,723,-1364,1,7,11
3.16E+02,-7753,1953,811,357,697,-942,1,7,11
3.17E+02,-7721,2157,777,129,681,-1055,1,7,11
3.17E+02,-7719,2107,476,181,687,-690,1,7,11
3.17E+02,-7764,2116,457,233,713,-855,1,7,11
3.17E+02,-7553,2121,452,519,689,-441,1,7,11
3.18E+02,-7597,1776,476,551,879,-570,1,7,11
3.18E+02,-7636,1707,430,478,817,-211,1,7,11
3.18E+02,-7649,2117,582,1036,827,-313,1,7,11
3.18E+02,-7974,2020,222,987,853,123,1,7,11
3.19E+02,-7939,2047,233,1089,827,154,1,7,11
3.19E+02,-7579,1982,512,728,833,581,1,7,11
3.19E+02,-7773,1999,228,1045,651,563,1,7,11
3.19E+02,-7567,2362,370,1097,1028,194,1,7,11
3.20E+02,-7937,2012,161,699,1074,197,1,7,11
3.20E+02,-7657,2004,179,1026,1131,553,1,7,11
3.20E+02,-7627,2355,136,1065,906,578,1,7,11
3.20E+02,-7798,2232,348,765,947,239,1,7,11
3.21E+02,-7607,2626,277,884,1015,259,1,7,11
3.21E+02,-7954,2679,271,634,984,-92,1,7,11
3.21E+02,-7987,2650,300,152,901,-52,1,7,11
3.21E+02,-7645,2685,272,322,1071,316,1,7,11
3.22E+02,-7662,2451,-49,108,1039,292,1,7,11
3.22E+02,-7650,2626,-60,-376,687,308,1,7,11
3.22E+02,-7646,2617,-126,-216,648,-60,1,7,11
3.22E+02,-8056,2247,-112,-632,855,104,1,7,11
3.23E+02,-7852,2182,-63,-482,770,-113,1,7,11
3.23E+02,-7965,2350,-116,-634,570,322,1,7,11
3.23E+02,-7557,2192,10,-159,136,159,1,7,11
3.23E+02,-7563,2260,-338,-282,350,-17,1,7,11
3.24E+02,-7599,2236,-356,-304,334,-66,1,7,11
3.24E+02,-7664,2205,-341,-309,321,-112,1,7,11
3.24E+02,-8017,2233,-350,6,260,-73,1,7,11
3.24E+02,-7956,2246,-134,32,125,300,1,7,11
3.25E+02,-7656,2236,-152,55,67,326,1,7,11
3.25E+02,-7619,2223,-166,104,42,341,1,7,11
3.25E+02,-7598,2182,-149,-105,28,338,1,7,11
3.25E+02,-7794,2181,-150,273,23,132,1,7,11
3.26E+02,-7739,2185,-146,341,19,165,1,7,11
3.26E+02,-7716,2420,-135,160,29,184,1,7,11
3.26E+02,-7713,2423,-153,546,37,224,1,7,11
3.26E+02,-7711,2251,-204,453,56,558,1,7,11
3.27E+02,-7757,2570,-216,441,76,626,1,7,11
3.27E+02,-7606,2293,-171,609,53,489,1,7,11
3.27E+02,-7948,2239,-371,590,-307,645,1,7,11
3.27E+02,-7994,2184,-324,396,-206,1120,1,7,11
3.28E+02,-8061,2337,-305,446,-632,1365,1,7,11
3.28E+02,-8216,1790,57,448,-845,1436,1,7,11
3.28E+02,-8158,1402,268,806,-934,2007,1,7,11
3.28E+02,-8483,594,245,1219,-1622,2946,1,7,11
3.29E+02,-7933,111,242,2780,-2053,4313,1,7,11
3.29E+02,-7084,304,-27,5136,-2332,6218,1,7,11
3.29E+02,-6166,1042,-186,6930,-1978,7481,1,7,11
3.29E+02,-5369,1905,-488,7625,-1216,7711,1,7,11
3.30E+02,-5705,2595,-655,7909,-406,7345,1,7,11
3.30E+02,-5922,3172,-1041,8312,-30,7537,1,7,11
3.30E+02,-5992,3962,-1014,8505,629,7496,1,7,11
3.30E+02,-5989,4651,-1171,7935,862,6891,1,7,11
3.31E+02,-5826,5219,-1567,7745,1063,6484,1,7,11
3.31E+02,-6244,5735,-1496,7294,927,5749,1,7,11
3.31E+02,-6131,5779,-1898,6701,905,5148,1,7,11
3.31E+02,-6105,5849,-1827,5841,1033,4482,1,7,11
3.32E+02,-6190,5784,-1967,5353,895,4200,1,7,11
3.32E+02,-6174,5813,-2383,5035,881,3223,1,7,11
3.32E+02,-5819,5806,-2258,4696,842,2300,1,7,11
3.32E+02,-5816,5780,-2589,3978,861,1701,1,7,11
3.33E+02,-5854,5942,-2605,3468,828,1223,1,7,11
3.33E+02,-5886,5537,-2602,2959,486,1084,1,7,11
3.33E+02,-5859,5634,-2572,2524,594,776,1,7,11
3.33E+02,-5807,5487,-2299,2401,169,225,1,7,11
3.34E+02,-5788,5090,-2292,2075,298,-17,1,7,11
3.34E+02,-5967,5165,-2254,1454,-98,125,1,7,11
3.34E+02,-5619,4950,-2230,1238,95,-289,1,7,11
3.34E+02,-5915,4887,-2243,1203,108,-250,1,7,11
3.35E+02,-5932,4868,-2278,1168,60,-615,1,7,11
3.35E+02,-5908,4573,-2561,1006,42,-392,1,7,11
3.35E+02,-5612,4494,-2300,1046,59,-422,1,7,11
3.35E+02,-5602,4668,-2574,841,122,-497,1,7,11
3.36E+02,-5889,4609,-2589,432,-66,-859,1,7,11
3.36E+02,-5941,4340,-2602,554,-13,-678,1,7,11
3.36E+02,-5798,4347,-2621,134,291,-741,1,7,11
3.36E+02,-5840,4327,-2649,-96,274,-878,1,7,11
3.37E+02,-5876,4254,-2642,-329,-12,-807,1,7,11
3.37E+02,-6182,4422,-2673,-190,-63,-484,1,7,11
3.37E+02,-6159,4357,-2442,-513,-121,-449,1,7,11
3.37E+02,-6245,4065,-2439,-530,-102,-476,1,7,11
3.38E+02,-6042,4037,-2664,-247,123,-419,1,7,11
3.38E+02,-6026,4014,-2644,-181,64,-597,1,7,11
3.38E+02,-6064,4023,-2618,-366,2,-528,1,7,11
3.38E+02,-6020,4019,-2649,-263,-359,-196,1,7,11
3.39E+02,-6238,4043,-2652,17,-150,-169,1,7,11
3.39E+02,-6234,4053,-2654,20,-167,-169,1,7,11
3.39E+02,-6215,4069,-2626,9,-177,-172,1,7,11
3.39E+02,-6250,4070,-2600,-274,-157,-181,1,7,11
3.40E+02,-6241,4018,-2576,-328,-169,-373,1,7,11
3.40E+02,-6173,4213,-2304,-371,-180,-312,1,7,11
3.40E+02,-5887,4184,-2296,-335,-156,-322,1,7,11
3.40E+02,-5883,4200,-2570,33,-326,-148,1,7,11
3.41E+02,-6162,4223,-2570,67,7,-194,1,7,11
3.41E+02,-6151,4192,-2566,38,43,-163,1,7,11
3.41E+02,-5841,4118,-2297,37,89,-373,1,7,11
3.41E+02,-5834,3823,-2570,-128,-82,-175,1,7,11
3.42E+02,-5841,3826,-2593,-31,-4,-239,1,7,11
3.42E+02,-6175,4133,-2623,316,345,-577,1,7,11
3.42E+02,-6256,4175,-2638,323,134,-543,1,7,11
3.42E+02,-6256,4136,-2642,-13,383,-162,1,7,11
3.43E+02,-6213,3819,-2663,-46,131,-338,1,7,11
3.43E+02,-6250,3802,-2681,-34,168,-330,1,7,11
3.43E+02,-6026,3821,-2447,-34,181,-264,1,7,11
3.43E+02,-6038,3830,-2453,-61,181,79,1,7,11
3.44E+02,-6064,3828,-2451,-109,165,-108,1,7,11
3.44E+02,-6089,3811,-2433,106,375,-51,1,7,11
3.44E+02,-6069,4096,-2443,123,304,-21,1,7,11
3.44E+02,-6056,4136,-2458,-102,-22,-29,1,7,11
3.45E+02,-6050,4214,-2484,-38,-67,-49,1,7,11
3.45E+02,-6031,4042,-2523,-11,-98,-51,1,7,11
3.45E+02,-6062,4087,-2540,-56,-126,-81,1,7,11
3.45E+02,-6269,4083,-2520,-114,30,-36,1,7,11
3.46E+02,-5879,4035,-2491,90,-297,-23,1,7,11
3.46E+02,-5796,3984,-2452,124,-278,-99,1,7,11
3.46E+02,-6001,3982,-2467,-45,42,85,1,7,11
3.46E+02,-5769,4217,-2450,302,127,4,1,7,11
3.47E+02,-5870,4218,-2663,367,-53,-274,1,7,11
3.47E+02,-5877,4131,-2661,375,-54,90,1,7,11
3.47E+02,-5847,4113,-2668,170,-25,117,1,7,11
3.47E+02,-6237,4115,-2452,227,327,21,1,7,11
3.48E+02,-6088,4129,-2505,254,167,-323,1,7,11
3.48E+02,-6107,4125,-2822,234,178,-317,1,7,11
3.48E+02,-6101,3809,-2845,191,207,-365,1,7,11
3.48E+02,-6138,3828,-2860,227,550,-185,1,7,11
3.49E+02,-6497,4140,-2862,231,633,-225,1,7,11
3.49E+02,-6517,4156,-2883,361,585,-132,1,7,11
3.49E+02,-6460,3821,-2876,-91,223,-300,1,7,11
3.49E+02,-6102,3752,-2874,54,377,-283,1,7,11
3.50E+02,-6075,3960,-2869,5,309,-383,1,7,11
3.50E+02,-6083,3902,-2844,-268,-36,-190,1,7,11
3.50E+02,-6086,3896,-2847,24,-116,-242,1,7,11
3.50E+02,-6096,3873,-2838,-287,36,-200,1,7,11
3.51E+02,-6243,3542,-2547,-333,-312,-344,1,7,11
3.51E+02,-6166,3502,-2554,-312,-339,-343,1,7,11
3.51E+02,-5838,3532,-2824,-270,-321,-343,1,7,11
3.51E+02,-5836,3885,-2859,17,21,-132,1,7,11
3.52E+02,-5881,3961,-2883,-301,88,-349,1,7,11
3.52E+02,-5858,3741,-2886,-158,-104,50,1,7,11
3.52E+02,-6242,3715,-2871,-530,-33,-121,1,7,11
3.52E+02,-6146,3867,-2851,-562,122,372,1,7,11
3.53E+02,-5768,3531,-2848,-176,-113,357,1,7,11
3.53E+02,-5799,3879,-2909,117,-8,-54,1,7,11
3.53E+02,-5827,3759,-2704,262,324,127,1,7,11
3.53E+02,-6159,4107,-2714,-10,129,104,1,7,11
3.54E+02,-6196,4148,-2732,-94,382,-63,1,7,11
3.54E+02,-6201,3837,-2716,28,334,297,1,7,11
3.54E+02,-6187,3789,-2721,-260,310,333,1,7,11
3.54E+02,-6188,3789,-2745,19,264,311,1,7,11
3.55E+02,-6209,3811,-2750,49,264,274,1,7,11
3.55E+02,-6259,4124,-2747,65,-1,261,1,7,11
3.55E+02,-6023,4099,-2699,-302,-63,310,1,7,11
3.55E+02,-6029,3825,-2699,-332,-110,330,1,7,11
3.56E+02,-6054,3803,-2930,-360,71,330,1,7,11
3.56E+02,-6267,3759,-2891,-158,-265,359,1,7,11
3.56E+02,-6272,3735,-2854,-131,-313,302,1,7,11
3.56E+02,-6219,3722,-2837,-358,-372,329,1,7,11
3.57E+02,-6176,3964,-2823,-323,-160,305,1,7,11
3.57E+02,-6176,3736,-2834,59,-363,-2,1,7,11
3.57E+02,-6224,3802,-2839,74,-327,-43,1,7,11
3.57E+02,-6237,3819,-2824,29,-321,-25,1,7,11
3.58E+02,-6219,3804,-2542,-302,-328,259,1,7,11
3.58E+02,-6179,3783,-2515,-371,-320,276,1,7,11
3.58E+02,-6180,3760,-2479,-185,-296,-23,1,7,11
3.58E+02,-6193,3731,-2435,-205,-283,-45,1,7,11
3.59E+02,-6186,3756,-2686,-146,6,-14,1,7,11
3.59E+02,-6151,4110,-2473,-369,55,168,1,7,11
3.59E+02,-5859,4134,-2488,-136,74,230,1,7,11
3.59E+02,-5799,4171,-2495,-163,-104,531,1,7,11
3.60E+02,-5817,4193,-2501,-190,265,254,1,7,11
3.60E+02,-5816,3977,-2510,-141,363,523,1,7,11
3.60E+02,-5767,4028,-2558,-325,167,531,1,7,11
3.60E+02,-5993,4374,-2890,-268,514,217,1,7,11
3.61E+02,-5809,4448,-2934,-314,604,337,1,7,11
3.61E+02,-6155,4224,-2694,-142,601,-7,1,7,11
3.61E+02,-6190,4470,-2709,-213,514,-35,1,7,11
3.61E+02,-6167,4453,-2724,-530,181,-52,1,7,11
3.62E+02,-5878,4393,-2709,-553,128,-65,1,7,11
3.62E+02,-5841,4384,-2720,-229,371,-105,1,7,11
3.62E+02,-5843,4357,-2716,-188,352,92,1,7,11
3.62E+02,-5813,4070,-2698,-132,329,60,1,7,11
3.63E+02,-5822,4078,-2703,-339,322,0,1,7,11
3.63E+02,-5814,4048,-2691,-342,282,-259,1,7,11
3.63E+02,-5764,4009,-2928,-320,277,-258,1,7,11
3.63E+02,-5766,4014,-2933,-261,310,-292,1,7,11
3.64E+02,-5784,4024,-2936,-269,314,-316,1,7,11
3.64E+02,-5798,3984,-2901,-334,284,-326,1,7,11
3.64E+02,-5821,4221,-2900,-354,266,-347,1,7,11
3.64E+02,-5852,4178,-2907,-342,-27,-336,1,7,11
3.65E+02,-5764,4150,-2909,-303,-37,-284,1,7,11
3.65E+02,-5764,4151,-2929,50,263,-309,1,7,11
3.65E+02,-5768,4161,-2690,-93,325,-359,1,7,11
3.65E+02,-5998,4199,-2711,258,377,-171,1,7,11
3.66E+02,-5761,4213,-2743,325,221,-222,1,7,11
3.66E+02,-6005,4188,-2748,311,607,-237,1,7,11
3.66E+02,-5805,4166,-2759,240,438,-547,1,7,11
3.66E+02,-6167,4161,-2747,-94,433,-541,1,7,11
3.67E+02,-6161,3970,-2802,49,590,-223,1,7,11
3.67E+02,-6203,4168,-3084,-161,199,-166,1,7,11
3.67E+02,-5854,3808,-2782,-193,338,-325,1,7,11
3.67E+02,-5878,3837,-2796,-336,347,-154,1,7,11
3.68E+02,-6203,4096,-2778,-291,304,-168,1,7,11
3.68E+02,-6166,3838,-2775,50,-10,-351,1,7,11
3.68E+02,-5876,3817,-2772,76,-50,-355,1,7,11
3.68E+02,-5849,3801,-2766,126,-70,-353,1,7,11
3.69E+02,-5809,3804,-2755,-83,-82,-129,1,7,11
3.69E+02,-5816,3827,-2750,-14,-76,-189,1,7,11
3.69E+02,-5820,4150,-2775,266,-85,-175,1,7,11
3.69E+02,-5799,4131,-2769,-55,-90,-131,1,7,11
3.70E+02,-5794,4102,-2782,-63,-69,-356,1,7,11
3.70E+02,-5785,3806,-2789,-57,-38,-352,1,7,11
3.70E+02,-5771,3796,-2808,-26,263,-367,1,7,11
3.70E+02,-5806,3834,-3094,-11,322,-154,1,7,11
3.71E+02,-5817,4100,-3108,-81,323,-384,1,7,11
3.71E+02,-5800,3813,-3106,111,341,-334,1,7,11
3.71E+02,-5837,3784,-3091,90,374,-348,1,7,11
3.71E+02,-5871,3763,-2815,74,370,-341,1,7,11
3.72E+02,-5855,3806,-2801,22,354,-341,1,7,11
3.72E+02,-5813,4105,-3126,-381,358,-353,1,7,11
3.72E+02,-5763,3831,-3198,-193,150,-132,1,7,11
3.72E+02,-5955,3824,-2962,-298,542,-233,1,7,11
3.73E+02,-5777,3974,-3043,-16,494,-440,1,7,11
3.73E+02,-5862,4078,-3383,-11,798,-871,1,7,11
3.73E+02,-6198,4050,-3374,82,510,-751,1,7,11
3.73E+02,-6236,4028,-3380,-283,404,-1100,1,7,11
3.74E+02,-6261,4084,-3051,-220,532,-902,1,7,11
3.74E+02,-6061,3883,-2969,-588,172,-1120,1,7,11
3.74E+02,-6135,3511,-3171,-176,311,-1147,1,7,11
3.74E+02,-6125,3465,-3164,5,-123,-1050,1,7,11
3.75E+02,-6256,3664,-3183,-87,-355,-880,1,7,11
3.75E+02,-6182,3264,-3138,-119,-537,-479,1,7,11
3.75E+02,-6163,3367,-3091,-82,-598,-602,1,7,11
3.75E+02,-5841,3328,-2800,135,-628,-229,1,7,11
3.76E+02,-5855,3427,-3074,615,-563,-230,1,7,11
3.76E+02,-5853,3240,-3101,617,-247,-210,1,7,11
3.76E+02,-5826,3246,-3080,534,-169,-194,1,7,11
3.76E+02,-5848,3207,-2804,249,-313,-517,1,7,11
3.77E+02,-6147,3434,-2800,581,70,-550,1,7,11
3.77E+02,-6155,3213,-3081,470,-63,-543,1,7,11
3.77E+02,-5881,3611,-3177,794,325,-233,1,7,11
3.77E+02,-6168,3641,-2957,390,154,-191,1,7,11
3.78E+02,-6162,3659,-3178,548,221,-162,1,7,11
3.78E+02,-6252,3477,-2949,174,531,-218,1,7,11
3.78E+02,-6043,3690,-2959,-4,243,-138,1,7,11
3.78E+02,-6245,3635,-2986,-68,232,-269,1,7,11
3.79E+02,-6192,3325,-3035,-106,252,34,1,7,11
3.79E+02,-5871,3289,-3353,-86,564,41,1,7,11
3.79E+02,-5873,3296,-3377,-39,413,-290,1,7,11
3.79E+02,-6195,3311,-3422,-61,794,-133,1,7,11
3.80E+02,-6082,3218,-3356,61,809,-375,1,7,11
3.80E+02,-6062,3386,-3066,64,476,-270,1,7,11
3.80E+02,-6027,3385,-3366,124,425,45,1,7,11
3.80E+02,-6265,3399,-3415,-128,627,2,1,7,11
3.81E+02,-6022,3213,-3222,98,592,-347,1,7,11
3.81E+02,-6055,3258,-3274,3,545,-133,1,7,11
3.81E+02,-6074,3266,-3264,-365,240,-373,1,7,11
3.81E+02,-6097,3203,-3241,-213,173,-313,1,7,11
3.82E+02,-6088,3398,-3225,-537,335,32,1,7,11
3.82E+02,-6069,3454,-3275,-242,256,114,1,7,11
3.82E+02,-6078,3285,-3312,-216,-61,-99,1,7,11
3.82E+02,-6034,3263,-3298,-606,122,-12,1,7,11
3.83E+02,-6164,3232,-3233,-470,65,290,1,7,11
3.83E+02,-6225,3249,-3234,-819,83,-119,1,7,11
3.83E+02,-6255,3233,-3446,-854,-295,-74,1,7,11
3.83E+02,-6153,3243,-3409,-778,-371,-61,1,7,11
3.84E+02,-6188,3323,-3414,-434,-362,-107,1,7,11
3.84E+02,-5854,3309,-3374,-463,-141,-40,1,7,11
3.84E+02,-5815,3268,-3348,-460,-355,-31,1,7,11
3.84E+02,-5767,3215,-3339,-421,-318,-23,1,7,11
3.85E+02,-6004,3453,-3333,-561,26,-97,1,7,11
3.85E+02,-5807,3286,-3373,-364,121,-258,1,7,11
3.85E+02,-6155,3691,-3415,-272,-88,-360,1,7,11
3.85E+02,-6190,3511,-3443,-277,-86,-357,1,7,11
3.86E+02,-6215,3521,-3440,-360,-94,-339,1,7,11
3.86E+02,-6174,3848,-3222,-201,123,-365,1,7,11
3.86E+02,-6163,3758,-3390,-531,127,-244,1,7,11
3.86E+02,-6227,4145,-3479,-496,-85,-778,1,7,11
3.87E+02,-6421,4609,-3512,-909,-95,-1065,1,7,11
3.87E+02,-6098,4594,-3855,-1637,-264,-924,1,7,11
3.87E+02,-6458,4963,-3849,-2308,-155,-1463,1,7,11
3.87E+02,-6447,5181,-3578,-2719,-588,-2642,1,7,11
3.88E+02,-6317,5502,-3956,-3278,-738,-3318,1,7,11
3.88E+02,-6531,5688,-3901,-4454,-1358,-4248,1,7,11
3.88E+02,-7022,5686,-3500,-6753,-1853,-5142,1,7,11
3.88E+02,-6853,5049,-3448,-8317,-2225,-5410,1,7,11
3.89E+02,-6649,4553,-3095,-9489,-2771,-5410,1,7,11
3.89E+02,-6688,4069,-2506,-10113,-3066,-5482,1,7,11
3.89E+02,-6438,3567,-2401,-11023,-3416,-5675,1,7,11
3.89E+02,-6476,3435,-1792,-11163,-2977,-5992,1,7,11
3.90E+02,-6364,2751,-1483,-11460,-2791,-5774,1,7,11
3.90E+02,-6703,2258,-1164,-11864,-2869,-5505,1,7,11
3.90E+02,-6382,1923,-1117,-11445,-2584,-5046,1,7,11
3.90E+02,-6288,1716,-828,-11165,-2157,-4873,1,7,11
3.91E+02,-6279,1800,-525,-11082,-1432,-4280,1,7,11
3.91E+02,-6733,1625,-268,-10566,-920,-4068,1,7,11
3.91E+02,-6973,1244,-7,-9783,-452,-3713,1,7,11
3.91E+02,-6910,1385,236,-8614,-312,-3612,1,7,11
3.92E+02,-7250,1355,635,-7759,273,-3068,1,7,11
3.92E+02,-7256,1192,418,-6523,625,-2964,1,7,11
3.92E+02,-7160,1613,627,-5391,1078,-3337,1,7,11
3.92E+02,-7401,1477,560,-4420,1194,-3447,1,7,11
3.93E+02,-7803,1843,148,-3309,1431,-3437,1,7,11
3.93E+02,-7612,1907,-54,-2859,1876,-3367,1,7,11
3.93E+02,-7613,1704,60,-2399,1761,-3057,1,7,11
3.93E+02,-7626,1728,-313,-2084,1926,-3413,1,7,11
3.94E+02,-7822,1899,-154,-1889,2319,-3632,1,7,11
3.94E+02,-8309,1486,-229,-1636,2362,-3488,1,7,11
3.94E+02,-8463,1659,-574,-993,2321,-3465,1,7,11
3.94E+02,-8466,1652,-630,-849,1960,-3323,1,7,11
3.95E+02,-8505,1423,-440,-247,2129,-3244,1,7,11
3.95E+02,-8546,1560,-434,-369,1895,-3356,1,7,11
3.95E+02,-8109,1219,-492,83,1641,-3140,1,7,11
3.95E+02,-8315,1326,-466,-120,1221,-2758,1,7,11
3.96E+02,-7910,1139,-461,348,1352,-2546,1,7,11
3.96E+02,-8008,1116,-849,452,1304,-2441,1,7,11
3.96E+02,-7678,1101,-738,875,996,-2682,1,7,11
3.96E+02,-7959,14,-668,201,477,-2124,1,7,11
3.97E+02,-7604,-184,-676,309,326,-1759,1,7,11
3.97E+02,-7741,-436,-659,85,102,-1862,1,7,11
3.97E+02,-7386,-655,-845,-340,23,-1604,1,7,11
3.97E+02,-7309,-873,-857,-64,118,-1305,1,7,11
3.98E+02,-7352,-443,-686,368,284,-733,1,7,11
3.98E+02,-7414,-388,-693,285,359,-621,1,7,11
3.98E+02,-7683,-594,-715,295,199,-275,1,7,11
3.98E+02,-7776,-529,-711,340,592,-26,1,7,11
3.99E+02,-7629,-206,-719,513,471,201,1,7,11
3.99E+02,-7976,9,-1094,864,848,587,1,7,11
3.99E+02,-7851,332,-1013,1112,665,427,1,7,11
3.99E+02,-7916,576,-1399,1113,893,819,1,7,11
4.00E+02,-8218,403,-1406,706,818,894,1,7,11
4.00E+02,-8268,421,-1371,877,471,652,1,7,11
4.00E+02,-8298,411,-1365,854,588,833,1,7,11
4.00E+02,-8276,406,-1366,883,179,452,1,7,11
4.01E+02,-8081,790,-1291,396,49,-21,1,7,11
4.01E+02,-8098,428,-925,374,-173,316,1,7,11
4.01E+02,-8274,203,-1051,-98,-404,144,1,7,11
4.01E+02,-7887,268,-694,-122,-804,173,1,7,11
4.02E+02,-8027,-84,-879,-6,-828,159,1,7,11
4.02E+02,-7977,-76,-803,157,-778,362,1,7,11
4.02E+02,-8004,257,-472,544,-463,302,1,7,11
4.02E+02,-8053,340,-429,631,-427,296,1,7,11
4.03E+02,-7815,157,-416,404,-423,328,1,7,11
4.03E+02,-7825,206,-433,627,-401,360,1,7,11
4.03E+02,-8063,215,-430,544,-625,176,1,7,11
4.03E+02,-8035,187,-400,189,-554,208,1,7,11
4.04E+02,-7823,194,-626,195,-185,178,1,7,11
4.04E+02,-7881,537,-635,533,-343,150,1,7,11
4.04E+02,-8198,631,-428,549,-293,144,1,7,11
4.04E+02,-8245,411,-442,207,-270,158,1,7,11
4.05E+02,-8260,419,-434,342,-272,209,1,7,11
4.05E+02,-8210,403,-394,-33,-293,244,1,7,11
4.05E+02,-7897,425,-406,-108,-269,363,1,7,11
4.05E+02,-7832,603,-425,48,-279,330,1,7,11
4.06E+02,-8022,232,-403,-279,-271,326,1,7,11
4.06E+02,-8032,164,-596,68,104,292,1,7,11
4.06E+02,-8041,186,-551,265,-73,271,1,7,11
4.06E+02,-7812,518,-584,548,-28,-6,1,7,11
4.07E+02,-8018,618,-410,575,-3,326,1,7,11
4.07E+02,-7984,406,-469,189,338,351,1,7,11
4.07E+02,-8063,458,-498,264,187,332,1,7,11
4.07E+02,-7818,802,-782,-115,177,368,1,7,11
4.08E+02,-7843,681,-836,6,184,374,1,7,11
4.08E+02,-7876,1035,-884,-192,200,143,1,7,11
4.08E+02,-7919,757,-890,-501,208,166,1,7,11
4.08E+02,-8317,848,-878,-708,147,202,1,7,11
4.09E+02,-7908,424,-793,-695,-96,616,1,7,11
4.09E+02,-7980,428,-772,-433,125,522,1,7,11
4.09E+02,-8025,835,-851,-251,119,328,1,7,11
4.09E+02,-7953,879,-874,-610,2,283,1,7,11
4.10E+02,-7962,872,-669,-448,-264,-104,1,7,11
4.10E+02,-7811,808,-667,-786,-324,101,1,7,11
4.10E+02,-7913,476,-875,-390,-300,28,1,7,11
4.10E+02,-8068,876,-684,-182,-287,44,1,7,11
4.11E+02,-8121,855,-707,-251,-368,121,1,7,11
4.11E+02,-8108,505,-668,-557,-219,-77,1,7,11
4.11E+02,-8243,467,-877,-538,-528,-104,1,7,11
4.11E+02,-8290,507,-825,-219,-217,37,1,7,11
4.12E+02,-8252,489,-791,-221,-528,77,1,7,11
4.12E+02,-7820,401,-473,-198,-553,102,1,7,11
4.12E+02,-7984,393,-498,-301,-222,-262,1,7,11
4.12E+02,-7636,429,-771,66,-159,-348,1,7,11
4.13E+02,-7666,444,-787,107,-306,-235,1,7,11
4.13E+02,-7987,444,-494,106,55,-517,1,7,11
4.13E+02,-8049,422,-415,98,-120,-246,1,7,11
4.13E+02,-7842,432,-631,-113,-107,-177,1,7,11
4.14E+02,-8022,431,-622,-67,117,-316,1,7,11
4.14E+02,-7942,404,-629,-17,-102,-278,1,7,11
4.14E+02,-7943,414,-397,290,266,-326,1,7,11
4.14E+02,-7810,417,-395,298,364,-133,1,7,11
4.15E+02,-7866,476,-401,288,373,-349,1,7,11
4.15E+02,-7926,505,-637,-93,348,-343,1,7,11
4.15E+02,-7933,819,-417,125,284,-301,1,7,11
4.15E+02,-8217,821,-437,7,279,-258,1,7,11
4.16E+02,-8271,797,-440,-327,313,71,1,7,11
4.16E+02,-8263,779,-419,-145,307,-100,1,7,11
4.16E+02,-8209,418,-621,-219,282,-79,1,7,11
4.16E+02,-7923,387,-573,-344,306,62,1,7,11
4.17E+02,-8245,510,-600,99,293,-129,1,7,11
4.17E+02,-8258,852,-399,-33,-110,-162,1,7,11
4.17E+02,-8229,712,-455,-7,64,-143,1,7,11
4.17E+02,-8226,1060,-495,33,-272,-367,1,7,11
4.18E+02,-8229,1071,-796,-529,-351,-279,1,7,11
4.18E+02,-8237,663,-502,-863,-169,111,1,7,11
4.18E+02,-8194,439,-427,-760,-229,258,1,7,11
4.18E+02,-7885,222,-614,-718,-237,337,1,7,11
4.19E+02,-8061,349,-581,-773,-220,136,1,7,11
4.19E+02,-7944,136,-602,-535,-148,181,1,7,11
4.19E+02,-7624,153,-608,-178,-265,129,1,7,11
4.19E+02,-7641,217,-639,-284,-121,321,1,7,11
4.20E+02,-7677,535,-410,38,-12,-7,1,7,11
4.20E+02,-7816,538,-409,51,340,-84,1,7,11
4.20E+02,-7936,546,-408,112,369,-98,1,7,11
4.20E+02,-8198,619,-433,-6,311,-97,1,7,11
4.21E+02,-7933,492,-478,336,271,-109,1,7,11
4.21E+02,-7923,866,-782,309,266,-90,1,7,11
4.21E+02,-7898,892,-789,-128,-1,259,1,7,11
4.21E+02,-7847,774,-488,-311,-5,348,1,7,11
4.22E+02,-7826,446,-466,-291,311,343,1,7,11
4.22E+02,-7824,504,-491,95,380,320,1,7,11
4.22E+02,-7852,830,-504,123,151,298,1,7,11
4.22E+02,-7880,663,-512,88,375,311,1,7,11
4.23E+02,-7907,674,-503,-364,260,373,1,7,11
4.23E+02,-7867,802,-433,-571,120,212,1,7,11
4.23E+02,-7813,494,-635,-221,83,248,1,7,11
4.23E+02,-8000,888,-444,42,119,516,1,7,11
4.24E+02,-8002,1045,-490,109,-82,222,1,7,11
4.24E+02,-8012,1147,-494,-261,-58,205,1,7,11
4.24E+02,-8058,1131,-476,-233,-38,169,1,7,11
4.24E+02,-7915,724,-623,-464,-59,368,1,7,11
4.25E+02,-8194,828,-531,-477,117,365,1,7,11
4.25E+02,-7884,865,-563,-581,51,367,1,7,11
4.25E+02,-8031,766,-397,-150,19,138,1,7,11
4.25E+02,-8027,1117,-436,-365,73,341,1,7,11
4.26E+02,-7847,1107,-411,-390,-104,293,1,7,11
4.26E+02,-8223,744,-615,-506,-92,267,1,7,11
4.26E+02,-8225,884,-574,-420,-83,335,1,7,11
4.26E+02,-8215,820,-588,-226,-45,335,1,7,11
4.27E+02,-7898,789,-582,-270,-22,348,1,7,11
4.27E+02,-7842,807,-603,-29,312,336,1,7,11
4.27E+02,-7816,835,-626,182,162,318,1,7,11
4.27E+02,-8019,693,-439,422,517,349,1,7,11
4.28E+02,-7952,904,-836,817,632,332,1,7,11
4.28E+02,-8030,1285,-641,400,490,-21,1,7,11
4.28E+02,-7871,1288,-896,361,776,-112,1,7,11
4.28E+02,-8262,968,-872,100,460,58,1,7,11
4.29E+02,-8082,1115,-831,-315,575,69,1,7,11
4.29E+02,-8277,1063,-847,-300,142,-128,1,7,11
4.29E+02,-8228,1066,-880,-300,272,-90,1,7,11
4.29E+02,-7902,1042,-644,-335,-73,-10,1,7,11
4.30E+02,-7844,707,-896,-332,-99,323,1,7,11
4.30E+02,-8055,669,-881,24,-93,369,1,7,11
4.30E+02,-8012,704,-864,-106,-71,157,1,7,11
4.30E+02,-7941,1068,-884,256,-59,241,1,7,11
4.31E+02,-7653,1146,-866,289,-7,549,1,7,11
4.31E+02,-7652,982,-878,367,319,630,1,7,11
4.31E+02,-7946,1012,-641,319,371,419,1,7,11
4.31E+02,-8013,982,-835,-16,176,422,1,7,11
4.32E+02,-7901,1293,-805,-22,206,620,1,7,11
4.32E+02,-7908,1381,-771,-63,136,591,1,7,11
4.32E+02,-7866,1234,-510,-118,263,559,1,7,11
4.32E+02,-7833,1541,-798,30,101,519,1,7,11
4.33E+02,-7811,1244,-816,-236,42,242,1,7,11
4.33E+02,-8060,1386,-794,-579,38,192,1,7,11
4.33E+02,-8027,1288,-772,-421,63,134,1,7,11
4.33E+02,-8011,1014,-509,-613,-122,270,1,7,11
4.34E+02,-8018,1319,-814,-541,-48,-98,1,7,11
4.34E+02,-8015,1290,-852,-570,267,99,1,7,11
4.34E+02,-8027,964,-883,-588,338,57,1,7,11
4.34E+02,-8036,899,-642,-587,140,54,1,7,11
4.35E+02,-7985,1106,-646,-523,173,69,1,7,11
4.35E+02,-7940,1127,-662,-151,205,3,1,7,11
4.35E+02,-7945,956,-708,-294,232,-326,1,7,11
4.35E+02,-7975,1005,-754,-288,213,-345,1,7,11
4.36E+02,-8006,995,-764,-328,160,-309,1,7,11
4.36E+02,-8021,957,-741,-360,346,-271,1,7,11
4.36E+02,-8017,950,-708,-329,267,27,1,7,11
4.36E+02,-7987,996,-706,-274,-72,37,1,7,11
4.37E+02,-7945,1316,-718,11,110,54,1,7,11
4.37E+02,-7643,1373,-741,-264,80,79,1,7,11
4.37E+02,-7950,1379,-745,-360,94,89,1,7,11
4.37E+02,-7996,1308,-698,-232,84,-114,1,7,11
4.38E+02,-8032,995,-648,-243,72,-73,1,7,11
4.38E+02,-8042,994,-876,-174,50,-50,1,7,11
4.38E+02,-8029,1291,-857,-347,25,-21,1,7,11
4.38E+02,-7988,1343,-888,-277,14,273,1,7,11
4.39E+02,-7953,1382,-657,10,35,281,1,7,11
4.39E+02,-7967,1152,-658,12,91,264,1,7,11
4.39E+02,-7993,1396,-648,-257,123,285,1,7,11
4.39E+02,-7964,1376,-646,15,-113,309,1,7,11
4.40E+02,-7976,1383,-657,48,-59,269,1,7,11
4.40E+02,-8009,1168,-682,84,-7,-44,1,7,11
4.40E+02,-8058,1201,-734,71,278,-95,1,7,11
4.40E+02,-7845,1172,-762,-272,290,125,1,7,11
4.41E+02,-7878,1346,-764,-340,301,93,1,7,11
4.41E+02,-8051,1021,-757,-368,274,93,1,7,11
4.41E+02,-7984,963,-756,-364,-19,87,1,7,11
4.41E+02,-8013,950,-745,-311,-3,-37,1,7,11
4.42E+02,-7818,933,-728,-269,-18,-320,1,7,11
4.42E+02,-7869,916,-716,15,-65,-279,1,7,11
4.42E+02,-7858,912,-710,52,-98,58,1,7,11
4.42E+02,-7829,913,-688,101,83,104,1,7,11
4.43E+02,-7812,933,-657,122,72,120,1,7,11
4.43E+02,-7810,980,-648,-81,68,-125,1,7,11
4.43E+02,-8050,1017,-645,-52,40,-94,1,7,11
4.43E+02,-8012,1292,-869,-72,25,-41,1,7,11
4.44E+02,-7937,1299,-840,-64,17,269,1,7,11
4.44E+02,-7628,1350,-827,-37,39,269,1,7,11
4.44E+02,-7628,1154,-808,-35,72,-12,1,7,11
4.44E+02,-7654,1225,-802,-42,102,-16,1,7,11
4.45E+02,-7663,1537,-816,-77,109,285,1,7,11
4.45E+02,-7656,1561,-824,98,107,331,1,7,11
4.45E+02,-7634,1568,-811,43,117,375,1,7,11
4.45E+02,-7627,1578,-809,30,-118,131,1,7,11
4.46E+02,-7622,1600,-819,40,-103,151,1,7,11
4.46E+02,-7642,1617,-867,54,-68,143,1,7,11
4.46E+02,-7970,1618,-887,18,-35,380,1,7,11
4.46E+02,-8005,1590,-657,-289,-31,383,1,7,11
4.47E+02,-8033,1538,-662,-343,-26,351,1,7,11
4.47E+02,-8039,1261,-663,-315,-21,299,1,7,11
4.47E+02,-8062,1279,-696,-274,-6,-21,1,7,11
4.47E+02,-7816,1536,-723,-287,-27,-21,1,7,11
4.48E+02,-8063,1240,-738,-328,-38,-5,1,7,11
4.48E+02,-7824,1403,-741,-131,-39,-47,1,7,11
4.48E+02,-7818,1297,-737,-375,-43,-98,1,7,11
4.48E+02,-7822,983,-748,-265,-19,40,1,7,11
4.49E+02,-7869,987,-754,79,-5,-306,1,7,11
4.49E+02,-7892,987,-708,110,-39,-312,1,7,11
4.49E+02,-7840,988,-683,-79,88,-263,1,7,11
4.49E+02,-8047,1004,-684,-27,24,11,1,7,11
4.50E+02,-8038,1280,-678,-7,-270,19,1,7,11
4.50E+02,-8023,1317,-674,265,-297,43,1,7,11
4.50E+02,-7996,1364,-652,-1,-331,78,1,7,11
4.50E+02,-7675,1404,-890,-22,-363,113,1,7,11
4.51E+02,-7617,1200,-870,-34,-359,113,1,7,11
4.51E+02,-7574,1248,-859,-76,-332,106,1,7,11
4.51E+02,-7570,1276,-835,112,-274,83,1,7,11
4.51E+02,-7607,1569,-841,64,31,74,1,7,11
4.52E+02,-7672,1569,-841,-304,57,86,1,7,11
4.52E+02,-7941,1543,-819,-376,67,-115,1,7,11
4.52E+02,-7670,1544,-831,-370,79,-87,1,7,11
4.52E+02,-7664,1562,-836,-338,-128,-45,1,7,11
4.53E+02,-7665,1585,-850,-322,-71,-15,1,7,11
4.53E+02,-7974,1577,-868,-312,-6,-7,1,7,11
4.53E+02,-8003,1582,-896,-272,283,260,1,7,11
4.53E+02,-8034,1563,-666,-258,293,279,1,7,11
4.54E+02,-8035,1544,-692,38,311,265,1,7,11
4.54E+02,-8030,1563,-721,114,332,256,1,7,11
4.54E+02,-8010,1600,-760,-82,338,-27,1,7,11
4.54E+02,-7965,1622,-1053,-90,328,-76,1,7,11
4.55E+02,-7959,1615,-1065,111,334,117,1,7,11
4.55E+02,-7970,1573,-1066,52,331,90,1,7,11
4.55E+02,-8005,1213,-1032,-258,303,99,1,7,11
4.55E+02,-8002,1349,-733,61,261,120,1,7,11
4.56E+02,-8001,1371,-744,-36,-29,106,1,7,11
4.56E+02,-8007,1166,-1025,371,-67,90,1,7,11
4.56E+02,-8018,1201,-1027,169,-104,99,1,7,11
4.56E+02,-8019,1197,-751,158,108,-97,1,7,11
4.57E+02,-8000,1154,-719,356,37,-34,1,7,11
4.57E+02,-7980,1398,-687,334,20,-28,1,7,11
4.57E+02,-7969,1218,-681,137,13,-35,1,7,11
4.57E+02,-7966,1567,-694,178,-258,-26,1,7,11
4.58E+02,-7957,1598,-669,286,-267,277,1,7,11
4.58E+02,-7674,1588,-888,-82,-274,329,1,7,11
4.58E+02,-7938,1576,-848,106,-281,351,1,7,11
4.58E+02,-7679,1589,-826,80,-296,367,1,7,11
4.59E+02,-7941,1601,-825,77,-295,362,1,7,11
4.59E+02,-7673,1643,-860,99,-286,358,1,7,11
4.59E+02,-7669,1416,-894,84,15,351,1,7,11
4.59E+02,-7664,1424,-645,22,82,353,1,7,11
4.60E+02,-7957,1652,-882,-299,-103,372,1,7,11
4.60E+02,-7951,1639,-896,-281,-78,140,1,7,11
4.60E+02,-7969,1653,-668,13,-40,130,1,7,11
4.60E+02,-8045,1635,-682,20,-26,135,1,7,11
4.61E+02,-7899,1572,-662,28,-66,185,1,7,11
4.61E+02,-8299,1246,-882,85,48,546,1,7,11
4.61E+02,-8314,1263,-888,-27,-231,510,1,7,11
4.61E+02,-8302,1259,-646,264,-823,687,1,7,11
4.62E+02,-7843,1272,-651,327,-1146,910,1,7,11
4.62E+02,-7939,1449,-728,376,-1322,1127,1,7,11
4.62E+02,-7640,1881,-733,-59,-1178,1052,1,7,11
4.62E+02,-7638,1708,-698,-132,-1245,736,1,7,11
4.63E+02,-7663,1746,-652,-602,-1257,695,1,7,11
4.63E+02,-7674,1901,-511,-789,-1239,667,1,7,11
4.63E+02,-7581,1816,-391,-474,-1395,787,1,7,11
4.63E+02,-7580,1733,-520,-291,-1095,-55,1,7,11
4.64E+02,-7621,2072,-223,-312,-762,49,1,7,11
4.64E+02,-7613,1781,-184,-171,-716,32,1,7,11
4.64E+02,-7639,1676,-324,-556,-641,-296,1,7,11
4.64E+02,-7670,1893,0,-252,-831,-348,1,7,11
4.65E+02,-7961,1700,14,-177,-508,-141,1,7,11
4.65E+02,-7947,1746,32,-225,-462,-307,1,7,11
4.65E+02,-7619,1744,46,-611,-398,20,1,7,11
4.65E+02,-7650,2079,42,-499,-575,-265,1,7,11
4.66E+02,-7983,2082,39,-1064,-562,37,1,7,11
4.66E+02,-7978,1683,103,-1331,-584,-128,1,7,11
4.66E+02,-7626,1795,-77,-1345,-563,99,1,7,11
4.66E+02,-7600,1522,-94,-924,-205,-312,1,7,11
4.67E+02,-7802,1682,114,-735,-365,-220,1,7,11
4.67E+02,-7554,1790,91,-658,6,-425,1,7,11
4.67E+02,-7631,2074,72,-669,105,-693,1,7,11
4.67E+02,-7986,2097,89,-1045,-105,-1006,1,7,11
4.68E+02,-7873,1782,124,-948,117,-1385,1,7,11
4.68E+02,-7890,1719,-76,-1398,53,-1406,1,7,11
4.68E+02,-7923,1906,-79,-1185,14,-1217,1,7,11
4.68E+02,-7902,1897,-63,-1206,-276,-1223,1,7,11
4.69E+02,-7882,1825,-82,-1259,-267,-1215,1,7,11
4.69E+02,-7845,1443,282,-1583,14,-1160,1,7,11
4.69E+02,-7813,1613,284,-1228,75,-1381,1,7,11
4.69E+02,-8039,1568,276,-1350,-105,-1302,1,7,11
4.70E+02,-7993,1216,-5,-992,259,-926,1,7,11
4.70E+02,-7998,1382,263,-1079,165,-1091,1,7,11
4.70E+02,-8010,1332,279,-647,532,-696,1,7,11
4.70E+02,-7942,1322,272,-422,390,-781,1,7,11
4.71E+02,-8006,1383,-15,-513,794,-434,1,7,11
4.71E+02,-8052,1152,-3,-527,875,-551,1,7,11
4.71E+02,-7870,1183,-51,-549,656,-218,1,7,11
4.71E+02,-7914,1202,-110,-619,878,-134,1,7,11
4.72E+02,-7859,1173,72,-416,885,-304,1,7,11
4.72E+02,-7891,1208,-263,-446,721,-338,1,7,11
4.72E+02,-7868,1225,-337,-778,1046,-302,1,7,11
4.72E+02,-7843,1183,-369,-648,1128,-311,1,7,11
4.73E+02,-7823,1330,-379,-1052,977,-191,1,7,11
4.73E+02,-7869,1018,-144,-1056,1017,-591,1,7,11
4.73E+02,-7929,1286,-207,-1038,1007,-427,1,7,11
4.73E+02,-8198,1289,-516,-1123,947,-418,1,7,11
4.74E+02,-7880,954,-538,-1000,1137,-610,1,7,11
4.74E+02,-8052,1117,-547,-1345,1107,-603,1,7,11
4.74E+02,-7993,1029,-537,-1352,1110,-393,1,7,11
4.74E+02,-7976,1034,-538,-984,1129,-449,1,7,11
4.75E+02,-7990,1096,-587,-1127,1114,-452,1,7,11
4.75E+02,-7982,912,-388,-1071,1073,-386,1,7,11
4.75E+02,-8008,973,-422,-1055,1037,-575,1,7,11
4.75E+02,-8056,1014,-484,-1061,747,-251,1,7,11
4.76E+02,-7883,996,-486,-1092,706,-164,1,7,11
4.76E+02,-8233,977,-451,-1075,645,-304,1,7,11
4.76E+02,-8241,993,-454,-746,773,-116,1,7,11
4.76E+02,-7929,1007,-454,-650,387,281,1,7,11
4.77E+02,-7881,1329,-471,-772,533,339,1,7,11
4.77E+02,-7855,1164,-510,-404,190,370,1,7,11
4.77E+02,-7841,1233,-801,-393,377,156,1,7,11
4.77E+02,-7825,1241,-770,-467,336,229,1,7,11
4.78E+02,-8056,1367,-426,-817,297,548,1,7,11
4.78E+02,-7976,1353,-422,-397,283,567,1,7,11
4.78E+02,-7630,1168,-473,-155,329,229,1,7,11
4.78E+02,-7629,1556,-817,-369,177,334,1,7,11
4.79E+02,-7665,1602,-837,-239,541,-48,1,7,11
4.79E+02,-7999,1560,-816,-401,637,122,1,7,11
4.79E+02,-8024,1178,-506,-851,425,125,1,7,11
4.79E+02,-7950,1360,-491,-716,441,120,1,7,11
4.80E+02,-7959,1171,-812,-870,508,-165,1,7,11
4.80E+02,-8044,1216,-851,-847,849,-579,1,7,11
4.80E+02,-7823,1201,-866,-668,835,-600,1,7,11
4.80E+02,-7884,1399,-833,-1059,799,-584,1,7,11
4.81E+02,-7867,1328,-809,-1056,440,-245,1,7,11
4.81E+02,-8032,1308,-837,-676,598,-203,1,7,11
4.81E+02,-7990,1378,-653,-788,552,-254,1,7,11
4.81E+02,-7990,1159,-699,-784,253,-539,1,7,11
4.82E+02,-8025,1384,-698,-832,213,-548,1,7,11
4.82E+02,-7825,1336,-675,-834,150,-518,1,7,11
4.82E+02,-7835,1013,-648,-786,307,-160,1,7,11
4.82E+02,-8015,1020,-689,-401,-62,-306,1,7,11
4.83E+02,-7949,1330,-725,-575,-114,-273,1,7,11
4.83E+02,-7976,1369,-763,-589,-122,-300,1,7,11
4.83E+02,-8039,1380,-756,-401,118,-308,1,7,11
4.83E+02,-7884,1366,-710,-500,83,-280,1,7,11
4.84E+02,-7912,1284,-878,-835,-279,88,1,7,11
4.84E+02,-7866,957,-818,-488,-370,-82,1,7,11
4.84E+02,-8052,1003,-842,-241,-146,-32,1,7,11
4.84E+02,-7974,1363,-895,-341,-134,-34,1,7,11
4.85E+02,-7945,1157,-664,-318,-314,-91,1,7,11
4.85E+02,-7982,1187,-667,-351,40,84,1,7,11
4.85E+02,-7816,1398,-869,-185,115,21,1,7,11
4.85E+02,-7859,1341,-817,-191,126,26,1,7,11
4.86E+02,-7834,1330,-810,-150,109,42,1,7,11
4.86E+02,-8048,1336,-811,-382,114,44,1,7,11
4.86E+02,-7963,1373,-837,-351,122,70,1,7,11
4.86E+02,-7627,1398,-863,-376,-96,62,1,7,11
4.87E+02,-7615,1400,-849,-175,-22,17,1,7,11
4.87E+02,-7677,1341,-803,-519,269,-284,1,7,11
4.87E+02,-7967,1281,-782,-241,256,-296,1,7,11
4.87E+02,-7999,1304,-812,-359,-15,-298,1,7,11
4.88E+02,-7944,1186,-652,25,-26,10,1,7,11
4.88E+02,-7951,1217,-662,17,265,29,1,7,11
4.88E+02,-7982,1203,-654,-327,283,40,1,7,11
4.88E+02,-8037,1167,-887,-350,271,36,1,7,11
4.89E+02,-7822,1161,-872,-270,-24,59,1,7,11
4.89E+02,-8047,1221,-652,104,-89,104,1,7,11
4.89E+02,-8017,1276,-682,-120,-124,91,1,7,11
4.89E+02,-8006,1273,-687,86,120,72,1,7,11
4.90E+02,-8039,1207,-659,11,115,22,1,7,11
4.90E+02,-8053,1375,-874,12,80,13,1,7,11
4.90E+02,-8040,1349,-854,-128,34,6,1,7,11
4.90E+02,-7992,1387,-860,-16,-288,7,1,7,11
4.91E+02,-7950,1401,-870,270,-340,13,1,7,11
4.91E+02,-7650,1390,-883,270,-361,18,1,7,11
4.91E+02,-7641,1376,-878,-5,-344,19,1,7,11
4.91E+02,-7646,1353,-858,-17,-326,32,1,7,11
4.92E+02,-7644,1321,-837,-25,-325,58,1,7,11
4.92E+02,-7636,1324,-829,269,-301,59,1,7,11
4.92E+02,-7670,1367,-863,289,-258,39,1,7,11
4.92E+02,-7964,1359,-871,-15,22,49,1,7,11
4.93E+02,-8000,1360,-885,-42,54,53,1,7,11
4.93E+02,-7847,1356,-864,-103,81,54,1,7,11
4.93E+02,-7902,1314,-837,91,55,125,1,7,11
4.93E+02,-7911,1282,-823,68,16,-86,1,7,11
4.94E+02,-7925,1001,-804,84,-260,-52,1,7,11
4.94E+02,-7920,1295,-822,-119,-271,-37,1,7,11
4.94E+02,-7892,1296,-831,-128,-275,-20,1,7,11
4.94E+02,-7854,1309,-826,122,11,-37,1,7,11
4.95E+02,-7851,1334,-806,106,45,-84,1,7,11
4.95E+02,-7829,1321,-786,56,41,-96,1,7,11
4.95E+02,-8040,1303,-777,16,26,123,1,7,11
4.95E+02,-7995,1308,-778,15,15,63,1,7,11
4.96E+02,-7972,1296,-775,6,32,18,1,7,11
4.96E+02,-7978,1289,-511,-267,46,-278,1,7,11
4.96E+02,-8009,1280,-507,-294,66,-264,1,7,11
4.96E+02,-8027,985,-472,-346,50,49,1,7,11
4.97E+02,-8015,965,-436,-322,40,109,1,7,11
4.97E+02,-8000,1300,-469,68,50,-111,1,7,11
4.97E+02,-7951,1384,-785,107,51,-75,1,7,11
4.97E+02,-7954,1379,-779,43,100,-106,1,7,11
4.98E+02,-8017,1337,-488,47,-100,127,1,7,11
4.98E+02,-8060,1361,-485,124,-87,-103,1,7,11
4.98E+02,-7815,1175,-502,-90,-107,-72,1,7,11
4.98E+02,-8053,1202,-774,-125,112,-50,1,7,11
4.99E+02,-8015,1204,-777,120,99,-62,1,7,11
4.99E+02,-8032,1220,-780,102,105,-113,1,7,11
4.99E+02,-8051,1190,-510,52,94,-124,1,7,11
4.99E+02,-8029,1158,-492,63,70,-115,1,7,11
5.00E+02,-8022,1154,-496,115,61,118,1,7,11
5.00E+02,-8008,1169,-505,-107,54,99,1,7,11
5.00E+02,-8027,1171,-506,-115,58,63,1,7,11
5.00E+02,-8042,1163,-505,111,57,59,1,7,11
5.01E+02,-8061,1389,-478,70,45,57,1,7,11
5.01E+02,-8029,1362,-463,70,9,54,1,7,11
5.01E+02,-8018,1357,-458,108,1,2,1,7,11
5.01E+02,-8030,1380,-472,-114,20,-308,1,7,11
5.02E+02,-7810,1389,-475,116,41,-339,1,7,11
5.02E+02,-7841,1385,-456,83,47,-333,1,7,11
5.02E+02,-7858,1372,-438,50,46,-295,1,7,11
5.02E+02,-7824,1362,-442,32,21,29,1,7,11
5.03E+02,-8040,1360,-441,22,27,45,1,7,11
5.03E+02,-8036,1363,-456,5,55,42,1,7,11
5.03E+02,-8022,1362,-458,-280,70,52,1,7,11
5.03E+02,-8035,1321,-425,-347,97,72,1,7,11
5.04E+02,-8005,1288,-409,-362,95,119,1,7,11
5.04E+02,-7993,1297,-417,-328,115,104,1,7,11
5.04E+02,-8036,1299,-421,-308,-116,91,1,7,11
5.04E+02,-7817,1316,-418,-265,-102,112,1,7,11
5.05E+02,-7843,1339,-430,12,-101,-102,1,7,11
5.05E+02,-7853,1352,-438,26,-118,-50,1,7,11
5.05E+02,-7820,1380,-429,57,112,-1,1,7,11
5.05E+02,-8060,1153,-440,88,105,-11,1,7,11
5.06E+02,-8037,1173,-457,87,96,-23,1,7,11
5.06E+02,-8041,1161,-440,73,112,-57,1,7,11
5.06E+02,-8034,1164,-435,77,112,-64,1,7,11
5.06E+02,-8010,1159,-429,73,119,-83,1,7,11
5.07E+02,-8006,1170,-436,68,-126,-124,1,7,11
5.07E+02,-8005,1170,-443,22,-114,104,1,7,11
5.07E+02,-8036,1403,-416,0,-92,70,1,7,11
5.07E+02,-8054,1389,-408,34,-87,68,1,7,11
5.08E+02,-8031,1391,-436,64,-91,85,1,7,11
5.08E+02,-8022,1155,-455,76,-79,78,1,7,11
5.08E+02,-8055,1407,-450,39,-72,69,1,7,11
5.08E+02,-7810,1396,-448,29,-77,81,1,7,11
5.09E+02,-7834,1157,-456,20,-88,81,1,7,11
5.09E+02,-7827,1162,-464,-277,-121,102,1,7,11
5.09E+02,-8061,1407,-458,-307,105,116,1,7,11
5.09E+02,-8044,1405,-443,-321,104,111,1,7,11
5.10E+02,-7809,1155,-436,-332,103,102,1,7,11
5.10E+02,-8056,1406,-427,-361,77,-124,1,7,11
5.10E+02,-8035,1376,-414,-370,71,-108,1,7,11
5.10E+02,-8047,1391,-419,-333,92,123,1,7,11
5.11E+02,-8053,1401,-411,-304,96,-126,1,7,11
5.11E+02,-8056,1163,-416,-300,94,117,1,7,11
5.11E+02,-8044,1166,-410,-308,90,109,1,7,11
5.11E+02,-8055,1176,-415,-328,94,91,1,7,11
5.12E+02,-8050,1173,-414,-359,77,103,1,7,11
5.12E+02,-8031,1405,-392,-384,72,107,1,7,11
5.12E+02,-8038,1395,-637,-368,98,84,1,7,11
5.12E+02,-8034,1404,-392,-320,120,81,1,7,11
5.13E+02,-8058,1398,-638,-317,-102,83,1,7,11
5.13E+02,-7824,1377,-620,-334,-115,-123,1,7,11
5.13E+02,-8053,1334,-602,-310,115,-72,1,7,11
5.13E+02,-8014,1353,-610,64,116,-76,1,7,11
5.14E+02,-8010,1404,-389,-120,-115,-124,1,7,11
5.14E+02,-8044,1179,-395,-99,-82,111,1,7,11
5.14E+02,-8061,1190,-399,-107,-74,109,1,7,11
5.14E+02,-8058,1177,-394,-127,-72,-123,1,7,11
5.15E+02,-8054,1156,-638,-121,-73,-120,1,7,11
5.15E+02,-8020,1168,-395,-95,-80,-105,1,7,11
5.15E+02,-8020,1157,-398,-101,-68,110,1,7,11
5.15E+02,-8047,1160,-394,-68,-48,103,1,7,11
5.16E+02,-8033,1181,-426,-56,-36,117,1,7,11
5.16E+02,-8060,1168,-424,-79,-10,-107,1,7,11
5.16E+02,-7815,1387,-396,-103,-5,-62,1,7,11
5.16E+02,-8051,1363,-637,-30,-11,266,1,7,11
5.17E+02,-8000,1394,-416,321,-11,286,1,7,11
5.17E+02,-7960,1398,-434,361,270,279,1,7,11
5.17E+02,-7679,1161,-450,156,332,-8,1,7,11
5.17E+02,-7969,1200,-449,180,146,-35,1,7,11
5.18E+02,-7961,1179,-453,156,176,268,1,7,11
5.18E+02,-7949,1163,-468,182,222,-10,1,7,11
5.18E+02,-7988,1217,-772,235,538,-99,1,7,11
5.18E+02,-8053,1272,-807,199,577,112,1,7,11
5.19E+02,-7825,1545,-820,361,566,-126,1,7,11
5.19E+02,-8030,1539,-830,-50,253,-102,1,7,11
5.19E+02,-8017,1266,-832,102,231,94,1,7,11
5.19E+02,-8023,1274,-860,68,205,16,1,7,11
5.20E+02,-8053,1573,-889,48,188,-280,1,7,11
5.20E+02,-7821,1622,-646,-302,153,-273,1,7,11
5.20E+02,-7845,1619,-652,-204,353,30,1,7,11
5.20E+02,-7815,1579,-643,-585,268,108,1,7,11
5.21E+02,-8040,1249,-874,-430,-48,120,1,7,11
5.21E+02,-8053,1199,-848,-449,-94,123,1,7,11
5.21E+02,-8036,1158,-861,-413,109,-113,1,7,11
5.21E+02,-7995,1394,-826,-604,81,-108,1,7,11
5.22E+02,-8006,1217,-824,-237,122,102,1,7,11
5.22E+02,-7821,1198,-806,-220,113,-119,1,7,11
5.22E+02,-7823,1201,-796,-189,58,-22,1,7,11
5.22E+02,-8035,1219,-803,-129,-261,357,1,7,11
5.23E+02,-7997,1231,-797,-364,-303,145,1,7,11
5.23E+02,-7964,1243,-793,-353,-319,165,1,7,11
5.23E+02,-7965,1247,-772,-342,-299,173,1,7,11
5.23E+02,-7940,1230,-504,-331,-285,181,1,7,11
5.24E+02,-7950,1232,-772,-297,-263,149,1,7,11
5.24E+02,-7669,1228,-797,-277,-262,368,1,7,11
5.24E+02,-7939,1213,-793,-260,28,279,1,7,11
5.24E+02,-8004,1265,-775,49,70,-42,1,7,11
5.25E+02,-8050,1605,-770,78,59,-15,1,7,11
5.25E+02,-8021,1645,-773,27,17,301,1,7,11
5.25E+02,-7980,1651,-782,-309,-268,308,1,7,11
5.25E+02,-7661,1617,-785,-382,-274,256,1,7,11
5.26E+02,-7636,1621,-787,-151,25,-94,1,7,11
5.26E+02,-7674,1660,-776,-188,75,94,1,7,11
5.26E+02,-7664,1617,-489,-548,62,109,1,7,11
5.26E+02,-7603,1562,-470,-554,83,81,1,7,11
5.27E+02,-7634,1584,-486,-241,-80,-303,1,7,11
5.27E+02,-7959,1620,-490,-248,-27,-376,1,7,11
5.27E+02,-7992,1417,-482,-520,-3,-377,1,7,11
5.27E+02,-8013,1505,-502,-563,-4,-379,1,7,11
5.28E+02,-8048,1814,-771,-438,-28,-134,1,7,11
5.28E+02,-8046,1857,-781,-820,-63,-139,1,7,11
5.28E+02,-7840,1849,-780,-755,-111,-163,1,7,11
5.28E+02,-7896,1496,-462,-938,79,-383,1,7,11
5.29E+02,-7892,1644,-413,-998,-261,-311,1,7,11
5.29E+02,-7948,1234,-612,-638,14,-267,1,7,11
5.29E+02,-7947,1259,-627,-251,74,32,1,7,11
5.29E+02,-7639,1227,-608,-176,105,75,1,7,11
5.30E+02,-7616,1216,-616,-354,-112,61,1,7,11
5.30E+02,-7626,1268,-388,35,-54,-302,1,7,11
5.30E+02,-7671,1579,-415,-126,281,-357,1,7,11
5.30E+02,-8006,1636,-427,108,311,-380,1,7,11
5.31E+02,-8041,1608,-416,-264,270,-343,1,7,11
5.31E+02,-8032,1558,-396,-290,-25,-311,1,7,11
5.31E+02,-8025,1589,-412,33,-29,-334,1,7,11
5.31E+02,-8042,1646,-445,66,-27,-371,1,7,11
5.32E+02,-8048,1421,-452,16,-39,-132,1,7,11
5.32E+02,-7838,1655,-444,-136,-74,-136,1,7,11
5.32E+02,-7821,1605,-440,-180,-118,-375,1,7,11
5.32E+02,-8048,1560,-424,-191,118,-140,1,7,11
5.33E+02,-7812,1539,-431,-165,122,-177,1,7,11
5.33E+02,-7825,1553,-441,-155,110,-158,1,7,11
5.33E+02,-7833,1550,-432,-197,77,-353,1,7,11
5.33E+02,-8035,1243,-413,-534,23,-257,1,7,11
5.34E+02,-7971,1188,-387,-544,21,26,1,7,11
5.34E+02,-7951,1189,-393,-230,55,-275,1,7,11
5.34E+02,-7969,1224,-404,-183,102,-326,1,7,11
5.34E+02,-8005,1258,-406,-173,-127,-349,1,7,11
5.35E+02,-8053,1270,-388,-194,-108,-354,1,7,11
5.35E+02,-7836,1261,-638,-246,115,-315,1,7,11
5.35E+02,-8054,1193,-606,-543,66,0,1,7,11
5.35E+02,-8036,1392,-583,-218,70,-267,1,7,11
5.36E+02,-8033,1163,-595,-328,95,-289,1,7,11
5.36E+02,-8038,1228,-632,6,115,-297,1,7,11
5.36E+02,-8055,1263,-639,-263,-126,-293,1,7,11
5.36E+02,-7827,1262,-640,-327,120,-261,1,7,11
5.37E+02,-8028,1186,-581,-143,73,71,1,7,11
5.37E+02,-8006,1389,-547,-162,51,85,1,7,11
5.37E+02,-8024,1166,-566,-311,74,47,1,7,11
5.37E+02,-8035,1193,-586,36,90,21,1,7,11
5.38E+02,-8057,1243,-609,77,113,38,1,7,11
5.38E+02,-8056,1264,-610,84,-118,73,1,7,11
5.38E+02,-8059,1253,-596,67,-89,124,1,7,11
5.38E+02,-8021,1233,-596,40,-101,-63,1,7,11
5.39E+02,-7955,1239,-605,46,-106,-58,1,7,11
5.39E+02,-7950,1278,-630,62,-71,104,1,7,11
5.39E+02,-8000,1595,-401,20,-54,4,1,7,11
5.39E+02,-8057,1654,-413,-368,-72,-279,1,7,11
5.40E+02,-7826,1559,-635,-599,-122,5,1,7,11
5.40E+02,-7837,1198,-580,-409,119,62,1,7,11
5.40E+02,-7812,1172,-561,-624,100,80,1,7,11
5.40E+02,-7812,1216,-575,-567,101,58,1,7,11
5.41E+02,-7842,1269,-583,-567,111,27,1,7,11
5.41E+02,-7849,1550,-564,-612,101,38,1,7,11
5.41E+02,-7848,1261,-537,-403,94,70,1,7,11
5.41E+02,-8059,1185,-250,-391,73,114,1,7,11
5.42E+02,-8001,1205,-550,-227,98,82,1,7,11
5.42E+02,-7984,1544,-616,-131,-90,-271,1,7,11
5.42E+02,-8032,1587,-639,-161,-13,-345,1,7,11
5.42E+02,-8047,1555,-618,-246,270,-371,1,7,11
5.43E+02,-7811,1242,-586,-519,282,-372,1,7,11
5.43E+02,-8018,1187,-559,-250,-4,-354,1,7,11
5.43E+02,-8014,1176,-555,-161,-5,-143,1,7,11
5.43E+02,-7997,1222,-591,-339,-42,-178,1,7,11
5.44E+02,-7991,1239,-609,-361,-54,-206,1,7,11
5.44E+02,-8028,1230,-598,-134,-70,-220,1,7,11
5.44E+02,-7814,1404,-540,-175,-116,-195,1,7,11
5.44E+02,-8058,1321,-244,-348,87,-158,1,7,11
5.45E+02,-8055,1349,-531,-124,77,-190,1,7,11
5.45E+02,-7870,1164,-564,280,70,-249,1,7,11
5.45E+02,-8196,1181,-570,325,28,-517,1,7,11
5.45E+02,-8237,1172,-577,315,-324,-522,1,7,11
5.46E+02,-8195,1307,-532,257,-220,-556,1,7,11
5.46E+02,-7858,1351,-569,161,-590,-465,1,7,11
5.46E+02,-7844,1228,-638,523,-639,-895,1,7,11
5.46E+02,-7846,1558,-410,163,-440,-739,1,7,11
5.47E+02,-7891,1165,-581,-111,-511,-1026,1,7,11
5.47E+02,-7865,1009,-244,38,-832,-1029,1,7,11
5.47E+02,-7821,1076,-146,35,-884,-1102,1,7,11
5.47E+02,-8052,714,-152,279,-852,-995,1,7,11
5.48E+02,-7861,1043,-178,583,-492,-1162,1,7,11
5.48E+02,-7913,1050,-184,482,-413,-1172,1,7,11
5.48E+02,-7920,1024,-182,785,-547,-1307,1,7,11
5.48E+02,-7901,712,-166,507,-251,-986,1,7,11
5.49E+02,-7884,640,-149,444,-130,-1058,1,7,11
5.49E+02,-7893,857,-135,412,-322,-704,1,7,11
5.49E+02,-7888,791,-339,543,-287,-834,1,7,11
5.49E+02,-8197,801,-321,530,8,-501,1,7,11
5.50E+02,-8256,836,-331,214,-284,-635,1,7,11
5.50E+02,-8209,847,-343,380,-368,-225,1,7,11
5.50E+02,-7905,808,-326,257,-178,-153,1,7,11
5.50E+02,-7831,784,-304,-52,-214,-368,1,7,11
5.51E+02,-7809,796,-279,-61,-194,-145,1,7,11
5.51E+02,-7829,856,-278,-44,-160,-184,1,7,11
5.51E+02,-7884,656,-283,-79,-384,-228,1,7,11
5.51E+02,-8210,658,-284,83,-384,-228,1,7,11
5.52E+02,-8221,871,3,-279,-153,-167,1,7,11
5.52E+02,-8219,496,70,-382,-177,-384,1,7,11
5.52E+02,-8218,430,109,-297,-165,-382,1,7,11
5.52E+02,-8224,477,95,113,-137,-148,1,7,11
5.53E+02,-8215,781,59,-76,-372,-373,1,7,11
5.53E+02,-7909,500,54,-96,-348,-328,1,7,11
5.53E+02,-8196,472,73,-111,-281,-352,1,7,11
5.53E+02,-8224,426,93,-111,-270,-315,1,7,11
5.54E+02,-8207,615,108,-73,9,-279,1,7,11
5.54E+02,-8257,588,114,288,63,-290,1,7,11
5.54E+02,-8251,573,112,146,82,51,1,7,11
5.54E+02,-8203,611,70,251,110,119,1,7,11
5.55E+02,-7892,385,45,548,-92,-97,1,7,11
5.55E+02,-7875,404,38,547,-22,-118,1,7,11
5.55E+02,-7818,619,71,238,-9,113,1,7,11
5.55E+02,-8044,619,87,241,283,48,1,7,11
5.56E+02,-8058,402,100,252,325,23,1,7,11
5.56E+02,-7826,454,88,245,367,13,1,7,11
5.56E+02,-7909,785,52,215,135,-260,1,7,11
5.56E+02,-8281,646,13,339,349,42,1,7,11
5.57E+02,-8108,701,-280,66,-47,-63,1,7,11
5.57E+02,-8105,824,8,-537,10,154,1,7,11
5.57E+02,-8264,444,67,-511,-134,615,1,7,11
5.57E+02,-7905,639,99,-831,-206,500,1,7,11
5.58E+02,-7858,431,98,-443,-189,822,1,7,11
5.58E+02,-7863,797,73,-527,-336,802,1,7,11
5.58E+02,-7911,671,56,-224,2,789,1,7,11
5.58E+02,-8201,683,100,-635,19,810,1,7,11
5.59E+02,-7892,876,-84,-432,55,827,1,7,11
5.59E+02,-7899,641,-65,-554,-83,439,1,7,11
5.59E+02,-7931,1061,111,-151,284,533,1,7,11
5.59E+02,-8260,903,79,-250,322,151,1,7,11
5.60E+02,-8067,936,80,-454,269,339,1,7,11
5.60E+02,-8067,973,92,-643,-110,357,1,7,11
5.60E+02,-8254,979,122,-1147,19,354,1,7,11
5.60E+02,-8221,955,-122,-1305,-278,288,1,7,11
5.61E+02,-7936,938,107,-1368,-282,-32,1,7,11
5.61E+02,-8203,915,93,-1391,52,-109,1,7,11
5.61E+02,-8257,1129,115,-1157,124,116,1,7,11
5.61E+02,-8308,1078,-67,-1180,-101,-97,1,7,11
5.62E+02,-8280,720,266,-1153,92,-34,1,7,11
5.62E+02,-8203,700,-26,-989,31,-56,1,7,11
5.62E+02,-7909,1028,-66,-1099,20,-102,1,7,11
5.62E+02,-7928,1141,-118,-1089,16,122,1,7,11
5.63E+02,-7911,1143,-124,-968,-305,-46,1,7,11
5.63E+02,-8036,1063,-113,-999,-332,285,1,7,11
5.63E+02,-8063,1075,-106,-904,4,103,1,7,11
5.63E+02,-7889,936,120,-1092,38,-280,1,7,11
5.64E+02,-8205,922,120,-950,-268,-293,1,7,11
5.64E+02,-7928,1091,-63,-984,-316,19,1,7,11
5.64E+02,-7892,740,298,-928,-327,22,1,7,11
5.64E+02,-7906,716,325,-734,-300,4,1,7,11
5.65E+02,-7839,757,323,-511,-261,-273,1,7,11
5.65E+02,-7878,1082,269,-561,-50,-305,1,7,11
5.65E+02,-7931,1063,288,-221,305,9,1,7,11
5.65E+02,-8221,1028,310,-142,374,78,1,7,11
5.66E+02,-8300,1034,328,-320,129,103,1,7,11
5.66E+02,-8284,1099,286,35,304,-66,1,7,11
5.66E+02,-8273,919,-30,-257,-28,-12,1,7,11
5.66E+02,-8282,1128,-17,-176,-104,341,1,7,11
5.67E+02,-7931,1068,-6,-199,85,216,1,7,11
5.67E+02,-7851,1121,-63,-134,64,210,1,7,11
5.67E+02,-8062,929,-85,-141,89,346,1,7,11
5.67E+02,-7871,943,-71,-212,-114,-95,1,7,11
5.68E+02,-8212,1148,-15,-516,-111,76,1,7,11
5.68E+02,-8259,1147,271,-173,-128,103,1,7,11
5.68E+02,-8211,917,275,-349,87,-97,1,7,11
5.68E+02,-7883,1145,281,-345,97,-108,1,7,11
5.69E+02,-7911,1085,368,-59,-104,63,1,7,11
5.69E+02,-7929,1136,336,311,-16,98,1,7,11
5.69E+02,-7874,902,314,383,270,-70,1,7,11
5.69E+02,-8063,947,274,165,351,-61,1,7,11
5.70E+02,-7856,918,278,353,204,-99,1,7,11
5.70E+02,-7890,905,278,352,255,-114,1,7,11
5.70E+02,-7932,996,-9,376,250,124,1,7,11
5.70E+02,-8233,1291,-10,-79,157,-108,1,7,11
5.71E+02,-8216,992,289,-318,277,-27,1,7,11
5.71E+02,-7919,1281,-25,-183,-91,281,1,7,11
5.71E+02,-7890,1349,-49,-582,96,298,1,7,11
5.71E+02,-7884,1357,-71,-793,95,276,1,7,11
5.72E+02,-8230,1282,-13,-701,-93,-19,1,7,11
5.72E+02,-8268,953,291,-713,-89,-5,1,7,11
5.72E+02,-7905,1134,297,-807,-99,288,1,7,11
5.72E+02,-7813,906,-18,-217,311,-69,1,7,11
5.73E+02,-7867,930,-53,-282,240,10,1,7,11
5.73E+02,-8214,898,-35,18,529,-316,1,7,11
5.73E+02,-8246,898,-66,-58,234,-332,1,7,11
5.73E+02,-8255,1342,-119,315,376,-226,1,7,11
5.74E+02,-8217,1023,-101,-64,-39,94,1,7,11
5.74E+02,-7899,1146,-54,21,-124,-84,1,7,11
5.74E+02,-7866,915,-93,95,-116,-26,1,7,11
5.74E+02,-7859,942,-103,-89,-61,-27,1,7,11
5.75E+02,-7824,908,-79,-110,-59,-64,1,7,11
5.75E+02,-7844,954,-100,-21,-21,24,1,7,11
5.75E+02,-7915,945,-98,-70,-23,-171,1,7,11
5.75E+02,-7906,935,-102,-73,-67,-549,1,7,11
5.76E+02,-7888,1010,93,-47,-111,-442,1,7,11
5.76E+02,-7918,1308,75,51,114,-811,1,7,11
5.76E+02,-8214,994,108,-151,67,-818,1,7,11
5.76E+02,-8240,921,-126,-239,24,-497,1,7,11
5.77E+02,-8248,1047,-81,-557,-279,-605,1,7,11
5.77E+02,-7920,689,-35,-237,-287,-192,1,7,11
5.77E+02,-7868,704,-46,-313,12,-352,1,7,11
5.77E+02,-7847,737,-56,38,73,-260,1,7,11
5.78E+02,-7876,748,-24,66,-105,82,1,7,11
5.78E+02,-7899,731,-17,90,-76,-55,1,7,11
5.78E+02,-7856,718,-30,-91,-63,310,1,7,11
5.78E+02,-7813,1032,-63,315,-2,313,1,7,11
5.79E+02,-7840,921,-117,153,345,-25,1,7,11
5.79E+02,-7896,1291,89,327,131,-62,1,7,11
5.79E+02,-7908,980,-112,123,140,-57,1,7,11
5.79E+02,-7918,1135,-84,53,178,-68,1,7,11
5.80E+02,-7879,917,-119,-127,206,-96,1,7,11
5.80E+02,-7845,976,83,-56,229,-263,1,7,11
5.80E+02,-7872,1004,56,-100,518,-366,1,7,11
5.80E+02,-7914,922,83,-264,584,-135,1,7,11
5.81E+02,-8204,1094,120,-357,601,-369,1,7,11
5.81E+02,-8236,1100,116,-258,599,-314,1,7,11
5.81E+02,-8267,897,80,66,574,60,1,7,11
5.81E+02,-8243,908,45,47,514,-87,1,7,11
5.82E+02,-8220,1141,45,19,196,-47,1,7,11
5.82E+02,-7929,1107,40,40,134,-44,1,7,11
5.82E+02,-7934,1125,20,80,356,-94,1,7,11
5.82E+02,-7919,1123,2,72,296,-121,1,7,11
5.83E+02,-7917,1117,-263,66,258,112,1,7,11
5.83E+02,-7925,1115,-267,56,-37,-124,1,7,11
5.83E+02,-7920,1107,-261,52,-66,-81,1,7,11
5.83E+02,-7924,1116,5,70,-85,-39,1,7,11
5.84E+02,-7891,1133,-257,102,-99,262,1,7,11
5.84E+02,-7874,903,-275,121,-87,-1,1,7,11
5.84E+02,-7866,916,-286,114,-64,-27,1,7,11
5.84E+02,-7890,901,-273,78,-34,-67,1,7,11
5.85E+02,-7916,1146,7,74,-30,-77,1,7,11
5.85E+02,-7911,1147,4,124,-37,-67,1,7,11
5.85E+02,-7869,919,-297,-65,-40,-66,1,7,11
5.85E+02,-7845,933,-333,-50,-15,-97,1,7,11
5.86E+02,-7842,917,-330,-78,286,112,1,7,11
5.86E+02,-7890,901,-293,-102,332,64,1,7,11
5.86E+02,-7916,898,-295,-98,332,65,1,7,11
5.86E+02,-7873,925,-329,-72,301,69,1,7,11
5.87E+02,-7878,931,-345,-87,297,46,1,7,11
5.87E+02,-7880,916,-347,-120,286,26,1,7,11
5.87E+02,-7918,916,-335,110,285,8,1,7,11
5.87E+02,-7919,921,-333,96,269,41,1,7,11
5.88E+02,-7908,921,-329,68,-49,72,1,7,11
5.88E+02,-7894,927,-340,35,-63,79,1,7,11
5.88E+02,-7889,936,-349,17,-71,70,1,7,11
5.88E+02,-7902,926,-340,-285,-80,67,1,7,11
5.89E+02,-7900,914,-333,-318,-82,94,1,7,11
5.89E+02,-7886,1143,-319,-341,-94,-119,1,7,11
5.89E+02,-7848,1118,-305,-344,-98,-108,1,7,11
5.89E+02,-7851,1144,-328,-267,-71,102,1,7,11
5.90E+02,-7858,914,-349,7,-53,65,1,7,11
5.90E+02,-7890,905,-348,-260,-33,36,1,7,11
5.90E+02,-8197,908,-338,-265,-36,50,1,7,11
5.90E+02,-7927,900,-329,-280,-81,118,1,7,11
5.91E+02,-7884,1150,-330,-287,-110,-109,1,7,11
5.91E+02,-7861,908,-344,-269,-107,-127,1,7,11
5.91E+02,-7863,921,-361,-275,-93,102,1,7,11
5.91E+02,-7869,919,-369,-295,-71,89,1,7,11
5.92E+02,-7886,900,-350,-313,-56,93,1,7,11
5.92E+02,-7908,908,-349,-314,-63,114,1,7,11
5.92E+02,-7903,1150,-338,-308,-83,-107,1,7,11
5.92E+02,-7899,898,-329,-280,-98,-79,1,7,11
5.93E+02,-7896,1142,-321,-263,-119,-55,1,7,11
5.93E+02,-7853,1118,-324,38,119,256,1,7,11
5.93E+02,-8042,1108,-330,-127,-108,275,1,7,11
5.93E+02,-8050,1132,-341,256,-31,-44,1,7,11
5.94E+02,-7830,916,-370,351,281,-78,1,7,11
5.94E+02,-7815,904,-366,358,301,-65,1,7,11
5.94E+02,-8030,1123,-340,153,355,-50,1,7,11
5.94E+02,-8022,1132,-341,520,183,-60,1,7,11
5.95E+02,-8021,896,-353,622,521,-72,1,7,11
5.95E+02,-8033,925,-143,445,615,-115,1,7,11
5.95E+02,-8036,944,-192,467,453,106,1,7,11
5.95E+02,-8046,970,-201,487,803,89,1,7,11
5.96E+02,-8041,966,-208,480,895,100,1,7,11
5.96E+02,-7997,960,-224,501,721,124,1,7,11
5.96E+02,-8026,975,-531,827,1087,34,1,7,11
5.96E+02,-7820,993,-599,860,940,-265,1,7,11
5.97E+02,-8059,928,-628,509,943,29,1,7,11
5.97E+02,-7985,1122,-404,505,974,58,1,7,11
5.97E+02,-7639,1133,-454,829,1313,31,1,7,11
5.97E+02,-7946,925,-775,856,1187,-368,1,7,11
5.98E+02,-8063,981,-839,835,1273,-214,1,7,11
5.98E+02,-7924,1006,-645,460,1241,-206,1,7,11
5.98E+02,-8198,959,-678,555,1364,-337,1,7,11
5.98E+02,-7898,1140,-684,170,996,3,1,7,11
5.99E+02,-8195,1126,-727,156,928,-305,1,7,11
5.99E+02,-8275,918,-1065,153,1051,-375,1,7,11
5.99E+02,-8311,967,-904,307,843,-377,1,7,11
5.99E+02,-8299,968,-942,117,606,-329,1,7,11
6.00E+02,-8225,929,-959,-329,134,12,1,7,11
6.00E+02,-7883,1106,-941,-247,-43,68,1,7,11
6.00E+02,-8048,1024,-915,-582,85,83,1,7,11
6.00E+02,-7987,732,-904,-549,28,70,1,7,11
6.01E+02,-7940,752,-919,-210,25,60,1,7,11
6.01E+02,-7961,1040,-1139,-206,100,70,1,7,11
6.01E+02,-7990,764,-1101,-208,-123,57,1,7,11
6.01E+02,-8047,1031,-1069,-156,-106,26,1,7,11
6.02E+02,-7813,1050,-1076,-340,-115,35,1,7,11
6.02E+02,-8045,1080,-1073,-285,121,69,1,7,11
6.02E+02,-8029,1119,-1080,-272,123,66,1,7,11
6.02E+02,-8019,1131,-1082,-306,111,51,1,7,11
6.03E+02,-8000,1131,-1077,-351,103,24,1,7,11
6.03E+02,-8035,1133,-1078,-132,109,-286,1,7,11
6.03E+02,-8038,1110,-1078,-179,89,-263,1,7,11
6.03E+02,-8019,1075,-1050,-223,66,31,1,7,11
6.04E+02,-8008,1083,-1049,-205,57,32,1,7,11
6.04E+02,-7998,1084,-1051,-186,45,30,1,7,11
6.04E+02,-7986,1080,-1052,-201,47,33,1,7,11
6.04E+02,-8019,1067,-1040,-220,66,29,1,7,11
6.05E+02,-8037,1056,-765,-218,60,62,1,7,11
6.05E+02,-8004,1067,-758,-200,45,94,1,7,11
6.05E+02,-7994,1072,-754,-191,49,86,1,7,11
6.05E+02,-7975,1067,-766,-176,48,84,1,7,11
6.06E+02,-7982,1068,-1037,-176,68,58,1,7,11
6.06E+02,-8018,1067,-766,-179,95,53,1,7,11
6.06E+02,-8037,1071,-756,-187,108,84,1,7,11
6.06E+02,-8042,1077,-746,-178,117,93,1,7,11
6.07E+02,-7812,1109,-746,-157,125,72,1,7,11
6.07E+02,-7810,1117,-756,-170,108,82,1,7,11
6.07E+02,-8057,1100,-752,-171,93,91,1,7,11
6.07E+02,-8052,1112,-749,-164,83,103,1,7,11
6.08E+02,-8023,1094,-729,-184,61,105,1,7,11
6.08E+02,-8000,1099,-727,-160,62,72,1,7,11
6.08E+02,-7991,1112,-731,-138,67,28,1,7,11
6.08E+02,-7999,1115,-731,-160,80,-266,1,7,11
6.09E+02,-8041,1094,-717,-180,95,-261,1,7,11
6.09E+02,-8042,1095,-712,-177,80,38,1,7,11
6.09E+02,-8008,1113,-722,-172,61,64,1,7,11
6.09E+02,-7977,1118,-740,-196,48,64,1,7,11
6.10E+02,-8000,1075,-689,-249,65,38,1,7,11
6.10E+02,-8023,1041,-672,-233,68,30,1,7,11
6.10E+02,-8022,1050,-679,-182,56,19,1,7,11
6.10E+02,-7834,1094,-682,-130,70,-272,1,7,11
6.11E+02,-7852,1121,-682,-129,58,-272,1,7,11
6.11E+02,-7851,1124,-673,-148,32,15,1,7,11
6.11E+02,-7830,1082,-661,-182,-1,37,1,7,11
6.11E+02,-8054,1074,-650,-153,17,17,1,7,11
6.12E+02,-8029,1106,-666,-369,60,-276,1,7,11
6.12E+02,-8017,905,-715,-370,100,-286,1,7,11
6.12E+02,-8008,902,-710,-185,122,8,1,7,11
6.12E+02,-7989,1127,-704,-237,-112,43,1,7,11
6.13E+02,-8015,1095,-683,-518,-82,31,1,7,11
6.13E+02,-8042,1087,-675,-250,-77,30,1,7,11
6.13E+02,-8050,1063,-664,-523,-113,43,1,7,11
6.13E+02,-8039,1032,-646,-247,108,55,1,7,11
6.14E+02,-8009,1056,-669,-207,94,44,1,7,11
6.14E+02,-8026,1051,-652,-221,89,20,1,7,11
6.14E+02,-8033,1104,-675,-191,78,30,1,7,11
6.14E+02,-8033,1068,-672,-515,63,42,1,7,11
6.15E+02,-8036,1041,-648,-236,79,40,1,7,11
6.15E+02,-7826,1098,-672,-173,102,7,1,7,11
6.15E+02,-7896,1130,-677,-193,82,22,1,7,11
6.15E+02,-7907,1119,-657,-245,16,76,1,7,11
6.16E+02,-7900,1123,-896,-520,-309,92,1,7,11
6.16E+02,-7863,1131,-876,-550,-133,76,1,7,11
6.16E+02,-7839,905,-857,-581,-198,34,1,7,11
6.16E+02,-7845,933,-862,-412,-521,14,1,7,11
6.17E+02,-7897,1126,-807,-817,-601,51,1,7,11
6.17E+02,-7822,1129,-508,-823,-434,-100,1,7,11
6.17E+02,-8020,1147,-787,-830,-422,-71,1,7,11
6.17E+02,-7980,1071,-503,-849,-588,-48,1,7,11
6.18E+02,-7967,1051,-496,-453,-160,-66,1,7,11
6.18E+02,-7996,755,-441,-582,6,-106,1,7,11
6.18E+02,-8026,1027,-401,-140,124,107,1,7,11
6.18E+02,-8040,1112,-419,-275,-101,87,1,7,11
6.19E+02,-8017,986,-483,7,-118,68,1,7,11
6.19E+02,-8026,967,-479,-336,126,47,1,7,11
6.19E+02,-7834,1144,-445,-241,-116,71,1,7,11
6.19E+02,-7850,1117,-428,-540,-123,-116,1,7,11
6.20E+02,-7844,1119,-433,-518,124,-86,1,7,11
6.20E+02,-8033,898,-478,-211,81,-64,1,7,11
6.20E+02,-7993,1135,-488,-246,107,-90,1,7,11
6.20E+02,-8003,1083,-445,-528,-87,-124,1,7,11
6.21E+02,-8013,1040,-411,-214,-28,-127,1,7,11
6.21E+02,-8041,1031,-410,-341,265,88,1,7,11
6.21E+02,-8036,1104,-447,75,296,66,1,7,11
6.21E+02,-7823,954,-507,-117,329,-258,1,7,11
6.22E+02,-7866,973,-773,58,316,-263,1,7,11
6.22E+02,-7882,966,-771,3,303,16,1,7,11
6.22E+02,-7893,968,-502,-316,-7,37,1,7,11
6.22E+02,-7853,940,-474,-140,-75,83,1,7,11
6.23E+02,-7822,939,-485,-158,-104,104,1,7,11
6.23E+02,-8062,931,-482,-189,-117,109,1,7,11
6.23E+02,-8053,913,-484,-216,127,101,1,7,11
6.23E+02,-8063,1143,-480,-228,122,107,1,7,11
6.24E+02,-7835,1135,-473,-195,-119,-125,1,7,11
6.24E+02,-7848,1134,-465,-173,112,-89,1,7,11
6.24E+02,-8058,1141,-454,-380,80,-35,1,7,11
6.24E+02,-8034,917,-456,-351,72,-41,1,7,11
6.25E+02,-8030,955,-463,-343,80,-56,1,7,11
6.25E+02,-8061,968,-468,-377,87,-85,1,7,11
6.25E+02,-7822,968,-482,-150,83,-87,1,7,11
6.25E+02,-7832,961,-484,-152,95,-53,1,7,11
6.26E+02,-7835,943,-453,-148,121,-22,1,7,11
6.26E+02,-7811,962,-459,-357,-118,-8,1,7,11
6.26E+02,-7823,1309,-497,-297,-93,-96,1,7,11
6.26E+02,-7905,1391,-478,-358,-104,19,1,7,11
6.27E+02,-8270,1161,-459,-209,98,-150,1,7,11
6.27E+02,-8441,1193,-495,-588,-167,-380,1,7,11
6.27E+02,-8426,1200,-797,-467,-649,8,1,7,11
6.27E+02,-8323,1177,-823,-707,-1180,76,1,7,11
6.28E+02,-8464,1182,-829,-1035,-2143,65,1,7,11
6.28E+02,-8103,1402,-799,-1166,-2352,103,1,7,11
6.28E+02,-7848,988,-432,-1458,-2616,261,1,7,11
6.28E+02,-7782,1036,-221,-1889,-2932,321,1,7,11
6.29E+02,-7351,692,-277,-1410,-2668,-27,1,7,11
6.29E+02,-7315,893,-76,-1388,-1991,-104,1,7,11
6.29E+02,-7389,820,381,-1066,-1502,123,1,7,11
6.29E+02,-7780,823,538,-626,-1020,101,1,7,11
6.30E+02,-7660,667,614,58,-883,-105,1,7,11
6.30E+02,-7965,767,634,354,-587,-5,1,7,11
6.30E+02,-7998,1118,608,561,-318,310,1,7,11
6.30E+02,-8022,964,546,412,-91,357,1,7,11
6.31E+02,-8047,1299,234,421,355,133,1,7,11
6.31E+02,-8024,1384,179,419,252,179,1,7,11
6.31E+02,-7832,1178,151,584,393,146,1,7,11
6.31E+02,-7848,1396,158,203,410,155,1,7,11
6.32E+02,-8021,1362,361,144,389,131,1,7,11
6.32E+02,-7647,1314,320,367,414,309,1,7,11
6.32E+02,-7594,1310,262,339,503,123,1,7,11
6.32E+02,-7599,1358,-7,274,851,-146,1,7,11
6.33E+02,-8028,1220,-56,-52,695,-455,1,7,11
6.33E+02,-8234,1262,-99,-262,662,-831,1,7,11
6.33E+02,-8301,1346,-12,-524,777,-509,1,7,11
6.33E+02,-8311,1009,-16,-206,441,-465,1,7,11
6.34E+02,-8311,1357,-93,-286,627,-452,1,7,11
6.34E+02,-8305,1176,69,63,549,-404,1,7,11
6.34E+02,-8286,1170,2,30,235,-219,1,7,11
6.34E+02,-8295,1374,6,-269,528,-316,1,7,11
6.35E+02,-8285,1288,34,-320,545,-122,1,7,11
6.35E+02,-7935,925,56,-309,522,272,1,7,11
6.35E+02,-7866,1126,52,61,522,-15,1,7,11
6.35E+02,-7869,944,-267,-31,558,125,1,7,11
6.36E+02,-7919,1284,-316,-2,577,52,1,7,11
6.36E+02,-8213,1295,-314,-66,557,71,1,7,11
6.36E+02,-8231,1011,-314,109,242,-127,1,7,11
6.36E+02,-7934,1150,-284,12,153,-79,1,7,11
6.37E+02,-7931,1129,-298,72,134,-111,1,7,11
6.37E+02,-7896,941,-334,119,356,-122,1,7,11
6.37E+02,-7844,997,-341,83,352,-92,1,7,11
6.37E+02,-7858,962,-283,10,153,-68,1,7,11
6.38E+02,-7887,947,-258,81,206,-22,1,7,11
6.38E+02,-7918,914,0,-66,210,289,1,7,11
6.38E+02,-7869,964,-261,351,176,336,1,7,11
6.38E+02,-7853,1161,-351,194,208,310,1,7,11
6.39E+02,-7866,1555,-172,267,186,349,1,7,11
6.39E+02,-8059,1255,-181,-325,382,174,1,7,11
6.39E+02,-8020,1357,-184,-236,350,165,1,7,11
6.39E+02,-8004,951,-140,-526,352,341,1,7,11
6.40E+02,-8045,899,-350,-374,147,-21,1,7,11
6.40E+02,-7996,944,-369,63,143,-64,1,7,11
6.40E+02,-7973,1004,-154,-81,208,93,1,7,11
6.40E+02,-7816,1322,-226,-21,522,9,1,7,11
6.41E+02,-7832,1009,-242,-35,254,16,1,7,11
6.41E+02,-7880,1007,-240,299,535,-269,1,7,11
6.41E+02,-8214,1018,-229,313,226,-275,1,7,11
6.41E+02,-7929,1009,-240,279,333,77,1,7,11
6.42E+02,-7816,1022,-517,304,-14,-125,1,7,11
6.42E+02,-7828,1364,-566,300,-2,64,1,7,11
6.42E+02,-7846,1391,-586,-62,-20,70,1,7,11
6.42E+02,-7832,1395,-583,119,-36,96,1,7,11
6.43E+02,-7860,1162,-586,62,-3,99,1,7,11
6.43E+02,-7851,1385,-549,-281,-5,-115,1,7,11
6.43E+02,-8055,1368,-555,-318,-8,-127,1,7,11
6.43E+02,-8028,1303,-528,-351,265,62,1,7,11
6.44E+02,-7819,1301,-522,-314,295,-304,1,7,11
6.44E+02,-7899,1354,-518,-302,274,-337,1,7,11
6.44E+02,-7891,1397,-538,-322,-60,-225,1,7,11
6.44E+02,-7832,1376,-517,-177,90,111,1,7,11
6.45E+02,-7809,1369,-516,-516,99,113,1,7,11
6.45E+02,-7836,1356,-514,-583,116,81,1,7,11
6.45E+02,-7863,1304,-243,-577,-119,105,1,7,11
6.45E+02,-7868,1011,-219,-228,-90,118,1,7,11
