timestamp,ax,ay,az,gx,gy,gz,Label1,Label2,Label3
3.40E+03,-7985,-1038,-1315,110,-93,111,1,7,11
3.40E+03,-7981,-1040,-1313,81,-91,105,1,7,11
3.40E+03,-7980,-1045,-1310,50,-89,91,1,7,11
3.40E+03,-7979,-1057,-1304,30,-93,78,1,7,11
3.40E+03,-7976,-1073,-1303,17,-104,75,1,7,11
3.40E+03,-7979,-1086,-1299,11,-103,61,1,7,11
3.40E+03,-8002,-1100,-1290,15,-107,53,1,7,11
3.40E+03,-7993,-1111,-1283,27,126,62,1,7,11
3.40E+03,-7980,-1131,-1017,32,115,66,1,7,11
3.40E+03,-7986,-1149,-995,43,116,59,1,7,11
3.40E+03,-7986,-903,-993,63,92,61,1,7,11
3.40E+03,-7963,-1150,-1010,84,71,64,1,7,11
3.40E+03,-7981,-1132,-1012,85,86,53,1,7,11
3.40E+03,-7997,-1115,-1013,67,84,71,1,7,11
3.41E+03,-8002,-1090,-1021,26,66,101,1,7,11
3.41E+03,-8024,-1057,-1018,-324,18,-119,1,7,11
3.41E+03,-8041,-1062,-1011,-219,-351,-60,1,7,11
3.41E+03,-8020,-1088,-1006,-586,-238,276,1,7,11
3.41E+03,-7965,-1107,-998,-594,-557,329,1,7,11
3.41E+03,-7635,-1073,-964,-533,-247,370,1,7,11
3.41E+03,-7615,-1026,-1015,-513,-332,131,1,7,11
3.41E+03,-7605,-1112,-1016,-528,84,168,1,7,11
3.41E+03,-7797,-951,-1290,-131,311,318,1,7,11
3.41E+03,-7597,-975,-1004,104,639,119,1,7,11
3.41E+03,-7666,-941,-1008,318,852,-334,1,7,11
3.41E+03,-7994,-1121,-1295,202,892,-181,1,7,11
3.41E+03,-8038,-1110,-1331,201,796,-195,1,7,11
3.41E+03,-8051,-1116,-1333,176,395,-162,1,7,11
3.41E+03,-7819,-1090,-1340,157,515,-383,1,7,11
3.41E+03,-7820,-1081,-1345,327,357,-286,1,7,11
3.41E+03,-8040,-1122,-1357,-33,-56,56,1,7,11
3.41E+03,-7994,-1128,-1372,-75,98,104,1,7,11
3.41E+03,-7982,-1121,-1379,-115,64,114,1,7,11
3.41E+03,-7967,-1064,-1369,93,58,-114,1,7,11
3.41E+03,-7987,-768,-1378,29,63,-65,1,7,11
3.41E+03,-7974,-1025,-1370,-259,43,272,1,7,11
3.41E+03,-7956,-745,-1375,3,71,318,1,7,11
3.41E+03,-7990,-643,-1366,7,123,340,1,7,11
3.41E+03,-8041,-790,-1364,1,-120,365,1,7,11
3.41E+03,-7844,-770,-1329,-319,125,178,1,7,11
3.41E+03,-7866,-782,-1282,-153,20,244,1,7,11
3.41E+03,-7875,-816,-995,-195,-322,548,1,7,11
3.41E+03,-7847,-822,-972,-169,-152,564,1,7,11
3.41E+03,-8063,-819,-971,-131,-205,532,1,7,11
3.41E+03,-8043,-788,-961,-355,-215,201,1,7,11
3.41E+03,-8038,-502,-948,-354,-207,374,1,7,11
3.41E+03,-8019,-476,-934,-379,-201,297,1,7,11
3.41E+03,-8000,-481,-915,-176,-204,-41,1,7,11
3.41E+03,-7991,-506,-901,-239,-182,127,1,7,11
3.41E+03,-8004,-801,-1143,-543,-154,55,1,7,11
3.41E+03,-8004,-845,-1132,-579,-383,14,1,7,11
3.41E+03,-7992,-879,-1131,-594,-354,-257,1,7,11
3.41E+03,-7984,-644,-1130,-603,-317,-259,1,7,11
3.41E+03,-7983,-666,-1140,-608,-276,11,1,7,11
3.42E+03,-7992,-699,-1146,-602,29,32,1,7,11
3.42E+03,-8007,-728,-1139,-565,84,64,1,7,11
3.42E+03,-8019,-734,-1140,-256,-123,102,1,7,11
3.42E+03,-8035,-737,-1137,-209,-90,-101,1,7,11
3.42E+03,-8025,-729,-899,-163,-61,-43,1,7,11
3.42E+03,-8012,-710,-918,-380,-26,-9,1,7,11
3.42E+03,-8015,-684,-935,-361,268,-5,1,7,11
3.42E+03,-8041,-661,-939,-352,295,-17,1,7,11
3.42E+03,-8055,-886,-950,-358,289,-26,1,7,11
3.42E+03,-8047,-864,-968,-381,262,-25,1,7,11
3.42E+03,-8033,-859,-974,-151,-14,-23,1,7,11
3.42E+03,-8029,-867,-976,-176,-21,-23,1,7,11
3.42E+03,-8022,-881,-959,-182,-22,-20,1,7,11
3.42E+03,-8007,-877,-964,-161,-21,-13,1,7,11
3.42E+03,-8010,-874,-977,-141,-15,-21,1,7,11
3.42E+03,-8006,-865,-977,-368,-14,-24,1,7,11
3.42E+03,-8015,-817,-992,-337,-6,-38,1,7,11
3.42E+03,-8020,-783,-1009,-324,-7,-33,1,7,11
3.42E+03,-8030,-512,-1014,-338,-4,-18,1,7,11
3.42E+03,-8041,-503,-1021,-372,-12,-4,1,7,11
3.42E+03,-8036,-499,-1024,-132,-20,262,1,7,11
3.42E+03,-8034,-495,-1283,-137,-18,270,1,7,11
3.42E+03,-8031,-491,-1281,-139,-24,285,1,7,11
3.42E+03,-8015,-475,-1296,-132,-31,291,1,7,11
3.42E+03,-8006,-453,-1303,-382,-23,262,1,7,11
3.42E+03,-8021,-432,-1312,-133,-15,-31,1,7,11
3.42E+03,-8041,-428,-1309,-142,-25,-60,1,7,11
3.42E+03,-8057,-436,-1299,-144,-46,-67,1,7,11
3.42E+03,-8054,-447,-1290,-382,-68,-56,1,7,11
3.42E+03,-8044,-458,-1287,-357,-87,-37,1,7,11
3.42E+03,-8020,-473,-1286,-318,-92,-20,1,7,11
3.42E+03,-8012,-474,-1290,-261,-79,-18,1,7,11
3.42E+03,-8021,-462,-1292,50,-60,-18,1,7,11
3.42E+03,-8038,-451,-1294,100,-50,-4,1,7,11
3.42E+03,-8044,-442,-1302,-110,-54,283,1,7,11
3.42E+03,-8037,-434,-1304,-71,-64,321,1,7,11
3.42E+03,-8016,-404,-1318,-24,-68,342,1,7,11
3.42E+03,-8005,-385,-1316,258,-59,340,1,7,11
3.42E+03,-8024,-396,-1305,266,-53,333,1,7,11
3.42E+03,-8042,-411,-1293,271,-47,331,1,7,11
3.43E+03,-8036,-438,-1022,312,-59,361,1,7,11
3.43E+03,-8025,-482,-1004,361,-55,154,1,7,11
3.43E+03,-8019,-786,-989,176,-33,195,1,7,11
3.43E+03,-8030,-822,-974,539,-24,208,1,7,11
3.43E+03,-8019,-822,-975,426,-15,533,1,7,11
3.43E+03,-7997,-799,-996,845,261,589,1,7,11
3.43E+03,-7990,-490,-1024,738,305,400,1,7,11
3.43E+03,-7990,-432,-1308,1098,322,476,1,7,11
3.43E+03,-7990,-401,-1311,1128,337,807,1,7,11
3.43E+03,-7960,-619,-1317,917,349,861,1,7,11
3.43E+03,-7678,-534,-1325,949,168,872,1,7,11
3.43E+03,-7678,-155,-1363,968,540,879,1,7,11
3.43E+03,-8007,-155,-1390,1129,611,889,1,7,11
3.43E+03,-7939,-166,-1154,1120,392,654,1,7,11
3.43E+03,-7954,-177,-1155,1146,509,798,1,7,11
3.43E+03,-7993,-162,-1154,911,828,408,1,7,11
3.43E+03,-8037,-377,-1161,905,812,553,1,7,11
3.43E+03,-7820,-347,-1178,1089,471,235,1,7,11
3.43E+03,-7865,-348,-1174,714,607,224,1,7,11
3.43E+03,-7907,-351,-1405,873,210,516,1,7,11
3.43E+03,-7900,-375,-1393,792,289,608,1,7,11
3.43E+03,-7856,-148,-1380,500,-99,462,1,7,11
3.43E+03,-8062,-150,-1386,497,90,815,1,7,11
3.43E+03,-8013,-144,-1388,501,76,892,1,7,11
3.43E+03,-7990,-377,-1397,783,121,686,1,7,11
3.43E+03,-7982,-337,-1399,806,-65,723,1,7,11
3.43E+03,-7986,-308,-1392,802,-4,751,1,7,11
3.43E+03,-7993,-285,-1389,792,309,766,1,7,11
3.43E+03,-8014,-260,-1386,769,346,767,1,7,11
3.43E+03,-7976,37,-1407,475,341,762,1,7,11
3.43E+03,-7945,92,-1184,394,353,711,1,7,11
3.43E+03,-7946,-106,-1220,525,377,887,1,7,11
3.43E+03,-7979,-62,-1238,363,139,783,1,7,11
3.43E+03,-8026,-34,-1230,-69,374,432,1,7,11
3.43E+03,-8056,-29,-1221,5,302,621,1,7,11
3.43E+03,-8052,-27,-1224,-147,-33,579,1,7,11
3.43E+03,-8044,-19,-1260,-539,-98,545,1,7,11
3.43E+03,-8010,-25,-1539,-1034,25,163,1,7,11
3.43E+03,-8006,-62,-1260,-1113,-276,151,1,7,11
3.43E+03,-7977,-111,-1233,-1105,-313,157,1,7,11
3.44E+03,-7951,113,-1223,-1044,-324,157,1,7,11
3.44E+03,-7664,85,-1205,-710,-326,155,1,7,11
3.44E+03,-7623,49,-1187,-867,-316,142,1,7,11
3.44E+03,-7627,41,-1397,-470,1,345,1,7,11
3.44E+03,-7660,74,-1383,-558,48,317,1,7,11
3.44E+03,-7663,-124,-1374,-145,69,331,1,7,11
3.44E+03,-7649,-37,-1394,-266,107,357,1,7,11
3.44E+03,-7634,296,-1155,72,-90,130,1,7,11
3.44E+03,-7652,369,-1167,111,-15,147,1,7,11
3.44E+03,-7960,164,-1182,120,301,160,1,7,11
3.44E+03,-7993,200,-1181,117,320,187,1,7,11
3.44E+03,-8009,233,-1179,114,319,221,1,7,11
3.44E+03,-8000,519,-1171,116,305,514,1,7,11
3.44E+03,-7975,541,-1168,120,296,548,1,7,11
3.44E+03,-7949,565,-1173,-120,301,563,1,7,11
3.44E+03,-7954,601,-1168,-95,325,558,1,7,11
3.44E+03,-7973,385,-1170,-67,345,557,1,7,11
3.44E+03,-7972,423,-1175,-47,340,572,1,7,11
3.44E+03,-7951,448,-1185,-48,327,574,1,7,11
3.44E+03,-7648,464,-1210,-58,310,557,1,7,11
3.44E+03,-7599,472,-1236,-86,326,237,1,7,11
3.44E+03,-7620,471,-1549,-124,374,133,1,7,11
3.44E+03,-7652,466,-1567,73,161,287,1,7,11
3.44E+03,-7960,446,-1599,-265,167,-50,1,7,11
3.44E+03,-7996,429,-1609,-331,142,-112,1,7,11
3.44E+03,-8016,406,-1609,-379,357,98,1,7,11
3.44E+03,-8026,636,-1596,-155,306,64,1,7,11
3.44E+03,-8037,604,-1577,-169,-11,43,1,7,11
3.44E+03,-8053,562,-1554,-167,-75,27,1,7,11
3.44E+03,-8054,542,-1547,-142,115,29,1,7,11
3.44E+03,-8051,542,-1277,-375,67,37,1,7,11
3.44E+03,-8032,556,-1266,-351,36,67,1,7,11
3.44E+03,-8003,550,-1236,-338,17,108,1,7,11
3.44E+03,-7993,542,-1200,-323,11,-109,1,7,11
3.44E+03,-7965,530,-1182,-290,11,-75,1,7,11
3.44E+03,-7953,525,-1167,9,23,-57,1,7,11
3.44E+03,-7665,534,-1161,54,29,-40,1,7,11
3.44E+03,-7644,528,-1404,73,33,-46,1,7,11
3.44E+03,-7638,517,-1379,82,69,-64,1,7,11
3.44E+03,-7641,512,-1367,112,93,-73,1,7,11
3.45E+03,-7642,253,-1364,124,108,-72,1,7,11
3.45E+03,-7629,241,-1377,126,124,-73,1,7,11
3.45E+03,-7622,232,-1384,127,-101,-93,1,7,11
3.45E+03,-7615,249,-1404,-107,-61,-109,1,7,11
3.45E+03,-7618,537,-1186,-90,-8,-120,1,7,11
3.45E+03,-7637,568,-1210,-108,300,-113,1,7,11
3.45E+03,-7666,586,-1213,109,328,-71,1,7,11
3.45E+03,-7658,582,-1234,76,322,-8,1,7,11
3.45E+03,-7646,581,-1255,60,325,288,1,7,11
3.45E+03,-7636,606,-1546,63,349,306,1,7,11
3.45E+03,-7635,384,-1585,69,133,298,1,7,11
3.45E+03,-7655,448,-1635,78,183,288,1,7,11
3.45E+03,-7677,774,-1660,46,219,286,1,7,11
3.45E+03,-7968,808,-1662,-279,233,298,1,7,11
3.45E+03,-7988,819,-1645,-342,205,320,1,7,11
3.45E+03,-7999,819,-1626,-381,148,337,1,7,11
3.45E+03,-7975,807,-1623,-140,325,348,1,7,11
3.45E+03,-7955,792,-1620,-138,266,319,1,7,11
3.45E+03,-7953,791,-1632,-383,-23,260,1,7,11
3.45E+03,-7946,804,-1635,-383,-55,-57,1,7,11
3.45E+03,-7661,793,-1639,-158,-85,-121,1,7,11
3.45E+03,-7667,505,-1627,-207,-93,58,1,7,11
3.45E+03,-7658,464,-1611,-232,-119,4,1,7,11
3.45E+03,-7654,428,-1595,-233,124,-301,1,7,11
3.45E+03,-7947,637,-1571,-214,126,-335,1,7,11
3.45E+03,-7668,609,-1560,-182,101,-314,1,7,11
3.45E+03,-7634,580,-1562,-152,80,-262,1,7,11
3.45E+03,-7595,573,-1568,-329,127,27,1,7,11
3.45E+03,-7577,577,-1578,-283,-69,51,1,7,11
3.45E+03,-7596,600,-1580,-258,256,62,1,7,11
3.45E+03,-7620,637,-1593,76,288,88,1,7,11
3.45E+03,-7621,432,-1619,102,296,124,1,7,11
3.45E+03,-7639,471,-1650,92,309,-109,1,7,11
3.45E+03,-7663,498,-1656,54,308,-91,1,7,11
3.45E+03,-7940,501,-1655,4,281,-70,1,7,11
3.45E+03,-7955,483,-1635,-289,-16,-61,1,7,11
3.45E+03,-7971,462,-1621,-309,-68,-57,1,7,11
3.45E+03,-7971,442,-1617,-300,-127,-67,1,7,11
3.45E+03,-7937,435,-1620,-280,77,-78,1,7,11
3.45E+03,-7658,433,-1613,4,71,-117,1,7,11
3.46E+03,-7659,440,-1607,31,81,106,1,7,11
3.46E+03,-7648,439,-1603,47,81,99,1,7,11
3.46E+03,-7627,451,-1609,58,82,102,1,7,11
3.46E+03,-7609,471,-1627,64,92,105,1,7,11
3.46E+03,-7649,499,-1625,-273,127,98,1,7,11
3.46E+03,-7650,490,-1603,-301,110,108,1,7,11
3.46E+03,-7662,476,-1586,-318,98,118,1,7,11
3.46E+03,-7669,446,-1568,-317,82,-118,1,7,11
3.46E+03,-7663,434,-1557,-294,70,-100,1,7,11
3.46E+03,-7666,436,-1558,-258,73,-85,1,7,11
3.46E+03,-7672,455,-1555,24,85,-69,1,7,11
3.46E+03,-7947,476,-1554,33,93,-55,1,7,11
3.46E+03,-7952,493,-1560,30,87,-41,1,7,11
3.46E+03,-7949,496,-1563,11,79,-46,1,7,11
3.46E+03,-7674,503,-1569,-262,71,-56,1,7,11
3.46E+03,-7653,777,-1576,-282,72,-82,1,7,11
3.46E+03,-7629,793,-1584,-306,88,-116,1,7,11
3.46E+03,-7630,798,-1592,-326,119,110,1,7,11
3.46E+03,-7649,803,-1578,-345,-113,95,1,7,11
3.46E+03,-7674,807,-1568,-350,-102,103,1,7,11
3.46E+03,-7670,785,-1559,-341,-115,-126,1,7,11
3.46E+03,-7659,510,-1557,-325,-125,-109,1,7,11
3.46E+03,-7624,504,-1565,-287,106,-103,1,7,11
3.46E+03,-7635,778,-1569,11,-122,106,1,7,11
3.46E+03,-7946,806,-1568,50,-97,75,1,7,11
3.46E+03,-7985,813,-1551,38,-108,75,1,7,11
3.46E+03,-7977,802,-1542,16,106,104,1,7,11
3.46E+03,-7675,780,-1280,1,76,121,1,7,11
3.46E+03,-7670,771,-1538,0,91,92,1,7,11
3.46E+03,-7939,770,-1537,2,106,65,1,7,11
3.46E+03,-7941,770,-1541,-269,98,56,1,7,11
3.46E+03,-7679,771,-1545,-286,94,54,1,7,11
3.46E+03,-7670,509,-1273,-313,89,61,1,7,11
3.46E+03,-7661,772,-1539,-355,81,116,1,7,11
3.46E+03,-7679,769,-1261,-366,91,-125,1,7,11
3.46E+03,-7954,497,-1236,-363,87,-87,1,7,11
3.46E+03,-7968,477,-1209,-350,60,-76,1,7,11
3.46E+03,-7967,462,-1200,-307,52,-74,1,7,11
3.46E+03,-7952,451,-1188,2,34,-72,1,7,11
3.46E+03,-7939,459,-1173,55,25,-80,1,7,11
3.47E+03,-7674,448,-1160,120,19,-77,1,7,11
3.47E+03,-7656,442,-1158,-98,15,-69,1,7,11
3.47E+03,-7639,429,-1164,-45,28,-70,1,7,11
3.47E+03,-7614,440,-1184,279,54,-71,1,7,11
3.47E+03,-7591,445,-1200,341,98,-71,1,7,11
3.47E+03,-7601,456,-1211,152,-86,-75,1,7,11
3.47E+03,-7644,475,-1236,216,-33,-70,1,7,11
3.47E+03,-7676,489,-1239,533,-24,-33,1,7,11
3.47E+03,-7954,772,-1247,602,-26,275,1,7,11
3.47E+03,-7962,826,-1278,408,-37,341,1,7,11
3.47E+03,-7676,865,-1224,527,52,302,1,7,11
3.47E+03,-7651,843,-1206,552,62,-35,1,7,11
3.47E+03,-7648,836,-1201,581,89,-112,1,7,11
3.47E+03,-7619,848,-1197,595,108,100,1,7,11
3.47E+03,-7577,841,-1208,571,-104,64,1,7,11
3.47E+03,-7560,801,-1218,523,-52,30,1,7,11
3.47E+03,-7791,493,-1213,208,271,-269,1,7,11
3.47E+03,-7807,433,-1200,161,360,-325,1,7,11
3.47E+03,-7564,638,-1194,144,185,-347,1,7,11
3.47E+03,-7582,609,-1201,143,512,-356,1,7,11
3.47E+03,-7593,579,-1226,144,557,-344,1,7,11
3.47E+03,-7584,553,-1257,142,599,-335,1,7,11
3.47E+03,-7570,250,-1280,364,634,-348,1,7,11
3.47E+03,-7555,173,-1271,318,409,-136,1,7,11
3.47E+03,-7556,354,-1260,300,452,-208,1,7,11
3.47E+03,-7576,283,-1256,295,473,-528,1,7,11
3.47E+03,-7557,-15,-1544,334,486,-557,1,7,11
3.47E+03,-7603,-34,-1559,378,773,-600,1,7,11
3.47E+03,-7635,-44,-1578,134,485,-578,1,7,11
3.47E+03,-7612,-89,-1591,364,409,-520,1,7,11
3.47E+03,-7581,115,-1581,350,611,-222,1,7,11
3.47E+03,-7602,-261,-1575,312,571,-212,1,7,11
3.47E+03,-7629,-307,-1586,299,515,-196,1,7,11
3.47E+03,-7651,-321,-1597,323,225,-181,1,7,11
3.47E+03,-7674,-327,-1612,321,181,-140,1,7,11
3.47E+03,-7663,-352,-1654,267,132,-339,1,7,11
3.47E+03,-7636,-133,-1461,-77,349,-288,1,7,11
3.47E+03,-7582,-151,-1528,104,339,15,1,7,11
3.47E+03,-7807,-135,-1858,58,141,37,1,7,11
3.47E+03,-7561,-353,-1666,-262,225,66,1,7,11
3.48E+03,-7602,-292,-1703,-310,560,-128,1,7,11
3.48E+03,-7628,42,-1711,-352,587,-15,1,7,11
3.48E+03,-7610,93,-1696,-147,564,141,1,7,11
3.48E+03,-7573,116,-1676,-177,516,545,1,7,11
3.48E+03,-7793,-123,-1916,-170,222,638,1,7,11
3.48E+03,-7562,-68,-1876,-356,224,399,1,7,11
3.48E+03,-7622,283,-1838,3,218,419,1,7,11
3.48E+03,-7659,139,-1799,101,164,504,1,7,11
3.48E+03,-7631,243,-1518,-93,336,648,1,7,11
3.48E+03,-7565,574,-1509,-69,270,1051,1,7,11
3.48E+03,-7747,632,-1512,-59,259,1129,1,7,11
3.48E+03,-7719,448,-1513,-41,297,1129,1,7,11
3.48E+03,-7695,794,-1525,-44,332,1092,1,7,11
3.48E+03,-7400,716,-1818,115,378,739,1,7,11
3.48E+03,-7391,730,-1829,36,149,693,1,7,11
3.48E+03,-7378,757,-1863,-272,193,654,1,7,11
3.48E+03,-7355,1082,-1919,-285,250,881,1,7,11
3.48E+03,-7326,918,-1738,-307,571,874,1,7,11
3.48E+03,-7308,1004,-2059,-357,636,876,1,7,11
3.48E+03,-7325,1331,-2089,-170,455,879,1,7,11
3.48E+03,-7346,1377,-2128,-220,488,670,1,7,11
3.48E+03,-7324,1180,-2167,-237,492,1034,1,7,11
3.48E+03,-7301,1248,-1962,-211,771,1073,1,7,11
3.48E+03,-7311,1590,-2014,-182,812,1077,1,7,11
3.48E+03,-7346,1423,-2045,-173,839,1075,1,7,11
3.48E+03,-7387,1492,-2039,-180,818,1107,1,7,11
3.48E+03,-7358,1800,-2312,-182,487,929,1,7,11
3.48E+03,-7380,2133,-2187,-365,412,1204,1,7,11
3.48E+03,-7363,1929,-2195,-150,623,1617,1,7,11
3.48E+03,-7547,1962,-2207,-179,580,1512,1,7,11
3.48E+03,-7497,1985,-2212,-180,585,1840,1,7,11
3.48E+03,-7465,2042,-2227,-383,610,1857,1,7,11
3.48E+03,-7433,2357,-2232,-334,630,1826,1,7,11
3.48E+03,-7425,2421,-2243,-283,402,1483,1,7,11
3.48E+03,-7457,2243,-2261,24,424,1601,1,7,11
3.48E+03,-7467,2573,-2276,44,396,1214,1,7,11
3.48E+03,-7454,2641,-2293,43,607,1322,1,7,11
3.48E+03,-7463,2447,-2569,31,573,1149,1,7,11
3.48E+03,-7464,2511,-2586,-257,519,719,1,7,11
3.48E+03,-7476,2556,-2595,-313,198,799,1,7,11
3.49E+03,-7476,2830,-2588,-141,361,386,1,7,11
3.49E+03,-7456,2546,-2574,-231,-1,249,1,7,11
3.49E+03,-7435,2493,-2299,-554,-79,358,1,7,11
3.49E+03,-7436,2455,-2275,-581,-126,-39,1,7,11
3.49E+03,-7435,2681,-2249,-585,94,108,1,7,11
3.49E+03,-7145,2645,-2250,-588,54,38,1,7,11
3.49E+03,-7108,2615,-2243,-612,38,-280,1,7,11
3.49E+03,-7118,2584,-2227,-389,54,-375,1,7,11
3.49E+03,-7116,2265,-2204,-438,57,-175,1,7,11
3.49E+03,-7128,2204,-2422,-475,56,-247,1,7,11
3.49E+03,-7145,2429,-2402,-461,46,-573,1,7,11
3.49E+03,-7160,2399,-2393,-447,25,-625,1,7,11
3.49E+03,-7153,1981,-2376,-864,-280,-460,1,7,11
3.49E+03,-7145,2174,-2349,-654,-295,-497,1,7,11
3.49E+03,-7431,2126,-2329,-683,-291,-813,1,7,11
3.49E+03,-7468,2062,-2306,-704,-318,-843,1,7,11
3.49E+03,-7447,1750,-2029,-709,-360,-846,1,7,11
3.49E+03,-7453,1697,-2017,-682,-360,-888,1,7,11
3.49E+03,-7443,1671,-2013,-890,-356,-662,1,7,11
3.49E+03,-7442,1892,-2008,-851,-334,-690,1,7,11
3.49E+03,-7459,1872,-2009,-824,-304,-693,1,7,11
3.49E+03,-7460,1859,-2015,-821,-282,-664,1,7,11
3.49E+03,-7481,1835,-2016,-844,3,-895,1,7,11
3.49E+03,-7496,1825,-2019,-877,20,-860,1,7,11
3.49E+03,-7504,1815,-2024,-682,23,-835,1,7,11
3.49E+03,-7538,1530,-2004,-1028,19,-830,1,7,11
3.49E+03,-7313,1474,-1970,-1114,-262,-814,1,7,11
3.49E+03,-7327,1414,-1938,-1152,-302,-788,1,7,11
3.49E+03,-7322,1615,-2169,-1143,-347,-498,1,7,11
3.49E+03,-7546,1567,-2148,-1095,-374,-468,1,7,11
3.49E+03,-7547,1271,-2125,-756,-361,-466,1,7,11
3.49E+03,-7313,1240,-2079,-660,-357,-450,1,7,11
3.49E+03,-7302,1182,-1781,-805,-131,-402,1,7,11
3.49E+03,-7528,1373,-1752,-408,-145,-621,1,7,11
3.49E+03,-7510,1334,-1761,-232,-375,-600,1,7,11
3.49E+03,-7482,1322,-1783,-310,-327,-576,1,7,11
3.49E+03,-7459,1327,-2063,110,1,-549,1,7,11
3.49E+03,-7168,1353,-2108,-16,81,-518,1,7,11
3.49E+03,-7151,1390,-2152,316,-73,-255,1,7,11
3.49E+03,-7457,1154,-2171,345,291,-529,1,7,11
3.50E+03,-7542,1162,-2166,342,359,-532,1,7,11
3.50E+03,-7372,1163,-2150,340,359,-242,1,7,11
3.50E+03,-7420,1406,-2119,338,302,-185,1,7,11
3.50E+03,-7689,1389,-2105,343,-41,-130,1,7,11
3.50E+03,-7701,1368,-2086,352,-119,-357,1,7,11
3.50E+03,-7677,1394,-2085,375,55,-336,1,7,11
3.50E+03,-7415,1170,-2098,379,-258,-333,1,7,11
3.50E+03,-7385,1189,-2114,359,-290,-327,1,7,11
3.50E+03,-7372,1201,-2122,291,-285,-328,1,7,11
3.50E+03,-7379,1212,-2107,-45,-272,-321,1,7,11
3.50E+03,-7372,1207,-2081,-120,-264,-310,1,7,11
3.50E+03,-7333,1211,-2082,62,-265,-285,1,7,11
3.50E+03,-7322,1237,-2068,20,25,-279,1,7,11
3.50E+03,-7344,1249,-1784,-288,62,-260,1,7,11
3.50E+03,-7357,1247,-1746,-318,71,40,1,7,11
3.50E+03,-7351,1240,-1721,-324,59,88,1,7,11
3.50E+03,-7331,1237,-1699,-313,39,125,1,7,11
3.50E+03,-7325,1250,-1676,-300,37,125,1,7,11
3.50E+03,-7310,1261,-1671,-292,30,124,1,7,11
3.50E+03,-7325,1272,-1667,-303,39,114,1,7,11
3.50E+03,-7336,1538,-1910,-341,28,118,1,7,11
3.50E+03,-7321,1264,-1900,-142,1,117,1,7,11
3.50E+03,-7314,1239,-1910,-180,10,82,1,7,11
3.50E+03,-7347,1237,-1666,-208,48,46,1,7,11
3.50E+03,-7364,1244,-1681,-250,75,46,1,7,11
3.50E+03,-7375,1254,-1687,-548,110,66,1,7,11
3.50E+03,-7408,1260,-1682,-581,-109,96,1,7,11
3.50E+03,-7385,1267,-1693,-586,-107,-112,1,7,11
3.50E+03,-7373,1536,-1727,-567,-74,-112,1,7,11
3.50E+03,-7364,1583,-1775,-539,-33,-115,1,7,11
3.50E+03,-7366,1605,-2059,-540,274,125,1,7,11
3.50E+03,-7389,1612,-2055,-534,325,113,1,7,11
3.50E+03,-7401,1609,-1785,-247,342,125,1,7,11
3.50E+03,-7424,1590,-1778,-175,342,-117,1,7,11
3.50E+03,-7419,1584,-1771,-321,313,-89,1,7,11
3.50E+03,-7383,1572,-1765,45,280,-76,1,7,11
3.50E+03,-7378,1586,-1769,-93,280,-97,1,7,11
3.50E+03,-7388,1610,-1757,-4,273,-112,1,7,11
3.50E+03,-7396,1601,-1725,306,-9,-108,1,7,11
3.50E+03,-7400,1590,-1719,350,-48,-92,1,7,11
3.51E+03,-7341,1595,-1728,160,-106,-51,1,7,11
3.51E+03,-7535,1611,-1773,167,-107,-48,1,7,11
3.51E+03,-7489,1626,-2074,140,-62,-65,1,7,11
3.51E+03,-7480,1643,-2107,341,268,-99,1,7,11
3.51E+03,-7486,1658,-2154,274,334,-123,1,7,11
3.51E+03,-7499,1420,-1959,-50,137,114,1,7,11
3.51E+03,-7546,1439,-1982,-123,179,112,1,7,11
3.51E+03,-7337,1446,-2001,55,178,-128,1,7,11
3.51E+03,-7373,1437,-1987,-262,147,-102,1,7,11
3.51E+03,-7400,1426,-1969,-276,351,-83,1,7,11
3.51E+03,-7421,1425,-1973,7,290,-80,1,7,11
3.51E+03,-7683,1444,-1974,52,-32,-81,1,7,11
3.51E+03,-7417,1442,-1960,90,-96,-93,1,7,11
3.51E+03,-7417,1426,-1934,-120,117,-114,1,7,11
3.51E+03,-7410,1411,-2161,-59,74,122,1,7,11
3.51E+03,-7390,1654,-2137,-3,36,96,1,7,11
3.51E+03,-7357,1648,-2126,297,18,61,1,7,11
3.51E+03,-7326,1648,-2130,318,23,23,1,7,11
3.51E+03,-7307,1634,-2129,323,55,-274,1,7,11
3.51E+03,-7308,1626,-2124,328,104,-314,1,7,11
3.51E+03,-7315,1618,-2116,322,-117,-333,1,7,11
3.51E+03,-7310,1602,-2105,304,-99,-331,1,7,11
3.51E+03,-7303,1554,-2104,279,-102,-318,1,7,11
3.51E+03,-7534,1255,-2108,267,-96,-311,1,7,11
3.51E+03,-7522,1232,-2126,279,-79,-311,1,7,11
3.51E+03,-7528,1227,-2159,280,-47,-309,1,7,11
3.51E+03,-7300,1232,-1924,267,-13,-288,1,7,11
3.51E+03,-7316,1238,-1937,-4,262,5,1,7,11
3.51E+03,-7317,1242,-1952,-32,260,43,1,7,11
3.51E+03,-7305,1240,-1950,-71,263,74,1,7,11
3.51E+03,-7338,1226,-1939,-101,275,74,1,7,11
3.51E+03,-7357,1224,-1934,-113,258,86,1,7,11
3.51E+03,-7359,1226,-1933,-127,-14,93,1,7,11
3.51E+03,-7367,1225,-1928,125,-16,106,1,7,11
3.51E+03,-7350,1221,-1927,122,-25,-127,1,7,11
3.51E+03,-7330,1211,-1927,-122,-27,-115,1,7,11
3.51E+03,-7312,1199,-1933,-100,-16,-127,1,7,11
3.51E+03,-7305,1194,-1933,-58,267,88,1,7,11
3.51E+03,-7311,1194,-1942,-27,291,70,1,7,11
3.51E+03,-7314,1183,-1941,-2,316,69,1,7,11
3.52E+03,-7299,1175,-1937,283,332,87,1,7,11
3.52E+03,-7536,1168,-1950,310,349,97,1,7,11
3.52E+03,-7535,1161,-1959,334,374,89,1,7,11
3.52E+03,-7301,1163,-1977,351,137,77,1,7,11
3.52E+03,-7315,1174,-1985,352,135,83,1,7,11
3.52E+03,-7307,1181,-1994,342,130,103,1,7,11
3.52E+03,-7298,1199,-2019,330,131,-127,1,7,11
3.52E+03,-7298,1215,-2033,295,141,-107,1,7,11
3.52E+03,-7323,1222,-2027,-4,148,-91,1,7,11
3.52E+03,-7348,1226,-2033,-48,131,-74,1,7,11
3.52E+03,-7357,1239,-2038,-87,353,-55,1,7,11
3.52E+03,-7349,1257,-2311,-124,315,-47,1,7,11
3.52E+03,-7331,1273,-2317,73,271,-40,1,7,11
3.52E+03,-7327,1266,-2315,-264,-23,-49,1,7,11
3.52E+03,-7331,1258,-2309,-325,-60,-68,1,7,11
3.52E+03,-7339,1265,-2048,-365,-91,-88,1,7,11
3.52E+03,-7335,1270,-2041,-145,-122,-97,1,7,11
3.52E+03,-7313,1275,-2046,-184,107,-93,1,7,11
3.52E+03,-7551,1278,-2313,-222,106,-103,1,7,11
3.52E+03,-7299,1537,-2306,-244,117,-123,1,7,11
3.52E+03,-7299,1279,-2037,-518,119,117,1,7,11
3.52E+03,-7552,1263,-2034,-533,112,98,1,7,11
3.52E+03,-7306,1265,-2033,-535,116,67,1,7,11
3.52E+03,-7327,1542,-2047,-518,117,33,1,7,11
3.52E+03,-7349,1563,-2043,-245,113,0,1,7,11
3.52E+03,-7343,1575,-2044,-240,95,5,1,7,11
3.52E+03,-7337,1576,-2039,-234,69,1,1,7,11
3.52E+03,-7320,1594,-2305,-210,58,-261,1,7,11
3.52E+03,-7321,1603,-2311,-204,53,-294,1,7,11
3.52E+03,-7299,1610,-2310,-196,48,-336,1,7,11
3.52E+03,-7312,1631,-2046,-190,55,-146,1,7,11
3.52E+03,-7311,1638,-2044,-191,40,-184,1,7,11
3.52E+03,-7531,1645,-2308,-188,24,-213,1,7,11
3.52E+03,-7516,1635,-2323,-202,42,-536,1,7,11
3.52E+03,-7528,1630,-2330,-212,73,-613,1,7,11
3.52E+03,-7536,1625,-2317,-240,86,-429,1,7,11
3.52E+03,-7546,1585,-2035,-535,80,-481,1,7,11
3.52E+03,-7305,1268,-2011,-563,72,-510,1,7,11
3.52E+03,-7322,1209,-1980,-558,54,-777,1,7,11
3.52E+03,-7322,1178,-1970,-516,41,-790,1,7,11
3.53E+03,-7359,1159,-1962,-222,43,-819,1,7,11
3.53E+03,-7387,1158,-1971,-193,34,-829,1,7,11
3.53E+03,-7398,1160,-1962,-180,28,-835,1,7,11
3.53E+03,-7388,1155,-1947,-188,8,-830,1,7,11
3.53E+03,-7361,1157,-1950,-186,19,-847,1,7,11
3.53E+03,-7389,1180,-1948,-202,51,-884,1,7,11
3.53E+03,-7391,1199,-1939,-248,46,-895,1,7,11
3.53E+03,-7386,1196,-1933,-564,35,-661,1,7,11
3.53E+03,-7384,1188,-1935,-605,26,-683,1,7,11
3.53E+03,-7402,1164,-2176,-403,16,-710,1,7,11
3.53E+03,-7387,1399,-2175,-447,-262,-728,1,7,11
3.53E+03,-7395,1369,-2162,-498,2,-1026,1,7,11
3.53E+03,-7390,1344,-2150,-799,-258,-1062,1,7,11
3.53E+03,-7419,1012,-2128,-843,5,-1115,1,7,11
3.53E+03,-7692,961,-2096,-863,10,-913,1,7,11
3.53E+03,-7731,924,-2090,-853,16,-944,1,7,11
3.53E+03,-7735,1143,-2098,-834,24,-960,1,7,11
3.53E+03,-7700,1121,-2109,-806,16,-927,1,7,11
3.53E+03,-7685,1079,-2123,-788,53,-923,1,7,11
3.53E+03,-7422,1036,-2133,-782,72,-918,1,7,11
3.53E+03,-7410,705,-2150,-773,84,-935,1,7,11
3.53E+03,-7422,683,-2168,-462,120,-975,1,7,11
3.53E+03,-7703,679,-2176,-433,-126,-1003,1,7,11
3.53E+03,-7711,662,-2150,-436,99,-1008,1,7,11
3.53E+03,-7719,668,-2134,-451,59,-1017,1,7,11
3.53E+03,-7755,888,-2097,-773,-269,-998,1,7,11
3.53E+03,-7751,827,-2076,-829,-376,-943,1,7,11
3.53E+03,-7758,795,-2070,-823,-198,-897,1,7,11
3.53E+03,-7742,492,-2074,-798,-514,-1095,1,7,11
3.53E+03,-7700,399,-2051,-499,-520,-1058,1,7,11
3.53E+03,-7692,602,-1775,-386,-202,-1080,1,7,11
3.53E+03,-7735,621,-1757,-516,-144,-1087,1,7,11
3.53E+03,-7744,386,-1749,-200,-375,-1025,1,7,11
3.53E+03,-7766,605,-1734,-197,-330,-687,1,7,11
3.53E+03,-7774,550,-1699,-190,-297,-852,1,7,11
3.53E+03,-7756,222,-1695,-153,-276,-778,1,7,11
3.53E+03,-7744,176,-1719,-313,29,-475,1,7,11
3.53E+03,-7755,140,-1722,25,80,-464,1,7,11
3.53E+03,-7744,171,-1719,-116,105,-470,1,7,11
3.53E+03,-7765,211,-1726,-86,118,-453,1,7,11
3.54E+03,-7771,218,-1733,-116,88,-395,1,7,11
3.54E+03,-7752,198,-1733,91,52,-582,1,7,11
3.54E+03,-7754,378,-1741,48,36,-543,1,7,11
3.54E+03,-7784,320,-1735,68,23,-530,1,7,11
3.54E+03,-7793,290,-1724,126,2,-539,1,7,11
3.54E+03,-7789,271,-1716,-53,-285,-554,1,7,11
3.54E+03,-7566,-14,-1671,-7,-297,-603,1,7,11
3.54E+03,-7660,-84,-1853,283,-324,-394,1,7,11
3.54E+03,-8040,-119,-1796,380,-129,-403,1,7,11
3.54E+03,-7814,-97,-1525,248,-251,-602,1,7,11
3.54E+03,-8023,-81,-1535,551,-592,-524,1,7,11
3.54E+03,-7968,-65,-1529,547,-589,-223,1,7,11
3.54E+03,-7938,-66,-1507,229,-552,-205,1,7,11
3.54E+03,-7672,-100,-1464,146,-245,-223,1,7,11
3.54E+03,-7956,-111,-1418,337,-197,-520,1,7,11
3.54E+03,-7963,-125,-1620,259,-208,-518,1,7,11
3.54E+03,-7653,92,-1577,-68,-237,-513,1,7,11
3.54E+03,-7592,73,-1571,-101,-249,-539,1,7,11
3.54E+03,-7774,67,-1620,120,-231,-581,1,7,11
3.54E+03,-7746,99,-1415,86,-155,-625,1,7,11
3.54E+03,-7685,-104,-1459,9,-338,-632,1,7,11
3.54E+03,-7405,-117,-1453,-365,0,-626,1,7,11
3.54E+03,-7353,111,-1447,-184,40,-600,1,7,11
3.54E+03,-7311,101,-1517,-206,101,-621,1,7,11
3.54E+03,-7349,-89,-1902,-204,-24,-415,1,7,11
3.54E+03,-7713,-17,-1731,-553,367,-429,1,7,11
3.54E+03,-7641,-13,-1704,-447,208,-629,1,7,11
3.54E+03,-7868,-64,-1867,-787,224,-229,1,7,11
3.54E+03,-8295,-124,-1534,-512,365,-270,1,7,11
3.54E+03,-8098,99,-1511,-400,120,278,1,7,11
3.54E+03,-8109,-122,-1481,-169,11,128,1,7,11
3.54E+03,-8315,-102,-1428,-295,-349,189,1,7,11
3.54E+03,-8224,-105,-1623,75,-171,185,1,7,11
3.54E+03,-7891,120,-1571,-75,-195,361,1,7,11
3.54E+03,-8058,99,-1277,278,-209,-12,1,7,11
3.54E+03,-7677,79,-1253,330,-201,92,1,7,11
3.54E+03,-7622,40,-1206,319,-139,-350,1,7,11
3.54E+03,-7608,-292,-1401,256,-349,-247,1,7,11
3.54E+03,-7609,-376,-1335,-50,-320,-612,1,7,11
3.54E+03,-7610,-184,-1281,-77,-318,-412,1,7,11
3.55E+03,-7559,-242,-1007,-97,-348,-389,1,7,11
3.55E+03,-7714,-254,-1017,-88,-354,-591,1,7,11
3.55E+03,-7357,-222,-1334,-74,-300,-539,1,7,11
3.55E+03,-7536,-169,-1184,-91,75,-240,1,7,11
3.55E+03,-7318,-359,-1280,100,262,-220,1,7,11
3.55E+03,-7392,-300,-1610,12,149,-158,1,7,11
3.55E+03,-7682,-279,-1414,-341,217,-328,1,7,11
3.55E+03,-7719,-273,-1470,-154,520,-261,1,7,11
3.55E+03,-7783,-281,-1519,-197,556,37,1,7,11
3.55E+03,-7592,-295,-1833,-219,552,63,1,7,11
3.55E+03,-7631,-311,-1875,-209,522,75,1,7,11
3.55E+03,-7953,-320,-1899,-184,245,67,1,7,11
3.55E+03,-8044,-317,-1904,-143,206,66,1,7,11
3.55E+03,-7871,-304,-1887,-351,374,99,1,7,11
3.55E+03,-7918,-290,-1855,-312,-3,-95,1,7,11
3.55E+03,-7922,-262,-1826,-274,-122,-28,1,7,11
3.55E+03,-7917,17,-1534,2,40,289,1,7,11
3.55E+03,-7868,44,-1464,15,-299,362,1,7,11
3.55E+03,-8027,77,-1419,20,-343,160,1,7,11
3.55E+03,-7664,-120,-1655,7,-334,174,1,7,11
3.55E+03,-7793,-99,-1640,-281,-281,143,1,7,11
3.55E+03,-7722,-94,-1637,-339,51,324,1,7,11
3.55E+03,-7700,-86,-1410,-233,356,51,1,7,11
3.55E+03,-7716,-78,-1449,-550,212,-272,1,7,11
3.55E+03,-7725,-89,-1493,-623,563,-300,1,7,11
3.55E+03,-7745,-107,-1807,-421,392,-305,1,7,11
3.55E+03,-7776,-125,-1853,-457,465,-295,1,7,11
3.55E+03,-7801,109,-1899,-477,509,-272,1,7,11
3.55E+03,-7574,103,-1683,-467,795,6,1,7,11
3.55E+03,-7637,111,-1717,-450,816,24,1,7,11
3.55E+03,-7960,123,-1720,-430,786,66,1,7,11
3.55E+03,-8000,109,-1719,-401,443,127,1,7,11
3.55E+03,-8031,109,-1697,-604,584,-73,1,7,11
3.55E+03,-7996,120,-1700,-537,189,-22,1,7,11
3.55E+03,-7959,127,-1710,-224,334,-15,1,7,11
3.55E+03,-7667,-116,-1715,-182,-14,-33,1,7,11
3.55E+03,-7655,-121,-1692,-156,-78,-80,1,7,11
3.55E+03,-7668,120,-1666,-139,114,124,1,7,11
3.55E+03,-7665,109,-1893,-131,32,92,1,7,11
3.55E+03,-7646,85,-1870,-130,-305,63,1,7,11
3.56E+03,-7589,88,-1869,-371,-368,46,1,7,11
3.56E+03,-7780,94,-1886,-369,-373,19,1,7,11
3.56E+03,-7769,99,-1895,-132,-323,-262,1,7,11
3.56E+03,-7779,78,-1886,-160,-264,-261,1,7,11
3.56E+03,-7770,46,-1870,-150,36,27,1,7,11
3.56E+03,-7743,43,-1865,-342,93,65,1,7,11
3.56E+03,-7727,49,-1890,-259,-103,106,1,7,11
3.56E+03,-7728,65,-1901,79,-46,-114,1,7,11
3.56E+03,-7733,77,-1680,-78,-5,-96,1,7,11
3.56E+03,-7772,123,-1726,289,309,-92,1,7,11
3.56E+03,-7564,-66,-1768,134,325,-89,1,7,11
3.56E+03,-7618,-17,-1780,183,351,-65,1,7,11
3.56E+03,-7638,257,-1755,198,301,-20,1,7,11
3.56E+03,-7619,-31,-1725,164,-39,264,1,7,11
3.56E+03,-7634,-65,-1691,182,-93,-36,1,7,11
3.56E+03,-7962,-65,-1912,233,108,-104,1,7,11
3.56E+03,-7980,-57,-1902,239,-272,115,1,7,11
3.56E+03,-7661,-85,-1881,188,-148,87,1,7,11
3.56E+03,-7648,119,-1855,373,-201,21,1,7,11
3.56E+03,-7627,53,-1821,282,-250,-289,1,7,11
3.56E+03,-7667,-306,-1491,-46,-254,-347,1,7,11
3.56E+03,-7972,-360,-1433,-27,-522,-339,1,7,11
3.56E+03,-7991,-373,-1642,280,-542,6,1,7,11
3.56E+03,-7983,-346,-1628,349,-533,-103,1,7,11
3.56E+03,-7992,-306,-1630,139,-230,323,1,7,11
3.56E+03,-7982,-265,-1607,173,-200,519,1,7,11
3.56E+03,-7945,3,-1585,214,-164,444,1,7,11
3.56E+03,-7663,49,-1576,551,-357,846,1,7,11
3.56E+03,-7644,118,-1582,636,-276,709,1,7,11
3.56E+03,-7615,-61,-1604,429,64,1074,1,7,11
3.56E+03,-7789,-5,-1644,434,-96,901,1,7,11
3.56E+03,-7739,269,-1415,401,301,917,1,7,11
3.56E+03,-7682,-3,-1428,610,193,1143,1,7,11
3.56E+03,-7681,-38,-1416,585,629,1054,1,7,11
3.56E+03,-7694,-35,-1448,613,793,704,1,7,11
3.56E+03,-7707,-27,-1490,613,666,872,1,7,11
3.56E+03,-7422,-16,-1813,602,753,812,1,7,11
3.56E+03,-7404,-24,-1912,563,1098,475,1,7,11
3.56E+03,-7378,-28,-1695,517,917,391,1,7,11
3.56E+03,-7410,-18,-1756,218,1016,549,1,7,11
3.57E+03,-7748,298,-2063,196,1347,240,1,7,11
3.57E+03,-7803,367,-2164,141,1357,516,1,7,11
3.57E+03,-7567,178,-1957,310,1325,587,1,7,11
3.57E+03,-7800,244,-2006,-61,1011,420,1,7,11
3.57E+03,-7747,236,-2019,47,941,486,1,7,11
3.57E+03,-7414,220,-2028,-334,1136,769,1,7,11
3.57E+03,-7395,222,-2045,-158,1082,483,1,7,11
3.57E+03,-7392,249,-2345,-195,1068,466,1,7,11
3.57E+03,-7380,525,-2390,-250,1040,428,1,7,11
3.57E+03,-7360,537,-2416,-567,1027,406,1,7,11
3.57E+03,-7343,568,-2194,-606,1051,396,1,7,11
3.57E+03,-7364,570,-2240,-392,1069,384,1,7,11
3.57E+03,-7372,550,-2267,-476,1050,629,1,7,11
3.57E+03,-7372,551,-2271,-490,757,606,1,7,11
3.57E+03,-7346,568,-2291,-486,695,582,1,7,11
3.57E+03,-7337,589,-2598,-479,644,542,1,7,11
3.57E+03,-7385,602,-2614,-483,847,222,1,7,11
3.57E+03,-7683,599,-2630,-487,496,171,1,7,11
3.57E+03,-7700,604,-2623,-446,631,130,1,7,11
3.57E+03,-7695,618,-2618,-385,251,352,1,7,11
3.57E+03,-7413,619,-2600,-577,370,341,1,7,11
3.57E+03,-7311,609,-2579,-517,-26,341,1,7,11
3.57E+03,-7499,565,-2284,-195,-109,290,1,7,11
3.57E+03,-7533,539,-2250,-331,-95,-64,1,7,11
3.57E+03,-7405,595,-2222,100,-70,-121,1,7,11
3.57E+03,-7742,469,-2209,-14,-123,-55,1,7,11
3.57E+03,-7739,840,-2177,297,38,341,1,7,11
3.57E+03,-7711,889,-2396,287,-303,235,1,7,11
3.57E+03,-7717,674,-2370,308,-345,597,1,7,11
3.57E+03,-7727,766,-2375,347,-374,416,1,7,11
3.57E+03,-7721,1148,-2408,353,-148,494,1,7,11
3.57E+03,-7403,1017,-2196,279,-169,818,1,7,11
3.57E+03,-7311,1314,-2229,114,-169,844,1,7,11
3.57E+03,-7524,1300,-2230,-309,-354,774,1,7,11
3.57E+03,-7318,1015,-2223,-149,-259,634,1,7,11
3.57E+03,-7341,1285,-2235,-199,26,513,1,7,11
3.57E+03,-7341,1008,-2245,-518,35,145,1,7,11
3.57E+03,-7305,948,-2265,-607,38,276,1,7,11
3.57E+03,-7299,1135,-2267,-611,64,-61,1,7,11
3.57E+03,-7531,1077,-2267,-576,70,-119,1,7,11
3.58E+03,-7515,741,-2249,-544,63,83,1,7,11
3.58E+03,-7485,653,-2233,-231,41,28,1,7,11
3.58E+03,-7521,838,-2220,-129,58,-301,1,7,11
3.58E+03,-7340,827,-2192,0,67,-337,1,7,11
3.58E+03,-7390,864,-2428,114,40,-290,1,7,11
3.58E+03,-7390,667,-2416,-75,-264,85,1,7,11
3.58E+03,-7335,709,-2427,-81,-310,-27,1,7,11
3.58E+03,-7531,711,-2430,113,-318,334,1,7,11
3.58E+03,-7518,674,-2389,31,-282,377,1,7,11
3.58E+03,-7309,665,-2351,-274,23,383,1,7,11
3.58E+03,-7360,714,-2316,-311,30,174,1,7,11
3.58E+03,-7361,1043,-2314,-369,5,233,1,7,11
3.58E+03,-7354,1088,-2309,-231,-281,539,1,7,11
3.58E+03,-7360,1103,-2010,-617,-291,562,1,7,11
3.58E+03,-7385,1138,-1971,-433,-297,580,1,7,11
3.58E+03,-7385,940,-1935,-483,-364,626,1,7,11
3.58E+03,-7315,986,-1921,-808,-194,400,1,7,11
3.58E+03,-7314,1318,-2151,-833,-189,606,1,7,11
3.58E+03,-7348,1403,-2123,-858,-204,577,1,7,11
3.58E+03,-7342,1185,-2077,-649,-517,572,1,7,11
3.58E+03,-7364,1205,-1768,-646,-539,534,1,7,11
3.58E+03,-7685,1250,-1720,-854,-551,238,1,7,11
3.58E+03,-7718,1579,-1701,-788,-601,245,1,7,11
3.58E+03,-7696,1413,-1729,-490,-395,524,1,7,11
3.58E+03,-7414,1502,-1784,-508,-399,526,1,7,11
3.58E+03,-7379,1534,-2104,-856,-619,516,1,7,11
3.58E+03,-7380,1500,-2128,-717,-540,210,1,7,11
3.58E+03,-7691,1436,-2121,-1048,-171,129,1,7,11
3.58E+03,-7763,1647,-2113,-1047,-340,319,1,7,11
3.58E+03,-7794,1661,-2163,-746,-291,296,1,7,11
3.58E+03,-7800,1425,-1926,-729,4,295,1,7,11
3.58E+03,-7778,1418,-1961,-750,30,305,1,7,11
3.58E+03,-7715,1648,-1978,-1041,36,302,1,7,11
3.58E+03,-7387,1589,-1982,-1083,43,-5,1,7,11
3.58E+03,-7328,1266,-1952,-1113,71,-108,1,7,11
3.58E+03,-7311,1196,-2167,-1128,97,22,1,7,11
3.58E+03,-7310,1166,-2109,-1134,98,-342,1,7,11
3.58E+03,-7340,1179,-2054,-1120,81,-143,1,7,11
3.58E+03,-7334,1214,-1741,-1089,31,-341,1,7,11
3.58E+03,-7552,1208,-1689,-1102,-300,18,1,7,11
3.59E+03,-7493,1158,-1908,-1136,-144,120,1,7,11
3.59E+03,-7493,1382,-1885,-1121,-144,-104,1,7,11
3.59E+03,-7499,1377,-1879,-1039,-134,-16,1,7,11
3.59E+03,-7514,1377,-1867,-677,-356,297,1,7,11
3.59E+03,-7522,1403,-1873,-799,-276,370,1,7,11
3.59E+03,-7547,1401,-1887,-603,59,168,1,7,11
3.59E+03,-7316,1403,-1900,-206,-120,208,1,7,11
3.59E+03,-7335,1157,-1671,-309,-39,208,1,7,11
3.59E+03,-7338,1175,-1694,108,304,190,1,7,11
3.59E+03,-7342,1197,-1741,266,154,162,1,7,11
3.59E+03,-7359,1233,-1777,165,526,142,1,7,11
3.59E+03,-7362,1268,-2064,558,622,148,1,7,11
3.59E+03,-7358,1558,-2112,428,453,151,1,7,11
3.59E+03,-7355,1604,-2150,787,782,144,1,7,11
3.59E+03,-7351,1637,-1925,849,821,372,1,7,11
3.59E+03,-7359,1418,-1944,874,834,316,1,7,11
3.59E+03,-7365,1456,-1955,866,803,-9,1,7,11
3.59E+03,-7366,1488,-1973,815,477,-80,1,7,11
3.59E+03,-7358,1520,-2002,480,389,111,1,7,11
3.59E+03,-7337,1806,-2029,618,548,55,1,7,11
3.59E+03,-7322,1812,-2305,197,204,8,1,7,11
3.59E+03,-7312,1532,-2311,267,367,-291,1,7,11
3.59E+03,-7551,1491,-2045,89,284,-340,1,7,11
3.59E+03,-7306,1439,-2035,-316,-27,-140,1,7,11
3.59E+03,-7313,1409,-2025,-178,-71,-168,1,7,11
3.59E+03,-7320,1620,-2002,-556,-110,-176,1,7,11
3.59E+03,-7301,1567,-1992,-639,118,-162,1,7,11
3.59E+03,-7320,1540,-1997,-420,-122,-162,1,7,11
3.59E+03,-7325,1271,-2003,-433,-111,-134,1,7,11
3.59E+03,-7325,1268,-2015,-437,-102,-356,1,7,11
3.59E+03,-7313,1272,-2041,-442,-96,-314,1,7,11
3.59E+03,-7318,1267,-2047,-452,-73,-280,1,7,11
3.59E+03,-7331,1260,-2037,-449,-54,12,1,7,11
3.59E+03,-7332,1264,-2011,-411,-61,59,1,7,11
3.59E+03,-7327,1270,-1967,-615,-70,91,1,7,11
3.59E+03,-7341,1541,-1952,-547,-84,117,1,7,11
3.59E+03,-7335,1565,-1940,-221,-120,-110,1,7,11
3.59E+03,-7306,1598,-1946,-162,90,-93,1,7,11
3.59E+03,-7537,1631,-1946,-379,62,-104,1,7,11
3.59E+03,-7540,1649,-1937,-379,48,-126,1,7,11
3.60E+03,-7304,1651,-2176,-156,35,108,1,7,11
3.60E+03,-7326,1415,-2168,-172,11,98,1,7,11
3.60E+03,-7346,1449,-2131,-186,-272,106,1,7,11
3.60E+03,-7339,1465,-2113,-228,-312,-114,1,7,11
3.60E+03,-7548,1449,-2098,-527,-336,-78,1,7,11
3.60E+03,-7546,1440,-2088,-547,-305,-80,1,7,11
3.60E+03,-7530,1435,-2089,-550,-273,-82,1,7,11
3.60E+03,-7514,1444,-2105,-538,28,-110,1,7,11
3.60E+03,-7512,1469,-2132,-523,72,120,1,7,11
3.60E+03,-7505,1477,-2167,-533,110,104,1,7,11
3.60E+03,-7510,1472,-1932,-547,-105,93,1,7,11
3.60E+03,-7536,1482,-1926,-550,-61,81,1,7,11
3.60E+03,-7338,1460,-2144,-560,-55,81,1,7,11
3.60E+03,-7376,1434,-2105,-533,-89,113,1,7,11
3.60E+03,-7394,1428,-2069,-214,123,-86,1,7,11
3.60E+03,-7357,1440,-2063,-139,72,-5,1,7,11
3.60E+03,-7309,1486,-2076,-326,74,314,1,7,11
3.60E+03,-7301,1798,-2075,-310,122,338,1,7,11
3.60E+03,-7313,1809,-1788,-355,-92,343,1,7,11
3.60E+03,-7359,1813,-1737,-148,-60,322,1,7,11
3.60E+03,-7363,1829,-1716,-199,-68,309,1,7,11
3.60E+03,-7351,1827,-1713,-526,-85,263,1,7,11
3.60E+03,-7346,1812,-1710,-594,-91,-68,1,7,11
3.60E+03,-7364,1521,-1688,-391,-94,106,1,7,11
3.60E+03,-7335,1495,-1695,-398,-128,72,1,7,11
3.60E+03,-7531,1477,-1724,-389,119,45,1,7,11
3.60E+03,-7467,1453,-1784,-386,-108,23,1,7,11
3.60E+03,-7158,1660,-2148,-391,-52,-260,1,7,11
3.60E+03,-7151,1657,-2165,-631,304,-302,1,7,11
3.60E+03,-7478,1427,-1925,-586,165,-329,1,7,11
3.60E+03,-7319,1461,-2166,-542,226,-279,1,7,11
3.60E+03,-7378,1475,-2135,-236,206,89,1,7,11
3.60E+03,-7391,1471,-2097,-180,136,-44,1,7,11
3.60E+03,-7382,1495,-2106,-361,318,295,1,7,11
3.60E+03,-7336,1531,-2137,-289,-9,328,1,7,11
3.60E+03,-7535,1835,-2160,0,-53,311,1,7,11
3.60E+03,-7498,1859,-1941,1,-83,282,1,7,11
3.60E+03,-7484,1877,-1959,-286,-85,-60,1,7,11
3.60E+03,-7484,1890,-1982,-315,-82,-115,1,7,11
3.60E+03,-7541,1893,-1974,-319,-66,99,1,7,11
3.61E+03,-7349,1898,-1943,-308,-92,114,1,7,11
3.61E+03,-7360,1876,-2169,-291,85,-85,1,7,11
3.61E+03,-7326,1866,-2156,13,5,-31,1,7,11
3.61E+03,-7531,1874,-2159,63,-289,-29,1,7,11
3.61E+03,-7513,1901,-2164,101,-282,-59,1,7,11
3.61E+03,-7520,1666,-1927,106,-261,-78,1,7,11
3.61E+03,-7538,1673,-1929,72,-257,-76,1,7,11
3.61E+03,-7297,1665,-1930,23,1,-68,1,7,11
3.61E+03,-7321,1901,-2173,-272,-258,-70,1,7,11
3.61E+03,-7314,1892,-2165,-286,-276,-59,1,7,11
3.61E+03,-7318,1887,-2143,-291,-267,-57,1,7,11
3.61E+03,-7321,1881,-2108,-273,5,-29,1,7,11
3.61E+03,-7330,1878,-2063,30,29,-5,1,7,11
3.61E+03,-7348,1886,-1778,92,40,263,1,7,11
3.61E+03,-7323,1897,-1747,-108,23,263,1,7,11
3.61E+03,-7539,1905,-1723,-67,13,-26,1,7,11
3.61E+03,-7521,1665,-1721,-49,32,-85,1,7,11
3.61E+03,-7511,1670,-1722,-62,38,126,1,7,11
3.61E+03,-7498,1677,-1724,-83,52,95,1,7,11
3.61E+03,-7489,1686,-1749,-128,76,81,1,7,11
3.61E+03,-7465,1677,-1771,62,111,73,1,7,11
3.61E+03,-7483,1909,-1785,-259,-86,42,1,7,11
3.61E+03,-7502,1908,-2067,-300,-50,17,1,7,11
3.61E+03,-7486,1918,-2099,-319,-33,3,1,7,11
3.61E+03,-7534,1686,-2128,-344,267,-297,1,7,11
3.61E+03,-7336,1707,-2146,-378,297,-279,1,7,11
3.61E+03,-7392,1707,-2126,-204,257,10,1,7,11
3.61E+03,-7692,1683,-2097,-253,-66,46,1,7,11
3.61E+03,-7729,1907,-2064,-539,94,68,1,7,11
3.61E+03,-7705,1890,-1779,-539,-276,83,1,7,11
3.61E+03,-7414,1873,-1762,-547,-349,64,1,7,11
3.61E+03,-7398,1861,-1735,-553,-381,38,1,7,11
3.61E+03,-7392,1848,-1716,-545,-134,8,1,7,11
3.61E+03,-7682,1835,-1918,-529,-139,-270,1,7,11
3.61E+03,-7404,1819,-1885,-244,-178,5,1,7,11
3.61E+03,-7380,1814,-1874,-209,-196,3,1,7,11
3.61E+03,-7337,1825,-1882,-174,-199,-257,1,7,11
3.61E+03,-7309,1830,-1889,-165,-172,-267,1,7,11
3.61E+03,-7319,1836,-1871,-165,-129,-268,1,7,11
3.61E+03,-7551,1805,-1851,-170,-373,21,1,7,11
3.62E+03,-7496,1509,-1855,-149,-356,44,1,7,11
3.62E+03,-7436,1491,-1873,-346,-302,45,1,7,11
3.62E+03,-7141,1493,-1905,-279,45,32,1,7,11
3.62E+03,-7132,1517,-1683,41,-87,30,1,7,11
3.62E+03,-7455,1798,-1678,85,305,40,1,7,11
3.62E+03,-7300,1807,-1896,122,383,101,1,7,11
3.62E+03,-7378,1803,-1856,-75,137,-62,1,7,11
3.62E+03,-7682,1812,-1826,264,361,280,1,7,11
3.62E+03,-7695,1848,-1820,350,322,335,1,7,11
3.62E+03,-7424,1909,-1823,152,289,366,1,7,11
3.62E+03,-7399,1744,-1851,164,288,381,1,7,11
3.62E+03,-7383,2079,-1872,365,293,380,1,7,11
3.62E+03,-7360,2120,-1910,-4,290,364,1,7,11
3.62E+03,-7304,2138,-1715,114,274,329,1,7,11
3.62E+03,-7494,2140,-1813,-299,275,-4,1,7,11
3.62E+03,-7468,2120,-2090,-213,306,-120,1,7,11
3.62E+03,-7456,2082,-2120,-611,326,40,1,7,11
3.62E+03,-7440,1789,-2151,-453,363,-283,1,7,11
3.62E+03,-7456,1781,-1939,-507,152,-322,1,7,11
3.62E+03,-7498,1763,-1922,-825,181,-312,1,7,11
3.62E+03,-7532,1689,-2149,-851,178,-259,1,7,11
3.62E+03,-7312,1882,-2108,-821,159,72,1,7,11
3.62E+03,-7359,1843,-2063,-457,351,110,1,7,11
3.62E+03,-7391,1847,-1787,-179,292,-102,1,7,11
3.62E+03,-7405,1868,-1767,16,-19,-53,1,7,11
3.62E+03,-7383,1910,-1756,-60,-66,-2,1,7,11
3.62E+03,-7345,1681,-1762,316,-92,259,1,7,11
3.62E+03,-7331,1692,-1755,383,-100,-26,1,7,11
3.62E+03,-7318,1708,-1746,173,-88,-77,1,7,11
3.62E+03,-7310,1723,-1743,188,-84,-121,1,7,11
3.62E+03,-7526,1706,-1739,166,-89,101,1,7,11
3.62E+03,-7486,1674,-1764,145,-79,51,1,7,11
3.62E+03,-7445,1901,-1792,136,-46,-257,1,7,11
3.62E+03,-7449,1862,-2072,139,266,-323,1,7,11
3.62E+03,-7459,1844,-2098,176,302,-365,1,7,11
3.62E+03,-7447,1848,-2152,208,315,-377,1,7,11
3.62E+03,-7473,1835,-1933,208,327,-375,1,7,11
3.62E+03,-7484,1809,-1951,199,312,-339,1,7,11
3.62E+03,-7517,1509,-1940,185,295,-291,1,7,11
3.62E+03,-7485,1532,-1922,432,298,324,1,7,11
3.63E+03,-7497,1821,-2170,486,352,363,1,7,11
3.63E+03,-7494,1855,-2169,782,133,137,1,7,11
3.63E+03,-7479,1886,-1936,808,163,135,1,7,11
3.63E+03,-7448,1687,-1955,815,192,362,1,7,11
3.63E+03,-7437,1729,-1984,787,512,307,1,7,11
3.63E+03,-7445,1758,-2001,415,555,-9,1,7,11
3.63E+03,-7458,1754,-2007,562,589,-66,1,7,11
3.63E+03,-7474,1736,-2007,203,605,-114,1,7,11
3.63E+03,-7476,1718,-2021,374,609,106,1,7,11
3.63E+03,-7470,1692,-2033,304,607,68,1,7,11
3.63E+03,-7443,1675,-2317,-16,601,32,1,7,11
3.63E+03,-7432,1882,-2323,-73,608,-276,1,7,11
3.63E+03,-7157,1841,-2339,-92,628,-319,1,7,11
3.63E+03,-7144,1825,-2356,-80,417,-358,1,7,11
3.63E+03,-7152,1813,-2365,-63,465,-381,1,7,11
3.63E+03,-7160,1535,-2374,-44,503,-378,1,7,11
3.63E+03,-7166,1515,-2390,-23,779,-370,1,7,11
3.63E+03,-7431,1512,-2406,-4,784,-360,1,7,11
3.63E+03,-7449,1498,-2418,-6,771,-357,1,7,11
3.63E+03,-7439,1476,-2193,-14,468,-346,1,7,11
3.63E+03,-7426,1469,-2249,-33,416,-349,1,7,11
3.63E+03,-7152,1481,-2569,-65,627,-349,1,7,11
3.63E+03,-7134,1479,-2633,125,583,-334,1,7,11
3.63E+03,-7132,1474,-2673,52,547,-312,1,7,11
3.63E+03,-7141,1465,-2433,-278,512,-296,1,7,11
3.63E+03,-7429,1450,-2688,-318,232,-280,1,7,11
3.63E+03,-7458,1459,-2679,-313,189,7,1,7,11
3.63E+03,-7478,1463,-2664,-304,381,64,1,7,11
3.63E+03,-7469,1454,-2659,-275,313,-115,1,7,11
3.63E+03,-7160,1461,-2659,29,258,-42,1,7,11
3.63E+03,-7142,1478,-2660,57,-1,-18,1,7,11
3.63E+03,-7138,1491,-2642,77,257,-8,1,7,11
3.63E+03,-7131,1505,-2618,97,257,258,1,7,11
3.63E+03,-7125,1524,-2595,117,-1,267,1,7,11
3.63E+03,-7105,1795,-2586,126,-7,276,1,7,11
3.63E+03,-7098,1816,-2582,-126,-3,267,1,7,11
3.63E+03,-7051,1847,-2607,112,-15,-2,1,7,11
3.63E+03,-7286,1868,-2640,48,-6,-62,1,7,11
3.63E+03,-7266,1877,-2680,-299,-6,121,1,7,11
3.63E+03,-7045,1868,-2435,-156,265,35,1,7,11
3.64E+03,-7067,1837,-2453,-520,-13,6,1,7,11
3.64E+03,-7064,1494,-2456,-394,-55,-259,1,7,11
3.64E+03,-7050,1455,-2459,-411,-67,-257,1,7,11
3.64E+03,-7296,1449,-2469,-387,-59,-258,1,7,11
3.64E+03,-7086,1434,-2458,-632,-44,-267,1,7,11
3.64E+03,-7124,1409,-2454,-612,-72,15,1,7,11
3.64E+03,-7135,1653,-2448,-566,-118,44,1,7,11
3.64E+03,-7135,1409,-2449,-514,95,64,1,7,11
3.64E+03,-7131,1418,-2440,-219,57,77,1,7,11
3.64E+03,-7131,1447,-2675,-165,37,92,1,7,11
3.64E+03,-7133,1481,-2663,-132,14,115,1,7,11
3.64E+03,-7125,1509,-2648,-381,-274,-100,1,7,11
3.64E+03,-7124,1795,-2644,-138,-297,-71,1,7,11
3.64E+03,-7120,1834,-2637,-171,-321,-49,1,7,11
3.64E+03,-7116,1885,-2638,-229,-347,-44,1,7,11
3.64E+03,-7106,1664,-2616,-578,-377,-53,1,7,11
3.64E+03,-7113,1916,-2297,-432,-143,-80,1,7,11
3.64E+03,-7138,1879,-2253,-770,-180,-98,1,7,11
3.64E+03,-7116,1859,-2239,-819,-243,-98,1,7,11
3.64E+03,-7096,1866,-2242,-817,-254,107,1,7,11
3.64E+03,-7097,1888,-2227,-803,-229,84,1,7,11
3.64E+03,-7098,1888,-2208,-783,-211,89,1,7,11
3.64E+03,-7065,1871,-2196,-488,-196,118,1,7,11
3.64E+03,-7069,1849,-2200,-431,-147,121,1,7,11
3.64E+03,-7087,1824,-2200,-600,-357,126,1,7,11
3.64E+03,-7118,1805,-2178,-238,-325,-127,1,7,11
3.64E+03,-7138,1798,-2421,-366,-311,-110,1,7,11
3.64E+03,-7143,1802,-2423,31,-299,-74,1,7,11
3.64E+03,-7157,1833,-2427,-99,-276,-33,1,7,11
3.64E+03,-7145,1862,-2179,-2,-263,277,1,7,11
3.64E+03,-7153,1885,-2185,330,23,300,1,7,11
3.64E+03,-7434,1912,-2185,134,49,305,1,7,11
3.64E+03,-7466,1676,-2412,173,44,306,1,7,11
3.64E+03,-7473,1680,-2393,199,9,313,1,7,11
3.64E+03,-7440,1676,-2386,214,-297,318,1,7,11
3.64E+03,-7137,1680,-2389,221,-314,306,1,7,11
3.64E+03,-7089,1699,-2371,201,25,256,1,7,11
3.64E+03,-7106,1687,-2337,174,83,-14,1,7,11
3.64E+03,-7136,1915,-2313,146,109,-12,1,7,11
3.64E+03,-7115,1891,-2047,132,106,263,1,7,11
3.65E+03,-7089,1860,-2307,374,112,263,1,7,11
3.65E+03,-7061,1847,-2337,377,-107,260,1,7,11
3.65E+03,-7284,1873,-2397,372,-53,-4,1,7,11
3.65E+03,-7262,1912,-2210,324,274,-19,1,7,11
3.65E+03,-7262,1699,-2269,-15,372,-38,1,7,11
3.65E+03,-7065,1747,-2563,-115,225,-49,1,7,11
3.65E+03,-7137,1782,-2296,36,544,-17,1,7,11
3.65E+03,-7471,1786,-2232,-310,547,297,1,7,11
3.65E+03,-7526,1759,-2220,-366,224,362,1,7,11
3.65E+03,-7508,1739,-2221,-129,366,144,1,7,11
3.65E+03,-7471,1730,-2225,-132,268,365,1,7,11
3.65E+03,-7157,1731,-2238,-133,-58,295,1,7,11
3.65E+03,-7130,1737,-2242,-137,-73,-52,1,7,11
3.65E+03,-7124,1744,-2206,-141,-73,-103,1,7,11
3.65E+03,-7094,1710,-2184,-146,-84,-105,1,7,11
3.65E+03,-7085,1673,-2426,-383,-70,-113,1,7,11
3.65E+03,-7057,1914,-2430,-331,-62,-118,1,7,11
3.65E+03,-7282,1915,-2198,-273,-62,109,1,7,11
3.65E+03,-7254,1676,-2246,40,-44,79,1,7,11
3.65E+03,-7238,1697,-2282,55,257,59,1,7,11
3.65E+03,-7245,1704,-2290,36,342,60,1,7,11
3.65E+03,-7283,1702,-2289,1,132,76,1,7,11
3.65E+03,-7065,1701,-2283,8,141,121,1,7,11
3.65E+03,-7075,1716,-2277,33,380,-86,1,7,11
3.65E+03,-7083,1741,-2300,67,368,-57,1,7,11
3.65E+03,-7085,1775,-2580,87,355,-38,1,7,11
3.65E+03,-7110,2056,-2593,85,346,-29,1,7,11
3.65E+03,-7140,2079,-2601,65,315,-32,1,7,11
3.65E+03,-7145,2093,-2601,27,-5,-38,1,7,11
3.65E+03,-7121,2100,-2594,-267,-61,-67,1,7,11
3.65E+03,-7122,2115,-2588,-311,-78,-121,1,7,11
3.65E+03,-7108,2140,-2593,-357,-97,107,1,7,11
3.65E+03,-7076,2153,-2597,-182,-111,76,1,7,11
3.65E+03,-7051,2151,-2598,-528,-102,43,1,7,11
3.65E+03,-7064,2131,-2577,-625,-83,-260,1,7,11
3.65E+03,-7068,2104,-2304,-436,-86,-287,1,7,11
3.65E+03,-7047,2079,-2289,-467,-95,-300,1,7,11
3.65E+03,-7292,2054,-2266,-480,-98,-320,1,7,11
3.65E+03,-7278,1765,-2251,-477,-99,-328,1,7,11
3.65E+03,-7280,1740,-2240,-448,-96,-338,1,7,11
3.66E+03,-7264,1723,-2235,-413,-109,-332,1,7,11
3.66E+03,-7264,1709,-2236,-632,-96,-342,1,7,11
3.66E+03,-7282,1714,-2252,-594,-91,-348,1,7,11
3.66E+03,-7289,1739,-2264,-568,-94,-350,1,7,11
3.66E+03,-7050,1763,-2263,-563,-98,-350,1,7,11
3.66E+03,-7058,1772,-2267,-590,-104,-325,1,7,11
3.66E+03,-7065,1766,-2270,-618,-97,-287,1,7,11
3.66E+03,-7050,1770,-2292,-632,-90,19,1,7,11
3.66E+03,-7287,1792,-2569,-639,-52,49,1,7,11
3.66E+03,-7293,2077,-2579,-639,265,64,1,7,11
3.66E+03,-7078,2106,-2577,-394,319,80,1,7,11
3.66E+03,-7104,2109,-2563,-416,345,101,1,7,11
3.66E+03,-7116,2087,-2288,-450,331,115,1,7,11
3.66E+03,-7124,2081,-2272,-435,315,112,1,7,11
3.66E+03,-7113,2084,-2263,-404,293,111,1,7,11
3.66E+03,-7086,2076,-2251,-633,257,104,1,7,11
3.66E+03,-7292,2074,-2245,-611,-31,79,1,7,11
3.66E+03,-7294,2061,-2242,-603,-27,11,1,7,11
3.66E+03,-7047,2068,-2240,-582,-41,-295,1,7,11
3.66E+03,-7287,2086,-2261,-591,-66,-323,1,7,11
3.66E+03,-7252,2095,-2294,-385,-76,-337,1,7,11
3.66E+03,-7244,2092,-2569,-465,-53,-349,1,7,11
3.66E+03,-7272,2080,-2564,-790,-32,-359,1,7,11
3.66E+03,-7286,2059,-2293,-819,-29,-339,1,7,11
3.66E+03,-7059,1780,-2276,-811,-26,-309,1,7,11
3.66E+03,-7075,1758,-2259,-769,-42,0,1,7,11
3.66E+03,-7096,1732,-2239,-435,-54,50,1,7,11
3.66E+03,-7108,1726,-2237,-578,-74,101,1,7,11
3.66E+03,-7094,1730,-2246,-224,-110,-109,1,7,11
3.66E+03,-7082,1752,-2246,-142,120,-86,1,7,11
3.66E+03,-7064,1786,-2263,-335,98,-67,1,7,11
3.66E+03,-7059,2070,-2272,-311,86,-61,1,7,11
3.66E+03,-7046,2106,-2276,-307,67,-50,1,7,11
3.66E+03,-7049,2120,-2261,-325,63,-45,1,7,11
3.66E+03,-7061,2140,-2247,-325,64,-24,1,7,11
3.66E+03,-7066,2159,-2232,-317,71,262,1,7,11
3.66E+03,-7081,2171,-2213,-300,83,280,1,7,11
3.66E+03,-7079,1922,-2201,-273,88,286,1,7,11
3.66E+03,-7072,2168,-2187,8,76,271,1,7,11
3.66E+03,-7295,2148,-2188,37,52,-25,1,7,11
3.67E+03,-7280,2143,-2210,79,49,-96,1,7,11
3.67E+03,-7264,2158,-2234,126,52,107,1,7,11
3.67E+03,-7227,2175,-2246,-107,61,87,1,7,11
3.67E+03,-7234,1950,-2264,-92,104,93,1,7,11
3.67E+03,-7262,1977,-2257,-92,-102,111,1,7,11
3.67E+03,-7258,1978,-2245,-106,-87,-89,1,7,11
3.67E+03,-7279,1947,-2204,-113,-69,-52,1,7,11
3.67E+03,-7050,1922,-2425,-80,-79,-22,1,7,11
3.67E+03,-7086,2162,-2409,-1,-96,-14,1,7,11
3.67E+03,-7126,1929,-2421,368,-92,261,1,7,11
3.67E+03,-7094,1960,-2208,230,125,299,1,7,11
3.67E+03,-7293,1984,-2249,574,-125,304,1,7,11
3.67E+03,-7267,2020,-2304,601,-74,260,1,7,11
3.67E+03,-7290,2034,-2580,552,-32,-63,1,7,11
3.67E+03,-7062,1998,-2571,213,-29,-120,1,7,11
3.67E+03,-7109,1941,-2293,140,-56,92,1,7,11
3.67E+03,-7111,2158,-2295,356,-120,85,1,7,11
3.67E+03,-7085,2136,-2295,336,86,84,1,7,11
3.67E+03,-7074,2136,-2294,314,59,91,1,7,11
3.67E+03,-7044,2123,-2272,286,45,123,1,7,11
3.67E+03,-7277,2105,-2254,269,51,-99,1,7,11
3.67E+03,-7245,2095,-2242,-1,66,-71,1,7,11
3.67E+03,-7253,2065,-2192,-11,106,-84,1,7,11
3.67E+03,-7294,2062,-2403,269,-117,-99,1,7,11
3.67E+03,-7064,2084,-2388,303,-118,-80,1,7,11
3.67E+03,-7295,2122,-2398,313,120,-33,1,7,11
3.67E+03,-7254,2134,-2179,273,-124,-3,1,7,11
3.67E+03,-7237,2124,-2210,-45,-75,-19,1,7,11
3.67E+03,-7203,2119,-2246,-108,-40,-55,1,7,11
3.67E+03,-7209,2101,-2276,85,270,126,1,7,11
3.67E+03,-7227,2093,-2300,33,307,75,1,7,11
3.67E+03,-7232,2078,-2588,-275,333,59,1,7,11
3.67E+03,-7223,2072,-2621,-291,364,77,1,7,11
3.67E+03,-7215,2087,-2658,-296,151,107,1,7,11
3.67E+03,-7227,2099,-2688,-302,193,-123,1,7,11
3.67E+03,-7271,2106,-2680,-295,218,-107,1,7,11
3.67E+03,-7072,2105,-2661,-286,183,-90,1,7,11
3.67E+03,-7116,2091,-2642,-268,354,-83,1,7,11
3.67E+03,-7117,2096,-2655,-258,-22,-81,1,7,11
3.67E+03,-7068,2124,-2678,-276,97,-95,1,7,11
3.68E+03,-7291,2154,-2674,-384,71,-115,1,7,11
3.68E+03,-7292,1925,-2654,-240,78,-126,1,7,11
3.68E+03,-7043,1969,-2629,-619,85,125,1,7,11
3.68E+03,-7054,2011,-2608,-782,62,124,1,7,11
3.68E+03,-7274,2041,-2606,-721,12,-121,1,7,11
3.68E+03,-7256,2307,-2586,-924,-265,127,1,7,11
3.68E+03,-7250,2035,-2573,-1374,-282,125,1,7,11
3.68E+03,-7264,1986,-2272,-1266,-290,114,1,7,11
3.68E+03,-7295,1940,-2207,-1579,-304,109,1,7,11
3.68E+03,-7296,2155,-2411,-1546,-341,-127,1,7,11
3.68E+03,-7293,2126,-2379,-1176,-362,-117,1,7,11
3.68E+03,-7266,2116,-2363,-1021,-130,-97,1,7,11
3.68E+03,-7245,2124,-2339,-1115,-379,-94,1,7,11
3.68E+03,-7225,2126,-2333,-685,-358,-80,1,7,11
3.68E+03,-7200,2168,-2356,-488,-301,-63,1,7,11
3.68E+03,-7196,1977,-2377,-564,32,-38,1,7,11
3.68E+03,-7195,2315,-2408,-155,114,258,1,7,11
3.68E+03,-7204,2404,-2183,-304,-59,296,1,7,11
3.68E+03,-7223,2217,-2196,8,263,324,1,7,11
3.68E+03,-7268,2263,-2189,44,296,331,1,7,11
3.68E+03,-7291,2293,-2198,68,273,337,1,7,11
3.68E+03,-7280,2576,-2210,88,-30,329,1,7,11
3.68E+03,-7270,2617,-2230,82,-65,288,1,7,11
3.68E+03,-7263,2631,-2219,3,-115,268,1,7,11
3.68E+03,-7260,2618,-2203,-343,116,-14,1,7,11
3.68E+03,-7253,2603,-2187,-166,86,-43,1,7,11
3.68E+03,-7233,2565,-2419,-241,63,-114,1,7,11
3.68E+03,-7237,2288,-2404,-547,68,101,1,7,11
3.68E+03,-7249,2272,-2388,-593,75,83,1,7,11
3.68E+03,-7240,2235,-2360,-599,71,86,1,7,11
3.68E+03,-7238,2181,-2331,-601,71,88,1,7,11
3.68E+03,-7242,2390,-2318,-567,70,75,1,7,11
3.68E+03,-7238,2374,-2320,-239,67,61,1,7,11
3.68E+03,-7240,2378,-2347,-383,82,50,1,7,11
3.68E+03,-7234,2391,-2366,-337,102,58,1,7,11
3.68E+03,-7235,2382,-2366,-313,124,70,1,7,11
3.68E+03,-7273,2359,-2348,-265,-107,70,1,7,11
3.68E+03,-7043,2340,-2351,84,125,86,1,7,11
3.68E+03,-7295,2330,-2369,-63,79,102,1,7,11
3.68E+03,-7281,2347,-2399,314,56,120,1,7,11
3.69E+03,-7291,2344,-2415,141,52,-118,1,7,11
3.69E+03,-7289,2314,-2416,238,49,-79,1,7,11
3.69E+03,-7286,2325,-2181,385,72,-54,1,7,11
3.69E+03,-7286,2358,-2204,778,97,-38,1,7,11
3.69E+03,-7278,2391,-2220,869,107,-16,1,7,11
3.69E+03,-7273,2413,-2239,660,117,256,1,7,11
3.69E+03,-7261,2424,-2247,666,110,260,1,7,11
3.69E+03,-7254,2176,-2257,884,101,-21,1,7,11
3.69E+03,-7244,2196,-2253,815,88,-61,1,7,11
3.69E+03,-7241,2207,-2237,448,71,-105,1,7,11
3.69E+03,-7248,2204,-2218,563,49,120,1,7,11
3.69E+03,-7212,2191,-2188,171,14,124,1,7,11
3.69E+03,-7219,2405,-2411,305,13,103,1,7,11
3.69E+03,-7224,2376,-2392,-26,0,100,1,7,11
3.69E+03,-7227,2367,-2380,-76,-261,94,1,7,11
3.69E+03,-7245,2368,-2380,-99,0,98,1,7,11
3.69E+03,-7237,2367,-2395,-127,6,122,1,7,11
3.69E+03,-7237,2350,-2409,98,39,127,1,7,11
3.69E+03,-7240,2348,-2182,89,87,120,1,7,11
3.69E+03,-7252,2350,-2195,76,-115,103,1,7,11
3.69E+03,-7283,2347,-2196,46,-84,93,1,7,11
3.69E+03,-7054,2349,-2190,16,-72,87,1,7,11
3.69E+03,-7085,2343,-2179,6,-75,81,1,7,11
3.69E+03,-7083,2335,-2182,7,-111,91,1,7,11
3.69E+03,-7045,2328,-2428,13,112,99,1,7,11
3.69E+03,-7267,2316,-2422,17,110,82,1,7,11
3.69E+03,-7262,2315,-2406,35,124,76,1,7,11
3.69E+03,-7279,2323,-2383,65,-103,54,1,7,11
3.69E+03,-7279,2327,-2365,97,-98,72,1,7,11
3.69E+03,-7279,2315,-2357,108,-96,77,1,7,11
3.69E+03,-7269,2305,-2357,-115,-92,81,1,7,11
3.69E+03,-7256,2311,-2358,-92,-84,69,1,7,11
3.69E+03,-7237,2323,-2367,-88,-74,52,1,7,11
3.69E+03,-7229,2332,-2385,-100,-40,28,1,7,11
3.69E+03,-7245,2351,-2390,-122,-3,12,1,7,11
3.69E+03,-7258,2360,-2406,91,275,7,1,7,11
3.69E+03,-7281,2365,-2415,49,289,8,1,7,11
3.69E+03,-7044,2371,-2425,10,293,15,1,7,11
3.69E+03,-7052,2372,-2177,-293,279,22,1,7,11
3.69E+03,-7293,2369,-2184,-339,259,25,1,7,11
3.70E+03,-7280,2365,-2192,-380,256,15,1,7,11
3.70E+03,-7275,2354,-2183,-164,256,6,1,7,11
3.70E+03,-7289,2332,-2179,-191,-9,-259,1,7,11
3.70E+03,-7048,2311,-2417,-198,-31,-264,1,7,11
3.70E+03,-7041,2034,-2405,-189,-59,-264,1,7,11
3.70E+03,-7287,2024,-2405,-149,-71,-269,1,7,11
3.70E+03,-7287,2031,-2413,-357,-63,-273,1,7,11
3.70E+03,-7283,2044,-2180,-326,-52,-268,1,7,11
3.70E+03,-7290,2308,-2419,-313,-39,-269,1,7,11
3.70E+03,-7044,2040,-2394,-308,-41,-270,1,7,11
3.70E+03,-7054,2015,-2356,-297,-54,-278,1,7,11
3.70E+03,-7057,2008,-2332,-257,-77,-280,1,7,11
3.70E+03,-7291,2017,-2324,41,-104,-280,1,7,11
3.70E+03,-7249,2028,-2352,60,-110,-294,1,7,11
3.70E+03,-7247,2040,-2380,53,-77,-327,1,7,11
3.70E+03,-7253,2310,-2412,14,-43,-356,1,7,11
3.70E+03,-7260,2322,-2189,-295,-11,-377,1,7,11
3.70E+03,-7295,2332,-2212,-377,260,-142,1,7,11
3.70E+03,-7290,2339,-2223,-212,-28,-132,1,7,11
3.70E+03,-7284,2339,-2243,-564,-53,-131,1,7,11
3.70E+03,-7281,2342,-2278,-391,-64,-374,1,7,11
3.70E+03,-7290,2366,-2282,-474,-52,-347,1,7,11
3.70E+03,-7062,2378,-2265,-811,-38,-308,1,7,11
3.70E+03,-7093,2391,-2253,-896,-48,-274,1,7,11
3.70E+03,-7113,2404,-2228,-720,-84,21,1,7,11
3.70E+03,-7120,2396,-2186,-1053,59,40,1,7,11
3.70E+03,-7100,2362,-2392,-1151,-301,50,1,7,11
3.70E+03,-7289,2316,-2376,-923,-152,47,1,7,11
3.70E+03,-7230,2032,-2387,-915,-202,3,1,7,11
3.70E+03,-7209,2036,-2407,-1139,-193,-305,1,7,11
3.70E+03,-7220,2308,-2404,-1110,-151,-322,1,7,11
3.70E+03,-7233,2316,-2373,-1085,-362,-286,1,7,11
3.70E+03,-7258,2310,-2331,-1036,-316,34,1,7,11
3.70E+03,-7280,2305,-2308,-690,-290,110,1,7,11
3.70E+03,-7288,2305,-2036,-823,-272,-86,1,7,11
3.70E+03,-7066,2331,-2027,-436,9,-54,1,7,11
3.70E+03,-7106,2366,-2016,-567,22,-25,1,7,11
3.70E+03,-7120,2402,-2014,-194,13,269,1,7,11
3.70E+03,-7101,2182,-2014,-350,-262,303,1,7,11
3.70E+03,-7094,2206,-2019,-276,6,304,1,7,11
3.71E+03,-7094,2241,-2004,41,20,288,1,7,11
3.71E+03,-7087,2270,-1996,79,35,-1,1,7,11
3.71E+03,-7077,2288,-1983,88,40,-45,1,7,11
3.71E+03,-7072,2290,-1980,66,50,-105,1,7,11
3.71E+03,-7089,2270,-1949,19,64,83,1,7,11
3.71E+03,-7148,2231,-2149,-296,55,23,1,7,11
3.71E+03,-7167,2430,-2102,-337,-277,-261,1,7,11
3.71E+03,-7131,2371,-2085,-356,-366,-287,1,7,11
3.71E+03,-7100,2342,-2084,-356,-155,-323,1,7,11
3.71E+03,-7050,2335,-2100,-361,-174,-342,1,7,11
3.71E+03,-7254,2324,-2116,-378,-157,-350,1,7,11
3.71E+03,-7233,2315,-2133,-143,-349,-361,1,7,11
3.71E+03,-7220,2047,-2165,-160,-284,-355,1,7,11
3.71E+03,-7219,2014,-1927,-172,35,-343,1,7,11
3.71E+03,-7212,2007,-1960,-164,96,-328,1,7,11
3.71E+03,-7213,2009,-1998,-143,-97,-308,1,7,11
3.71E+03,-7215,2025,-2038,-358,-40,-269,1,7,11
3.71E+03,-7253,2047,-2312,-301,332,4,1,7,11
3.71E+03,-7075,2334,-2038,20,145,45,1,7,11
3.71E+03,-7132,2374,-2020,-112,161,127,1,7,11
3.71E+03,-7428,2416,-2003,-31,143,-41,1,7,11
3.71E+03,-7429,2180,-1991,280,341,295,1,7,11
3.71E+03,-7433,2201,-1975,329,309,312,1,7,11
3.71E+03,-7454,2202,-1952,364,263,307,1,7,11
3.71E+03,-7163,2201,-1936,150,-45,305,1,7,11
3.71E+03,-7126,2207,-1932,202,-68,262,1,7,11
3.71E+03,-7042,2209,-1964,225,-87,-39,1,7,11
3.71E+03,-7221,2186,-2003,215,-56,-119,1,7,11
3.71E+03,-7182,2412,-2048,181,280,48,1,7,11
3.71E+03,-7186,2384,-2331,143,382,-293,1,7,11
3.71E+03,-7218,2348,-2340,355,209,-338,1,7,11
3.71E+03,-7237,2321,-2353,318,514,-330,1,7,11
3.71E+03,-7238,2311,-2382,300,551,-279,1,7,11
3.71E+03,-7239,2318,-2418,300,583,10,1,7,11
3.71E+03,-7265,2328,-2192,285,626,35,1,7,11
3.71E+03,-7295,2351,-2216,270,639,60,1,7,11
3.71E+03,-7083,2368,-2217,-20,627,76,1,7,11
3.71E+03,-7097,2371,-2218,-64,572,100,1,7,11
3.71E+03,-7102,2369,-2220,-97,254,103,1,7,11
3.71E+03,-7088,2374,-2230,-126,178,93,1,7,11
3.72E+03,-7061,2366,-2237,90,375,68,1,7,11
3.72E+03,-7050,2362,-2227,63,345,38,1,7,11
3.72E+03,-7053,2345,-2204,37,321,24,1,7,11
3.72E+03,-7045,2318,-2177,25,282,22,1,7,11
3.72E+03,-7279,2013,-2412,34,-16,14,1,7,11
3.72E+03,-7254,1971,-2418,74,-39,-263,1,7,11
3.72E+03,-7220,1959,-2430,-120,-24,-295,1,7,11
3.72E+03,-7207,1967,-2192,-73,269,-308,1,7,11
3.72E+03,-7216,1966,-2185,-50,315,-299,1,7,11
3.72E+03,-7234,1973,-2190,-23,341,-267,1,7,11
3.72E+03,-7215,1993,-2226,264,331,25,1,7,11
3.72E+03,-7199,2025,-2277,272,341,28,1,7,11
3.72E+03,-7197,2314,-2578,-7,366,26,1,7,11
3.72E+03,-7213,2326,-2601,-54,131,33,1,7,11
3.72E+03,-7211,2330,-2630,-100,148,56,1,7,11
3.72E+03,-7229,2339,-2653,-124,172,82,1,7,11
3.72E+03,-7249,2347,-2664,113,182,104,1,7,11
3.72E+03,-7280,2340,-2667,109,170,120,1,7,11
3.72E+03,-7292,2334,-2664,123,133,125,1,7,11
3.72E+03,-7296,2312,-2648,-104,319,107,1,7,11
3.72E+03,-7049,2046,-2635,-76,280,90,1,7,11
3.72E+03,-7055,2031,-2609,-62,-21,69,1,7,11
3.72E+03,-7284,2013,-2579,-50,-77,54,1,7,11
3.72E+03,-7260,1977,-2304,-61,-125,14,1,7,11
3.72E+03,-7215,1938,-2300,-84,71,-291,1,7,11
3.72E+03,-7178,2166,-2565,-111,49,-353,1,7,11
3.72E+03,-6905,2148,-2569,101,62,-149,1,7,11
3.72E+03,-6910,2120,-2574,56,91,-160,1,7,11
3.72E+03,-6903,2096,-2575,9,123,-142,1,7,11
3.72E+03,-6906,2079,-2595,-268,-90,-379,1,7,11
3.72E+03,-6912,2092,-2610,-268,-40,-361,1,7,11
3.72E+03,-7202,2106,-2623,-260,266,-346,1,7,11
3.72E+03,-7233,2121,-2643,7,294,-316,1,7,11
3.72E+03,-7262,2132,-2646,12,299,-276,1,7,11
3.72E+03,-7292,2140,-2646,14,291,23,1,7,11
3.72E+03,-7057,2131,-2627,16,263,67,1,7,11
3.72E+03,-7052,2121,-2607,31,-40,97,1,7,11
3.72E+03,-7051,2131,-2600,67,-78,97,1,7,11
3.72E+03,-7277,2161,-2606,102,-113,75,1,7,11
3.72E+03,-7239,1954,-2618,-124,126,55,1,7,11
3.73E+03,-7211,1994,-2636,109,-108,24,1,7,11
3.73E+03,-7223,2012,-2630,57,-70,-265,1,7,11
3.73E+03,-7252,2023,-2633,1,-59,-279,1,7,11
3.73E+03,-7260,2014,-2632,-312,-76,-277,1,7,11
3.73E+03,-7239,2000,-2633,-355,-105,-278,1,7,11
3.73E+03,-7202,1985,-2636,-368,-108,-290,1,7,11
3.73E+03,-7190,1988,-2639,-360,-83,-318,1,7,11
3.73E+03,-7214,1992,-2637,-344,-39,-348,1,7,11
3.73E+03,-7261,1993,-2632,-336,-22,-361,1,7,11
3.73E+03,-7283,2005,-2641,-340,-44,-345,1,7,11
3.73E+03,-7049,2041,-2644,-369,-68,-328,1,7,11
3.73E+03,-7057,2352,-2662,-188,-104,-305,1,7,11
3.73E+03,-7060,2397,-2671,-594,92,-281,1,7,11
3.73E+03,-7060,2407,-2659,-810,4,4,1,7,11
3.73E+03,-7078,2383,-2637,-1039,-346,12,1,7,11
3.73E+03,-7079,2331,-2606,-993,-207,16,1,7,11
3.73E+03,-7085,2012,-2568,-1399,-551,0,1,7,11
3.73E+03,-7080,1974,-2293,-1211,-621,-257,1,7,11
3.73E+03,-7057,1942,-2263,-1228,-396,19,1,7,11
3.73E+03,-7296,1922,-2236,-1196,-391,51,1,7,11
3.73E+03,-7292,2158,-2196,-1380,-616,81,1,7,11
3.73E+03,-7291,2143,-2393,-1281,-588,105,1,7,11
3.73E+03,-7275,2152,-2365,-904,-565,115,1,7,11
3.73E+03,-7255,2174,-2368,-1028,-533,99,1,7,11
3.73E+03,-7264,1946,-2360,-664,-234,64,1,7,11
3.73E+03,-7270,1967,-2337,-835,-172,22,1,7,11
3.73E+03,-7260,1977,-2316,-484,-143,14,1,7,11
3.73E+03,-7251,1968,-2310,-428,-365,-259,1,7,11
3.73E+03,-7265,1972,-2328,-630,-314,-294,1,7,11
3.73E+03,-7058,1977,-2316,-601,-278,-323,1,7,11
3.73E+03,-7092,1962,-2037,-579,-278,-326,1,7,11
3.73E+03,-7132,1937,-2011,-552,-290,-321,1,7,11
3.73E+03,-7148,1924,-2013,-517,-331,-286,1,7,11
3.73E+03,-7140,1924,-2020,-239,-362,1,1,7,11
3.73E+03,-7138,2175,-2016,-225,-382,22,1,7,11
3.73E+03,-7135,1922,-2003,-221,-133,34,1,7,11
3.73E+03,-7140,1937,-1994,-210,-135,49,1,7,11
3.73E+03,-7132,1957,-2000,-211,-147,69,1,7,11
3.73E+03,-7114,1980,-2002,-221,-156,82,1,7,11
3.73E+03,-7103,1997,-1992,-244,-152,84,1,7,11
3.74E+03,-7112,2006,-1982,-535,-139,74,1,7,11
3.74E+03,-7123,2008,-1958,-552,-382,78,1,7,11
3.74E+03,-7109,2015,-1932,-559,-380,96,1,7,11
3.74E+03,-7093,2007,-2158,-568,-370,107,1,7,11
3.74E+03,-7080,2001,-2135,-545,-344,120,1,7,11
3.74E+03,-7086,1997,-2099,-520,-311,-127,1,7,11
3.74E+03,-7093,1981,-2060,-211,-288,-103,1,7,11
3.74E+03,-7089,1982,-1792,-371,-268,-79,1,7,11
3.74E+03,-7090,2012,-2056,-263,15,-65,1,7,11
3.74E+03,-7092,2335,-2070,82,50,-54,1,7,11
3.74E+03,-7131,2375,-2079,-123,83,-61,1,7,11
3.74E+03,-7160,2402,-2079,-103,99,-72,1,7,11
3.74E+03,-7156,2427,-2096,-105,80,-69,1,7,11
3.74E+03,-7155,2431,-2107,120,48,-79,1,7,11
3.74E+03,-7159,2431,-2102,53,53,-89,1,7,11
3.74E+03,-7162,2424,-2098,19,63,-89,1,7,11
3.74E+03,-7164,2420,-2083,-263,70,-92,1,7,11
3.74E+03,-7429,2407,-2060,-276,74,-100,1,7,11
3.74E+03,-7433,2388,-2053,-266,53,-109,1,7,11
3.74E+03,-7161,2375,-1789,20,32,-118,1,7,11
3.74E+03,-7153,2369,-2054,50,37,124,1,7,11
3.74E+03,-7164,2374,-2056,76,59,117,1,7,11
3.74E+03,-7163,2362,-2053,87,62,-117,1,7,11
3.74E+03,-7139,2345,-2052,108,70,-88,1,7,11
3.74E+03,-7112,2343,-2070,-109,99,-79,1,7,11
3.74E+03,-7125,2349,-2071,-79,-107,-89,1,7,11
3.74E+03,-7152,2365,-2058,-46,-74,-94,1,7,11
3.74E+03,-7427,2365,-1792,-22,-66,-92,1,7,11
3.74E+03,-7153,2369,-2052,270,-75,-69,1,7,11
3.74E+03,-7132,2376,-2068,304,-77,-66,1,7,11
3.74E+03,-7111,2379,-2079,322,-73,-73,1,7,11
3.74E+03,-7115,2382,-2085,342,-47,-97,1,7,11
3.74E+03,-7133,2403,-2089,361,-28,-101,1,7,11
3.74E+03,-7142,2410,-2091,346,-33,-99,1,7,11
3.74E+03,-7141,2418,-2083,328,-48,-105,1,7,11
3.74E+03,-7146,2414,-2087,290,-72,-119,1,7,11
3.74E+03,-7146,2398,-2104,261,-93,118,1,7,11
3.74E+03,-7139,2410,-2137,-19,-102,97,1,7,11
3.74E+03,-7121,2416,-2162,-69,-107,75,1,7,11
3.74E+03,-7105,2416,-1923,123,-97,60,1,7,11
3.75E+03,-7119,2386,-1924,45,-61,44,1,7,11
3.75E+03,-7126,2353,-2164,-277,-53,34,1,7,11
3.75E+03,-7144,2335,-2172,-298,-47,16,1,7,11
3.75E+03,-7161,2328,-2176,-284,-56,10,1,7,11
3.75E+03,-7425,2329,-1924,-276,-73,6,1,7,11
3.75E+03,-7430,2324,-2168,-268,-92,9,1,7,11
3.75E+03,-7167,2313,-2162,4,-117,15,1,7,11
3.75E+03,-7151,2041,-2160,32,126,15,1,7,11
3.75E+03,-7152,2043,-2152,77,-118,11,1,7,11
3.75E+03,-7432,2313,-2121,110,-103,15,1,7,11
3.75E+03,-7436,2317,-2095,-115,-111,52,1,7,11
3.75E+03,-7429,2031,-2066,-88,126,84,1,7,11
3.75E+03,-7146,1990,-1788,-28,105,113,1,7,11
3.75E+03,-7109,1953,-1779,318,106,114,1,7,11
3.75E+03,-7093,1923,-2051,171,-121,84,1,7,11
3.75E+03,-7072,2160,-2071,526,-90,64,1,7,11
3.75E+03,-7046,2133,-2103,630,-43,49,1,7,11
3.75E+03,-7273,2129,-2160,497,290,40,1,7,11
3.75E+03,-7257,2158,-1952,863,139,19,1,7,11
3.75E+03,-7279,1953,-1996,680,248,10,1,7,11
3.75E+03,-7066,1984,-2026,698,584,30,1,7,11
3.75E+03,-7098,1991,-2041,678,628,74,1,7,11
3.75E+03,-7127,1980,-2046,873,636,-123,1,7,11
3.75E+03,-7139,1967,-2309,832,611,-109,1,7,11
3.75E+03,-7146,1962,-2320,786,565,-110,1,7,11
3.75E+03,-7129,1956,-2339,467,251,-120,1,7,11
3.75E+03,-7100,1956,-2354,386,212,112,1,7,11
3.75E+03,-7087,1956,-2376,552,202,86,1,7,11
3.75E+03,-7075,1964,-2405,198,203,76,1,7,11
3.75E+03,-7065,1968,-2425,353,222,69,1,7,11
3.75E+03,-7074,1956,-2185,256,247,77,1,7,11
3.75E+03,-7083,1945,-2199,-93,520,90,1,7,11
3.75E+03,-7098,2170,-2190,73,520,101,1,7,11
3.75E+03,-7069,2126,-2196,8,242,119,1,7,11
3.75E+03,-7044,2086,-2202,-277,246,105,1,7,11
3.75E+03,-7280,2068,-2222,-275,520,91,1,7,11
3.75E+03,-7269,2064,-2245,-264,554,87,1,7,11
3.75E+03,-7271,2082,-2275,13,590,100,1,7,11
3.75E+03,-7250,2106,-2561,21,618,-123,1,7,11
3.75E+03,-7278,2109,-2571,15,403,-108,1,7,11
3.76E+03,-7274,2113,-2570,20,404,-71,1,7,11
3.76E+03,-7285,2115,-2561,31,401,-65,1,7,11
3.76E+03,-7288,2129,-2576,54,621,-51,1,7,11
3.76E+03,-7258,2142,-2601,53,578,-55,1,7,11
3.76E+03,-7247,2153,-2618,49,553,-86,1,7,11
3.76E+03,-7236,1922,-2641,34,535,-116,1,7,11
3.76E+03,-7244,1923,-2653,19,534,113,1,7,11
3.76E+03,-7244,1935,-2660,11,521,112,1,7,11
3.76E+03,-7231,1934,-2673,-263,239,123,1,7,11
3.76E+03,-7216,1923,-2673,-284,214,-125,1,7,11
3.76E+03,-7203,2155,-2683,-296,194,113,1,7,11
3.76E+03,-7208,2129,-2684,-286,176,75,1,7,11
3.76E+03,-7222,2126,-2685,-263,158,36,1,7,11
3.76E+03,-7219,2118,-2682,8,373,6,1,7,11
3.76E+03,-7195,2074,-2669,-276,331,-262,1,7,11
3.76E+03,-7202,1759,-2660,-278,323,-300,1,7,11
3.76E+03,-7190,1728,-2679,7,306,-334,1,7,11
3.76E+03,-6905,1720,-2455,3,296,-373,1,7,11
3.76E+03,-6903,1706,-2469,-287,312,-157,1,7,11
3.76E+03,-6900,1685,-2489,-330,337,-168,1,7,11
3.76E+03,-6906,1681,-2503,-366,372,-164,1,7,11
3.76E+03,-7175,1675,-2524,-157,143,-145,1,7,11
3.76E+03,-7203,1896,-2516,-211,160,-129,1,7,11
3.76E+03,-7240,1862,-2506,-225,155,-375,1,7,11
3.76E+03,-7280,1843,-2489,-200,139,-369,1,7,11
3.76E+03,-7055,1822,-2481,-160,354,-340,1,7,11
3.76E+03,-7041,1800,-2459,-131,288,-286,1,7,11
3.76E+03,-7269,1525,-2684,-355,-14,4,1,7,11
3.76E+03,-7231,1504,-2665,-326,-50,34,1,7,11
3.76E+03,-7215,1459,-2640,-321,-73,43,1,7,11
3.76E+03,-7219,1415,-2602,-312,-86,27,1,7,11
3.76E+03,-7208,1662,-2580,-267,-99,4,1,7,11
3.76E+03,-7197,1431,-2587,26,-97,-264,1,7,11
3.76E+03,-7183,1463,-2604,35,-55,7,1,7,11
3.76E+03,-7183,1491,-2646,-260,262,51,1,7,11
3.76E+03,-7175,1477,-2666,-331,322,100,1,7,11
3.76E+03,-7206,1480,-2451,-353,161,98,1,7,11
3.76E+03,-7282,1524,-2487,-340,247,83,1,7,11
3.76E+03,-7066,1842,-2530,-337,515,117,1,7,11
3.76E+03,-7083,1879,-2554,-360,246,-90,1,7,11
3.77E+03,-7103,1913,-2833,-360,230,-36,1,7,11
3.77E+03,-7103,1679,-2865,-360,203,264,1,7,11
3.77E+03,-7114,1696,-2874,-351,173,288,1,7,11
3.77E+03,-7092,1732,-2883,-333,129,310,1,7,11
3.77E+03,-7071,1769,-2886,-321,350,326,1,7,11
3.77E+03,-7267,2075,-2883,-329,292,369,1,7,11
3.77E+03,-7193,2068,-2855,-134,-35,147,1,7,11
3.77E+03,-6828,1769,-2832,-189,-83,147,1,7,11
3.77E+03,-7010,2068,-2842,-169,-23,310,1,7,11
3.77E+03,-6970,2117,-2860,-187,-5,296,1,7,11
3.77E+03,-6945,2150,-2854,-227,290,290,1,7,11
3.77E+03,-6938,1927,-2859,-238,324,299,1,7,11
3.77E+03,-6655,1962,-2863,-230,344,334,1,7,11
3.77E+03,-6639,2027,-2890,-187,378,375,1,7,11
3.77E+03,-6637,2401,-2925,-150,170,198,1,7,11
3.77E+03,-6632,2292,-2715,-155,216,589,1,7,11
3.77E+03,-6917,2479,-2777,-218,554,494,1,7,11
3.77E+03,-7002,2698,-2806,-396,591,680,1,7,11
3.77E+03,-6810,3101,-3073,-749,251,1142,1,7,11
3.77E+03,-6834,3153,-2808,-1184,335,1314,1,7,11
3.77E+03,-6860,3163,-2789,-1848,-113,1400,1,7,11
3.77E+03,-6863,3169,-2772,-2162,-318,1161,1,7,11
3.77E+03,-6842,3181,-2736,-2361,-237,1386,1,7,11
3.77E+03,-6791,2969,-2710,-2180,-626,1342,1,7,11
3.77E+03,-6947,3025,-2930,-2189,-479,1310,1,7,11
3.77E+03,-6561,3069,-2909,-2421,-777,996,1,7,11
3.77E+03,-6747,3354,-2870,-2369,-467,1143,1,7,11
3.77E+03,-6730,3367,-2819,-2025,-633,1034,1,7,11
3.77E+03,-6748,3391,-2504,-2155,-541,671,1,7,11
3.77E+03,-6781,3447,-2443,-1732,-221,841,1,7,11
3.77E+03,-6546,3243,-2654,-1819,-189,773,1,7,11
3.77E+03,-6547,3296,-2625,-1662,-176,452,1,7,11
3.77E+03,-6554,3597,-2601,-1544,-148,624,1,7,11
3.77E+03,-6537,3632,-2298,-1192,-136,561,1,7,11
3.77E+03,-6556,3324,-2243,-1387,-370,222,1,7,11
3.77E+03,-6587,3246,-2181,-1342,-353,338,1,7,11
3.77E+03,-6644,3440,-2382,-1142,-340,-11,1,7,11
3.77E+03,-6941,3400,-2357,-680,-355,-69,1,7,11
3.77E+03,-6940,3377,-2347,-456,-380,-87,1,7,11
3.77E+03,-6923,3351,-2336,-250,-384,-89,1,7,11
3.78E+03,-6650,3338,-2319,-311,-364,-75,1,7,11
3.78E+03,-6647,3337,-2037,118,-336,-53,1,7,11
3.78E+03,-6648,3337,-2010,258,-310,-28,1,7,11
3.78E+03,-6923,3342,-1988,369,-276,-21,1,7,11
3.78E+03,-6932,3373,-1967,188,-267,-3,1,7,11
3.78E+03,-6927,3373,-1955,205,-271,-3,1,7,11
3.78E+03,-6948,3364,-1931,207,-257,-12,1,7,11
3.78E+03,-6942,3354,-1921,200,0,260,1,7,11
3.78E+03,-6958,3338,-2168,174,17,270,1,7,11
3.78E+03,-6943,3331,-2156,148,21,293,1,7,11
3.78E+03,-6925,3331,-2161,371,46,281,1,7,11
3.78E+03,-6942,3334,-2173,329,87,-12,1,7,11
3.78E+03,-6935,3356,-1954,274,-128,-46,1,7,11
3.78E+03,-6943,3384,-1980,-56,-72,-87,1,7,11
3.78E+03,-6941,3403,-2009,108,-31,-108,1,7,11
3.78E+03,-6951,3412,-2026,-257,277,-121,1,7,11
3.78E+03,-6971,3395,-2023,-361,304,-111,1,7,11
3.78E+03,-6984,3382,-2032,-172,308,-95,1,7,11
3.78E+03,-6990,3380,-2045,-197,294,-85,1,7,11
3.78E+03,-6977,3397,-2334,-201,271,-73,1,7,11
3.78E+03,-6967,3425,-2357,-206,-7,-63,1,7,11
3.78E+03,-6948,3209,-2390,-227,-27,-53,1,7,11
3.78E+03,-6923,3225,-2387,-541,-45,-39,1,7,11
3.78E+03,-6622,3218,-2370,-608,-66,-36,1,7,11
3.78E+03,-6615,3435,-2344,-404,-66,-87,1,7,11
3.78E+03,-6631,3376,-2318,-421,-77,100,1,7,11
3.78E+03,-6654,3360,-2045,-395,-96,-266,1,7,11
3.78E+03,-6933,3378,-2032,-599,-113,-301,1,7,11
3.78E+03,-6935,3400,-2026,-545,126,-285,1,7,11
3.78E+03,-6916,3422,-2018,-536,110,22,1,7,11
3.78E+03,-6607,3420,-2034,-544,94,81,1,7,11
3.78E+03,-6594,3405,-2048,-552,-127,76,1,7,11
3.78E+03,-6626,3398,-2316,-526,-75,48,1,7,11
3.78E+03,-6649,3419,-2328,-248,-63,39,1,7,11
3.78E+03,-6637,3448,-2337,-235,-66,52,1,7,11
3.78E+03,-6913,3454,-2342,-519,-67,69,1,7,11
3.78E+03,-6649,3432,-2354,-562,-98,113,1,7,11
3.78E+03,-6651,3405,-2354,-585,-112,-116,1,7,11
3.78E+03,-6921,3392,-2354,-574,-111,-107,1,7,11
3.78E+03,-6655,3392,-2355,-547,-121,-95,1,7,11
3.79E+03,-6646,3397,-2376,-250,-107,-109,1,7,11
3.79E+03,-6656,3394,-2385,-208,-77,90,1,7,11
3.79E+03,-6935,3392,-2375,-167,-64,19,1,7,11
3.79E+03,-6955,3376,-2351,-366,-66,-322,1,7,11
3.79E+03,-6984,3347,-2328,-298,-93,-137,1,7,11
3.79E+03,-6975,3069,-2316,32,121,-182,1,7,11
3.79E+03,-6980,3042,-2318,80,78,-222,1,7,11
3.79E+03,-6935,3028,-2336,107,24,-237,1,7,11
3.79E+03,-6915,3010,-2340,111,3,-531,1,7,11
3.79E+03,-6602,2950,-2356,98,-296,-537,1,7,11
3.79E+03,-6553,3157,-2370,70,-302,-574,1,7,11
3.79E+03,-6561,3142,-2357,70,-274,-630,1,7,11
3.79E+03,-6608,3134,-2328,76,20,-626,1,7,11
3.79E+03,-6612,3125,-2312,102,22,-548,1,7,11
3.79E+03,-6594,3102,-2045,-99,16,-217,1,7,11
3.79E+03,-6603,2809,-2032,-81,28,-185,1,7,11
3.79E+03,-6640,2795,-2020,14,41,-185,1,7,11
3.79E+03,-6949,2802,-2010,327,31,-184,1,7,11
3.79E+03,-6998,2802,-1981,346,-258,-167,1,7,11
3.79E+03,-6789,2792,-1952,346,-306,-129,1,7,11
3.79E+03,-6822,2778,-2166,350,-362,-322,1,7,11
3.79E+03,-6825,2763,-2133,374,-161,17,1,7,11
3.79E+03,-7022,2735,-2126,166,-218,109,1,7,11
3.79E+03,-6929,2710,-2156,228,-214,-99,1,7,11
3.79E+03,-6627,2706,-1949,553,-379,-106,1,7,11
3.79E+03,-6628,2706,-1998,608,-260,-115,1,7,11
3.79E+03,-6919,2709,-2029,412,111,-110,1,7,11
3.79E+03,-6949,2731,-2045,492,-47,-74,1,7,11
3.79E+03,-6990,2745,-2045,828,287,-32,1,7,11
3.79E+03,-7001,2770,-2321,655,316,274,1,7,11
3.79E+03,-6991,2795,-2344,719,322,300,1,7,11
3.79E+03,-6982,3073,-2373,741,317,296,1,7,11
3.79E+03,-6969,3089,-2386,734,308,278,1,7,11
3.79E+03,-6964,3115,-2400,696,308,-16,1,7,11
3.79E+03,-6973,3152,-2413,879,309,-53,1,7,11
3.79E+03,-6990,3173,-2412,769,301,-70,1,7,11
3.79E+03,-7011,3174,-2407,400,284,-72,1,7,11
3.79E+03,-7016,3179,-2406,556,266,-52,1,7,11
3.79E+03,-7010,3167,-2388,203,-9,-25,1,7,11
3.79E+03,-6973,3140,-2401,371,-41,258,1,7,11
3.80E+03,-6958,3097,-2393,298,-49,-14,1,7,11
3.80E+03,-6956,2810,-2387,262,-58,-44,1,7,11
3.80E+03,-6946,2788,-2379,-7,-56,-73,1,7,11
3.80E+03,-6948,2794,-2382,-4,-29,-91,1,7,11
3.80E+03,-6932,2806,-2388,258,259,-78,1,7,11
3.80E+03,-6935,3077,-2405,268,313,-66,1,7,11
3.80E+03,-6925,3073,-2426,276,352,-42,1,7,11
3.80E+03,-6936,3080,-2197,291,138,-55,1,7,11
3.80E+03,-6954,3100,-2235,319,197,-76,1,7,11
3.80E+03,-6955,3120,-2257,324,207,-90,1,7,11
3.80E+03,-6954,3128,-2282,292,202,-107,1,7,11
3.80E+03,-6940,3132,-2296,-8,187,-115,1,7,11
3.80E+03,-6933,3118,-2571,-61,178,125,1,7,11
3.80E+03,-6921,3114,-2576,-99,177,107,1,7,11
3.80E+03,-6917,3112,-2585,-119,182,102,1,7,11
3.80E+03,-6931,3123,-2601,106,185,110,1,7,11
3.80E+03,-6919,3122,-2623,67,168,-112,1,7,11
3.80E+03,-6919,3123,-2621,27,162,-95,1,7,11
3.80E+03,-6927,3115,-2617,0,149,-78,1,7,11
3.80E+03,-6915,3105,-2622,-267,375,-58,1,7,11
3.80E+03,-6639,3102,-2630,-270,348,-53,1,7,11
3.80E+03,-6631,3110,-2647,-269,331,-66,1,7,11
3.80E+03,-6618,3114,-2659,-278,328,-88,1,7,11
3.80E+03,-6646,3109,-2658,-289,339,124,1,7,11
3.80E+03,-6916,3123,-2644,-284,320,105,1,7,11
3.80E+03,-6918,3118,-2640,-278,286,97,1,7,11
3.80E+03,-6645,3115,-2638,-277,-9,100,1,7,11
3.80E+03,-6627,3111,-2647,-278,-40,97,1,7,11
3.80E+03,-6619,3111,-2658,-280,-60,85,1,7,11
3.80E+03,-6603,3116,-2659,-281,-64,71,1,7,11
3.80E+03,-6614,3119,-2642,-293,-55,58,1,7,11
3.80E+03,-6616,3110,-2630,-306,-59,71,1,7,11
3.80E+03,-6629,3103,-2625,-306,-53,77,1,7,11
3.80E+03,-6642,3110,-2619,-281,-35,83,1,7,11
3.80E+03,-6644,3118,-2620,12,-36,86,1,7,11
3.80E+03,-6624,3129,-2628,44,-41,83,1,7,11
3.80E+03,-6606,3146,-2639,59,-33,66,1,7,11
3.80E+03,-6593,3160,-2652,46,-23,44,1,7,11
3.80E+03,-6579,3162,-2662,7,-15,18,1,7,11
3.80E+03,-6580,3161,-2671,-295,256,-272,1,7,11
3.81E+03,-6582,3141,-2676,-340,-2,-295,1,7,11
3.81E+03,-6570,3107,-2681,-380,-6,-311,1,7,11
3.81E+03,-6559,3077,-2686,-138,-8,-325,1,7,11
3.81E+03,-6540,2790,-2442,-146,-1,-323,1,7,11
3.81E+03,-6554,2752,-2447,-149,276,-326,1,7,11
3.81E+03,-6571,2722,-2437,-129,280,-308,1,7,11
3.81E+03,-6611,2723,-2438,-328,277,-300,1,7,11
3.81E+03,-6628,2753,-2457,2,-2,-267,1,7,11
3.81E+03,-6631,2792,-2484,46,-20,36,1,7,11
3.81E+03,-6617,3078,-2499,71,-25,88,1,7,11
3.81E+03,-6622,3088,-2507,75,-14,-124,1,7,11
3.81E+03,-6622,3090,-2510,77,-11,-91,1,7,11
3.81E+03,-6611,3082,-2506,78,-23,-87,1,7,11
3.81E+03,-6609,2815,-2500,77,-33,-125,1,7,11
3.81E+03,-6605,3084,-2503,85,-42,76,1,7,11
3.81E+03,-6614,3105,-2501,69,-53,26,1,7,11
3.81E+03,-6599,3106,-2494,22,-83,15,1,7,11
3.81E+03,-6571,3094,-2485,-296,-100,9,1,7,11
3.81E+03,-6554,3076,-2482,-363,-100,3,1,7,11
3.81E+03,-6542,2799,-2477,-163,-89,-267,1,7,11
3.81E+03,-6537,2773,-2471,-205,-69,-287,1,7,11
3.81E+03,-6547,2766,-2469,-218,-39,-302,1,7,11
3.81E+03,-6580,2768,-2460,-213,-12,-290,1,7,11
3.81E+03,-6572,2775,-2462,-187,-14,54,1,7,11
3.81E+03,-6555,2784,-2466,-164,264,92,1,7,11
3.81E+03,-6539,2778,-2490,-138,279,99,1,7,11
3.81E+03,-6533,2778,-2512,-371,311,78,1,7,11
3.81E+03,-6570,2803,-2531,-335,352,34,1,7,11
3.81E+03,-6596,3089,-2560,-313,357,22,1,7,11
3.81E+03,-6607,3113,-2828,-323,348,20,1,7,11
3.81E+03,-6627,3134,-2825,-362,323,17,1,7,11
3.81E+03,-6631,3141,-2829,-171,265,17,1,7,11
3.81E+03,-6636,3179,-2831,-252,-45,2,1,7,11
3.81E+03,-6653,2988,-2836,-632,-98,-276,1,7,11
3.81E+03,-6925,3019,-2557,-836,69,-292,1,7,11
3.81E+03,-6653,2988,-2525,-1056,-289,-288,1,7,11
3.81E+03,-6641,3198,-2481,-955,-360,-303,1,7,11
3.81E+03,-6630,3140,-2437,-1306,-150,-321,1,7,11
3.81E+03,-6601,3075,-2666,-1327,-174,-337,1,7,11
3.81E+03,-6585,2768,-2633,-1288,-164,-362,1,7,11
3.82E+03,-6568,2731,-2616,-952,-138,-363,1,7,11
3.82E+03,-6560,2695,-2586,-1095,-355,-345,1,7,11
3.82E+03,-6549,2931,-2572,-689,-309,-313,1,7,11
3.82E+03,-6561,2930,-2567,-508,9,-283,1,7,11
3.82E+03,-6567,2698,-2583,-578,60,17,1,7,11
3.82E+03,-6564,2735,-2601,-167,111,56,1,7,11
3.82E+03,-6577,2769,-2601,-311,-94,84,1,7,11
3.82E+03,-6621,2804,-2591,19,-59,105,1,7,11
3.82E+03,-6650,2814,-2594,60,-92,-119,1,7,11
3.82E+03,-6645,3084,-2593,99,105,-102,1,7,11
3.82E+03,-6654,3123,-2605,-109,65,-113,1,7,11
3.82E+03,-6915,3164,-2615,-82,28,-108,1,7,11
3.82E+03,-6655,2946,-2623,-76,8,-86,1,7,11
3.82E+03,-6627,2960,-2627,-98,-264,-54,1,7,11
3.82E+03,-6609,2948,-2610,90,5,-47,1,7,11
3.82E+03,-6611,3194,-2603,73,31,-58,1,7,11
3.82E+03,-6627,3181,-2588,66,53,-87,1,7,11
3.82E+03,-6645,3176,-2577,81,52,-103,1,7,11
3.82E+03,-6629,3177,-2569,87,39,-111,1,7,11
3.82E+03,-6615,3173,-2561,83,40,-127,1,7,11
3.82E+03,-6613,3170,-2296,79,54,105,1,7,11
3.82E+03,-6609,3156,-2296,91,65,84,1,7,11
3.82E+03,-6596,3144,-2299,118,72,75,1,7,11
3.82E+03,-6603,3122,-2297,-119,78,58,1,7,11
3.82E+03,-6606,3115,-2292,-101,83,52,1,7,11
3.82E+03,-6624,3086,-2275,-75,87,53,1,7,11
3.82E+03,-6624,3074,-2283,-19,95,63,1,7,11
3.82E+03,-6624,3094,-2294,286,115,80,1,7,11
3.82E+03,-6623,3115,-2568,301,-119,95,1,7,11
3.82E+03,-6603,3132,-2584,293,-95,116,1,7,11
3.82E+03,-6625,3149,-2589,258,-46,107,1,7,11
3.82E+03,-6649,3164,-2579,-56,-34,115,1,7,11
3.82E+03,-6916,3179,-2575,-118,-41,118,1,7,11
3.82E+03,-6930,2945,-2586,77,-50,115,1,7,11
3.82E+03,-6923,2957,-2587,-263,-76,123,1,7,11
3.82E+03,-6655,3196,-2574,-359,-98,-124,1,7,11
3.82E+03,-6629,3171,-2301,-159,-102,124,1,7,11
3.82E+03,-6638,3161,-2295,-181,-82,94,1,7,11
3.82E+03,-6635,3161,-2296,-193,-76,77,1,7,11
3.82E+03,-6610,3185,-2580,-199,-70,62,1,7,11
3.83E+03,-6606,2967,-2606,-224,-42,31,1,7,11
3.83E+03,-6615,3003,-2624,-558,-26,0,1,7,11
3.83E+03,-6631,2990,-2613,-412,-26,-275,1,7,11
3.83E+03,-6637,2954,-2590,-496,-39,-290,1,7,11
3.83E+03,-6915,3171,-2571,-800,-50,-302,1,7,11
3.83E+03,-6929,3136,-2300,-796,-77,-300,1,7,11
3.83E+03,-6905,3122,-2291,-505,-109,-284,1,7,11
3.83E+03,-6641,3093,-2274,-480,-127,-271,1,7,11
3.83E+03,-6631,2814,-2263,-436,124,10,1,7,11
3.83E+03,-6624,2798,-2253,-627,-122,28,1,7,11
3.83E+03,-6623,2778,-2254,-546,-102,49,1,7,11
3.83E+03,-6633,2780,-2252,-138,-72,70,1,7,11
3.83E+03,-6635,2788,-2240,-301,-51,97,1,7,11
3.83E+03,-6919,2789,-2213,42,-30,101,1,7,11
3.83E+03,-6919,3076,-2214,-108,-61,120,1,7,11
3.83E+03,-6604,3177,-2284,-21,-105,105,1,7,11
3.83E+03,-6608,2975,-2578,-74,-81,87,1,7,11
3.83E+03,-6631,3011,-2601,86,-57,75,1,7,11
3.83E+03,-6654,3018,-2600,-288,-66,84,1,7,11
3.83E+03,-6651,2996,-2580,-142,-87,92,1,7,11
3.83E+03,-6651,2976,-2565,-196,-95,84,1,7,11
3.83E+03,-6655,2972,-2573,-245,-106,50,1,7,11
3.83E+03,-6645,2981,-2581,-548,127,28,1,7,11
3.83E+03,-6641,2976,-2591,-601,113,1,1,7,11
3.83E+03,-6631,2949,-2583,-391,115,-270,1,7,11
3.83E+03,-6625,3181,-2304,-407,-128,-277,1,7,11
3.83E+03,-6626,3131,-2277,-603,-101,-267,1,7,11
3.83E+03,-6641,3103,-2259,-527,-81,-261,1,7,11
3.83E+03,-6636,3081,-2237,-172,-86,13,1,7,11
3.83E+03,-6647,2799,-2220,-320,-86,9,1,7,11
3.83E+03,-6652,2771,-2209,61,-102,15,1,7,11
3.83E+03,-6644,2744,-2234,-62,-118,23,1,7,11
3.83E+03,-6621,2742,-2249,342,-115,32,1,7,11
3.83E+03,-6602,2779,-2285,208,-89,48,1,7,11
3.83E+03,-6584,2804,-2291,541,-49,73,1,7,11
3.83E+03,-6595,3080,-2292,606,261,97,1,7,11
3.83E+03,-6596,3105,-2301,402,293,-117,1,7,11
3.83E+03,-6584,3107,-2583,422,314,-76,1,7,11
3.83E+03,-6570,3097,-2612,429,344,-47,1,7,11
3.83E+03,-6558,3111,-2641,424,128,-30,1,7,11
3.84E+03,-6568,3133,-2652,411,177,-32,1,7,11
3.84E+03,-6593,3141,-2651,621,218,-46,1,7,11
3.84E+03,-6628,3143,-2651,572,234,-52,1,7,11
3.84E+03,-6646,3137,-2658,508,209,-47,1,7,11
3.84E+03,-6642,3143,-2683,216,173,-42,1,7,11
3.84E+03,-6623,3158,-2455,180,139,-43,1,7,11
3.84E+03,-6595,3156,-2489,377,377,-63,1,7,11
3.84E+03,-6584,3135,-2491,314,379,-101,1,7,11
3.84E+03,-6569,3102,-2489,261,377,114,1,7,11
3.84E+03,-6588,2812,-2488,-26,383,76,1,7,11
3.84E+03,-6603,2790,-2483,-27,372,63,1,7,11
3.84E+03,-6595,2774,-2476,-19,350,69,1,7,11
3.84E+03,-6569,2761,-2486,258,337,92,1,7,11
3.84E+03,-6548,2757,-2518,270,352,108,1,7,11
3.84E+03,-6540,2767,-2542,278,376,124,1,7,11
3.84E+03,-6770,2780,-2831,277,144,-109,1,7,11
3.84E+03,-6782,2791,-2852,261,187,-119,1,7,11
3.84E+03,-6533,2804,-2863,-24,196,-114,1,7,11
3.84E+03,-6553,2777,-2861,-59,187,-116,1,7,11
3.84E+03,-6584,2770,-2873,-56,147,-116,1,7,11
3.84E+03,-6572,2801,-2902,-53,339,-103,1,7,11
3.84E+03,-6551,3087,-2930,-78,303,-100,1,7,11
3.84E+03,-6783,3112,-2698,125,292,-98,1,7,11
3.84E+03,-6772,3128,-2704,55,306,-107,1,7,11
3.84E+03,-6542,3137,-2690,4,317,125,1,7,11
3.84E+03,-6558,3152,-2938,-289,303,118,1,7,11
3.84E+03,-6561,3158,-2938,-331,271,110,1,7,11
3.84E+03,-6542,3144,-2923,-374,-27,100,1,7,11
3.84E+03,-6769,3115,-2911,-150,-59,74,1,7,11
3.84E+03,-6761,3103,-2891,-165,-67,46,1,7,11
3.84E+03,-6756,3111,-2889,-187,-66,20,1,7,11
3.84E+03,-6756,3150,-2906,-234,-67,-260,1,7,11
3.84E+03,-6761,2964,-2932,-595,-61,-294,1,7,11
3.84E+03,-6558,2982,-2925,-807,-88,-349,1,7,11
3.84E+03,-6571,3176,-2875,-1035,70,-371,1,7,11
3.84E+03,-6549,3115,-2827,-924,-262,-157,1,7,11
3.84E+03,-6560,2814,-2544,-992,-312,-194,1,7,11
3.84E+03,-6546,2797,-2534,-1023,-345,-193,1,7,11
3.84E+03,-6545,2795,-2520,-1022,-344,-183,1,7,11
3.84E+03,-6553,2792,-2514,-1002,-336,-139,1,7,11
3.85E+03,-6574,2791,-2506,-971,-323,-339,1,7,11
3.85E+03,-6564,2791,-2499,-922,-316,-279,1,7,11
3.85E+03,-6568,2796,-2501,-1120,-312,12,1,7,11
3.85E+03,-6784,2792,-2511,-1057,-315,44,1,7,11
3.85E+03,-6533,2793,-2495,-748,-273,29,1,7,11
3.85E+03,-6566,2814,-2469,-679,15,16,1,7,11
3.85E+03,-6600,3094,-2684,-839,13,36,1,7,11
3.85E+03,-6622,3116,-2643,-795,-278,75,1,7,11
3.85E+03,-6618,3118,-2613,-502,-316,109,1,7,11
3.85E+03,-6618,3111,-2575,-463,-351,125,1,7,11
3.85E+03,-6598,3096,-2294,-421,-131,-125,1,7,11
3.85E+03,-6582,3082,-2282,-600,-130,124,1,7,11
3.85E+03,-6550,3108,-2274,-249,-363,-121,1,7,11
3.85E+03,-6769,3157,-2282,-171,-313,-102,1,7,11
3.85E+03,-6739,2955,-2302,-137,8,-76,1,7,11
3.85E+03,-6725,2981,-2580,-144,82,-65,1,7,11
3.85E+03,-6745,3004,-2593,-160,-110,-71,1,7,11
3.85E+03,-6767,3029,-2614,-173,-75,-84,1,7,11
3.85E+03,-6560,3052,-2631,-206,-60,-112,1,7,11
3.85E+03,-6620,3057,-2642,-244,-83,127,1,7,11
3.85E+03,-6913,3333,-2638,-518,116,-122,1,7,11
3.85E+03,-6935,3342,-2620,-522,37,-107,1,7,11
3.85E+03,-6934,3339,-2600,-515,-298,-92,1,7,11
3.85E+03,-6958,3064,-2570,-239,-370,-95,1,7,11
3.85E+03,-6967,3037,-2272,-199,-208,-91,1,7,11
3.85E+03,-6978,3023,-2231,-136,-556,-95,1,7,11
3.85E+03,-6966,3022,-2214,-313,-388,-95,1,7,11
3.85E+03,-6951,3044,-2211,29,-450,-114,1,7,11
3.85E+03,-6968,3057,-2198,108,-494,122,1,7,11
3.85E+03,-6957,3339,-2424,-91,-801,121,1,7,11
3.85E+03,-6962,3351,-2398,-60,-835,110,1,7,11
3.85E+03,-6966,3357,-2377,-40,-869,109,1,7,11
3.85E+03,-6954,3362,-2357,-47,-654,116,1,7,11
3.85E+03,-6930,3368,-2353,-67,-695,123,1,7,11
3.85E+03,-6924,3363,-2335,-113,-728,104,1,7,11
3.85E+03,-6920,3340,-2323,45,-749,87,1,7,11
3.85E+03,-6933,3058,-2036,-261,-744,62,1,7,11
3.85E+03,-6955,3038,-2018,-289,-741,40,1,7,11
3.85E+03,-6977,3014,-2004,-305,-753,38,1,7,11
3.85E+03,-6980,2992,-1974,-312,-1026,56,1,7,11
3.86E+03,-6978,2982,-1930,-299,-765,82,1,7,11
3.86E+03,-6985,2973,-2147,-276,-742,123,1,7,11
3.86E+03,-6977,2982,-2113,9,-706,-90,1,7,11
3.86E+03,-6977,2997,-2093,23,-655,-74,1,7,11
3.86E+03,-7015,3008,-2051,26,-853,-95,1,7,11
3.86E+03,-6786,3018,-1754,29,-816,-109,1,7,11
3.86E+03,-6790,3027,-1719,42,-787,-111,1,7,11
3.86E+03,-7024,3039,-1696,53,-501,-96,1,7,11
3.86E+03,-6977,3036,-1688,40,-441,-79,1,7,11
3.86E+03,-6954,3013,-1671,24,-595,-79,1,7,11
3.86E+03,-6950,2988,-1906,23,-224,-95,1,7,11
3.86E+03,-6982,2964,-1891,44,-376,-126,1,7,11
3.86E+03,-7018,2966,-1898,93,-298,104,1,7,11
3.86E+03,-7033,2988,-1896,-120,8,100,1,7,11
3.86E+03,-7035,3013,-1914,-104,46,109,1,7,11
3.86E+03,-7032,3036,-1693,-120,91,110,1,7,11
3.86E+03,-6788,3045,-1711,94,-110,98,1,7,11
3.86E+03,-6812,3051,-1723,44,-64,74,1,7,11
3.86E+03,-6853,3039,-1706,-260,-46,47,1,7,11
3.86E+03,-6866,3020,-1705,-291,-63,41,1,7,11
3.86E+03,-6855,3004,-1714,-311,-80,37,1,7,11
3.86E+03,-6848,2991,-1719,-316,-81,39,1,7,11
3.86E+03,-6838,2984,-1720,-310,-72,49,1,7,11
3.86E+03,-6849,2982,-1719,-295,-53,53,1,7,11
3.86E+03,-6843,2986,-1728,-285,-63,68,1,7,11
3.86E+03,-6819,2973,-1744,-282,-72,60,1,7,11
3.86E+03,-6815,2984,-1760,-273,-60,29,1,7,11
3.86E+03,-6832,2995,-1753,-276,-42,11,1,7,11
3.86E+03,-6844,3000,-1731,-292,-40,26,1,7,11
3.86E+03,-6838,2972,-1715,-320,-57,60,1,7,11
3.86E+03,-6821,2955,-1713,-343,-84,95,1,7,11
3.86E+03,-6818,2964,-1706,-335,-71,92,1,7,11
3.86E+03,-6821,2986,-1702,-337,-44,99,1,7,11
3.86E+03,-6814,3009,-1707,-344,-13,124,1,7,11
3.86E+03,-6811,3034,-1704,-353,268,-114,1,7,11
3.86E+03,-6789,3062,-1721,-361,292,-102,1,7,11
3.86E+03,-6802,3332,-1739,-130,332,114,1,7,11
3.86E+03,-6824,3355,-1765,-160,349,74,1,7,11
3.86E+03,-6847,3367,-1764,-208,350,38,1,7,11
3.86E+03,-6861,3350,-1751,-253,317,21,1,7,11
3.87E+03,-6851,3058,-1742,-539,267,22,1,7,11
3.87E+03,-6827,3028,-1736,-530,-27,30,1,7,11
3.87E+03,-6795,3005,-1736,-241,-41,27,1,7,11
3.87E+03,-7020,2985,-1726,-189,-36,30,1,7,11
3.87E+03,-7009,2971,-1735,-131,259,24,1,7,11
3.87E+03,-7022,2967,-1737,-333,307,9,1,7,11
3.87E+03,-6801,3000,-1740,-259,343,1,1,7,11
3.87E+03,-6812,3024,-1756,60,349,15,1,7,11
3.87E+03,-6822,3061,-1777,106,344,24,1,7,11
3.87E+03,-6815,3329,-1786,108,319,33,1,7,11
3.87E+03,-6799,3062,-1790,97,295,31,1,7,11
3.87E+03,-6803,3047,-1782,92,293,18,1,7,11
3.87E+03,-6811,3041,-1787,96,288,10,1,7,11
3.87E+03,-6822,3043,-1788,106,277,12,1,7,11
3.87E+03,-6826,3046,-2059,111,256,20,1,7,11
3.87E+03,-6821,3045,-2072,112,-20,24,1,7,11
3.87E+03,-6794,3026,-2099,102,-41,36,1,7,11
3.87E+03,-6788,3014,-2108,87,-49,37,1,7,11
3.87E+03,-7031,3003,-2131,78,-43,41,1,7,11
3.87E+03,-7038,3000,-2124,60,-23,49,1,7,11
3.87E+03,-6791,2999,-2108,35,-11,68,1,7,11
3.87E+03,-6813,2995,-2092,14,-3,96,1,7,11
3.87E+03,-6814,2993,-2083,-257,-36,121,1,7,11
3.87E+03,-6798,2987,-2080,-264,-57,120,1,7,11
3.87E+03,-6803,2993,-2094,-277,-67,97,1,7,11
3.87E+03,-6799,3001,-2109,-299,-81,79,1,7,11
3.87E+03,-6808,3000,-2102,-330,-93,61,1,7,11
3.87E+03,-6801,2989,-2091,-354,-111,57,1,7,11
3.87E+03,-6795,2977,-2090,-362,-116,49,1,7,11
3.87E+03,-7028,2982,-2085,-350,-113,54,1,7,11
3.87E+03,-7009,2981,-2091,-340,-87,48,1,7,11
3.87E+03,-7040,2979,-2080,-327,-43,35,1,7,11
3.87E+03,-6800,2972,-2081,-307,-23,38,1,7,11
3.87E+03,-6815,2972,-2088,-285,-26,37,1,7,11
3.87E+03,-6810,2978,-2094,-268,-37,34,1,7,11
3.87E+03,-6822,2997,-2094,6,-37,17,1,7,11
3.87E+03,-6839,3001,-2088,-260,-61,18,1,7,11
3.87E+03,-6836,2984,-2077,-273,-99,23,1,7,11
3.87E+03,-6833,2994,-2069,-258,-122,24,1,7,11
3.87E+03,-6827,3007,-2072,0,120,39,1,7,11
3.88E+03,-6793,3019,-2088,-272,117,56,1,7,11
3.88E+03,-7032,3021,-2091,-308,-114,52,1,7,11
3.88E+03,-7033,3027,-2106,-344,-79,36,1,7,11
3.88E+03,-7032,3035,-2121,-136,-50,11,1,7,11
3.88E+03,-6797,3035,-2121,-182,-24,-283,1,7,11
3.88E+03,-6821,3027,-2111,-218,-15,-304,1,7,11
3.88E+03,-6824,3009,-2100,-241,-31,-297,1,7,11
3.88E+03,-6798,2992,-2091,-245,-53,-267,1,7,11
3.88E+03,-7035,2950,-2068,-245,-49,8,1,7,11
3.88E+03,-7034,3166,-1787,-196,-27,17,1,7,11
3.88E+03,-7034,3143,-1786,-362,-15,23,1,7,11
3.88E+03,-6796,3132,-1784,-257,-6,8,1,7,11
3.88E+03,-7034,3142,-2075,117,-21,10,1,7,11
3.88E+03,-7027,3171,-2080,-36,-10,2,1,7,11
3.88E+03,-6999,3143,-2074,283,260,16,1,7,11
3.88E+03,-6990,3087,-2064,339,301,4,1,7,11
3.88E+03,-6996,2803,-2082,208,142,-271,1,7,11
3.88E+03,-6988,2811,-2121,384,210,-279,1,7,11
3.88E+03,-6979,3094,-2168,869,535,-284,1,7,11
3.88E+03,-6969,3102,-1963,696,600,-280,1,7,11
3.88E+03,-6965,3114,-2009,738,409,-273,1,7,11
3.88E+03,-6960,3122,-2313,737,466,-273,1,7,11
3.88E+03,-6977,3107,-2345,699,770,-285,1,7,11
3.88E+03,-6980,3101,-2378,669,794,-283,1,7,11
3.88E+03,-6959,3093,-2409,640,814,-289,1,7,11
3.88E+03,-6952,3080,-2189,861,838,-316,1,7,11
3.88E+03,-6952,2812,-2218,830,867,-336,1,7,11
3.88E+03,-6965,2806,-2242,803,642,-340,1,7,11
3.88E+03,-6975,2812,-2264,771,656,-324,1,7,11
3.88E+03,-6983,3076,-2286,458,655,-295,1,7,11
3.88E+03,-6994,2800,-2290,636,886,-267,1,7,11
3.88E+03,-6973,2763,-2570,576,841,7,1,7,11
3.88E+03,-6972,2743,-2607,525,818,-276,1,7,11
3.88E+03,-6973,2726,-2638,217,781,-300,1,7,11
3.88E+03,-6955,2700,-2661,149,482,-315,1,7,11
3.88E+03,-6950,2911,-2663,348,449,-340,1,7,11
3.88E+03,-6922,2878,-2676,310,409,-348,1,7,11
3.88E+03,-6655,2849,-2436,302,394,-368,1,7,11
3.88E+03,-6652,2849,-2475,313,637,-371,1,7,11
3.88E+03,-6641,2863,-2527,314,629,-361,1,7,11
3.89E+03,-6633,2862,-2556,274,624,-344,1,7,11
3.89E+03,-6636,2555,-2552,-46,624,-329,1,7,11
3.89E+03,-6640,2500,-2548,-47,628,-324,1,7,11
3.89E+03,-6647,2475,-2553,267,635,-332,1,7,11
3.89E+03,-6656,2481,-2823,350,387,-331,1,7,11
3.89E+03,-6646,2508,-2851,166,396,-321,1,7,11
3.89E+03,-6642,2528,-2879,187,403,-306,1,7,11
3.89E+03,-6647,2533,-2903,178,398,-297,1,7,11
3.89E+03,-6639,2528,-2925,166,634,-305,1,7,11
3.89E+03,-6627,2517,-2942,182,624,-320,1,7,11
3.89E+03,-6624,2537,-2715,218,620,-331,1,7,11
3.89E+03,-6597,2550,-2738,216,600,-312,1,7,11
3.89E+03,-6586,2543,-2756,172,590,-301,1,7,11
3.89E+03,-6574,2508,-2768,377,561,-271,1,7,11
3.89E+03,-6584,2499,-2784,335,541,-266,1,7,11
3.89E+03,-6586,2521,-2796,315,519,-262,1,7,11
3.89E+03,-6602,2537,-2809,288,231,8,1,7,11
3.89E+03,-6573,2537,-3077,-21,145,67,1,7,11
3.89E+03,-6575,2525,-3078,-95,370,83,1,7,11
3.89E+03,-6572,2509,-3083,74,327,104,1,7,11
3.89E+03,-6547,2494,-3092,36,296,107,1,7,11
3.89E+03,-6549,2498,-3099,17,302,79,1,7,11
3.89E+03,-6553,2533,-3111,-257,304,72,1,7,11
3.89E+03,-6562,2552,-3121,-303,301,81,1,7,11
3.89E+03,-6564,2559,-3128,-359,278,112,1,7,11
3.89E+03,-6566,2816,-3129,-163,-2,-116,1,7,11
3.89E+03,-6553,2556,-3129,-207,-26,-96,1,7,11
3.89E+03,-6532,2551,-3129,-242,-39,-82,1,7,11
3.89E+03,-6529,2547,-3119,-515,-32,-85,1,7,11
3.89E+03,-6533,2545,-3121,-523,-25,-88,1,7,11
3.89E+03,-6540,2550,-3115,-520,-28,-92,1,7,11
3.89E+03,-6531,2824,-3123,-256,-44,-91,1,7,11
3.89E+03,-6778,2845,-3126,-513,-51,-96,1,7,11
3.89E+03,-6780,2855,-3113,-529,-59,-109,1,7,11
3.89E+03,-6765,2853,-3101,-552,-74,-115,1,7,11
3.89E+03,-6754,2837,-3092,-572,-87,120,1,7,11
3.89E+03,-6743,2835,-3098,-573,-84,86,1,7,11
3.89E+03,-6745,2849,-3109,-562,-67,47,1,7,11
3.89E+03,-6748,2876,-3115,-562,-50,25,1,7,11
3.89E+03,-6757,2887,-3115,-572,-35,19,1,7,11
3.90E+03,-6772,2890,-3109,-586,-29,27,1,7,11
3.90E+03,-6773,2907,-3114,-600,-37,46,1,7,11
3.90E+03,-6772,2706,-3134,-606,-41,49,1,7,11
3.90E+03,-6547,2808,-3170,-402,-32,32,1,7,11
3.90E+03,-6586,3183,-2953,-806,-56,27,1,7,11
3.90E+03,-6631,3007,-2957,-1064,127,25,1,7,11
3.90E+03,-6934,3022,-3180,-1379,-261,40,1,7,11
3.90E+03,-6958,2982,-3123,-1418,-183,64,1,7,11
3.90E+03,-6941,3176,-3077,-1900,-626,77,1,7,11
3.90E+03,-6654,3114,-2774,-2069,-780,59,1,7,11
3.90E+03,-6622,2808,-2731,-1927,-885,23,1,7,11
3.90E+03,-6599,2761,-2922,-1972,-681,-258,1,7,11
3.90E+03,-6574,2712,-2840,-1946,-695,-261,1,7,11
3.90E+03,-6539,2916,-2506,-2111,-685,17,1,7,11
3.90E+03,-6767,2868,-2452,-1694,-890,31,1,7,11
3.90E+03,-6763,2855,-2681,-1489,-818,24,1,7,11
3.90E+03,-6780,2861,-2651,-1279,-491,14,1,7,11
3.90E+03,-6547,2886,-2609,-1318,-427,11,1,7,11
3.90E+03,-6565,2916,-2574,-1109,-638,24,1,7,11
3.90E+03,-6588,2691,-2292,-665,-598,41,1,7,11
3.90E+03,-6600,2725,-2285,-507,-564,66,1,7,11
3.90E+03,-6627,2768,-2277,-391,-528,77,1,7,11
3.90E+03,-6651,2800,-2260,-572,-515,92,1,7,11
3.90E+03,-6923,2814,-2215,-529,-255,105,1,7,11
3.90E+03,-6935,2805,-2432,-223,-516,117,1,7,11
3.90E+03,-6944,2804,-2412,-148,-523,-123,1,7,11
3.90E+03,-6925,2797,-2419,-336,-539,-102,1,7,11
3.90E+03,-6617,2790,-2181,-268,-532,-101,1,7,11
3.90E+03,-6579,2798,-2198,51,-213,121,1,7,11
3.90E+03,-6588,2809,-2199,114,-367,74,1,7,11
3.90E+03,-6647,3077,-2186,-81,-281,48,1,7,11
3.90E+03,-6922,3082,-2182,-31,25,43,1,7,11
3.90E+03,-6941,3079,-2431,274,38,53,1,7,11
3.90E+03,-6957,2775,-2411,310,33,59,1,7,11
3.90E+03,-6957,2753,-2412,134,24,77,1,7,11
3.90E+03,-6957,2743,-2415,232,24,89,1,7,11
3.90E+03,-6943,2768,-2424,589,30,124,1,7,11
3.90E+03,-6924,2782,-2179,405,61,-99,1,7,11
3.90E+03,-6654,2788,-2179,441,98,-58,1,7,11
3.90E+03,-6632,2786,-2421,447,118,-25,1,7,11
3.91E+03,-6635,2775,-2409,444,-60,-15,1,7,11
3.91E+03,-6648,2777,-2405,445,-18,-15,1,7,11
3.91E+03,-6931,2780,-2399,439,-1,-21,1,7,11
3.91E+03,-6948,2799,-2400,426,280,-11,1,7,11
3.91E+03,-6930,3083,-2418,416,284,263,1,7,11
3.91E+03,-6642,3097,-2201,615,288,280,1,7,11
3.91E+03,-6603,3101,-2249,548,311,267,1,7,11
3.91E+03,-6587,3104,-2291,220,362,-25,1,7,11
3.91E+03,-6599,3120,-2588,141,166,-66,1,7,11
3.91E+03,-6625,3123,-2620,313,220,-99,1,7,11
3.91E+03,-6654,3137,-2638,-14,253,-114,1,7,11
3.91E+03,-6968,3139,-2645,-89,520,-120,1,7,11
3.91E+03,-6999,3133,-2632,99,211,-99,1,7,11
3.91E+03,-7006,3123,-2613,45,139,-82,1,7,11
3.91E+03,-7017,3103,-2592,7,325,-69,1,7,11
3.91E+03,-6991,3090,-2594,-263,-10,-42,1,7,11
3.91E+03,-6949,3082,-2605,-265,-57,-39,1,7,11
3.91E+03,-6917,3098,-2613,-261,-61,-60,1,7,11
3.91E+03,-6651,3120,-2619,-257,-44,-90,1,7,11
3.91E+03,-6645,3143,-2617,1,-35,-110,1,7,11
3.91E+03,-6629,3153,-2614,-269,-38,-121,1,7,11
3.91E+03,-6614,3137,-2608,-290,-42,123,1,7,11
3.91E+03,-6594,3120,-2613,-301,-39,102,1,7,11
3.91E+03,-6586,3109,-2626,-304,-30,72,1,7,11
3.91E+03,-6578,3108,-2642,-310,-9,45,1,7,11
3.91E+03,-6573,3111,-2662,-323,271,39,1,7,11
3.91E+03,-6567,3112,-2668,-349,303,44,1,7,11
3.91E+03,-6577,3097,-2685,-378,320,56,1,7,11
3.91E+03,-6574,3083,-2682,-130,331,72,1,7,11
3.91E+03,-6597,2815,-2682,-369,349,75,1,7,11
3.91E+03,-6625,3082,-2683,-335,356,101,1,7,11
3.91E+03,-6640,3097,-2686,-308,351,-122,1,7,11
3.91E+03,-6641,3102,-2676,-281,331,-96,1,7,11
3.91E+03,-6627,3123,-2685,0,310,-89,1,7,11
3.91E+03,-6625,3131,-2433,9,293,-110,1,7,11
3.91E+03,-6619,3134,-2684,3,265,115,1,7,11
3.91E+03,-6599,3137,-2433,-262,-13,85,1,7,11
3.91E+03,-6585,3133,-2688,-284,-20,51,1,7,11
3.91E+03,-6587,3125,-2687,-313,-18,18,1,7,11
3.91E+03,-6589,3117,-2680,-341,-18,-260,1,7,11
3.92E+03,-6607,3111,-2676,-367,-15,-273,1,7,11
3.92E+03,-6611,3130,-2675,-132,-20,-261,1,7,11
3.92E+03,-6605,3139,-2438,-164,-31,27,1,7,11
3.92E+03,-6593,3150,-2455,-212,-28,51,1,7,11
3.92E+03,-6588,3176,-2476,-515,-19,68,1,7,11
3.92E+03,-6606,2977,-2491,-582,-5,60,1,7,11
3.92E+03,-6649,3050,-2510,-446,-28,38,1,7,11
3.92E+03,-6942,3366,-2508,-641,-108,26,1,7,11
3.92E+03,-6963,3379,-2477,-1117,34,26,1,7,11
3.92E+03,-6971,3356,-2443,-1315,-347,34,1,7,11
3.92E+03,-6951,3044,-2657,-1220,-212,45,1,7,11
3.92E+03,-6934,2966,-2608,-1569,-558,54,1,7,11
3.92E+03,-6921,3151,-2295,-1568,-620,59,1,7,11
3.92E+03,-6626,3104,-2243,-1240,-405,72,1,7,11
3.92E+03,-6592,3079,-2201,-1382,-401,82,1,7,11
3.92E+03,-6599,3077,-2414,-983,-614,90,1,7,11
3.92E+03,-6600,3089,-2379,-1092,-588,123,1,7,11
3.92E+03,-6593,3115,-2366,-700,-557,-110,1,7,11
3.92E+03,-6585,3170,-2373,-843,-251,-102,1,7,11
3.92E+03,-6590,2944,-2375,-511,-190,-97,1,7,11
3.92E+03,-6604,2974,-2378,-464,-382,-99,1,7,11
3.92E+03,-6630,2996,-2380,-428,-319,-107,1,7,11
3.92E+03,-6648,3016,-2383,-402,-277,-110,1,7,11
3.92E+03,-6655,3036,-2371,-630,9,-121,1,7,11
3.92E+03,-6640,3060,-2378,-607,24,123,1,7,11
3.92E+03,-6629,3336,-2379,-596,33,107,1,7,11
3.92E+03,-6618,3359,-2389,-596,45,93,1,7,11
3.92E+03,-6619,3370,-2382,-613,53,81,1,7,11
3.92E+03,-6624,3386,-2372,-635,54,87,1,7,11
3.92E+03,-6619,3395,-2359,-402,55,91,1,7,11
3.92E+03,-6647,3400,-2341,-415,61,85,1,7,11
3.92E+03,-6921,3408,-2316,-421,38,83,1,7,11
3.92E+03,-6938,3418,-2016,-416,11,71,1,7,11
3.92E+03,-6947,3413,-1980,-389,-276,71,1,7,11
3.92E+03,-6940,3412,-1960,-614,-303,76,1,7,11
3.92E+03,-6650,3397,-1941,-583,-323,77,1,7,11
3.92E+03,-6613,3375,-1948,-544,-312,48,1,7,11
3.92E+03,-6610,3340,-1949,-253,-265,-260,1,7,11
3.92E+03,-6616,3056,-1958,-219,36,-310,1,7,11
3.92E+03,-6620,3018,-1958,-182,62,-348,1,7,11
3.93E+03,-6603,2994,-1979,-151,88,-374,1,7,11
3.93E+03,-6654,2975,-1992,-383,-111,-150,1,7,11
3.93E+03,-6945,2998,-2013,-358,-89,-381,1,7,11
3.93E+03,-6972,3030,-2024,-357,-78,-341,1,7,11
3.93E+03,-7002,3062,-2017,-367,-66,-287,1,7,11
3.93E+03,-7032,3342,-2001,-374,-67,35,1,7,11
3.93E+03,-6795,3372,-1972,-366,-82,109,1,7,11
3.93E+03,-6798,3387,-1938,-353,-111,-76,1,7,11
3.93E+03,-6791,3403,-2156,-320,127,-29,1,7,11
3.93E+03,-6792,3425,-2116,-272,108,-11,1,7,11
3.93E+03,-7009,3444,-2109,29,71,-23,1,7,11
3.93E+03,-6976,3217,-2114,45,44,-87,1,7,11
3.93E+03,-6949,3210,-2117,22,24,77,1,7,11
3.93E+03,-6945,3202,-2121,-284,9,-315,1,7,11
3.93E+03,-6937,3431,-2103,-361,-267,-370,1,7,11
3.93E+03,-6941,3385,-2075,-206,-276,-141,1,7,11
3.93E+03,-6927,3071,-2049,-581,-274,-140,1,7,11
3.93E+03,-6916,3022,-1769,-616,0,-134,1,7,11
3.93E+03,-6654,2994,-1773,-619,23,-376,1,7,11
3.93E+03,-6648,2973,-1791,-608,51,-355,1,7,11
3.93E+03,-6626,2973,-2084,-581,85,-317,1,7,11
3.93E+03,-6649,3011,-2119,-563,-104,-291,1,7,11
3.93E+03,-6925,3037,-2138,-567,-63,19,1,7,11
3.93E+03,-6952,3049,-2141,-572,-27,74,1,7,11
3.93E+03,-6992,3328,-2125,-544,-3,-126,1,7,11
3.93E+03,-7027,3349,-2118,-234,-10,-68,1,7,11
3.93E+03,-7033,3386,-2119,-156,-36,-13,1,7,11
3.93E+03,-7019,3422,-2127,-339,-65,280,1,7,11
3.93E+03,-6997,3438,-2134,-287,-84,294,1,7,11
3.93E+03,-6963,3450,-2147,19,-88,283,1,7,11
3.93E+03,-6929,3214,-2167,64,-81,-11,1,7,11
3.93E+03,-6917,3231,-1921,73,-46,-76,1,7,11
3.93E+03,-6962,3248,-2162,69,-3,119,1,7,11
3.93E+03,-7000,3241,-2130,51,-5,95,1,7,11
3.93E+03,-6992,3216,-2111,36,-40,93,1,7,11
3.93E+03,-6982,3431,-2090,20,-66,79,1,7,11
3.93E+03,-6956,3391,-2083,19,-89,63,1,7,11
3.93E+03,-6958,3352,-2065,31,-78,31,1,7,11
3.93E+03,-6953,3330,-2070,58,-68,36,1,7,11
3.93E+03,-6944,3068,-2073,77,-48,58,1,7,11
3.94E+03,-6928,3052,-2090,98,-30,96,1,7,11
3.94E+03,-6630,3059,-2126,125,-4,126,1,7,11
3.94E+03,-6633,3328,-2161,-128,302,119,1,7,11
3.94E+03,-6626,3352,-1949,115,320,109,1,7,11
3.94E+03,-6638,3376,-2030,86,340,69,1,7,11
3.94E+03,-6913,3420,-2324,36,345,49,1,7,11
3.94E+03,-6925,3408,-2329,-299,330,45,1,7,11
3.94E+03,-6949,3376,-2313,-365,302,59,1,7,11
3.94E+03,-6955,3356,-2046,-383,256,102,1,7,11
3.94E+03,-6984,3407,-2010,-286,-98,-93,1,7,11
3.94E+03,-6964,3431,-1993,26,115,-60,1,7,11
3.94E+03,-6952,3208,-1978,110,101,-45,1,7,11
3.94E+03,-6919,3262,-1952,-92,111,-92,1,7,11
3.94E+03,-6944,3287,-1935,-107,125,126,1,7,11
3.94E+03,-6936,3287,-1922,107,113,96,1,7,11
3.94E+03,-6917,3268,-2176,62,111,53,1,7,11
3.94E+03,-6644,3256,-1930,15,118,-258,1,7,11
3.94E+03,-6628,3210,-1942,-301,-118,-314,1,7,11
3.94E+03,-6614,3438,-1966,-351,-80,-365,1,7,11
3.94E+03,-6632,3418,-1985,-149,-35,-145,1,7,11
3.94E+03,-6915,3395,-1988,-204,-8,-151,1,7,11
3.94E+03,-6936,3375,-1995,-236,-7,-132,1,7,11
3.94E+03,-6960,3346,-1988,-251,-22,-361,1,7,11
3.94E+03,-6992,3046,-1964,-232,-59,-328,1,7,11
3.94E+03,-6992,3009,-1947,-175,-124,-300,1,7,11
3.94E+03,-6976,2999,-1936,-343,71,-288,1,7,11
3.94E+03,-6962,3013,-1936,-260,31,-281,1,7,11
3.94E+03,-6957,3039,-1957,53,15,-267,1,7,11
3.94E+03,-6951,3062,-1962,75,12,12,1,7,11
3.94E+03,-6960,3332,-1945,83,22,37,1,7,11
3.94E+03,-6974,3354,-1938,90,30,66,1,7,11
3.94E+03,-6966,3365,-2176,82,17,98,1,7,11
3.94E+03,-6966,3357,-2152,68,6,102,1,7,11
3.94E+03,-6939,3359,-2155,55,-268,93,1,7,11
3.94E+03,-6939,3343,-2165,30,-265,52,1,7,11
3.94E+03,-6925,3351,-1928,18,0,15,1,7,11
3.94E+03,-6962,3357,-1926,-262,35,-267,1,7,11
3.94E+03,-6979,3352,-2167,-281,62,36,1,7,11
3.94E+03,-6989,3064,-2152,-306,71,99,1,7,11
3.94E+03,-6971,3039,-2141,-308,54,-102,1,7,11
3.95E+03,-6979,3029,-2137,-243,62,-82,1,7,11
3.95E+03,-6972,3047,-2151,72,69,-57,1,7,11
3.95E+03,-6976,3342,-2164,114,105,-46,1,7,11
3.95E+03,-7013,3380,-2156,123,-116,-35,1,7,11
3.95E+03,-6813,3378,-2116,105,-106,-17,1,7,11
3.95E+03,-6866,3334,-1791,105,117,259,1,7,11
3.95E+03,-6840,3047,-1749,-87,46,275,1,7,11
3.95E+03,-7040,3038,-1750,-5,6,-14,1,7,11
3.95E+03,-6995,3061,-1769,328,7,-67,1,7,11
3.95E+03,-6963,3336,-1776,351,28,-103,1,7,11
3.95E+03,-6949,3337,-1767,339,58,-121,1,7,11
3.95E+03,-6925,3057,-1772,322,65,-125,1,7,11
3.95E+03,-6629,3016,-2051,285,63,105,1,7,11
3.95E+03,-6600,2976,-2080,268,79,66,1,7,11
3.95E+03,-6589,3196,-2112,269,120,29,1,7,11
3.95E+03,-6584,3165,-2136,314,-77,41,1,7,11
3.95E+03,-6574,3144,-2171,155,-8,97,1,7,11
3.95E+03,-6570,3142,-1954,538,335,-107,1,7,11
3.95E+03,-6583,3173,-1998,428,174,-74,1,7,11
3.95E+03,-6607,2974,-2031,822,512,-48,1,7,11
3.95E+03,-6621,3028,-2313,664,573,-20,1,7,11
3.95E+03,-6626,3065,-2332,746,623,261,1,7,11
3.95E+03,-6620,3347,-2377,1055,411,269,1,7,11
3.95E+03,-6630,3382,-2404,1077,458,-7,1,7,11
3.95E+03,-6657,3416,-2432,1085,504,-41,1,7,11
3.95E+03,-6926,3428,-2184,1067,780,-69,1,7,11
3.95E+03,-6920,3386,-2180,752,772,-113,1,7,11
3.95E+03,-6653,3345,-2195,712,491,94,1,7,11
3.95E+03,-6620,3066,-2241,692,461,33,1,7,11
3.95E+03,-6580,3050,-2301,894,448,-295,1,7,11
3.95E+03,-6557,3035,-2603,813,476,-373,1,7,11
3.95E+03,-6552,3005,-2642,449,771,-170,1,7,11
3.95E+03,-6532,2952,-2673,588,804,-198,1,7,11
3.95E+03,-6536,3142,-2436,518,845,-228,1,7,11
3.95E+03,-6529,3106,-2462,245,866,-237,1,7,11
3.95E+03,-6540,3072,-2488,241,870,-251,1,7,11
3.95E+03,-6535,2779,-2519,240,850,-254,1,7,11
3.95E+03,-6766,2737,-2558,237,829,-518,1,7,11
3.95E+03,-6752,2720,-2858,517,836,-541,1,7,11
3.95E+03,-6746,2718,-2906,530,856,-571,1,7,11
3.96E+03,-6772,2714,-2940,536,865,-596,1,7,11
3.96E+03,-6760,2690,-2751,536,839,-610,1,7,11
3.96E+03,-6579,2882,-2757,525,829,-432,1,7,11
3.96E+03,-6648,2861,-2757,542,491,-492,1,7,11
3.96E+03,-6983,2885,-2779,615,571,-857,1,7,11
3.96E+03,-7010,2936,-2799,631,177,-885,1,7,11
3.96E+03,-7004,2710,-2793,562,291,-864,1,7,11
3.96E+03,-6988,2914,-2766,181,-96,-819,1,7,11
3.96E+03,-6959,2841,-2725,336,59,-499,1,7,11
3.96E+03,-6651,2527,-2705,269,-260,-441,1,7,11
3.96E+03,-6596,2480,-2940,-47,-277,-638,1,7,11
3.96E+03,-6782,2436,-2911,-103,0,-582,1,7,11
3.96E+03,-6737,2658,-2896,108,66,-535,1,7,11
3.96E+03,-6691,2633,-2922,82,-111,-244,1,7,11
3.96E+03,-6709,2616,-2690,49,259,-252,1,7,11
3.96E+03,-6737,2617,-2711,20,341,-241,1,7,11
3.96E+03,-6762,2609,-2727,-269,140,-212,1,7,11
3.96E+03,-6553,2603,-2739,-293,168,-171,1,7,11
3.96E+03,-6591,2602,-2759,-307,175,-373,1,7,11
3.96E+03,-6637,2600,-2780,-309,166,-321,1,7,11
3.96E+03,-6933,2624,-2805,-295,140,-264,1,7,11
3.96E+03,-6973,2674,-3095,-282,363,46,1,7,11
3.96E+03,-6989,2450,-3106,-282,285,-103,1,7,11
3.96E+03,-6986,2448,-3080,-298,-27,-27,1,7,11
3.96E+03,-6920,2674,-2791,-318,-92,302,1,7,11
3.96E+03,-6594,2650,-2770,-302,-104,324,1,7,11
3.96E+03,-6541,2649,-2756,1,-83,308,1,7,11
3.96E+03,-6756,2655,-2773,42,-34,264,1,7,11
3.96E+03,-6742,2444,-2800,79,293,-57,1,7,11
3.96E+03,-6746,2493,-3076,69,359,-102,1,7,11
3.96E+03,-6765,2515,-3080,10,140,-114,1,7,11
3.96E+03,-6772,2517,-3090,-303,136,-99,1,7,11
3.96E+03,-6762,2519,-3083,-343,131,-89,1,7,11
3.96E+03,-6769,2511,-3088,-369,129,-83,1,7,11
3.96E+03,-6769,2521,-3100,-368,373,-67,1,7,11
3.96E+03,-6768,2541,-3117,-368,365,-53,1,7,11
3.96E+03,-6765,2547,-3136,-377,360,-40,1,7,11
3.96E+03,-6770,2816,-3149,-131,367,-37,1,7,11
3.96E+03,-6776,2840,-3153,-139,373,-39,1,7,11
3.96E+03,-6533,2872,-3163,-144,368,-43,1,7,11
3.97E+03,-6545,2910,-3174,-164,346,-39,1,7,11
3.97E+03,-6543,2941,-3171,-217,309,-31,1,7,11
3.97E+03,-6555,2737,-3177,-535,280,-40,1,7,11
3.97E+03,-6588,2810,-3183,-639,-6,-50,1,7,11
3.97E+03,-6594,3145,-3199,-505,-71,-29,1,7,11
3.97E+03,-6617,3194,-3188,-700,97,-26,1,7,11
3.97E+03,-6607,2948,-3172,-948,-290,-13,1,7,11
3.97E+03,-6607,3188,-3147,-1197,-159,-39,1,7,11
3.97E+03,-6601,3177,-3124,-1426,-545,-67,1,7,11
3.97E+03,-6596,3139,-3080,-1894,-408,-100,1,7,11
3.97E+03,-6588,3077,-2766,-1792,-512,-113,1,7,11
3.97E+03,-6564,2747,-2703,-2106,-844,-112,1,7,11
3.97E+03,-6537,2934,-2882,-2080,-876,-118,1,7,11
3.97E+03,-6772,2870,-2817,-1707,-870,127,1,7,11
3.97E+03,-6768,2839,-2510,-1505,-825,108,1,7,11
3.97E+03,-6761,2856,-2474,-1244,-509,97,1,7,11
3.97E+03,-6758,2906,-2455,-988,-432,94,1,7,11
3.97E+03,-6756,2689,-2449,-1027,-604,100,1,7,11
3.97E+03,-6763,2724,-2686,-832,-520,104,1,7,11
3.97E+03,-6537,2752,-2663,-406,-188,99,1,7,11
3.97E+03,-6558,2768,-2642,-254,-138,106,1,7,11
3.97E+03,-6577,2790,-2621,-366,-356,104,1,7,11
3.97E+03,-6584,3080,-2618,16,-342,112,1,7,11
3.97E+03,-6558,3104,-2637,99,-347,120,1,7,11
3.97E+03,-6551,3117,-2657,-116,-331,99,1,7,11
3.97E+03,-6590,3092,-2661,-117,-309,70,1,7,11
3.97E+03,-6605,3070,-2651,-113,-304,56,1,7,11
3.97E+03,-6618,2808,-2646,-85,-316,54,1,7,11
3.97E+03,-6606,2809,-2656,-58,-335,71,1,7,11
3.97E+03,-6598,2806,-2659,-42,-345,99,1,7,11
3.97E+03,-6599,2787,-2656,-35,-331,117,1,7,11
3.97E+03,-6587,2777,-2664,-21,-309,-126,1,7,11
3.97E+03,-6590,2787,-2670,267,-277,-110,1,7,11
3.97E+03,-6586,2804,-2672,301,45,-91,1,7,11
3.97E+03,-6602,2795,-2656,317,85,-83,1,7,11
3.97E+03,-6629,2774,-2623,341,107,-80,1,7,11
3.97E+03,-6644,2761,-2593,131,102,-88,1,7,11
3.97E+03,-6922,2760,-2573,185,95,-108,1,7,11
3.97E+03,-6932,2755,-2301,233,82,-111,1,7,11
3.97E+03,-6928,2745,-2293,514,73,-97,1,7,11
3.98E+03,-6645,2732,-2300,536,80,-82,1,7,11
3.98E+03,-6631,2716,-2570,554,120,-78,1,7,11
3.98E+03,-6606,2730,-2604,556,-98,-67,1,7,11
3.98E+03,-6567,2729,-2637,514,-64,-75,1,7,11
3.98E+03,-6533,2710,-2667,193,-18,-89,1,7,11
3.98E+03,-6764,2690,-2454,139,303,-109,1,7,11
3.98E+03,-6749,2938,-2483,345,374,121,1,7,11
3.98E+03,-6750,2938,-2514,305,202,96,1,7,11
3.98E+03,-6539,2703,-2509,279,547,74,1,7,11
3.98E+03,-6593,2711,-2496,-4,592,86,1,7,11
3.98E+03,-6928,2926,-2465,-23,591,123,1,7,11
3.98E+03,-6928,2888,-2438,267,519,-65,1,7,11
3.98E+03,-6656,2867,-2440,332,212,-46,1,7,11
3.98E+03,-6639,2904,-2478,168,183,-52,1,7,11
3.98E+03,-6600,2713,-2525,210,158,-58,1,7,11
3.98E+03,-6567,2765,-2847,183,157,-75,1,7,11
3.98E+03,-6542,2795,-2872,363,166,-87,1,7,11
3.98E+03,-6536,2805,-2875,275,197,-103,1,7,11
3.98E+03,-6564,2794,-2881,-50,223,-111,1,7,11
3.98E+03,-6587,2772,-2890,-111,225,-112,1,7,11
3.98E+03,-6588,2760,-2897,114,207,-111,1,7,11
3.98E+03,-6568,2749,-2896,89,172,-121,1,7,11
3.98E+03,-6542,2737,-2900,62,133,103,1,7,11
3.98E+03,-6773,2730,-2910,35,348,83,1,7,11
3.98E+03,-6765,2739,-2926,25,341,71,1,7,11
3.98E+03,-6741,2747,-2692,-5,334,82,1,7,11
3.98E+03,-6715,2746,-2714,-281,341,97,1,7,11
3.98E+03,-6697,2748,-2725,-297,366,112,1,7,11
3.98E+03,-6706,2749,-2738,-300,151,124,1,7,11
3.98E+03,-6740,2758,-2739,-284,182,-121,1,7,11
3.98E+03,-6777,2774,-2730,3,190,-100,1,7,11
3.98E+03,-6533,2780,-2725,32,162,-73,1,7,11
3.98E+03,-6779,2785,-2730,61,382,-60,1,7,11
3.98E+03,-6766,2787,-2732,85,361,-81,1,7,11
3.98E+03,-6744,2790,-2746,93,348,-113,1,7,11
3.98E+03,-6739,2779,-2752,84,345,103,1,7,11
3.98E+03,-6713,2775,-2759,70,338,80,1,7,11
3.98E+03,-6710,2768,-2766,46,345,45,1,7,11
3.98E+03,-6712,2772,-2797,26,344,28,1,7,11
3.98E+03,-6718,2775,-2816,-264,333,21,1,7,11
3.99E+03,-6729,2765,-3077,-315,313,27,1,7,11
3.99E+03,-6729,2752,-3082,-353,279,53,1,7,11
3.99E+03,-6740,2724,-2808,-381,-8,70,1,7,11
3.99E+03,-6743,2691,-2800,-378,-46,94,1,7,11
3.99E+03,-6732,2937,-2803,-344,-72,92,1,7,11
3.99E+03,-6740,2697,-2801,-304,-79,76,1,7,11
3.99E+03,-6747,2709,-2779,-278,-85,79,1,7,11
3.99E+03,-6750,2719,-2755,7,-94,103,1,7,11
3.99E+03,-6735,2721,-2745,24,-111,-118,1,7,11
3.99E+03,-6702,2714,-2735,39,-117,-105,1,7,11
3.99E+03,-6683,2725,-2736,57,-101,-123,1,7,11
3.99E+03,-6681,2737,-2742,49,-85,109,1,7,11
3.99E+03,-6681,2749,-2749,23,-70,97,1,7,11
3.99E+03,-6679,2758,-2747,-274,-50,84,1,7,11
3.99E+03,-6675,2755,-2743,-332,-31,78,1,7,11
3.99E+03,-6677,2738,-2744,-129,-23,75,1,7,11
3.99E+03,-6681,2730,-2739,-158,-12,62,1,7,11
3.99E+03,-6698,2726,-2748,-174,-4,64,1,7,11
3.99E+03,-6685,2725,-2764,-178,-4,97,1,7,11
3.99E+03,-6679,2718,-2772,-188,269,121,1,7,11
3.99E+03,-6661,2726,-2786,-182,287,-119,1,7,11
3.99E+03,-6674,2743,-2796,-165,321,-123,1,7,11
3.99E+03,-6703,2757,-2797,-160,355,118,1,7,11
3.99E+03,-6717,2758,-2789,-156,349,-121,1,7,11
3.99E+03,-6702,2768,-2785,-148,324,-94,1,7,11
3.99E+03,-6687,2784,-2805,-129,312,-79,1,7,11
3.99E+03,-6684,2805,-2810,-132,318,-79,1,7,11
3.99E+03,-6690,2815,-2809,-136,322,-85,1,7,11
3.99E+03,-6704,3078,-2806,-165,321,-97,1,7,11
3.99E+03,-6703,3097,-2798,-173,302,-102,1,7,11
3.99E+03,-6695,3108,-2787,-184,283,-102,1,7,11
3.99E+03,-6668,3115,-2788,-196,270,-105,1,7,11
3.99E+03,-6657,3114,-2786,-225,270,-119,1,7,11
3.99E+03,-6389,3118,-2790,-252,273,117,1,7,11
3.99E+03,-6388,3131,-2797,-531,284,86,1,7,11
3.99E+03,-6389,3165,-2805,-565,298,61,1,7,11
3.99E+03,-6388,2972,-3106,-626,307,49,1,7,11
3.99E+03,-6390,3063,-3150,-502,308,33,1,7,11
3.99E+03,-6686,3407,-3189,-705,304,17,1,7,11
3.99E+03,-6737,3235,-2946,-982,256,13,1,7,11
4.00E+03,-6780,3262,-3183,-1601,-119,22,1,7,11
4.00E+03,-6781,3221,-3132,-1706,-275,33,1,7,11
4.00E+03,-6546,3401,-2799,-1992,-158,2,1,7,11
4.00E+03,-6554,3065,-2729,-2417,-573,-267,1,7,11
4.00E+03,-6530,2990,-2918,-2220,-459,-274,1,7,11
4.00E+03,-6743,3193,-2854,-2430,-808,-267,1,7,11
4.00E+03,-6702,3160,-2550,-2318,-834,1,1,7,11
4.00E+03,-6670,3153,-2492,-2156,-817,19,1,7,11
4.00E+03,-6386,3154,-2453,-1710,-508,31,1,7,11
4.00E+03,-6378,3165,-2664,-1491,-436,31,1,7,11
4.00E+03,-6390,3193,-2625,-1256,-609,26,1,7,11
4.00E+03,-6396,2965,-2602,-1283,-540,37,1,7,11
4.00E+03,-6400,2992,-2582,-1075,-223,54,1,7,11
4.00E+03,-6393,3010,-2576,-877,-167,73,1,7,11
4.00E+03,-6396,3030,-2579,-446,-364,80,1,7,11
4.00E+03,-6396,3055,-2593,-542,-308,90,1,7,11
4.00E+03,-6398,3331,-2610,-152,6,95,1,7,11
4.00E+03,-6673,3363,-2605,-295,68,106,1,7,11
4.00E+03,-6720,3386,-2582,51,103,-126,1,7,11
4.00E+03,-6748,3415,-2563,-128,118,-88,1,7,11
4.00E+03,-6754,3442,-2298,-69,110,-27,1,7,11
4.00E+03,-6748,3214,-2561,-33,87,-2,1,7,11
4.00E+03,-6744,3240,-2572,-33,79,261,1,7,11
4.00E+03,-6734,3262,-2572,-62,74,259,1,7,11
4.00E+03,-6731,3276,-2565,104,77,-8,1,7,11
4.00E+03,-6739,3270,-2287,28,89,-21,1,7,11
4.00E+03,-6722,3261,-2266,-283,81,-21,1,7,11
4.00E+03,-6710,3256,-2269,-320,96,-39,1,7,11
4.00E+03,-6718,3255,-2275,-347,120,-64,1,7,11
4.00E+03,-6727,3252,-2273,-369,-119,-87,1,7,11
4.00E+03,-6732,3237,-2273,-376,-110,-112,1,7,11
4.00E+03,-6722,3215,-2287,-383,-108,119,1,7,11
4.00E+03,-6720,3203,-2297,-380,-100,85,1,7,11
4.00E+03,-6721,3450,-2296,-375,-96,56,1,7,11
4.00E+03,-6732,3448,-2297,-367,-93,36,1,7,11
4.00E+03,-6735,3200,-2303,-354,-110,37,1,7,11
4.00E+03,-6724,3209,-2576,-361,123,48,1,7,11
4.00E+03,-6721,3222,-2585,-374,114,54,1,7,11
4.00E+03,-6725,3227,-2588,-138,112,60,1,7,11
4.00E+03,-6741,3219,-2567,-149,106,81,1,7,11
4.01E+03,-6754,3214,-2293,-136,98,111,1,7,11
4.01E+03,-6764,3214,-2266,-363,86,-116,1,7,11
4.01E+03,-6774,3225,-2258,-334,69,-92,1,7,11
4.01E+03,-6777,3237,-2228,-315,47,-76,1,7,11
4.01E+03,-6782,3233,-2205,-309,27,-72,1,7,11
4.01E+03,-6773,3230,-2198,-308,-257,-72,1,7,11
4.01E+03,-6746,3220,-2199,-304,-284,-75,1,7,11
4.01E+03,-6715,3216,-2215,-301,-288,-100,1,7,11
4.01E+03,-6716,3224,-2222,-306,-289,119,1,7,11
4.01E+03,-6673,3242,-2249,-305,-299,99,1,7,11
4.01E+03,-6659,3247,-2284,-312,-275,67,1,7,11
4.01E+03,-6660,3264,-2566,-317,-257,67,1,7,11
4.01E+03,-6706,3294,-2581,-318,54,86,1,7,11
4.01E+03,-6752,3318,-2567,-314,106,-117,1,7,11
4.01E+03,-6533,3303,-2278,-304,96,-61,1,7,11
4.01E+03,-6555,3265,-2248,-269,51,-33,1,7,11
4.01E+03,-6570,3207,-2219,40,-277,-46,1,7,11
4.01E+03,-6586,3447,-2215,123,-348,-93,1,7,11
4.01E+03,-6600,3220,-2226,-68,-163,-119,1,7,11
4.01E+03,-6581,3231,-2213,-82,-237,-111,1,7,11
4.01E+03,-6564,3224,-2206,-119,-534,-95,1,7,11
4.01E+03,-6533,3228,-2201,97,-553,-75,1,7,11
4.01E+03,-6784,3223,-2190,29,-549,-72,1,7,11
4.01E+03,-6778,3232,-2432,-293,-541,-63,1,7,11
4.01E+03,-6780,3257,-2404,-365,-513,-40,1,7,11
4.01E+03,-6553,3269,-2358,-187,-219,268,1,7,11
4.01E+03,-6593,3283,-2313,-241,-186,346,1,7,11
4.01E+03,-6613,3296,-2011,-529,-184,177,1,7,11
4.01E+03,-6599,3309,-1980,-536,-195,242,1,7,11
4.01E+03,-6566,3316,-1960,-534,-194,520,1,7,11
4.01E+03,-6562,3325,-1932,-530,-168,227,1,7,11
4.01E+03,-6557,3600,-2157,-251,-149,169,1,7,11
4.01E+03,-6550,3621,-2097,-192,-361,271,1,7,11
4.01E+03,-6554,3630,-2072,-167,-358,-45,1,7,11
4.01E+03,-6765,3624,-2083,-142,-378,-82,1,7,11
4.01E+03,-6720,3629,-2128,-365,-365,127,1,7,11
4.01E+03,-6664,3654,-1930,-348,-339,104,1,7,11
4.01E+03,-6343,3662,-1986,-373,-297,99,1,7,11
4.01E+03,-6302,3666,-2029,-142,47,103,1,7,11
4.01E+03,-6309,3678,-2307,-164,-105,111,1,7,11
4.02E+03,-6344,3667,-2313,-173,-27,-117,1,7,11
4.02E+03,-6400,3668,-2311,-132,276,-84,1,7,11
4.02E+03,-6718,3700,-2036,-314,279,-35,1,7,11
4.02E+03,-6759,3499,-2006,25,-3,280,1,7,11
4.02E+03,-6551,3525,-1975,109,-46,332,1,7,11
4.02E+03,-6596,3543,-1938,-64,-104,377,1,7,11
4.02E+03,-6602,3562,-2174,281,84,143,1,7,11
4.02E+03,-6597,3856,-2161,335,21,378,1,7,11
4.02E+03,-6555,3876,-2169,349,-297,326,1,7,11
4.02E+03,-6768,3918,-1949,329,-328,-50,1,7,11
4.02E+03,-6732,3938,-1974,263,-301,123,1,7,11
4.02E+03,-6719,3928,-1989,-117,9,39,1,7,11
4.02E+03,-6760,3881,-1986,-341,69,-295,1,7,11
4.02E+03,-6766,3570,-1977,-196,76,-338,1,7,11
4.02E+03,-6764,3521,-1971,-519,86,-378,1,7,11
4.02E+03,-6761,3471,-1957,-548,102,-144,1,7,11
4.02E+03,-6772,3674,-1946,-542,127,-153,1,7,11
4.02E+03,-6530,3637,-1941,-238,-111,-153,1,7,11
4.02E+03,-6780,3620,-1947,-176,-119,-140,1,7,11
4.02E+03,-6770,3606,-1950,-376,-128,-144,1,7,11
4.02E+03,-6752,3596,-1955,-339,108,-145,1,7,11
4.02E+03,-6751,3587,-1960,-319,101,-155,1,7,11
4.02E+03,-6747,3606,-1980,-301,100,-148,1,7,11
4.02E+03,-6759,3636,-1989,-316,107,-130,1,7,11
4.02E+03,-6529,3661,-1986,-354,110,-351,1,7,11
4.02E+03,-6547,3673,-1982,-139,96,-297,1,7,11
4.02E+03,-6538,3680,-1973,-171,74,19,1,7,11
4.02E+03,-6538,3668,-1958,-204,59,50,1,7,11
4.02E+03,-6784,3657,-1944,-214,39,56,1,7,11
4.02E+03,-6548,3655,-1928,-214,28,44,1,7,11
4.02E+03,-6560,3652,-1921,-197,11,49,1,7,11
4.02E+03,-6556,3657,-1922,-170,6,55,1,7,11
4.02E+03,-6553,3666,-1932,-142,14,49,1,7,11
4.02E+03,-6556,3667,-1944,-375,32,37,1,7,11
4.02E+03,-6568,3680,-1931,-350,61,26,1,7,11
4.02E+03,-6614,3683,-2154,-334,86,21,1,7,11
4.02E+03,-6640,3679,-2111,-303,68,52,1,7,11
4.02E+03,-6623,3676,-2099,-273,39,72,1,7,11
4.02E+03,-6606,3662,-2083,12,15,62,1,7,11
4.02E+03,-6579,3649,-2060,39,-258,38,1,7,11
4.03E+03,-6566,3636,-2058,61,6,-265,1,7,11
4.03E+03,-6544,3641,-2065,79,21,-303,1,7,11
4.03E+03,-6539,3638,-2068,74,49,-341,1,7,11
4.03E+03,-6529,3633,-2077,63,81,-362,1,7,11
4.03E+03,-6533,3616,-2083,42,117,-130,1,7,11
4.03E+03,-6568,3587,-2083,38,-108,-158,1,7,11
4.03E+03,-6595,3274,-2083,58,-107,-164,1,7,11
4.03E+03,-6645,3254,-2097,111,-111,-170,1,7,11
4.03E+03,-6650,3250,-2108,-54,127,-156,1,7,11
4.03E+03,-6924,3238,-2111,292,115,-138,1,7,11
4.03E+03,-6940,3221,-2110,372,98,-363,1,7,11
4.03E+03,-6630,3391,-2112,579,20,-311,1,7,11
4.03E+03,-6609,3417,-2145,471,51,-338,1,7,11
4.03E+03,-6595,3204,-2168,508,91,-342,1,7,11
4.03E+03,-6613,3206,-2167,475,-122,-335,1,7,11
4.03E+03,-6622,3447,-2167,423,-108,-313,1,7,11
4.03E+03,-6643,3427,-2162,607,-106,-303,1,7,11
4.03E+03,-6645,3402,-2160,535,-124,-299,1,7,11
4.03E+03,-6640,3385,-2173,222,124,-299,1,7,11
4.03E+03,-6645,3381,-1939,188,-124,-295,1,7,11
4.03E+03,-6620,3406,-1982,145,-109,-265,1,7,11
4.03E+03,-6623,3419,-2004,344,-69,14,1,7,11
4.03E+03,-6627,3435,-2014,279,-41,62,1,7,11
4.03E+03,-6635,3440,-2004,-56,-32,105,1,7,11
4.03E+03,-6647,3424,-1988,-112,-42,-106,1,7,11
4.03E+03,-6624,3427,-2002,123,-61,-75,1,7,11
4.03E+03,-6615,3446,-2009,116,-50,-70,1,7,11
4.03E+03,-6606,3241,-2025,112,-24,-55,1,7,11
4.03E+03,-6592,3279,-2039,86,262,-33,1,7,11
4.03E+03,-6613,3290,-2032,47,307,-30,1,7,11
4.03E+03,-6622,3298,-2032,15,312,-34,1,7,11
4.03E+03,-6646,3311,-2015,-269,294,-73,1,7,11
4.03E+03,-6645,3318,-2024,-296,-2,-100,1,7,11
4.03E+03,-6640,3588,-2311,-337,-38,122,1,7,11
4.03E+03,-6611,3584,-2320,-151,-69,98,1,7,11
4.03E+03,-6596,3306,-2327,-228,-63,61,1,7,11
4.03E+03,-6591,3287,-2310,-543,-39,26,1,7,11
4.03E+03,-6609,3226,-2019,-592,-26,5,1,7,11
4.03E+03,-6615,3441,-1999,-600,-31,8,1,7,11
4.03E+03,-6605,3419,-2005,-564,-44,25,1,7,11
4.04E+03,-6606,3426,-2011,-252,-46,35,1,7,11
4.04E+03,-6602,3438,-2019,-191,-40,50,1,7,11
4.04E+03,-6617,3449,-2028,-147,-26,63,1,7,11
4.04E+03,-6610,3200,-2032,-373,-27,90,1,7,11
4.04E+03,-6621,3452,-2024,-337,-23,109,1,7,11
4.04E+03,-6634,3207,-2005,-306,-36,-126,1,7,11
4.04E+03,-6636,3214,-1993,-275,-62,-113,1,7,11
4.04E+03,-6638,3223,-1983,6,-87,-120,1,7,11
4.04E+03,-6628,3233,-1980,19,-112,123,1,7,11
4.04E+03,-6609,3254,-1990,18,-119,97,1,7,11
4.04E+03,-6588,3272,-1993,-259,-111,69,1,7,11
4.04E+03,-6571,3281,-2006,-308,-80,37,1,7,11
4.04E+03,-6573,3284,-2001,-359,-42,11,1,7,11
4.04E+03,-6577,3267,-1998,-151,-13,-259,1,7,11
4.04E+03,-6587,3250,-2004,-175,264,-267,1,7,11
4.04E+03,-6595,3234,-2011,-187,283,-268,1,7,11
4.04E+03,-6613,3222,-2018,-189,299,-270,1,7,11
4.04E+03,-6622,3224,-2017,-192,303,-274,1,7,11
4.04E+03,-6629,3212,-2019,-190,297,-281,1,7,11
4.04E+03,-6633,3449,-2019,-191,283,-295,1,7,11
4.04E+03,-6636,3416,-2017,-197,-6,-310,1,7,11
4.04E+03,-6618,3395,-2014,-193,-44,-322,1,7,11
4.04E+03,-6603,3400,-2019,-182,-61,-333,1,7,11
4.04E+03,-6592,3405,-2031,-179,-62,-329,1,7,11
4.04E+03,-6581,3430,-2047,-188,-52,-311,1,7,11
4.04E+03,-6592,3438,-2312,-211,-33,-290,1,7,11
4.04E+03,-6599,3443,-2047,-227,-20,1,1,7,11
4.04E+03,-6604,3209,-2309,-232,-9,22,1,7,11
4.04E+03,-6604,3229,-2312,-237,-9,37,1,7,11
4.04E+03,-6603,3247,-2308,-239,-14,45,1,7,11
4.04E+03,-6609,3272,-2308,-248,-21,49,1,7,11
4.04E+03,-6616,3286,-2316,-530,-36,45,1,7,11
4.04E+03,-6623,3287,-2318,-568,-62,26,1,7,11
4.04E+03,-6624,3277,-2315,-625,-85,7,1,7,11
4.04E+03,-6627,3254,-2305,-405,-92,-289,1,7,11
4.04E+03,-6637,3229,-2031,-425,-114,-326,1,7,11
4.04E+03,-6641,3200,-1997,-428,122,-361,1,7,11
4.04E+03,-6656,3423,-1984,-410,108,-373,1,7,11
4.04E+03,-6644,3402,-1979,-634,89,-350,1,7,11
4.04E+03,-6612,3391,-1986,-599,94,-318,1,7,11
4.05E+03,-6596,3382,-1997,-561,125,-294,1,7,11
4.05E+03,-6598,3376,-1994,-517,-85,-283,1,7,11
4.05E+03,-6623,3379,-1988,-210,-54,-273,1,7,11
4.05E+03,-6641,3381,-1979,-152,-60,9,1,7,11
4.05E+03,-6620,3384,-1979,-350,-84,43,1,7,11
4.05E+03,-6615,3394,-1982,-302,-84,56,1,7,11
4.05E+03,-6625,3400,-1983,-257,-89,67,1,7,11
4.05E+03,-6631,3426,-1989,34,-99,74,1,7,11
4.05E+03,-6649,3442,-1988,50,-112,84,1,7,11
4.05E+03,-6922,3448,-1978,57,123,104,1,7,11
4.05E+03,-6928,3448,-1975,61,96,-128,1,7,11
4.05E+03,-6645,3452,-1969,69,71,-105,1,7,11
