timestamp,ax,ay,az,gx,gy,gz,Label1,Label2,Label3
1.14E+00,-4443,5893,-2580,307,708,517,1,7,11
1.39E+00,-4226,5916,-2301,347,1070,220,1,7,11
1.64E+00,-4278,5933,-2274,129,897,166,1,7,11
1.89E+00,-4323,6005,-2302,196,1139,146,1,7,11
2.14E+00,-4343,5761,-2564,555,1132,146,1,7,11
2.39E+00,-4618,5766,-2304,604,1087,169,1,7,11
2.64E+00,-4347,5774,-2605,424,1026,218,1,7,11
2.89E+00,-4611,6007,-2597,462,765,550,1,7,11
3.14E+00,-4347,5994,-2594,805,736,389,1,7,11
3.39E+00,-4319,5774,-2635,683,691,770,1,7,11
3.64E+00,-4287,5790,-2667,1027,686,660,1,7,11
3.89E+00,-4249,5800,-2437,1119,716,1061,1,7,11
4.14E+00,-4067,6000,-2859,1366,1129,1181,1,7,11
4.39E+00,-4009,5962,-2710,1236,944,1269,1,7,11
4.64E+00,-3494,5925,-3517,1892,1511,1735,1,7,11
4.89E+00,-3681,5909,-3654,1532,1698,2136,1,7,11
5.14E+00,-3443,5896,-3783,1430,2157,2017,1,7,11
5.39E+00,-3055,5927,-4107,1549,2419,2371,1,7,11
5.64E+00,-3167,5976,-4184,1404,2666,2256,1,7,11
5.89E+00,-3047,5940,-4190,915,2925,2289,1,7,11
6.14E+00,-2923,5917,-4205,736,3146,2610,1,7,11
6.39E+00,-2858,5900,-4186,875,3361,2654,1,7,11
6.64E+00,-2549,5894,-4168,840,3257,2675,1,7,11
6.89E+00,-1977,5574,-4033,1298,2720,2278,1,7,11
7.14E+00,-2108,5573,-4356,1368,2884,2213,1,7,11
7.39E+00,-1735,5582,-4468,1208,2525,2409,1,7,11
7.64E+00,-1869,5590,-4342,1250,2682,2354,1,7,11
7.89E+00,-1500,5559,-4706,1228,2610,2037,1,7,11
8.14E+00,-1643,5543,-4552,1204,2294,1971,1,7,11
8.39E+00,-1552,5547,-4900,1403,2266,2159,1,7,11
8.64E+00,-1191,5555,-4975,1307,2242,2091,1,7,11
8.89E+00,-1329,5548,-4775,913,2236,1785,1,7,11
9.14E+00,-939,5509,-4792,766,2262,1750,1,7,11
9.39E+00,-1071,5522,-4817,679,2298,1724,1,7,11
9.64E+00,-700,5560,-4852,834,2604,1725,1,7,11
9.89E+00,-643,5550,-4807,426,2668,1733,1,7,11
1.01E+01,-837,5509,-4770,592,2638,1737,1,7,11
1.04E+01,-506,5729,-4757,573,2300,1735,1,7,11
1.06E+01,-443,5691,-4992,585,2200,1726,1,7,11
1.09E+01,-581,5651,-4753,632,1950,1911,1,7,11
1.11E+01,-220,5654,-4795,443,1760,1858,1,7,11
1.14E+01,-344,5676,-5133,787,1847,1795,1,7,11
1.16E+01,23,5661,-5184,505,1485,1449,1,7,11
1.19E+01,115,5633,-5211,465,1657,1598,1,7,11
1.21E+01,-73,5635,-5240,442,1577,1231,1,7,11
1.24E+01,-8,5361,-4995,632,1236,1372,1,7,11
1.26E+01,315,5340,-5003,562,1397,999,1,7,11
1.29E+01,372,5309,-5003,241,1298,1148,1,7,11
1.31E+01,187,5279,-5018,201,944,1059,1,7,11
1.34E+01,248,5255,-5020,172,1136,744,1,7,11
1.36E+01,565,5489,-5028,156,1075,694,1,7,11
1.39E+01,632,5467,-5026,141,761,651,1,7,11
1.41E+01,427,5454,-5044,135,708,858,1,7,11
1.44E+01,479,5431,-5063,369,664,801,1,7,11
1.46E+01,799,5405,-5089,360,885,489,1,7,11
1.49E+01,847,5392,-5094,343,872,427,1,7,11
1.51E+01,644,5388,-5104,340,855,627,1,7,11
1.54E+01,670,5112,-5110,305,842,567,1,7,11
1.56E+01,689,5102,-5118,287,815,240,1,7,11
1.59E+01,703,5114,-5384,262,773,162,1,7,11
1.61E+01,698,5394,-5390,-22,459,337,1,7,11
1.64E+01,670,5432,-5393,-73,404,262,1,7,11
1.66E+01,644,5428,-5109,113,580,-57,1,7,11
1.69E+01,886,5415,-5091,84,232,-100,1,7,11
1.71E+01,887,5416,-5101,87,152,-114,1,7,11
1.74E+01,880,5411,-5094,70,358,-112,1,7,11
1.76E+01,870,5413,-5090,53,323,-94,1,7,11
1.79E+01,873,5405,-5094,33,288,-63,1,7,11
1.81E+01,892,5116,-5096,20,260,-20,1,7,11
1.84E+01,669,5089,-5110,34,258,278,1,7,11
1.86E+01,705,5080,-5380,49,278,303,1,7,11
1.89E+01,724,5076,-5383,47,301,315,1,7,11
1.91E+01,752,5063,-5117,28,312,308,1,7,11
1.94E+01,1043,5065,-5391,29,313,292,1,7,11
1.96E+01,1058,5060,-5379,39,306,-6,1,7,11
1.99E+01,1050,5064,-5107,38,279,-24,1,7,11
2.01E+01,1049,5081,-5118,52,-11,-35,1,7,11
2.04E+01,1045,5092,-5116,51,-30,-42,1,7,11
2.06E+01,1042,5083,-5106,45,-55,-53,1,7,11
2.09E+01,1044,5069,-5097,51,-80,-69,1,7,11
2.11E+01,1056,5071,-5106,65,-101,-82,1,7,11
2.14E+01,1082,5070,-5395,67,-102,-100,1,7,11
2.16E+01,1084,5072,-5411,52,-79,-121,1,7,11
2.19E+01,1079,5073,-5416,44,-50,125,1,7,11
2.21E+01,1060,5066,-5421,21,-19,118,1,7,11
2.24E+01,1040,5063,-5414,8,261,111,1,7,11
2.26E+01,1034,5068,-5418,-272,271,107,1,7,11
2.29E+01,1034,5042,-5408,-293,272,105,1,7,11
2.31E+01,1042,5044,-5417,-285,265,102,1,7,11
2.34E+01,1040,5042,-5419,-298,263,98,1,7,11
2.36E+01,1033,5041,-5394,-320,-1,93,1,7,11
2.39E+01,1026,5036,-5116,-331,-22,94,1,7,11
2.41E+01,1037,5020,-5116,-314,-59,101,1,7,11
2.44E+01,1054,5043,-5379,-291,-86,104,1,7,11
2.46E+01,1065,5048,-5392,-280,-95,106,1,7,11
2.49E+01,1070,5057,-5394,-274,-84,102,1,7,11
2.51E+01,1058,5061,-5118,-279,-80,96,1,7,11
2.54E+01,1054,5073,-5118,-271,-82,89,1,7,11
2.56E+01,1060,5053,-5113,-274,-85,96,1,7,11
2.59E+01,1058,5048,-5115,-270,-66,100,1,7,11
2.61E+01,1050,5074,-5383,21,-48,108,1,7,11
2.64E+01,1041,5086,-5387,47,-28,119,1,7,11
2.66E+01,1029,5091,-5398,52,-10,126,1,7,11
2.69E+01,766,5082,-5386,44,267,-122,1,7,11
2.71E+01,1030,5081,-5392,56,257,-120,1,7,11
2.74E+01,1058,5069,-5406,49,-1,-116,1,7,11
2.76E+01,1087,5061,-5412,44,279,-117,1,7,11
2.79E+01,1095,5067,-5426,35,305,-122,1,7,11
2.81E+01,1097,5047,-5417,-278,322,-127,1,7,11
2.84E+01,1110,5036,-5406,-295,312,116,1,7,11
2.86E+01,1134,5033,-5405,-318,300,93,1,7,11
2.89E+01,900,5028,-5394,-336,293,56,1,7,11
2.91E+01,919,5023,-5383,-348,277,11,1,7,11
2.94E+01,919,5015,-5104,-363,-4,-290,1,7,11
2.96E+01,920,5024,-5115,-356,-56,-336,1,7,11
2.99E+01,921,5021,-5108,-371,-107,-133,1,7,11
3.01E+01,914,5028,-5111,-370,90,-191,1,7,11
3.04E+01,901,5049,-5110,-129,37,-248,1,7,11
3.06E+01,1132,5053,-5107,-151,-284,-553,1,7,11
3.09E+01,1106,5073,-5114,-174,-352,-596,1,7,11
3.11E+01,1098,5073,-5377,-205,-167,-632,1,7,11
3.14E+01,1095,5086,-5393,-237,-227,-410,1,7,11
3.16E+01,1085,5100,-5400,-527,-255,-438,1,7,11
3.19E+01,1050,5093,-5388,-581,-522,-470,1,7,11
3.21E+01,767,5106,-5377,-612,-540,-510,1,7,11
3.24E+01,737,5393,-5105,-638,-561,-819,1,7,11
3.26E+01,704,5414,-5099,-404,-596,-841,1,7,11
3.29E+01,666,5420,-5084,-427,-403,-856,1,7,11
3.31E+01,874,5435,-5058,-433,-440,-870,1,7,11
3.34E+01,832,5451,-5031,-432,-502,-887,1,7,11
3.36E+01,822,5475,-5035,-429,-831,-649,1,7,11
3.39E+01,802,5475,-5040,-469,-876,-667,1,7,11
3.41E+01,776,5463,-5033,-512,-671,-707,1,7,11
3.44E+01,470,5477,-5007,-786,-730,-767,1,7,11
3.46E+01,428,5503,-5010,-807,-1111,-1108,1,7,11
3.49E+01,632,5275,-5003,-835,-1003,-952,1,7,11
3.51E+01,546,5304,-4993,-642,-1388,-1322,1,7,11
3.54E+01,213,5317,-5229,-711,-1544,-1194,1,7,11
3.56E+01,362,5367,-5207,-762,-1454,-1617,1,7,11
3.59E+01,-23,5672,-5191,-1081,-1898,-1808,1,7,11
3.61E+01,75,5713,-5130,-968,-2083,-1782,1,7,11
3.64E+01,-327,5504,-4802,-1346,-2316,-2004,1,7,11
3.66E+01,-200,5601,-4783,-1171,-2599,-2216,1,7,11
3.69E+01,-390,5922,-4948,-1581,-2859,-2663,1,7,11
3.71E+01,-815,5970,-4886,-1428,-2955,-2551,1,7,11
3.74E+01,-699,5965,-4558,-1801,-3307,-2913,1,7,11
3.76E+01,-1123,5898,-4715,-1877,-3905,-2742,1,7,11
3.79E+01,-993,5891,-4670,-1821,-4042,-2813,1,7,11
3.81E+01,-1358,5921,-4653,-1498,-4659,-3110,1,7,11
3.84E+01,-1225,5916,-4614,-1452,-4956,-3134,1,7,11
3.86E+01,-1643,5625,-4284,-1660,-5187,-3153,1,7,11
3.89E+01,-1798,5616,-4232,-1547,-5396,-3169,1,7,11
3.91E+01,-1697,5929,-4236,-1405,-5304,-3189,1,7,11
3.94E+01,-2117,5962,-4470,-1378,-5645,-2961,1,7,11
3.96E+01,-2319,5907,-4368,-1167,-5679,-3000,1,7,11
3.99E+01,-2249,5617,-4040,-1389,-5710,-3060,1,7,11
4.01E+01,-2464,5622,-3981,-1362,-5699,-3416,1,7,11
4.04E+01,-2690,5591,-4129,-1353,-5674,-3273,1,7,11
4.06E+01,-3175,5618,-3778,-1009,-5674,-3624,1,7,11
4.09E+01,-3386,5921,-3725,-942,-5685,-3661,1,7,11
4.11E+01,-3284,5890,-3929,-900,-5710,-3621,1,7,11
4.14E+01,-3619,5538,-3847,-1043,-5706,-3206,1,7,11
4.16E+01,-3516,5248,-3682,-715,-5391,-3190,1,7,11
4.19E+01,-3903,5409,-3317,-606,-5166,-2813,1,7,11
4.21E+01,-4216,5345,-3259,-260,-4652,-2912,1,7,11
4.24E+01,-4380,5343,-3437,-136,-4091,-2843,1,7,11
4.26E+01,-4297,5295,-3334,-575,-3768,-2536,1,7,11
4.29E+01,-4715,5503,-3001,-486,-3466,-2496,1,7,11
4.31E+01,-4872,5403,-3149,-671,-3426,-2457,1,7,11
4.34E+01,-4762,5029,-2772,-1031,-3176,-2637,1,7,11
4.36E+01,-4864,5195,-2712,-766,-2710,-2247,1,7,11
4.39E+01,-5238,5156,-2899,-707,-2472,-2320,1,7,11
4.41E+01,-5114,5140,-2835,-889,-2242,-2124,1,7,11
4.44E+01,-5498,5159,-2504,-820,-2044,-1676,1,7,11
4.46E+01,-5353,5203,-2443,-787,-2174,-1479,1,7,11
4.49E+01,-5660,5210,-2663,-826,-2099,-1538,1,7,11
4.51E+01,-5653,5174,-2646,-645,-1750,-1354,1,7,11
4.54E+01,-5649,5137,-2625,-723,-1848,-946,1,7,11
4.56E+01,-5647,4862,-2596,-1066,-1634,-1085,1,7,11
4.59E+01,-5682,4850,-2281,-905,-1388,-741,1,7,11
4.61E+01,-5712,5128,-2273,-991,-1141,-666,1,7,11
4.64E+01,-5510,5144,-2179,-1370,-868,-853,1,7,11
4.66E+01,-5558,5155,-2397,-1229,-630,-779,1,7,11
4.69E+01,-5597,5203,-2366,-1597,-159,-454,1,7,11
4.71E+01,-5910,5200,-2322,-1519,53,-632,1,7,11
4.74E+01,-5962,5173,-1998,-1723,262,-524,1,7,11
4.76E+01,-5976,5151,-1934,-1994,219,-190,1,7,11
4.79E+01,-5953,5188,-2153,-2361,570,-366,1,7,11
4.81E+01,-5946,5186,-2054,-2232,400,-283,1,7,11
4.84E+01,-5920,5206,-1738,-2568,459,40,1,7,11
4.86E+01,-5893,5246,-1687,-2638,786,111,1,7,11
4.89E+01,-5611,5008,-1880,-2441,862,-70,1,7,11
4.91E+01,-5574,5015,-1804,-2452,671,273,1,7,11
4.94E+01,-5557,5015,-1474,-2680,727,346,1,7,11
4.96E+01,-5546,5009,-1637,-2627,765,142,1,7,11
4.99E+01,-5520,5027,-1602,-2269,1024,161,1,7,11
5.01E+01,-5747,5051,-1548,-2179,1050,159,1,7,11
5.04E+01,-5734,5067,-1220,-2326,1080,142,1,7,11
5.06E+01,-5712,5106,-1178,-1933,1085,374,1,7,11
5.09E+01,-5681,5113,-1394,-2065,1087,360,1,7,11
5.11E+01,-5662,5393,-1355,-1898,1077,332,1,7,11
5.14E+01,-5666,5420,-1313,-1488,1056,294,1,7,11
5.16E+01,-5665,5429,-1004,-1588,755,260,1,7,11
5.19E+01,-5679,5456,-980,-1408,680,-33,1,7,11
5.21E+01,-5691,5474,-963,-995,846,-64,1,7,11
5.24E+01,-5694,5476,-946,-1096,502,-97,1,7,11
5.26E+01,-5706,5479,-930,-686,402,111,1,7,11
5.29E+01,-5709,5492,-934,-784,532,64,1,7,11
5.31E+01,-5717,5257,-953,-390,158,17,1,7,11
5.34E+01,-5703,5288,-1019,-193,-51,-281,1,7,11
5.36E+01,-5694,5283,-1304,-376,-125,-287,1,7,11
5.39E+01,-5679,5286,-1325,-311,78,-294,1,7,11
5.41E+01,-5665,5287,-1335,-267,27,-306,1,7,11
5.44E+01,-5363,5316,-1385,45,-274,-324,1,7,11
5.46E+01,-5311,5364,-1204,78,-257,-322,1,7,11
5.49E+01,-5267,5637,-1245,61,100,-263,1,7,11
5.51E+01,-5284,5375,-1247,82,-7,38,1,7,11
5.54E+01,-5327,5370,-1229,86,378,93,1,7,11
5.56E+01,-5359,5370,-1221,115,226,-122,1,7,11
5.59E+01,-5376,5647,-1267,-9,534,332,1,7,11
5.61E+01,-5354,5673,-1571,292,533,204,1,7,11
5.64E+01,-5358,5692,-1581,303,543,529,1,7,11
5.66E+01,-5345,5702,-1608,296,521,578,1,7,11
5.69E+01,-5320,5701,-1624,263,198,586,1,7,11
5.71E+01,-5304,5682,-1623,-62,352,548,1,7,11
5.74E+01,-5278,5680,-1641,121,272,210,1,7,11
5.76E+01,-5494,5674,-1644,-281,-66,360,1,7,11
5.79E+01,-5422,5702,-1662,-363,110,256,1,7,11
5.81E+01,-5100,5747,-1439,-212,71,-94,1,7,11
5.84E+01,-5059,5506,-1423,-588,86,100,1,7,11
5.86E+01,-5027,5523,-1664,-415,112,56,1,7,11
5.89E+01,-5013,5540,-1645,-494,-95,22,1,7,11
5.91E+01,-5248,5555,-1624,-804,-44,-259,1,7,11
5.94E+01,-5229,5547,-1596,-816,258,5,1,7,11
5.96E+01,-5166,5515,-1599,-796,325,36,1,7,11
5.99E+01,-4849,5724,-1560,-776,247,50,1,7,11
6.01E+01,-4829,5729,-1239,-468,487,20,1,7,11
6.04E+01,-4849,5750,-1158,-628,703,-293,1,7,11
6.06E+01,-5194,5548,-1342,-532,1117,-184,1,7,11
6.09E+01,-5229,5561,-1327,-222,967,-251,1,7,11
6.11E+01,-5054,5568,-1301,-237,1021,-414,1,7,11
6.14E+01,-5113,5540,-1289,-537,1282,-854,1,7,11
6.16E+01,-5450,5742,-1317,-576,1021,-763,1,7,11
6.19E+01,-5255,5695,-1335,-605,1023,-951,1,7,11
6.21E+01,-5341,5643,-1342,-589,1016,-1022,1,7,11
6.24E+01,-5684,5339,-1349,-537,960,-1318,1,7,11
6.26E+01,-5516,5312,-1375,-195,1117,-1317,1,7,11
6.29E+01,-5598,5286,-1400,-363,723,-1016,1,7,11
6.31E+01,-5911,5256,-1179,0,802,-932,1,7,11
6.34E+01,-5952,5486,-1228,102,620,-1077,1,7,11
6.36E+01,-5996,5469,-1274,-71,197,-687,1,7,11
6.39E+01,-5762,5439,-1591,-4,289,-790,1,7,11
6.41E+01,-5767,5409,-1663,272,-90,-639,1,7,11
6.44E+01,-5559,5045,-1879,-41,126,262,1,7,11
6.46E+01,-5549,5044,-1890,-45,120,298,1,7,11
6.49E+01,-5536,5117,-1672,36,-266,358,1,7,11
6.51E+01,-5528,5392,-1677,-284,-323,139,1,7,11
6.54E+01,-5526,5398,-1917,-374,-357,183,1,7,11
6.56E+01,-5755,5412,-1895,-205,-132,229,1,7,11
6.59E+01,-5703,5426,-1858,-564,-152,535,1,7,11
6.61E+01,-5634,5472,-1823,-387,-153,596,1,7,11
6.64E+01,-5338,5282,-1491,-496,-368,399,1,7,11
6.66E+01,-5336,5342,-1413,-888,-330,439,1,7,11
6.69E+01,-5353,5344,-1591,-748,-344,425,1,7,11
6.71E+01,-5358,5312,-1264,-1094,-204,610,1,7,11
6.74E+01,-5363,5270,-1201,-1128,-551,246,1,7,11
6.76E+01,-5359,5486,-1164,-1081,-387,376,1,7,11
6.79E+01,-5350,5463,-1156,-744,-439,261,1,7,11
6.81E+01,-5359,5454,-1368,-653,-450,-93,1,7,11
6.84E+01,-5363,5440,-1352,-793,-447,90,1,7,11
6.86E+01,-5648,5435,-1332,-435,-415,43,1,7,11
6.89E+01,-5654,5422,-1309,-581,-628,24,1,7,11
6.91E+01,-5645,5412,-1307,-224,-562,26,1,7,11
6.94E+01,-5376,5427,-1308,-383,-213,45,1,7,11
6.96E+01,-5348,5455,-1319,-315,-353,86,1,7,11
6.99E+01,-5302,5475,-1325,-283,36,-100,1,7,11
7.01E+01,-5256,5499,-1328,-278,-77,-26,1,7,11
7.04E+01,-5490,5257,-1314,-290,308,301,1,7,11
7.06E+01,-5482,5282,-1316,-322,144,338,1,7,11
7.09E+01,-5488,5293,-1299,-373,198,346,1,7,11
7.11E+01,-5286,5269,-1006,-253,222,287,1,7,11
7.14E+01,-5324,5263,-993,-552,172,-17,1,7,11
7.16E+01,-5045,5411,-946,-161,67,154,1,7,11
7.19E+01,-5001,5479,-942,-168,54,174,1,7,11
7.21E+01,-5227,5479,-936,-239,43,165,1,7,11
7.24E+01,-5215,5486,-912,-568,31,374,1,7,11
7.26E+01,-5001,5494,-1135,-634,19,292,1,7,11
7.29E+01,-5105,5282,-1049,-485,-176,19,1,7,11
7.31E+01,-5404,5307,-1033,-786,-561,-346,1,7,11
7.34E+01,-5412,5312,-761,-846,-440,-193,1,7,11
7.36E+01,-5420,5320,-758,-894,-818,-559,1,7,11
7.39E+01,-5438,5311,-726,-712,-665,-433,1,7,11
7.41E+01,-5501,5285,-646,-1048,-753,-856,1,7,11
7.44E+01,-5370,5248,-779,-763,-993,-1143,1,7,11
7.46E+01,-6032,5782,-643,-305,-852,-802,1,7,11
7.49E+01,-6131,6148,-704,51,-790,-445,1,7,11
7.51E+01,-5908,6422,-1224,464,-28,554,1,7,11
7.54E+01,-4767,6282,-1902,640,1371,1919,1,7,11
7.56E+01,-3744,6220,-1858,-31,2870,3185,1,7,11
7.59E+01,-3772,5869,-1797,-13,2739,3158,1,7,11
7.61E+01,-4021,6188,-1894,213,1766,1703,1,7,11
7.64E+01,-4009,6187,-1756,197,1422,1659,1,7,11
7.66E+01,-3991,6163,-2119,183,1343,1359,1,7,11
7.69E+01,-4198,6266,-1986,515,714,1086,1,7,11
7.71E+01,-4182,6448,-2351,196,418,809,1,7,11
7.74E+01,-4160,6341,-2408,293,131,582,1,7,11
7.76E+01,-4102,6726,-2192,69,108,130,1,7,11
7.79E+01,-3762,6531,-2195,-222,-341,-21,1,7,11
7.81E+01,-3923,6751,-2381,-788,-163,98,1,7,11
7.84E+01,-3729,6472,-1819,-659,-514,-687,1,7,11
7.86E+01,-3797,6466,-1512,-779,-533,-1086,1,7,11
7.89E+01,-4301,6476,-1661,-97,-784,-1547,1,7,11
7.91E+01,-4344,6426,-1657,-46,-781,-1574,1,7,11
7.94E+01,-4658,6133,-1664,307,-508,-1600,1,7,11
7.96E+01,-4703,6105,-1434,379,-508,-1621,1,7,11
7.99E+01,-4536,6254,-1495,598,-436,-1563,1,7,11
8.01E+01,-4569,6246,-1497,391,-388,-1228,1,7,11
8.04E+01,-4590,6226,-1514,417,-596,-1373,1,7,11
8.06E+01,-4882,5818,-1819,443,45,-597,1,7,11
8.09E+01,-4886,5761,-1821,441,116,-217,1,7,11
8.11E+01,-4885,5981,-1829,456,-85,-378,1,7,11
8.14E+01,-4901,5939,-1830,454,-50,-311,1,7,11
8.16E+01,-4876,5916,-1852,483,-60,-259,1,7,11
8.19E+01,-4874,5914,-1872,486,-57,8,1,7,11
8.21E+01,-4888,5928,-1890,456,-70,-269,1,7,11
8.24E+01,-4917,5960,-1917,388,-91,-325,1,7,11
8.26E+01,-4955,5985,-1665,531,-124,-158,1,7,11
8.29E+01,-4987,6013,-1690,145,79,-535,1,7,11
8.31E+01,-4763,5781,-1715,-11,30,-424,1,7,11
8.34E+01,-4783,5796,-1740,71,-267,-825,1,7,11
8.36E+01,-4789,5782,-1764,-351,-285,-698,1,7,11
8.39E+01,-4807,5761,-1780,-236,-270,-1071,1,7,11
8.41E+01,-4841,5988,-1792,-620,22,-924,1,7,11
8.44E+01,-5130,5966,-1784,-452,64,-1012,1,7,11
8.46E+01,-5152,5954,-1791,-508,110,-1310,1,7,11
8.49E+01,-5166,5944,-2055,-796,-80,-1297,1,7,11
8.51E+01,-5195,5930,-2057,-813,272,-971,1,7,11
8.54E+01,-5224,5909,-1791,-811,380,-1110,1,7,11
8.56E+01,-5005,5888,-1767,-813,242,-700,1,7,11
8.59E+01,-5045,5582,-1751,-813,595,-780,1,7,11
8.61E+01,-5074,5564,-1743,-500,397,-605,1,7,11
8.64E+01,-5098,5561,-1733,-430,423,-166,1,7,11
8.66E+01,-5031,5527,-1771,-367,628,144,1,7,11
8.69E+01,-5159,5504,-2052,101,619,629,1,7,11
8.71E+01,-4805,5706,-2075,-36,398,482,1,7,11
8.74E+01,-4988,5678,-2092,336,472,792,1,7,11
8.76E+01,-4954,5703,-2118,183,808,796,1,7,11
8.79E+01,-4975,5574,-2140,521,884,453,1,7,11
8.81E+01,-4969,5895,-2171,244,845,396,1,7,11
8.84E+01,-4941,5934,-1942,189,800,599,1,7,11
8.86E+01,-4911,5968,-1977,382,510,545,1,7,11
8.89E+01,-4868,5983,-1997,319,485,248,1,7,11
8.91E+01,-4571,5974,-2015,261,478,221,1,7,11
8.94E+01,-4543,5936,-2003,-37,492,203,1,7,11
8.96E+01,-4544,5891,-1983,-54,511,167,1,7,11
8.99E+01,-4544,5581,-1959,-35,768,367,1,7,11
9.01E+01,-4543,5535,-1945,278,505,309,1,7,11
9.04E+01,-4531,5511,-1969,381,503,258,1,7,11
9.06E+01,-4532,5512,-1998,240,793,-31,1,7,11
9.09E+01,-4551,5518,-2029,601,844,-39,1,7,11
9.11E+01,-4564,5526,-2326,430,892,-25,1,7,11
9.14E+01,-4582,5525,-2357,498,687,-3,1,7,11
9.16E+01,-4869,5531,-2387,819,727,269,1,7,11
9.19E+01,-4891,5529,-2418,858,731,276,1,7,11
9.21E+01,-4897,5518,-2198,882,710,273,1,7,11
9.24E+01,-4895,5755,-2230,881,669,263,1,7,11
9.26E+01,-4879,5741,-2277,862,868,-11,1,7,11
9.29E+01,-4866,5711,-2599,816,821,-35,1,7,11
9.31E+01,-4588,5683,-2626,510,781,-60,1,7,11
9.34E+01,-4569,5681,-2681,474,770,-71,1,7,11
9.36E+01,-4562,5701,-2504,422,795,-55,1,7,11
9.39E+01,-4550,5717,-2547,597,836,-5,1,7,11
9.41E+01,-4532,5736,-2848,524,875,334,1,7,11
9.44E+01,-4512,5759,-2880,201,674,238,1,7,11
9.46E+01,-4483,5509,-2920,131,721,619,1,7,11
9.49E+01,-4697,5739,-2928,309,1029,482,1,7,11
9.51E+01,-4650,5716,-2927,271,1085,840,1,7,11
9.54E+01,-4339,5706,-2701,283,1100,680,1,7,11
9.56E+01,-4272,5704,-2747,138,1111,1032,1,7,11
9.59E+01,-4441,5749,-3084,539,1130,1138,1,7,11
9.61E+01,-4092,5555,-3151,404,952,1000,1,7,11
9.64E+01,-4027,5598,-3197,493,1329,1373,1,7,11
9.66E+01,-4198,5910,-3015,843,1177,1236,1,7,11
9.69E+01,-3837,5958,-3350,647,1546,1605,1,7,11
9.71E+01,-3771,5965,-3385,656,1445,1449,1,7,11
9.74E+01,-3941,5993,-3455,694,1839,1532,1,7,11
9.76E+01,-3581,5767,-3269,714,1731,1869,1,7,11
9.79E+01,-3506,5788,-3294,702,2162,1681,1,7,11
9.81E+01,-3673,5794,-3328,708,2041,1762,1,7,11
9.84E+01,-3296,5809,-3653,740,2178,2106,1,7,11
9.86E+01,-3456,5795,-3680,723,2639,1926,1,7,11
9.89E+01,-3389,5776,-3696,749,2828,1996,1,7,11
9.91E+01,-3329,5794,-3494,1042,2733,2320,1,7,11
9.94E+01,-3055,5770,-3497,762,3131,2375,1,7,11
9.96E+01,-3021,5788,-3536,757,3171,2407,1,7,11
9.99E+01,-2979,5795,-3571,711,3093,2399,1,7,11
1.00E+02,-3159,5792,-3869,871,2708,2378,1,7,11
1.00E+02,-2766,5795,-3939,823,2535,2346,1,7,11
1.01E+02,-2862,5772,-3744,490,2659,2047,1,7,11
1.01E+02,-2453,5986,-3782,429,2584,2002,1,7,11
1.01E+02,-2580,5972,-3800,422,2284,1955,1,7,11
1.01E+02,-2238,5992,-3825,436,2240,2166,1,7,11
1.02E+02,-2385,6012,-4137,470,2420,2141,1,7,11
1.02E+02,-2021,6011,-4203,489,2365,2133,1,7,11
1.02E+02,-1923,5765,-3977,786,2344,2144,1,7,11
1.02E+02,-2088,5791,-4023,837,2323,2169,1,7,11
1.03E+02,-1743,5783,-4060,868,2312,1958,1,7,11
1.03E+02,-1673,5778,-4069,654,2318,2003,1,7,11
1.03E+02,-1833,5799,-4380,730,2043,2316,1,7,11
1.03E+02,-1475,5799,-4406,1033,2039,2381,1,7,11
1.04E+02,-1632,5796,-4440,1088,2043,2199,1,7,11
1.04E+02,-1241,5807,-4262,1145,2304,2290,1,7,11
1.04E+02,-1355,5814,-4338,936,2356,2672,1,7,11
1.04E+02,-951,5794,-4643,948,2195,2824,1,7,11
1.05E+02,-1077,5971,-4640,957,2289,2720,1,7,11
1.05E+02,-661,5963,-4705,1309,2577,3093,1,7,11
1.05E+02,-774,5942,-4510,1348,2622,3190,1,7,11
1.05E+02,-624,5897,-4560,1372,2632,3000,1,7,11
1.06E+02,-212,5599,-4606,1392,2634,3020,1,7,11
1.06E+02,-328,5555,-4901,1393,2617,3004,1,7,11
1.06E+02,75,5532,-4959,1393,2568,3197,1,7,11
1.06E+02,-43,5534,-4771,1363,2253,3095,1,7,11
1.07E+02,351,5520,-4830,1290,2431,2707,1,7,11
1.07E+02,225,5752,-5134,921,2353,2553,1,7,11
1.07E+02,588,5727,-5154,1046,2016,2660,1,7,11
1.07E+02,423,5680,-5158,889,2165,2272,1,7,11
1.08E+02,806,5651,-5198,768,1785,2176,1,7,11
1.08E+02,654,5360,-5240,386,1696,2390,1,7,11
1.08E+02,735,5296,-5238,528,1874,2395,1,7,11
1.08E+02,1082,5485,-5212,203,1529,2420,1,7,11
1.09E+02,899,5422,-5169,177,1416,2429,1,7,11
1.09E+02,976,5409,-5153,188,1248,2384,1,7,11
1.09E+02,1333,5395,-5175,183,1298,2021,1,7,11
1.09E+02,1181,5383,-5198,158,1084,2114,1,7,11
1.10E+02,1566,5096,-5234,371,891,1665,1,7,11
1.10E+02,1434,5060,-5247,338,772,1469,1,7,11
1.10E+02,1792,5042,-5014,337,466,1540,1,7,11
1.10E+02,1863,5027,-5010,319,479,1383,1,7,11
1.11E+02,1892,5001,-5238,297,770,996,1,7,11
1.11E+02,1669,5224,-5218,293,783,1139,1,7,11
1.11E+02,1696,5192,-5204,317,784,1043,1,7,11
1.11E+02,1717,5183,-5213,383,508,714,1,7,11
1.12E+02,1736,5161,-5232,184,485,650,1,7,11
1.12E+02,1738,5140,-5232,242,449,843,1,7,11
1.12E+02,1759,5137,-4993,550,636,507,1,7,11
1.12E+02,2053,4855,-4997,580,560,427,1,7,11
1.13E+02,2104,4859,-5036,637,243,610,1,7,11
1.13E+02,2116,5137,-5079,634,231,519,1,7,11
1.13E+02,2118,5152,-5108,617,219,224,1,7,11
1.13E+02,2107,5153,-5390,560,208,194,1,7,11
1.14E+02,2108,5143,-5416,247,180,163,1,7,11
1.14E+02,2120,4857,-5419,170,152,129,1,7,11
1.14E+02,2132,4834,-5438,359,129,371,1,7,11
1.14E+02,2143,4806,-5451,301,378,360,1,7,11
1.15E+02,2144,4757,-5425,-36,134,355,1,7,11
1.15E+02,2162,4744,-5423,-83,130,350,1,7,11
1.15E+02,1929,4990,-5435,-120,129,340,1,7,11
1.15E+02,1926,4987,-5432,96,141,313,1,7,11
1.16E+02,1923,4988,-5426,68,383,281,1,7,11
1.16E+02,1925,4990,-5422,32,362,-14,1,7,11
1.16E+02,2169,4986,-5394,1,332,-46,1,7,11
1.16E+02,2163,4985,-5117,-261,288,-59,1,7,11
1.17E+02,2157,4987,-5100,4,-26,-68,1,7,11
1.17E+02,2160,4742,-5103,25,-85,-76,1,7,11
1.17E+02,2157,4748,-5101,23,-122,-86,1,7,11
1.17E+02,2163,4982,-5103,11,107,-104,1,7,11
1.18E+02,2167,4983,-5101,13,94,-121,1,7,11
1.18E+02,2169,4740,-5109,18,95,118,1,7,11
1.18E+02,2170,4756,-5377,17,98,114,1,7,11
1.18E+02,2169,4754,-5115,4,99,115,1,7,11
1.19E+02,1924,4740,-5113,-259,91,122,1,7,11
1.19E+02,1930,4760,-5390,11,94,123,1,7,11
1.19E+02,1926,4769,-5389,-258,95,120,1,7,11
1.19E+02,1923,4771,-5391,-269,101,122,1,7,11
1.20E+02,1927,4755,-5115,-275,118,-127,1,7,11
1.20E+02,1924,4779,-5116,9,-127,-121,1,7,11
1.20E+02,1921,4763,-5103,-257,-118,-117,1,7,11
1.20E+02,1928,4742,-5095,15,-124,-120,1,7,11
1.21E+02,1943,4748,-5117,43,-120,-125,1,7,11
1.21E+02,1944,4755,-5395,51,-97,125,1,7,11
1.21E+02,1935,4756,-5395,53,-72,115,1,7,11
1.21E+02,2164,4764,-5396,41,-49,101,1,7,11
1.22E+02,2155,4750,-5384,8,-57,88,1,7,11
1.22E+02,2157,4982,-5115,0,-85,82,1,7,11
1.22E+02,2164,4958,-5115,12,-107,85,1,7,11
1.22E+02,2168,4952,-5119,29,-116,88,1,7,11
1.23E+02,2167,4963,-5401,53,-117,85,1,7,11
1.23E+02,2165,4977,-5416,46,-109,69,1,7,11
1.23E+02,2156,4979,-5419,20,-98,54,1,7,11
1.23E+02,2144,4982,-5418,14,-95,44,1,7,11
1.24E+02,2136,4981,-5422,6,-99,44,1,7,11
1.24E+02,2138,4983,-5438,7,-100,55,1,7,11
1.24E+02,2130,4970,-5446,-270,-80,71,1,7,11
1.24E+02,2139,4964,-5427,-289,-63,84,1,7,11
1.25E+02,2159,4960,-5425,-304,-60,94,1,7,11
1.25E+02,2162,4939,-5406,-321,-54,100,1,7,11
1.25E+02,2162,4939,-5398,-301,-48,102,1,7,11
1.25E+02,2162,4964,-5407,-288,-53,106,1,7,11
1.26E+02,2168,4984,-5406,-281,-76,121,1,7,11
1.26E+02,2172,4974,-5396,-287,-96,-126,1,7,11
1.26E+02,1922,4951,-5388,-283,-118,-125,1,7,11
1.26E+02,1944,4947,-5397,2,117,125,1,7,11
1.27E+02,1960,4940,-5405,18,114,116,1,7,11
1.27E+02,1965,4933,-5411,25,123,104,1,7,11
1.27E+02,1978,4931,-5423,21,-115,91,1,7,11
1.27E+02,1970,4942,-5417,15,-95,71,1,7,11
1.28E+02,1960,4931,-5414,7,-91,58,1,7,11
1.28E+02,1963,4930,-5424,12,-99,51,1,7,11
1.28E+02,1964,4930,-5433,7,-100,49,1,7,11
1.28E+02,1954,4934,-5426,6,-95,46,1,7,11
1.29E+02,1944,4944,-5426,9,-97,47,1,7,11
1.29E+02,1946,4938,-5421,1,-103,52,1,7,11
1.29E+02,1955,4935,-5423,3,-109,56,1,7,11
1.29E+02,1967,4942,-5429,4,-105,52,1,7,11
1.30E+02,1957,4947,-5439,-270,-76,36,1,7,11
1.30E+02,1949,4945,-5417,-292,-58,11,1,7,11
1.30E+02,1936,4953,-5410,-295,-62,-263,1,7,11
1.30E+02,1931,4941,-5411,-301,-91,-268,1,7,11
1.31E+02,1920,4948,-5424,-275,-95,-270,1,7,11
1.31E+02,2162,4970,-5429,-270,-96,-280,1,7,11
1.31E+02,2150,4980,-5421,-289,-105,-299,1,7,11
1.31E+02,2155,4952,-5393,-310,-125,-314,1,7,11
1.32E+02,1922,4941,-5406,-292,108,-324,1,7,11
1.32E+02,1927,4936,-5410,-294,100,-345,1,7,11
1.32E+02,2168,4954,-5405,-295,85,-372,1,7,11
1.32E+02,2149,4961,-5398,-309,48,-136,1,7,11
1.33E+02,2138,4736,-5415,-312,-265,-140,1,7,11
1.33E+02,2118,4744,-5419,-345,-338,-129,1,7,11
1.33E+02,2094,4758,-5435,-372,-211,-378,1,7,11
1.33E+02,2109,4756,-5502,-169,-389,-134,1,7,11
1.34E+02,2131,4748,-5308,-550,-506,-167,1,7,11
1.34E+02,2117,4969,-5296,-452,-813,-215,1,7,11
1.34E+02,2076,4962,-5480,-803,-869,-532,1,7,11
1.34E+02,2048,4973,-5424,-852,-685,-564,1,7,11
1.35E+02,1761,4975,-5387,-857,-723,-564,1,7,11
1.35E+02,1736,4990,-5096,-804,-714,-542,1,7,11
1.35E+02,1700,4754,-5062,-468,-661,-518,1,7,11
1.35E+02,1685,4792,-5067,-611,-860,-242,1,7,11
1.36E+02,1910,4823,-5074,-254,-788,-253,1,7,11
1.36E+02,1890,5120,-5111,-172,-416,-549,1,7,11
1.36E+02,1873,5144,-5409,-143,-602,-617,1,7,11
1.36E+02,1858,5152,-5438,-181,-547,-447,1,7,11
1.37E+02,1829,5156,-5450,-228,-515,-798,1,7,11
1.37E+02,1794,5177,-5456,-552,-516,-642,1,7,11
1.37E+02,1528,5200,-5470,-639,-567,-741,1,7,11
1.37E+02,1518,5197,-5473,-506,-616,-1096,1,7,11
1.38E+02,1481,5199,-5461,-877,-393,-941,1,7,11
1.38E+02,1420,5197,-5419,-736,-440,-1286,1,7,11
1.38E+02,1622,5199,-5385,-1071,-501,-1367,1,7,11
1.38E+02,1554,5215,-5087,-1127,-811,-1176,1,7,11
1.39E+02,1249,5231,-5049,-1140,-877,-1206,1,7,11
1.39E+02,1167,5244,-4993,-1119,-670,-1209,1,7,11
1.39E+02,1328,5015,-5198,-1053,-735,-1196,1,7,11
1.39E+02,975,5075,-5180,-707,-1095,-1185,1,7,11
1.40E+02,1151,5390,-5192,-647,-962,-1178,1,7,11
1.40E+02,1075,5422,-5175,-891,-1328,-1174,1,7,11
1.40E+02,764,5450,-5167,-852,-1194,-1165,1,7,11
1.40E+02,711,5249,-5203,-815,-1540,-1162,1,7,11
1.41E+02,655,5278,-5217,-817,-1607,-1157,1,7,11
1.41E+02,828,5292,-5209,-825,-1653,-1161,1,7,11
1.41E+02,503,5303,-5190,-818,-1452,-1167,1,7,11
1.41E+02,440,5331,-5176,-809,-1502,-1181,1,7,11
1.42E+02,626,5378,-5139,-809,-1804,-1189,1,7,11
1.42E+02,214,5671,-4855,-796,-1892,-1201,1,7,11
1.42E+02,355,5716,-4832,-810,-1756,-1228,1,7,11
1.42E+02,-13,5732,-4798,-852,-2171,-1264,1,7,11
1.43E+02,-124,5757,-4772,-876,-2367,-1574,1,7,11
1.43E+02,18,5540,-4758,-664,-2580,-1620,1,7,11
1.43E+02,-311,5546,-4773,-742,-2542,-1652,1,7,11
1.43E+02,-129,5544,-4802,-1092,-2715,-1447,1,7,11
1.44E+02,-228,5563,-4822,-963,-3087,-1521,1,7,11
1.44E+02,-598,5570,-4816,-1363,-2950,-1855,1,7,11
1.44E+02,-422,5521,-4789,-1271,-3343,-1672,1,7,11
1.44E+02,-468,5692,-4764,-1615,-3449,-1721,1,7,11
1.45E+02,-802,5685,-4990,-1584,-3231,-1776,1,7,11
1.45E+02,-667,5742,-4954,-1538,-3237,-2093,1,7,11
1.45E+02,-766,5539,-4936,-1256,-3234,-2138,1,7,11
1.45E+02,-1127,5572,-4892,-1244,-3449,-2166,1,7,11
1.46E+02,-999,5617,-4590,-1224,-3371,-1927,1,7,11
1.46E+02,-1363,5937,-4562,-1184,-3042,-1923,1,7,11
1.46E+02,-1199,5977,-4533,-1182,-3187,-2148,1,7,11
1.46E+02,-1560,5970,-4723,-1192,-2782,-2074,1,7,11
1.47E+02,-1413,5921,-4632,-1182,-2883,-1732,1,7,11
1.47E+02,-1794,5938,-4315,-1348,-2477,-1911,1,7,11
1.47E+02,-1891,5983,-4290,-1011,-2602,-1838,1,7,11
1.47E+02,-1698,6006,-4268,-949,-2209,-1488,1,7,11
1.48E+02,-1788,5765,-4468,-904,-2039,-1661,1,7,11
1.48E+02,-2135,5776,-4406,-1128,-2147,-1588,1,7,11
1.48E+02,-1971,5776,-4082,-1119,-1770,-1538,1,7,11
1.48E+02,-2038,5772,-4044,-1094,-1681,-1248,1,7,11
1.49E+02,-2366,5789,-4025,-1066,-1834,-1248,1,7,11
1.49E+02,-2183,5850,-4039,-763,-1470,-1241,1,7,11
1.49E+02,-2276,5885,-4026,-1069,-1600,-1216,1,7,11
1.49E+02,-2619,5842,-4218,-913,-1235,-1164,1,7,11
1.50E+02,-2669,5816,-4186,-934,-1172,-1363,1,7,11
1.50E+02,-2454,5833,-4183,-932,-1328,-1292,1,7,11
1.50E+02,-2499,5791,-4136,-941,-923,-952,1,7,11
1.50E+02,-2826,5782,-3814,-1145,-755,-1125,1,7,11
1.51E+02,-2896,5798,-3958,-1121,-849,-1047,1,7,11
1.51E+02,-2934,5816,-3877,-1109,-464,-706,1,7,11
1.51E+02,-2744,5806,-3556,-1115,-610,-894,1,7,11
1.51E+02,-2784,5804,-3523,-1079,-537,-856,1,7,11
1.52E+02,-3085,5792,-3482,-1059,-215,-840,1,7,11
1.52E+02,-3112,5782,-3698,-742,-182,-831,1,7,11
1.52E+02,-3127,5994,-3648,-689,-183,-826,1,7,11
1.52E+02,-3179,5915,-3253,-421,-241,-837,1,7,11
1.53E+02,-3197,5910,-3447,-524,-562,-874,1,7,11
1.53E+02,-2988,5938,-3229,-355,-619,-684,1,7,11
1.53E+02,-2994,5905,-3224,4,-622,-1027,1,7,11
1.53E+02,-3077,5627,-3378,56,-246,-1103,1,7,11
1.54E+02,-3362,5911,-3346,275,-216,-1139,1,7,11
1.54E+02,-3370,5962,-3384,768,-585,-1146,1,7,11
1.54E+02,-3400,5941,-3393,746,-424,-1126,1,7,11
1.54E+02,-3455,5945,-3402,1023,-835,-1087,1,7,11
1.55E+02,-3231,5937,-3250,1265,-761,-761,1,7,11
1.55E+02,-3237,5604,-3640,1445,-1141,-686,1,7,11
1.55E+02,-3249,5527,-3533,1854,-955,-644,1,7,11
1.55E+02,-3240,5725,-3951,1726,-995,-866,1,7,11
1.56E+02,-3264,5753,-4128,1788,-957,-844,1,7,11
1.56E+02,-3298,5737,-3977,1680,-1103,-790,1,7,11
1.56E+02,-3607,5701,-4049,1506,-705,-484,1,7,11
1.56E+02,-3632,5660,-4364,1557,-843,-426,1,7,11
1.57E+02,-3648,5639,-4416,1347,-470,-638,1,7,11
1.57E+02,-3685,5364,-4428,1096,-586,-599,1,7,11
1.57E+02,-3480,5320,-4394,808,-205,-562,1,7,11
1.57E+02,-3510,5490,-4079,546,-135,-564,1,7,11
1.58E+02,-3537,5429,-4030,361,-382,-610,1,7,11
1.58E+02,-3549,5377,-3993,-36,-157,-413,1,7,11
1.58E+02,-3559,5089,-4217,104,-209,-481,1,7,11
1.58E+02,-3574,5068,-4201,24,-530,-807,1,7,11
1.59E+02,-3865,5077,-4190,-291,-613,-895,1,7,11
1.59E+02,-3882,5074,-4183,-346,-498,-683,1,7,11
1.59E+02,-3899,5074,-4199,-145,-830,-729,1,7,11
1.59E+02,-3899,5112,-4202,-221,-873,-750,1,7,11
1.60E+02,-3932,5393,-4200,-528,-871,-747,1,7,11
1.60E+02,-3720,5414,-4190,-624,-854,-728,1,7,11
1.60E+02,-3753,5105,-4138,-485,-815,-688,1,7,11
1.60E+02,-3795,5108,-4117,-788,-780,-663,1,7,11
1.61E+02,-4101,5389,-3834,-857,-484,-888,1,7,11
1.61E+02,-4139,5398,-3814,-654,-441,-842,1,7,11
1.61E+02,-4177,5381,-3750,-727,-395,-795,1,7,11
1.61E+02,-4189,5104,-3953,-767,-608,-501,1,7,11
1.62E+02,-4192,5116,-3920,-761,-572,-484,1,7,11
1.62E+02,-4198,5382,-3907,-756,-514,-474,1,7,11
1.62E+02,-4198,5396,-3906,-752,-166,-452,1,7,11
1.62E+02,-4195,5421,-3890,-756,-297,-419,1,7,11
1.63E+02,-4207,5440,-3860,-1030,77,-391,1,7,11
1.63E+02,-3980,5433,-3558,-1070,-76,-622,1,7,11
1.63E+02,-4005,5409,-3536,-1094,-22,-621,1,7,11
1.63E+02,-4025,5401,-3498,-1106,-4,-399,1,7,11
1.64E+02,-4051,5409,-3463,-1109,-12,-446,1,7,11
1.64E+02,-4083,5430,-3694,-1125,-39,-493,1,7,11
1.64E+02,-4372,5437,-3659,-906,-82,-787,1,7,11
1.64E+02,-4392,5427,-3620,-936,112,-808,1,7,11
1.65E+02,-4419,5428,-3587,-955,57,-816,1,7,11
1.65E+02,-4454,5426,-3275,-971,-265,-800,1,7,11
1.65E+02,-4244,5435,-3453,-984,-144,-775,1,7,11
1.65E+02,-4260,5447,-3436,-976,-243,-511,1,7,11
1.66E+02,-4276,5465,-3415,-963,-609,-769,1,7,11
1.66E+02,-4280,5466,-3405,-957,-457,-775,1,7,11
1.66E+02,-4286,5469,-3391,-974,-775,-811,1,7,11
1.66E+02,-4315,5480,-3334,-1283,-786,-861,1,7,11
1.67E+02,-4340,5495,-3016,-1372,-780,-669,1,7,11
1.67E+02,-4644,5499,-2951,-1222,-778,-741,1,7,11
1.67E+02,-4674,5503,-3153,-1571,-786,-1065,1,7,11
1.67E+02,-4702,5493,-3097,-1442,-770,-1142,1,7,11
1.68E+02,-4727,5255,-2797,-1486,-479,-917,1,7,11
1.68E+02,-4505,5273,-2764,-1504,-430,-913,1,7,11
1.68E+02,-4532,5287,-2732,-1488,-630,-1127,1,7,11
1.68E+02,-4559,5307,-2706,-1441,-561,-1054,1,7,11
1.69E+02,-4574,5316,-2937,-1631,-234,-696,1,7,11
1.69E+02,-4589,5324,-2899,-1541,-161,-827,1,7,11
1.69E+02,-4880,5336,-2849,-1188,-360,-441,1,7,11
1.69E+02,-4900,5330,-2548,-1338,-343,-575,1,7,11
1.70E+02,-4896,5328,-2523,-959,-348,-215,1,7,11
1.70E+02,-4899,5327,-2496,-1109,-346,-139,1,7,11
1.70E+02,-4893,5338,-2487,-755,-338,-344,1,7,11
1.70E+02,-4900,5353,-2459,-691,-308,-319,1,7,11
1.71E+02,-4924,5638,-2678,-671,-291,-320,1,7,11
1.71E+02,-4939,5670,-2649,-697,-291,-342,1,7,11
1.71E+02,-4951,5678,-2610,-1030,-310,-381,1,7,11
1.71E+02,-4955,5693,-2581,-1121,-346,-182,1,7,11
1.72E+02,-4959,5709,-2276,-978,-134,-240,1,7,11
1.72E+02,-4957,5725,-2232,-1359,-177,-546,1,7,11
1.72E+02,-4962,5741,-2197,-1221,-209,-578,1,7,11
1.72E+02,-4966,5756,-2420,-1586,-227,-587,1,7,11
1.73E+02,-4968,5741,-2362,-1426,-221,-568,1,7,11
1.73E+02,-4960,5743,-2343,-1472,-196,-544,1,7,11
1.73E+02,-4945,5734,-2308,-1513,-139,-528,1,7,11
1.73E+02,-4957,5723,-1984,-1525,-319,-521,1,7,11
1.74E+02,-4758,5741,-2143,-1497,-266,-543,1,7,11
1.74E+02,-4778,5510,-2104,-1452,37,-561,1,7,11
1.74E+02,-4804,5517,-1784,-1410,63,-576,1,7,11
1.74E+02,-4826,5527,-1754,-1554,70,-582,1,7,11
1.75E+02,-4855,5753,-1691,-1209,71,-590,1,7,11
1.75E+02,-5144,5751,-1673,-1306,43,-612,1,7,11
1.75E+02,-5166,5759,-1911,-1151,33,-631,1,7,11
1.75E+02,-5207,5758,-1881,-723,27,-624,1,7,11
1.76E+02,-5228,5531,-1907,-784,10,-584,1,7,11
1.76E+02,-4993,5545,-1911,-614,15,-244,1,7,11
1.76E+02,-5182,5594,-2071,-82,-279,328,1,7,11
1.76E+02,-5146,5539,-2080,-54,-101,145,1,7,11
1.77E+02,-5136,5535,-2105,269,297,171,1,7,11
1.77E+02,-4847,5509,-2109,337,142,178,1,7,11
1.77E+02,-4830,5510,-2108,173,207,153,1,7,11
1.77E+02,-4818,5753,-2118,225,243,377,1,7,11
1.78E+02,-4806,5728,-2126,520,514,319,1,7,11
1.78E+02,-4798,5727,-2153,547,245,-14,1,7,11
1.78E+02,-4799,5709,-1923,522,221,-90,1,7,11
1.78E+02,-4797,5729,-1967,246,173,104,1,7,11
1.79E+02,-4819,5511,-2006,171,140,67,1,7,11
1.79E+02,-4836,5523,-2029,298,355,61,1,7,11
1.79E+02,-4845,5536,-2307,-102,307,69,1,7,11
1.79E+02,-4849,5521,-2308,-267,277,80,1,7,11
1.80E+02,-4844,5508,-2312,-163,-4,85,1,7,11
1.80E+02,-4829,5510,-2328,-559,-10,86,1,7,11
1.80E+02,-4809,5510,-2343,-484,301,64,1,7,11
1.80E+02,-4824,5536,-1997,-688,141,40,1,7,11
1.81E+02,-4795,5565,-1986,-755,147,92,1,7,11
1.81E+02,-4826,5561,-2127,-1123,199,-121,1,7,11
1.81E+02,-4830,5569,-2091,-923,199,-114,1,7,11
1.81E+02,-4825,5598,-1776,-960,199,111,1,7,11
1.82E+02,-4827,5598,-1731,-977,210,77,1,7,11
1.82E+02,-4812,5605,-1703,-944,213,56,1,7,11
1.82E+02,-4822,5612,-1911,-1140,233,46,1,7,11
1.82E+02,-4819,5609,-1886,-1042,234,61,1,7,11
1.83E+02,-4826,5631,-1858,-654,213,78,1,7,11
1.83E+02,-4825,5919,-1855,-423,150,101,1,7,11
1.83E+02,-4813,5949,-1863,-545,359,-124,1,7,11
1.83E+02,-4785,5965,-1884,-182,307,-84,1,7,11
1.84E+02,-4755,5980,-1918,-364,275,-49,1,7,11
1.84E+02,-4966,5979,-1697,-325,266,-29,1,7,11
1.84E+02,-4932,5992,-1742,-297,290,-35,1,7,11
1.84E+02,-4917,5760,-1765,-304,336,-56,1,7,11
1.85E+02,-4911,5767,-1774,-345,367,-84,1,7,11
1.85E+02,-4897,5761,-1778,-381,364,-118,1,7,11
1.85E+02,-4888,5761,-1792,-151,348,97,1,7,11
1.85E+02,-4893,5989,-1781,-185,296,-258,1,7,11
1.86E+02,-4896,5964,-1774,-225,295,-278,1,7,11
1.86E+02,-4927,5935,-1749,-513,308,-332,1,7,11
1.86E+02,-4957,5907,-1727,-519,304,-349,1,7,11
1.86E+02,-4984,5631,-1717,-230,276,-354,1,7,11
1.87E+02,-4764,5629,-1707,-192,261,-347,1,7,11
1.87E+02,-4791,5892,-1686,-132,-18,-320,1,7,11
1.87E+02,-4802,5892,-1690,-345,-60,-276,1,7,11
1.87E+02,-4811,5893,-1688,-306,-98,26,1,7,11
1.88E+02,-4803,5894,-1698,-277,-123,68,1,7,11
1.88E+02,-4797,5903,-1695,6,121,102,1,7,11
1.88E+02,-4780,5909,-1704,35,100,-123,1,7,11
1.88E+02,-4764,5911,-1727,51,92,-106,1,7,11
1.89E+02,-4747,5918,-1730,55,110,-99,1,7,11
1.89E+02,-4738,5927,-1733,58,-122,-101,1,7,11
1.89E+02,-4989,5948,-1737,72,-106,-111,1,7,11
1.89E+02,-4986,5964,-1744,66,-87,-117,1,7,11
1.90E+02,-4984,5959,-1753,61,-78,-126,1,7,11
1.90E+02,-4976,5960,-1760,69,-70,117,1,7,11
1.90E+02,-4977,5965,-1769,84,-64,103,1,7,11
1.90E+02,-4982,5971,-1769,87,-55,92,1,7,11
1.91E+02,-4983,5976,-1771,96,-65,84,1,7,11
1.91E+02,-4981,5994,-2056,102,-83,85,1,7,11
1.91E+02,-4979,5995,-2072,80,-77,97,1,7,11
1.91E+02,-4975,5989,-2088,67,-62,112,1,7,11
1.92E+02,-4967,5975,-2061,38,-30,124,1,7,11
1.92E+02,-4960,5973,-2075,23,-16,-110,1,7,11
1.92E+02,-4938,5964,-2089,-266,-6,-102,1,7,11
1.92E+02,-4926,5942,-2089,-301,268,-98,1,7,11
1.93E+02,-4902,5911,-2077,-339,291,-105,1,7,11
1.93E+02,-4888,5894,-2060,-363,312,-124,1,7,11
1.93E+02,-4886,5898,-2056,-380,323,101,1,7,11
1.93E+02,-4895,5897,-2053,-141,314,69,1,7,11
1.94E+02,-4916,5914,-1790,-143,299,26,1,7,11
1.94E+02,-4952,5936,-1789,-143,264,-269,1,7,11
1.94E+02,-4963,5948,-2066,-129,-42,-305,1,7,11
1.94E+02,-4974,5959,-2074,-374,-63,-336,1,7,11
1.95E+02,-4989,5954,-2053,-354,-84,-353,1,7,11
1.95E+02,-4991,5953,-2050,-323,-123,-351,1,7,11
1.95E+02,-4992,5938,-1776,-302,113,-339,1,7,11
1.95E+02,-4991,5925,-1764,-271,91,-319,1,7,11
1.96E+02,-4750,5920,-1759,21,72,-287,1,7,11
1.96E+02,-4784,5931,-1726,123,-276,46,1,7,11
1.96E+02,-4764,5957,-1773,-101,-340,108,1,7,11
1.96E+02,-4759,5935,-1762,120,-345,-92,1,7,11
1.97E+02,-4738,5933,-1781,121,-348,-73,1,7,11
1.97E+02,-4967,5944,-2071,105,-310,-60,1,7,11
1.97E+02,-4970,5936,-2057,74,22,-58,1,7,11
1.97E+02,-4954,5966,-2069,68,77,-56,1,7,11
1.98E+02,-4954,6001,-2087,41,-119,-47,1,7,11
1.98E+02,-4951,6004,-2089,-263,-56,-30,1,7,11
1.98E+02,-4944,6006,-2080,-293,257,-7,1,7,11
1.98E+02,-4921,6000,-2058,-341,322,275,1,7,11
1.99E+02,-4905,5996,-1792,-361,337,280,1,7,11
1.99E+02,-4895,5976,-1774,-379,336,272,1,7,11
1.99E+02,-4905,5978,-1763,-378,318,-9,1,7,11
1.99E+02,-4909,5979,-1764,-378,283,-47,1,7,11
2.00E+02,-4902,5971,-1756,-376,-22,-89,1,7,11
2.00E+02,-4893,5955,-1756,-369,-66,122,1,7,11
2.00E+02,-4877,5936,-1756,-347,-103,72,1,7,11
2.00E+02,-4597,5928,-1783,-335,-118,13,1,7,11
2.01E+02,-4588,5923,-2057,-349,-90,-305,1,7,11
2.01E+02,-4599,5937,-2075,-354,-52,-340,1,7,11
2.01E+02,-4875,5963,-2089,-378,270,-348,1,7,11
2.01E+02,-4894,5999,-2099,-154,338,-325,1,7,11
2.02E+02,-4914,5765,-2125,-215,167,-285,1,7,11
2.02E+02,-4932,6009,-2089,-556,255,15,1,7,11
2.02E+02,-4950,5998,-1783,-616,568,44,1,7,11
2.02E+02,-4947,5989,-1780,-603,506,65,1,7,11
2.03E+02,-4947,5994,-1776,-588,194,77,1,7,11
2.03E+02,-4962,6002,-1771,-587,132,91,1,7,11
2.03E+02,-4963,5766,-1782,-586,318,104,1,7,11
2.03E+02,-4962,5769,-1791,-593,-10,121,1,7,11
2.04E+02,-4936,5782,-2065,-589,-81,-120,1,7,11
2.04E+02,-4911,5790,-2056,-606,-113,-97,1,7,11
2.04E+02,-4892,5808,-1790,-614,-126,-76,1,7,11
2.04E+02,-4889,5835,-2049,-386,-109,-57,1,7,11
2.05E+02,-4892,5840,-1771,-438,-84,-30,1,7,11
2.05E+02,-4894,5847,-1763,-458,-70,260,1,7,11
2.05E+02,-4895,5850,-1741,-471,-52,295,1,7,11
2.05E+02,-4902,5857,-1720,-483,-39,331,1,7,11
2.06E+02,-4894,5869,-1696,-492,-40,367,1,7,11
2.06E+02,-4884,5858,-1668,-505,-47,146,1,7,11
2.06E+02,-4876,5838,-1893,-498,-73,183,1,7,11
2.06E+02,-4604,5836,-1898,-467,-114,219,1,7,11
2.07E+02,-4594,5830,-1900,-438,113,523,1,7,11
2.07E+02,-4579,5837,-1675,-405,92,576,1,7,11
2.07E+02,-4583,5830,-1687,-398,85,384,1,7,11
2.07E+02,-4586,5831,-1721,-632,59,464,1,7,11
2.08E+02,-4608,5830,-1754,-399,65,798,1,7,11
2.08E+02,-4926,5786,-1715,-449,78,867,1,7,11
2.08E+02,-4975,5772,-1907,-447,18,668,1,7,11
2.08E+02,-4744,5789,-1847,-640,-376,738,1,7,11
2.09E+02,-4953,5847,-1822,-546,-573,1105,1,7,11
2.09E+02,-4877,6164,-1795,-201,-491,999,1,7,11
2.09E+02,-4524,6019,-1531,-350,-895,1171,1,7,11
2.09E+02,-4650,6134,-1522,-280,-750,1630,1,7,11
2.10E+02,-4276,6429,-1484,2,-1067,1825,1,7,11
2.10E+02,-4406,6481,-1468,53,-1096,1691,1,7,11
2.10E+02,-4061,6306,-1463,87,-1087,1735,1,7,11
2.10E+02,-4016,6365,-1650,79,-1057,1742,1,7,11
2.11E+02,-3990,6404,-1601,54,-1060,1717,1,7,11
2.11E+02,-4212,6688,-1542,33,-1100,1901,1,7,11
2.11E+02,-4001,6740,-1374,12,-918,1792,1,7,11
2.11E+02,-4174,6569,-1249,100,-1395,1479,1,7,11
2.12E+02,-4119,6580,-1543,-123,-1617,1432,1,7,11
2.12E+02,-3832,6547,-1240,-294,-1570,1608,1,7,11
2.12E+02,-3833,6553,-1197,-168,-1549,1251,1,7,11
2.12E+02,-3778,6538,-1188,-253,-1278,1184,1,7,11
2.13E+02,-3742,6543,-1164,-536,-1246,1376,1,7,11
2.13E+02,-3955,6550,-1405,-569,-1196,1314,1,7,11
2.13E+02,-3923,6561,-1384,-581,-1384,1008,1,7,11
2.13E+02,-3899,6588,-1366,-593,-1298,966,1,7,11
2.14E+02,-3873,6605,-1335,-608,-954,938,1,7,11
2.14E+02,-3581,6637,-1327,-618,-1120,930,1,7,11
2.14E+02,-3548,6918,-1305,-399,-754,944,1,7,11
2.14E+02,-3519,6953,-1286,-441,-895,977,1,7,11
2.15E+02,-3498,6971,-1013,-505,-780,1017,1,7,11
2.15E+02,-3464,6962,-990,-840,-415,1315,1,7,11
2.15E+02,-3705,6653,-921,-663,-560,1331,1,7,11
2.15E+02,-3680,6619,-1095,-684,-234,1314,1,7,11
2.16E+02,-3623,6940,-1050,-884,-224,1019,1,7,11
2.16E+02,-3276,6861,-1078,-809,-242,991,1,7,11
2.16E+02,-3430,7294,-1142,-820,-226,1009,1,7,11
2.16E+02,-3054,7142,-948,-889,-148,1327,1,7,11
2.17E+02,-3179,7444,-997,-703,-266,1153,1,7,11
2.17E+02,-2812,7167,-994,-1035,-46,1204,1,7,11
2.17E+02,-2754,7124,-951,-1061,212,1204,1,7,11
2.17E+02,-2767,7092,-1114,-1054,450,1389,1,7,11
2.18E+02,-3073,7111,-1037,-743,880,1009,1,7,11
2.18E+02,-2953,7146,-694,-723,750,1074,1,7,11
2.18E+02,-3395,7120,-811,-768,1051,821,1,7,11
2.18E+02,-3601,7107,-435,-755,715,521,1,7,11
2.19E+02,-3489,7082,-609,-713,771,-34,1,7,11
2.19E+02,-3549,7277,-572,-895,534,-290,1,7,11
2.19E+02,-3547,7207,-604,-778,328,-235,1,7,11
2.19E+02,-3497,6807,-621,-394,-52,-623,1,7,11
2.20E+02,-3674,7018,-622,-235,-90,-428,1,7,11
2.20E+02,-3601,6953,-612,-323,-59,-431,1,7,11
2.20E+02,-3293,6919,-624,93,258,-634,1,7,11
2.20E+02,-3244,6654,-409,-32,333,-543,1,7,11
2.21E+02,-3207,6930,-388,297,172,-182,1,7,11
2.21E+02,-3211,6985,-405,351,250,-332,1,7,11
2.21E+02,-3255,6928,-439,132,536,27,1,7,11
2.21E+02,-3292,7054,-499,362,252,-117,1,7,11
2.22E+02,-3313,7432,-825,-21,189,323,1,7,11
2.22E+02,-3291,7529,-658,127,163,185,1,7,11
2.22E+02,-3235,7534,-716,-262,182,549,1,7,11
2.22E+02,-3438,7488,-747,-346,238,622,1,7,11
2.23E+02,-3373,7159,-1034,-369,563,389,1,7,11
2.23E+02,-3062,7112,-1055,-332,388,612,1,7,11
2.23E+02,-3033,7077,-1042,-294,466,534,1,7,11
2.23E+02,-3028,7042,-762,16,503,169,1,7,11
2.24E+02,-3052,7047,-1045,108,487,285,1,7,11
2.24E+02,-3344,7052,-1089,-77,433,122,1,7,11
2.24E+02,-3369,7042,-1117,-11,609,-304,1,7,11
2.24E+02,-3385,7258,-1130,313,255,-218,1,7,11
2.25E+02,-3377,7213,-902,132,139,-629,1,7,11
2.25E+02,-3367,7175,-933,213,282,-496,1,7,11
2.25E+02,-3377,6904,-967,534,-68,-834,1,7,11
2.25E+02,-3386,6894,-1006,564,103,-869,1,7,11
2.26E+02,-3377,6873,-1292,560,28,-852,1,7,11
2.26E+02,-3068,7170,-1340,532,-297,-748,1,7,11
2.26E+02,-3046,7217,-1380,362,-348,-631,1,7,11
2.26E+02,-3047,7253,-1392,-120,-354,-242,1,7,11
2.27E+02,-3046,7249,-1378,-176,-363,-131,1,7,11
2.27E+02,-3330,7215,-1304,-507,-378,-340,1,7,11
2.27E+02,-3364,7200,-934,-1051,-183,-361,1,7,11
2.27E+02,-3406,7213,-1072,-1010,-555,-175,1,7,11
2.28E+02,-3456,7260,-722,-1163,-458,-535,1,7,11
2.28E+02,-3267,7290,-872,-1546,-894,-394,1,7,11
2.28E+02,-3327,7288,-505,-1623,-1084,-769,1,7,11
2.28E+02,-3645,7262,-636,-1611,-1288,-880,1,7,11
2.29E+02,-3679,7258,-555,-1239,-1237,-708,1,7,11
2.29E+02,-3685,7286,-517,-1314,-1659,-751,1,7,11
2.29E+02,-3668,7052,-513,-1116,-1508,-738,1,7,11
2.29E+02,-3623,7076,-527,-660,-1796,-671,1,7,11
2.30E+02,-3326,7101,-553,-487,-1488,-826,1,7,11
2.30E+02,-3294,7134,-576,-621,-1619,-449,1,7,11
2.30E+02,-3280,7133,-588,-561,-1182,-580,1,7,11
2.30E+02,-3281,7100,-564,-516,-972,-214,1,7,11
2.31E+02,-3312,7084,-557,-198,-754,-130,1,7,11
2.31E+02,-3591,7293,-545,-149,-800,-318,1,7,11
2.31E+02,-3588,7258,-551,-314,-603,-266,1,7,11
2.31E+02,-3327,7250,-606,43,-150,36,1,7,11
2.32E+02,-3585,7248,-386,124,59,78,1,7,11
2.32E+02,-3598,7258,-417,-69,274,115,1,7,11
2.32E+02,-3635,7247,-435,-50,218,-119,1,7,11
2.32E+02,-3675,7243,-443,-67,631,-110,1,7,11
2.33E+02,-3485,7221,-432,-122,485,-122,1,7,11
2.33E+02,-3521,7184,-432,53,795,102,1,7,11
2.33E+02,-3543,6882,-419,-296,801,24,1,7,11
2.33E+02,-3575,6840,-640,-384,777,-294,1,7,11
2.34E+02,-3878,6794,-600,-199,434,-359,1,7,11
2.34E+02,-3935,7025,-558,-253,588,-181,1,7,11
2.34E+02,-3729,6985,-241,-559,526,-274,1,7,11
2.34E+02,-3771,6921,-170,-622,132,-392,1,7,11
2.35E+02,-3817,6628,-363,-638,-125,-509,1,7,11
2.35E+02,-3840,6632,-337,-599,-320,-840,1,7,11
2.35E+02,-4113,6648,-331,-553,-222,-862,1,7,11
2.35E+02,-4132,6929,-321,-245,-594,-842,1,7,11
2.36E+02,-4145,6979,-330,-191,-418,-780,1,7,11
2.36E+02,-4168,7008,-322,-166,-457,-427,1,7,11
2.36E+02,-4190,6787,-323,-153,-466,-571,1,7,11
2.36E+02,-4204,6790,-310,-163,-461,-187,1,7,11
2.37E+02,-4209,6808,-312,-155,-443,-313,1,7,11
2.37E+02,-4208,6836,-331,-153,-402,61,1,7,11
2.37E+02,-4201,6865,-332,-160,-610,-78,1,7,11
2.37E+02,-4188,6906,-352,-163,-557,293,1,7,11
2.38E+02,-4160,7190,-351,-190,-237,158,1,7,11
2.38E+02,-4113,7230,-353,-197,-174,540,1,7,11
2.38E+02,-3816,7258,-339,-214,-354,407,1,7,11
2.38E+02,-3783,7271,-293,-241,-286,790,1,7,11
2.39E+02,-3720,7253,7,-515,13,654,1,7,11
2.39E+02,-3917,7225,34,-248,44,749,1,7,11
2.39E+02,-3863,7208,41,-200,68,1075,1,7,11
2.39E+02,-3537,7215,30,-138,87,1125,1,7,11
2.40E+02,-3478,7246,13,-331,124,902,1,7,11
2.40E+02,-3680,7268,-273,-295,-95,926,1,7,11
2.40E+02,-3621,7290,-316,-278,-66,954,1,7,11
2.40E+02,-3302,7041,-344,-285,-33,986,1,7,11
2.41E+02,-3255,7046,-370,-305,258,1009,1,7,11
2.41E+02,-3445,7053,-131,-329,285,1021,1,7,11
2.41E+02,-3383,7082,-173,-348,318,1022,1,7,11
2.41E+02,-3052,7107,-199,-158,363,1007,1,7,11
2.42E+02,-3020,7108,-195,-546,175,950,1,7,11
2.42E+02,-2995,7131,-184,-612,196,896,1,7,11
2.42E+02,-2965,7159,-179,-417,200,1103,1,7,11
2.42E+02,-2963,7428,-161,-473,216,1064,1,7,11
2.43E+02,-2985,7448,-383,-501,235,760,1,7,11
2.43E+02,-3003,7483,-349,-492,210,711,1,7,11
2.43E+02,-2993,7507,-333,-491,155,662,1,7,11
2.43E+02,-2990,7519,-317,-498,348,862,1,7,11
2.44E+02,-2986,7546,-346,-497,268,796,1,7,11
2.44E+02,-2955,7520,-354,-794,-70,485,1,7,11
2.44E+02,-3171,7521,-362,-782,124,427,1,7,11
2.44E+02,-3168,7548,-353,-800,71,626,1,7,11
2.45E+02,-3155,7527,-315,-852,4,589,1,7,11
2.45E+02,-3132,7528,-275,-877,-340,551,1,7,11
2.45E+02,-3111,7527,54,-659,-173,525,1,7,11
2.45E+02,-2810,7523,102,-694,-525,513,1,7,11
2.46E+02,-2743,7535,-106,-709,-607,517,1,7,11
2.46E+02,-2938,7542,-29,-722,-391,540,1,7,11
2.46E+02,-2878,7543,337,-737,-406,563,1,7,11
2.46E+02,-2857,7300,188,-737,-433,580,1,7,11
2.47E+02,-2850,7299,554,-733,-479,572,1,7,11
2.47E+02,-2845,7304,397,-704,-802,536,1,7,11
2.47E+02,-2842,7327,486,-890,-888,216,1,7,11
2.47E+02,-2821,7357,804,-798,-1036,136,1,7,11
2.48E+02,-2537,7392,867,-639,-1106,307,1,7,11
2.48E+02,-2529,7690,645,-520,-1146,-32,1,7,11
2.48E+02,-2544,7695,667,-174,-900,-117,1,7,11
2.48E+02,-2823,7414,726,-327,-904,46,1,7,11
2.49E+02,-2833,7419,749,68,-919,-306,1,7,11
2.49E+02,-2863,7684,766,-71,-914,-147,1,7,11
2.49E+02,-2896,7396,1039,289,-904,-243,1,7,11
2.49E+02,-2900,7375,1030,170,-907,-585,1,7,11
2.50E+02,-2892,7390,727,580,-1137,-389,1,7,11
2.50E+02,-2896,7689,675,463,-1073,-418,1,7,11
2.50E+02,-2901,7736,875,815,-726,-412,1,7,11
2.50E+02,-2893,7742,837,866,-874,-628,1,7,11
2.51E+02,-2849,7741,504,667,-512,-558,1,7,11
2.51E+02,-2560,7745,407,744,-604,-230,1,7,11
2.51E+02,-2851,7737,588,1062,-145,-184,1,7,11
2.51E+02,-2922,7702,536,1118,34,-171,1,7,11
2.52E+02,-2719,7383,239,933,-107,-196,1,7,11
2.52E+02,-2769,7334,159,1292,-47,-520,1,7,11
2.52E+02,-2785,7537,311,1154,-25,-608,1,7,11
2.52E+02,-2761,7519,-75,1554,266,-445,1,7,11
2.53E+02,-2750,7546,34,1422,345,-792,1,7,11
2.53E+02,-2751,7316,-340,1484,205,-870,1,7,11
2.53E+02,-2776,7321,-206,1496,596,-688,1,7,11
2.53E+02,-3073,7544,-518,1475,453,-756,1,7,11
2.54E+02,-3101,7529,-590,1441,796,-1080,1,7,11
2.54E+02,-3107,7458,-404,1649,872,-1148,1,7,11
2.54E+02,-3081,7132,-475,1609,700,-946,1,7,11
2.54E+02,-2782,7058,-789,1576,1074,-995,1,7,11
2.55E+02,-2780,7284,-849,1558,971,-1005,1,7,11
2.55E+02,-2803,7220,-659,1545,1388,-1018,1,7,11
2.55E+02,-3100,7189,-734,1265,1540,-1020,1,7,11
2.55E+02,-3195,6898,-1062,1226,1425,-1014,1,7,11
2.56E+02,-3011,6868,-1133,1186,1805,-1007,1,7,11
2.56E+02,-3361,6846,-957,1404,1706,-996,1,7,11
2.56E+02,-3203,6833,-1019,1329,1779,-991,1,7,11
2.56E+02,-3294,6821,-1328,1016,2071,-990,1,7,11
2.57E+02,-3636,6862,-1383,964,2064,-1000,1,7,11
2.57E+02,-3707,7180,-1162,1128,1759,-1287,1,7,11
2.57E+02,-3461,7187,-1192,738,1664,-1378,1,7,11
2.57E+02,-3636,6843,-1168,857,1814,-1591,1,7,11
2.58E+02,-3288,7009,-1378,804,1490,-1679,1,7,11
2.58E+02,-3204,6955,-1360,810,1467,-2350,1,7,11
2.58E+02,-3416,6641,-1372,839,1520,-2509,1,7,11
2.58E+02,-3436,6601,-1397,644,1901,-3127,1,7,11
2.59E+02,-3257,6558,-1186,696,2062,-3391,1,7,11
2.59E+02,-3652,6743,-1220,735,1984,-3297,1,7,11
2.59E+02,-3578,6665,-1263,1055,2372,-3627,1,7,11
2.59E+02,-3748,6341,-1589,1127,2180,-3629,1,7,11
2.60E+02,-4157,6526,-1412,944,2197,-3305,1,7,11
2.60E+02,-3998,6458,-1582,1005,2427,-3445,1,7,11
2.60E+02,-4068,6094,-1880,1286,2420,-3046,1,7,11
2.60E+02,-4388,6240,-1715,1337,2419,-3143,1,7,11
2.61E+02,-4440,6157,-2121,1156,2425,-2733,1,7,11
2.61E+02,-4248,5822,-1965,1231,2180,-2836,1,7,11
2.61E+02,-4296,5773,-2318,1547,2426,-2684,1,7,11
2.61E+02,-4334,5934,-2412,1601,2384,-2264,1,7,11
2.62E+02,-4338,5522,-2239,1418,2333,-2349,1,7,11
2.62E+02,-4329,5369,-2601,1835,2023,-1938,1,7,11
2.62E+02,-4296,5262,-2464,2093,1975,-2069,1,7,11
2.62E+02,-4480,5466,-2878,2426,1946,-1874,1,7,11
2.63E+02,-4389,5405,-2815,2518,1964,-1459,1,7,11
2.63E+02,-4046,5114,-3334,3155,2412,-1266,1,7,11
2.63E+02,-3998,5093,-3602,3289,2683,-1289,1,7,11
2.63E+02,-4026,5100,-3869,3878,2853,-1027,1,7,11
2.64E+02,-4367,5423,-4136,4110,3198,-475,1,7,11
2.64E+02,-4457,5272,-4397,4187,3289,-378,1,7,11
2.64E+02,-4332,5339,-4350,3767,3651,292,1,7,11
2.64E+02,-4655,5299,-4537,3628,3319,502,1,7,11
2.65E+02,-4618,5385,-4905,2550,3373,971,1,7,11
2.65E+02,-4251,5235,-4984,2344,3123,1658,1,7,11
2.65E+02,-4361,5139,-4768,1702,2880,1785,1,7,11
2.65E+02,-4192,4818,-4764,1650,2662,2377,1,7,11
2.66E+02,-3770,4791,-4992,1395,2219,2652,1,7,11
2.66E+02,-3864,4801,-4970,953,2307,2872,1,7,11
2.66E+02,-3712,4776,-4917,1024,2167,2780,1,7,11
2.66E+02,-3309,4752,-4602,655,1777,3131,1,7,11
2.67E+02,-3432,4761,-4582,868,1897,3163,1,7,11
2.67E+02,-3051,4757,-4559,820,1792,3146,1,7,11
2.67E+02,-2957,4988,-4519,796,1440,3077,1,7,11
2.67E+02,-3087,4765,-4547,823,1584,2703,1,7,11
2.68E+02,-2712,4820,-4591,829,1256,2820,1,7,11
2.68E+02,-2867,4858,-4890,790,1217,2676,1,7,11
2.68E+02,-2515,5184,-4971,485,1193,2275,1,7,11
2.68E+02,-2437,5228,-4765,605,1208,2392,1,7,11
2.69E+02,-2645,4996,-4786,183,1254,1995,1,7,11
2.69E+02,-2597,5090,-4822,309,1536,2108,1,7,11
2.69E+02,-2284,5282,-5182,-120,1572,1752,1,7,11
2.69E+02,-2252,5492,-5160,-173,1654,1712,1,7,11
2.70E+02,-2230,5407,-4826,-479,1491,1674,1,7,11
2.70E+02,-2212,5112,-4739,-685,1818,1885,1,7,11
2.70E+02,-2398,5417,-4986,-753,1528,1858,1,7,11
2.70E+02,-2311,5388,-4935,-1079,1508,1861,1,7,11
2.71E+02,-1932,5090,-4877,-761,1478,1894,1,7,11
2.71E+02,-1788,5073,-4588,-865,1461,1687,1,7,11
2.71E+02,-1896,5075,-4576,-640,1476,1744,1,7,11
2.71E+02,-1474,5108,-4601,-358,1503,2059,1,7,11
2.72E+02,-1580,5384,-4891,-106,1831,2120,1,7,11
2.72E+02,-1201,5408,-4943,377,1917,2162,1,7,11
2.72E+02,-1338,5449,-4760,564,1739,1923,1,7,11
2.72E+02,-992,5493,-4845,412,2088,2172,1,7,11
2.73E+02,-930,5262,-5159,414,2172,2142,1,7,11
2.73E+02,-1093,5292,-5234,621,1977,2108,1,7,11
2.73E+02,-762,5272,-5029,223,2333,2065,1,7,11
2.73E+02,-731,5493,-4995,307,2179,1734,1,7,11
2.74E+02,-653,5275,-5016,-20,2422,1877,1,7,11
2.74E+02,-833,5367,-5057,113,2412,1503,1,7,11
2.74E+02,-779,5658,-5025,-358,2418,1410,1,7,11
2.74E+02,-420,5647,-5231,-515,2350,1618,1,7,11
2.75E+02,-562,5375,-5186,-615,1987,1594,1,7,11
2.75E+02,-167,5635,-5175,-622,2104,1591,1,7,11
2.75E+02,-274,5366,-5184,-630,1746,1614,1,7,11
2.75E+02,97,5318,-5131,-608,1694,1408,1,7,11
2.76E+02,-11,5311,-4863,-240,1878,1486,1,7,11
2.76E+02,339,5291,-4829,-158,1870,1841,1,7,11
2.76E+02,343,5292,-4753,-316,1840,1882,1,7,11
2.76E+02,142,5338,-4793,78,1646,1869,1,7,11
2.77E+02,248,5363,-5130,112,1198,1814,1,7,11
2.77E+02,584,5340,-5146,79,1319,1488,1,7,11
2.77E+02,413,5338,-5162,54,905,1419,1,7,11
2.77E+02,501,5332,-5185,-257,767,1603,1,7,11
2.78E+02,813,5314,-5163,-314,657,1260,1,7,11
2.78E+02,877,5303,-5163,-333,799,1163,1,7,11
2.78E+02,668,5286,-5149,-343,449,1311,1,7,11
2.78E+02,701,5276,-5127,-338,630,948,1,7,11
2.79E+02,745,5270,-5127,-297,565,1111,1,7,11
2.79E+02,1056,5273,-5145,7,536,1024,1,7,11
2.79E+02,1098,5265,-5164,33,551,688,1,7,11
2.79E+02,932,5253,-5221,119,420,810,1,7,11
2.80E+02,932,5268,-5229,-104,505,479,1,7,11
2.80E+02,941,5275,-5239,-105,823,394,1,7,11
2.80E+02,933,5259,-5218,-125,869,568,1,7,11
2.80E+02,935,5486,-5202,127,881,241,1,7,11
2.81E+02,956,5458,-5179,-103,856,188,1,7,11
2.81E+02,969,5478,-5197,-53,819,139,1,7,11
2.81E+02,967,5489,-5196,-39,772,360,1,7,11
2.81E+02,953,5477,-5182,-48,445,327,1,7,11
2.82E+02,958,5458,-5181,-32,594,307,1,7,11
2.82E+02,982,5466,-5219,264,235,289,1,7,11
2.82E+02,991,5437,-5224,262,177,287,1,7,11
2.82E+02,1006,5407,-5229,296,373,283,1,7,11
2.83E+02,1021,5438,-4999,318,347,291,1,7,11
2.83E+02,1298,5406,-4995,283,346,310,1,7,11
2.83E+02,1307,5388,-5003,293,353,319,1,7,11
2.83E+02,1324,5385,-5027,302,368,331,1,7,11
2.84E+02,1329,5397,-5053,297,143,320,1,7,11
2.84E+02,1344,5389,-5048,-8,186,300,1,7,11
2.84E+02,1363,5389,-5046,-41,211,285,1,7,11
2.84E+02,1386,5106,-5034,-75,237,274,1,7,11
2.85E+02,1397,5092,-5035,-79,253,262,1,7,11
2.85E+02,1405,5081,-5036,-82,514,-6,1,7,11
2.85E+02,1165,5068,-5031,-79,249,-19,1,7,11
2.85E+02,1178,5097,-5056,-67,232,-34,1,7,11
2.86E+02,1173,5092,-5050,-114,220,-52,1,7,11
2.86E+02,1179,5084,-5055,115,188,-65,1,7,11
2.86E+02,1200,5073,-5060,88,151,-70,1,7,11
2.86E+02,1206,5046,-5051,67,364,-71,1,7,11
2.87E+02,1215,5055,-5039,77,316,-67,1,7,11
2.87E+02,1217,5046,-5037,60,275,-55,1,7,11
2.87E+02,1236,5070,-5066,64,-32,-40,1,7,11
2.87E+02,1244,5076,-5064,46,-81,-36,1,7,11
2.88E+02,1256,5078,-5065,36,-92,-41,1,7,11
2.88E+02,1273,5058,-5044,20,-114,-49,1,7,11
2.88E+02,1550,5039,-5034,9,-118,-55,1,7,11
2.88E+02,1576,5036,-5047,52,-100,-66,1,7,11
2.89E+02,1585,5023,-5058,62,-66,-77,1,7,11
2.89E+02,1584,5020,-5072,70,-33,-96,1,7,11
2.89E+02,1570,5018,-5079,70,-2,-108,1,7,11
2.89E+02,1550,5008,-5079,76,276,-118,1,7,11
2.90E+02,1543,5026,-5079,90,269,-128,1,7,11
2.90E+02,1550,5028,-5081,68,-7,121,1,7,11
2.90E+02,1563,4994,-5067,38,-33,116,1,7,11
2.90E+02,1571,5232,-5060,36,-51,112,1,7,11
2.91E+02,1565,5235,-5060,45,-61,115,1,7,11
2.91E+02,1566,5246,-5075,56,-75,114,1,7,11
2.91E+02,1562,4994,-5084,56,-95,111,1,7,11
2.91E+02,1557,5001,-5099,52,-110,101,1,7,11
2.92E+02,1547,4997,-5104,37,-127,88,1,7,11
2.92E+02,1549,4994,-5109,30,107,72,1,7,11
2.92E+02,1545,4998,-5111,21,107,64,1,7,11
2.92E+02,1539,5004,-5381,18,116,67,1,7,11
2.93E+02,1274,5019,-5384,0,-124,72,1,7,11
2.93E+02,1274,5004,-5378,-289,-111,82,1,7,11
2.93E+02,1270,5231,-5101,-310,-88,92,1,7,11
2.93E+02,1274,5213,-5098,-298,-69,100,1,7,11
2.94E+02,1538,5232,-5115,-277,-48,107,1,7,11
2.94E+02,1274,5002,-5115,-280,-23,114,1,7,11
2.94E+02,1261,5003,-5096,-296,-7,123,1,7,11
2.94E+02,1253,4994,-5075,-308,-17,-121,1,7,11
2.95E+02,1267,5243,-5063,-292,-50,-106,1,7,11
2.95E+02,1278,4993,-5070,-269,-86,-97,1,7,11
2.95E+02,1274,5008,-5070,2,-116,-91,1,7,11
2.95E+02,1277,4996,-5069,-260,114,-86,1,7,11
2.96E+02,1568,5242,-5076,4,81,-90,1,7,11
2.96E+02,1586,5244,-5095,12,59,-100,1,7,11
2.96E+02,1597,4993,-5108,27,55,124,1,7,11
2.96E+02,1599,5240,-5099,25,59,94,1,7,11
2.97E+02,1595,5207,-5081,10,56,70,1,7,11
2.97E+02,1598,5201,-5101,38,46,45,1,7,11
2.97E+02,1595,5207,-5385,83,62,23,1,7,11
2.97E+02,1577,5205,-5394,65,99,6,1,7,11
2.98E+02,1554,5215,-5395,51,-126,-260,1,7,11
2.98E+02,1276,5232,-5400,38,-107,-258,1,7,11
2.98E+02,1268,5243,-5383,10,-96,13,1,7,11
2.98E+02,1259,5243,-5108,-265,-100,30,1,7,11
2.99E+02,1262,5233,-5096,-268,-116,50,1,7,11
2.99E+02,1277,5223,-5091,-261,-128,69,1,7,11
2.99E+02,1543,5237,-5114,11,-122,89,1,7,11
2.99E+02,1276,5246,-5120,11,-100,106,1,7,11
3.00E+02,1261,5002,-5115,22,-90,117,1,7,11
3.00E+02,1259,5003,-5116,19,-104,115,1,7,11
3.00E+02,1270,4998,-5115,15,-126,105,1,7,11
3.00E+02,1273,5239,-5105,6,124,95,1,7,11
3.01E+02,1272,5217,-5090,2,-128,90,1,7,11
3.01E+02,1272,5213,-5094,18,-122,90,1,7,11
3.01E+02,1267,5226,-5084,27,-112,95,1,7,11
3.01E+02,1263,5234,-5095,42,-105,102,1,7,11
3.02E+02,1257,5233,-5103,36,-100,106,1,7,11
3.02E+02,1257,5224,-5102,38,-101,107,1,7,11
3.02E+02,1263,5218,-5115,48,-96,112,1,7,11
3.02E+02,1265,5212,-5389,58,-86,122,1,7,11
3.03E+02,1271,5215,-5397,65,-72,-122,1,7,11
3.03E+02,1270,5208,-5390,57,-53,-116,1,7,11
3.03E+02,1540,5183,-5389,37,-34,-99,1,7,11
3.03E+02,1546,5180,-5387,57,-21,-87,1,7,11
3.04E+02,1553,5188,-5406,69,-15,-78,1,7,11
3.04E+02,1565,5191,-5417,59,-8,-79,1,7,11
3.04E+02,1571,5190,-5423,48,-1,-84,1,7,11
3.04E+02,1568,5190,-5427,32,257,-98,1,7,11
3.05E+02,1563,5186,-5420,19,-11,-104,1,7,11
3.05E+02,1567,5186,-5407,14,-34,-101,1,7,11
3.05E+02,1573,5181,-5404,8,-59,-92,1,7,11
3.05E+02,1585,5182,-5411,10,-79,-79,1,7,11
3.06E+02,1599,5171,-5411,5,-91,-70,1,7,11
3.06E+02,1610,5159,-5401,8,-93,-63,1,7,11
3.06E+02,1624,5161,-5413,27,-91,-58,1,7,11
3.06E+02,1624,5166,-5413,33,-81,-51,1,7,11
3.07E+02,1619,5160,-5406,38,-79,-50,1,7,11
3.07E+02,1621,5165,-5410,47,-74,-52,1,7,11
3.07E+02,1626,5152,-5409,41,-67,-62,1,7,11
3.07E+02,1626,5155,-5420,51,-60,-75,1,7,11
3.08E+02,1634,5140,-5424,43,-49,-84,1,7,11
3.08E+02,1640,5139,-5427,56,-44,-91,1,7,11
3.08E+02,1639,5135,-5434,47,-29,-95,1,7,11
3.08E+02,1639,5131,-5422,43,-22,-100,1,7,11
3.09E+02,1636,5134,-5418,35,-22,-105,1,7,11
3.09E+02,1636,4862,-5416,22,-32,-110,1,7,11
3.09E+02,1649,4856,-5427,26,-42,-111,1,7,11
3.09E+02,1663,5130,-5438,30,-33,-106,1,7,11
3.10E+02,1647,5108,-5422,-258,-4,-96,1,7,11
3.10E+02,1621,5122,-5429,-263,-2,-89,1,7,11
3.10E+02,1618,5137,-5442,1,-26,-90,1,7,11
3.10E+02,1618,5140,-5434,-289,-56,-86,1,7,11
3.11E+02,1612,5133,-5416,-309,-87,-78,1,7,11
3.11E+02,1620,5130,-5406,-301,-122,-66,1,7,11
3.11E+02,1627,5139,-5408,-288,109,-53,1,7,11
3.11E+02,1632,5150,-5405,-274,94,-37,1,7,11
3.12E+02,1647,5151,-5416,-269,86,-27,1,7,11
3.12E+02,1662,5142,-5427,-268,95,-26,1,7,11
3.12E+02,1424,5137,-5435,-258,113,-36,1,7,11
3.12E+02,1434,5139,-5430,-259,-111,-50,1,7,11
3.13E+02,1434,5125,-5420,-266,-72,-63,1,7,11
3.13E+02,1438,4854,-5405,2,-34,-73,1,7,11
3.13E+02,1444,4848,-5398,16,-3,-81,1,7,11
3.13E+02,1451,4847,-5407,30,276,-79,1,7,11
3.14E+02,1448,4831,-5406,44,299,-79,1,7,11
3.14E+02,1449,4845,-5431,62,303,-83,1,7,11
3.14E+02,1454,4842,-5449,59,303,-92,1,7,11
3.14E+02,1459,4846,-5463,50,303,-105,1,7,11
3.15E+02,1456,4842,-5452,28,305,-116,1,7,11
3.15E+02,1456,4838,-5448,13,295,-123,1,7,11
3.15E+02,1473,4829,-5456,3,281,126,1,7,11
3.15E+02,1485,4821,-5460,-260,277,118,1,7,11
3.16E+02,1481,4815,-5456,-263,279,109,1,7,11
3.16E+02,1477,4817,-5450,-259,278,105,1,7,11
3.16E+02,1469,4836,-5459,4,273,105,1,7,11
3.16E+02,1465,4847,-5460,-267,265,106,1,7,11
3.17E+02,1469,4838,-5458,-288,-3,111,1,7,11
3.17E+02,1490,4829,-5458,-298,-10,123,1,7,11
3.17E+02,1498,4819,-5444,-295,-3,-117,1,7,11
3.17E+02,1503,4814,-5437,-288,260,-103,1,7,11
3.18E+02,1511,4820,-5445,-273,266,-91,1,7,11
3.18E+02,1518,4822,-5441,-274,268,-84,1,7,11
3.18E+02,1527,4823,-5432,-276,270,-84,1,7,11
3.18E+02,1795,4823,-5439,-269,267,-86,1,7,11
3.19E+02,1804,4831,-5425,-274,267,-97,1,7,11
3.19E+02,1816,4819,-5429,-276,260,-107,1,7,11
3.19E+02,1817,4810,-5415,-279,261,-117,1,7,11
3.19E+02,1814,4797,-5402,-282,-4,-128,1,7,11
3.20E+02,1825,4812,-5407,-260,-29,125,1,7,11
3.20E+02,1841,4819,-5426,12,-48,126,1,7,11
3.20E+02,1834,4825,-5445,14,-47,121,1,7,11
3.20E+02,1825,4835,-5460,17,-41,99,1,7,11
3.21E+02,1825,4832,-5450,0,-51,78,1,7,11
3.21E+02,1823,4822,-5440,-278,-62,68,1,7,11
3.21E+02,1823,4801,-5434,-294,-70,50,1,7,11
3.21E+02,1816,4796,-5424,-296,-71,43,1,7,11
3.22E+02,1803,4808,-5428,-285,-75,39,1,7,11
3.22E+02,1803,4812,-5421,-289,-77,40,1,7,11
3.22E+02,1803,4820,-5425,-293,-70,41,1,7,11
3.22E+02,1801,4820,-5423,-302,-57,38,1,7,11
3.23E+02,1801,4816,-5422,-301,-47,35,1,7,11
3.23E+02,1797,4819,-5416,-296,-37,34,1,7,11
3.23E+02,1797,4809,-5426,-293,-29,35,1,7,11
3.23E+02,1535,4814,-5426,-286,-15,36,1,7,11
3.24E+02,1533,4828,-5420,-285,-12,40,1,7,11
3.24E+02,1798,4821,-5418,-293,-18,52,1,7,11
3.24E+02,1806,4798,-5407,-290,-19,69,1,7,11
3.24E+02,1818,4822,-5431,-264,-24,76,1,7,11
3.25E+02,1831,4826,-5432,-274,-17,77,1,7,11
3.25E+02,1833,4813,-5421,-286,-14,75,1,7,11
3.25E+02,1833,4816,-5417,-286,-19,72,1,7,11
3.25E+02,1839,4808,-5404,-286,-33,70,1,7,11
3.26E+02,1851,4810,-5417,-272,-45,69,1,7,11
3.26E+02,1856,4809,-5423,-267,-50,66,1,7,11
3.26E+02,1854,4797,-5420,-265,-55,63,1,7,11
3.26E+02,1856,4798,-5419,-258,-61,59,1,7,11
3.27E+02,1866,4795,-5436,4,-70,56,1,7,11
3.27E+02,1865,4816,-5457,3,-70,51,1,7,11
3.27E+02,1856,4816,-5452,-280,-65,52,1,7,11
3.27E+02,1847,4818,-5445,-297,-71,50,1,7,11
3.28E+02,1842,4816,-5443,-314,-81,49,1,7,11
3.28E+02,1847,4814,-5439,-327,-92,41,1,7,11
3.28E+02,1851,4809,-5427,-334,-98,37,1,7,11
3.28E+02,1848,4813,-5417,-332,-98,32,1,7,11
3.29E+02,1848,4808,-5409,-323,-97,25,1,7,11
3.29E+02,1844,4814,-5409,-306,-93,14,1,7,11
3.29E+02,1834,4808,-5403,-298,-89,1,1,7,11
3.29E+02,1836,4810,-5405,-278,-87,-263,1,7,11
3.30E+02,1841,4811,-5400,-257,-72,-263,1,7,11
3.30E+02,1831,4810,-5407,8,-54,-260,1,7,11
3.30E+02,1827,4809,-5405,16,-45,-259,1,7,11
3.30E+02,1822,4822,-5418,17,-47,-257,1,7,11
3.31E+02,1830,4826,-5427,7,-50,-259,1,7,11
3.31E+02,1844,4822,-5434,2,-50,-264,1,7,11
3.31E+02,1840,4819,-5429,-270,-41,-276,1,7,11
3.31E+02,1846,4823,-5432,-275,-49,-290,1,7,11
3.32E+02,1841,4846,-5430,-289,-56,-294,1,7,11
3.32E+02,1815,4857,-5425,-321,-67,-281,1,7,11
3.32E+02,1797,5126,-5445,-372,-97,18,1,7,11
3.32E+02,1511,5127,-5445,-172,126,51,1,7,11
3.33E+02,1488,5125,-5455,-225,67,88,1,7,11
3.33E+02,1465,4859,-5453,-549,4,122,1,7,11
3.33E+02,1460,4833,-5421,-594,-329,-103,1,7,11
3.33E+02,1488,4824,-5409,-602,-145,-80,1,7,11
3.34E+02,1521,4811,-5399,-589,-189,-66,1,7,11
3.34E+02,1817,4807,-5393,-539,-213,-65,1,7,11
3.34E+02,1859,4831,-5404,-236,-214,-84,1,7,11
3.34E+02,1897,4828,-5411,-236,-187,-124,1,7,11
3.35E+02,1907,4809,-5402,-239,-144,64,1,7,11
3.35E+02,1911,4825,-5421,-200,-130,-277,1,7,11
3.35E+02,1902,5120,-5445,-200,-368,-381,1,7,11
3.35E+02,1873,5141,-5431,-237,-364,-244,1,7,11
3.36E+02,1518,5179,-5113,-565,-198,-792,1,7,11
3.36E+02,1479,5190,-5089,-575,-521,-843,1,7,11
3.36E+02,1435,5194,-5071,-576,-596,-883,1,7,11
3.36E+02,1657,5202,-5066,-570,-422,-666,1,7,11
3.37E+02,1618,5217,-5066,-567,-490,-695,1,7,11
3.37E+02,1556,5233,-5055,-571,-812,-727,1,7,11
3.37E+02,1269,4993,-5073,-573,-648,-759,1,7,11
3.37E+02,1224,5238,-5051,-601,-728,-1055,1,7,11
3.38E+02,1175,5246,-5072,-598,-1071,-1107,1,7,11
3.38E+02,1383,5004,-5085,-608,-1130,-911,1,7,11
3.38E+02,1318,5033,-5096,-627,-931,-1014,1,7,11
3.38E+02,1001,5068,-5110,-398,-1014,-1337,1,7,11
3.39E+02,906,5085,-5079,-458,-1320,-1155,1,7,11
3.39E+02,1075,5112,-5055,-526,-1171,-1221,1,7,11
3.39E+02,753,5402,-5045,-795,-1571,-1273,1,7,11
3.39E+02,685,5451,-5043,-804,-1455,-1554,1,7,11
3.40E+02,841,5475,-5020,-852,-1825,-1564,1,7,11
3.40E+02,465,5483,-5220,-650,-1693,-1573,1,7,11
3.40E+02,622,5253,-5185,-651,-2138,-1580,1,7,11
3.40E+02,550,5273,-5163,-892,-2340,-1579,1,7,11
3.41E+02,231,5282,-5140,-883,-2254,-1587,1,7,11
3.41E+02,170,5304,-5163,-846,-2664,-1598,1,7,11
3.41E+02,349,5311,-5179,-842,-2532,-1644,1,7,11
3.41E+02,265,5340,-5188,-832,-2911,-1473,1,7,11
3.42E+02,-67,5360,-5203,-867,-2764,-1838,1,7,11
3.42E+02,77,5352,-5179,-680,-3097,-1711,1,7,11
3.42E+02,-304,5351,-5162,-728,-3186,-2105,1,7,11
3.42E+02,-157,5301,-5153,-1038,-3035,-1990,1,7,11
3.43E+02,-525,5496,-5134,-1062,-3379,-2416,1,7,11
3.43E+02,-630,5435,-4842,-1040,-3447,-2628,1,7,11
3.43E+02,-465,5395,-4792,-699,-3249,-2903,1,7,11
3.43E+02,-823,5451,-4765,-807,-3260,-2969,1,7,11
3.44E+02,-699,5274,-4986,-451,-3213,-3266,1,7,11
3.44E+02,-1084,5340,-4742,-636,-3402,-3492,1,7,11
3.44E+02,-982,5640,-4792,-611,-3018,-3893,1,7,11
3.44E+02,-1174,5663,-4802,-397,-3086,-3746,1,7,11
3.45E+02,-1423,5691,-4774,-459,-2890,-3815,1,7,11
3.45E+02,-1688,5718,-4973,-506,-2481,-3822,1,7,11
3.45E+02,-1948,5752,-4910,-824,-2636,-3789,1,7,11
3.45E+02,-2235,5528,-4559,-666,-2566,-3729,1,7,11
3.46E+02,-2479,5547,-4728,-1049,-2302,-3875,1,7,11
3.46E+02,-2926,5539,-4591,-968,-2561,-3474,1,7,11
3.46E+02,-3091,5733,-4229,-1393,-2571,-3302,1,7,11
3.46E+02,-2986,5335,-4404,-1215,-2437,-3002,1,7,11
3.47E+02,-3051,5287,-4380,-1161,-2524,-2776,1,7,11
3.47E+02,-3386,5308,-4393,-1321,-2825,-2524,1,7,11
3.47E+02,-3224,5304,-4380,-987,-2852,-2233,1,7,11
3.47E+02,-3289,5475,-4368,-923,-2889,-1924,1,7,11
3.48E+02,-3592,5102,-4071,-1103,-2883,-1897,1,7,11
3.48E+02,-3655,5037,-4037,-746,-2827,-1420,1,7,11
3.48E+02,-3484,5038,-4005,-643,-2511,-1270,1,7,11
3.48E+02,-3575,5066,-4218,-819,-2470,-1159,1,7,11
3.49E+02,-3905,5089,-4176,-777,-2451,-1333,1,7,11
3.49E+02,-3723,5401,-4133,-496,-2688,-1015,1,7,11
3.49E+02,-3793,5437,-3791,-506,-2435,-948,1,7,11
3.49E+02,-3833,5462,-3745,-788,-2436,-1147,1,7,11
3.50E+02,-4148,5476,-3921,-853,-2653,-1118,1,7,11
3.50E+02,-4205,5473,-3582,-657,-2603,-1122,1,7,11
3.50E+02,-3987,5479,-3526,-704,-2288,-907,1,7,11
3.50E+02,-4007,5478,-3472,-753,-2198,-961,1,7,11
3.51E+02,-3979,5496,-3459,-757,-2319,-994,1,7,11
3.51E+02,-3980,5435,-3635,-1045,-2100,-1020,1,7,11
3.51E+02,-4223,5103,-3317,-748,-1861,-1298,1,7,11
3.51E+02,-3993,5010,-3220,-709,-1592,-1343,1,7,11
3.52E+02,-4051,5152,-3361,-654,-1336,-1163,1,7,11
3.52E+02,-4428,4852,-3032,-812,-1126,-1555,1,7,11
3.52E+02,-4347,4860,-2972,-477,-732,-1468,1,7,11
3.52E+02,-4508,5170,-2966,-430,-683,-1889,1,7,11
3.53E+02,-4894,5183,-2963,-436,-681,-1765,1,7,11
3.53E+02,-4738,5152,-2952,-471,-694,-2121,1,7,11
3.53E+02,-4847,5168,-2986,-481,-710,-1929,1,7,11
3.53E+02,-5150,5153,-2994,-806,-707,-1923,1,7,11
3.54E+02,-5213,4836,-2978,-834,-675,-2105,1,7,11
3.54E+02,-5034,4757,-3198,-820,-879,-1732,1,7,11
3.54E+02,-5103,4972,-3180,-509,-831,-1868,1,7,11
3.54E+02,-5430,4954,-3146,-476,-789,-1511,1,7,11
3.55E+02,-5459,4968,-3154,-446,-785,-1419,1,7,11
3.55E+02,-5463,4985,-3180,-477,-501,-1573,1,7,11
3.55E+02,-5460,4989,-2965,-824,-419,-1203,1,7,11
3.55E+02,-5438,4978,-3021,-670,-566,-1329,1,7,11
3.56E+02,-5415,4973,-3042,-1043,-138,-930,1,7,11
3.56E+02,-5391,4951,-3052,-1146,99,-1052,1,7,11
3.56E+02,-5403,4887,-3014,-1294,377,-657,1,7,11
3.56E+02,-5457,4886,-3003,-1358,384,-824,1,7,11
3.57E+02,-5491,4594,-2954,-1212,884,-485,1,7,11
3.57E+02,-5274,4585,-3155,-1540,1087,-398,1,7,11
3.57E+02,-5293,4598,-3111,-1563,951,-613,1,7,11
3.57E+02,-5335,4888,-2799,-1579,1288,-579,1,7,11
3.58E+02,-5355,4909,-2759,-1591,1002,-527,1,7,11
3.58E+02,-5358,4931,-2719,-1581,906,-207,1,7,11
3.58E+02,-5360,4938,-2930,-1567,1031,-136,1,7,11
3.58E+02,-5354,4949,-2893,-1264,857,-317,1,7,11
3.59E+02,-5349,4957,-2864,-1218,415,16,1,7,11
3.59E+02,-5334,4960,-2834,-1163,230,97,1,7,11
3.59E+02,-5304,4956,-2551,-1366,304,-82,1,7,11
3.59E+02,-5289,4989,-2533,-1293,-111,-33,1,7,11
3.60E+02,-5294,4798,-2514,-1007,6,-7,1,7,11
3.60E+02,-5289,4853,-2478,-1024,-381,273,1,7,11
3.60E+02,-5280,5154,-2459,-1323,-228,298,1,7,11
3.60E+02,-5266,5162,-2663,-1405,-555,318,1,7,11
3.61E+02,-5259,5135,-2594,-1214,-596,319,1,7,11
3.61E+02,-5253,5133,-2278,-1242,-620,299,1,7,11
3.61E+02,-5261,5143,-2219,-1253,-630,268,1,7,11
3.61E+02,-5268,5168,-2416,-1261,-624,-25,1,7,11
3.62E+02,-5286,5204,-2333,-1538,-602,-49,1,7,11
3.62E+02,-5287,5212,-2045,-1554,-571,-56,1,7,11
3.62E+02,-5277,5237,-1992,-1560,-524,-53,1,7,11
3.62E+02,-5253,5031,-2173,-1576,-198,-21,1,7,11
3.63E+02,-5489,5032,-2122,-1573,-383,269,1,7,11
3.63E+02,-5496,5067,-2087,-1242,-343,302,1,7,11
3.63E+02,-5482,5054,-1778,-1218,-314,352,1,7,11
3.63E+02,-5471,5059,-1759,-1404,-300,379,1,7,11
3.64E+02,-5458,5078,-1748,-1311,-302,376,1,7,11
3.64E+02,-5439,5104,-1743,-958,-311,326,1,7,11
3.64E+02,-5417,5401,-1742,-1106,-326,276,1,7,11
3.64E+02,-5419,5471,-1739,-737,-315,-34,1,7,11
3.65E+02,-5417,5300,-1737,-649,-308,-83,1,7,11
3.65E+02,-5393,5370,-1732,-849,-305,-113,1,7,11
3.65E+02,-5118,5684,-1721,-841,-282,-128,1,7,11
3.65E+02,-5098,5735,-1729,-844,20,-126,1,7,11
3.66E+02,-5068,5517,-1723,-849,90,-100,1,7,11
3.66E+02,-5037,5542,-1716,-855,-69,-55,1,7,11
3.66E+02,-5000,5553,-1710,-857,310,263,1,7,11
3.66E+02,-5231,5546,-1714,-861,196,334,1,7,11
3.67E+02,-5207,5521,-1707,-847,596,149,1,7,11
3.67E+02,-5202,5505,-1703,-811,476,199,1,7,11
3.67E+02,-5182,5741,-1700,-772,843,228,1,7,11
3.67E+02,-5171,5735,-1705,-463,672,243,1,7,11
3.68E+02,-5154,5754,-1724,-399,722,254,1,7,11
3.68E+02,-5154,5510,-1741,-619,755,518,1,7,11
3.68E+02,-5154,5509,-1747,-585,759,522,1,7,11
3.68E+02,-5146,5514,-1768,-537,725,522,1,7,11
3.69E+02,-5128,5519,-1792,-231,679,519,1,7,11
3.69E+02,-4856,5526,-2076,-178,883,249,1,7,11
3.69E+02,-4833,5546,-2101,-135,833,231,1,7,11
3.69E+02,-4808,5557,-2133,-357,783,209,1,7,11
3.70E+02,-4789,5558,-2146,-344,482,183,1,7,11
3.70E+02,-4771,5548,-2149,-329,430,152,1,7,11
3.70E+02,-4751,5542,-2154,-310,629,362,1,7,11
3.70E+02,-4989,5561,-2175,-291,545,277,1,7,11
3.71E+02,-4978,5576,-1942,-303,244,-27,1,7,11
3.71E+02,-4970,5573,-1950,-334,213,-70,1,7,11
3.71E+02,-4970,5586,-1955,-370,192,-110,1,7,11
3.71E+02,-4972,5587,-1952,-162,175,120,1,7,11
3.72E+02,-4975,5588,-1952,-206,156,99,1,7,11
3.72E+02,-4976,5593,-1943,-250,145,86,1,7,11
3.72E+02,-4972,5602,-1943,-544,140,75,1,7,11
3.72E+02,-4974,5594,-1928,-574,142,69,1,7,11
3.73E+02,-4973,5595,-1921,-588,142,66,1,7,11
3.73E+02,-4978,5597,-2150,-600,146,61,1,7,11
3.73E+02,-4983,5598,-2129,-585,138,54,1,7,11
3.73E+02,-4992,5602,-2113,-559,380,44,1,7,11
3.74E+02,-4988,5601,-2102,-518,360,36,1,7,11
3.74E+02,-4987,5604,-2089,-211,351,27,1,7,11
3.74E+02,-4987,5601,-2081,-161,348,17,1,7,11
3.74E+02,-4988,5617,-2080,-364,342,-258,1,7,11
3.75E+02,-4988,5895,-2087,-320,341,-273,1,7,11
3.75E+02,-4988,5898,-2094,-300,340,-285,1,7,11
3.75E+02,-4989,5888,-2112,-281,346,-296,1,7,11
3.75E+02,-4992,5619,-2112,0,359,-306,1,7,11
3.76E+02,-4745,5603,-2121,27,375,-308,1,7,11
3.76E+02,-4754,5607,-2137,56,132,-307,1,7,11
3.76E+02,-4769,5619,-2144,72,142,-296,1,7,11
3.76E+02,-4779,5626,-2153,78,152,-273,1,7,11
3.77E+02,-4794,5619,-2148,70,155,0,1,7,11
3.77E+02,-4800,5616,-2152,68,141,21,1,7,11
3.77E+02,-4802,5609,-2165,71,376,47,1,7,11
3.77E+02,-4813,5615,-1922,82,363,75,1,7,11
3.78E+02,-4830,5616,-1928,80,351,107,1,7,11
3.78E+02,-4834,5608,-1939,91,331,-109,1,7,11
3.78E+02,-4830,5627,-1957,123,303,-62,1,7,11
3.78E+02,-4822,5902,-1985,-105,288,262,1,7,11
3.79E+02,-4808,5904,-2003,-82,281,351,1,7,11
3.79E+02,-4796,5894,-2020,-60,282,191,1,7,11
3.79E+02,-4778,5609,-2031,-27,279,548,1,7,11
3.79E+02,-4755,5574,-2040,282,269,636,1,7,11
3.80E+02,-4740,5579,-2045,368,-8,442,1,7,11
3.80E+02,-4970,5612,-2324,188,-49,497,1,7,11
3.80E+02,-4924,5894,-2344,223,-84,809,1,7,11
3.80E+02,-4868,5920,-2346,234,-108,857,1,7,11
3.81E+02,-4555,5956,-2365,230,-123,893,1,7,11
3.81E+02,-4736,5965,-2376,197,-120,666,1,7,11
3.81E+02,-4671,5972,-2384,193,-95,688,1,7,11
3.81E+02,-4621,5765,-2403,200,-48,707,1,7,11
3.82E+02,-4334,5793,-2404,181,262,740,1,7,11
3.82E+02,-4300,5769,-2396,158,292,1045,1,7,11
3.82E+02,-4269,5995,-2408,183,310,1088,1,7,11
3.82E+02,-4254,5972,-2416,244,322,1115,1,7,11
3.83E+02,-4259,5998,-2431,602,312,1127,1,7,11
3.83E+02,-4251,5781,-2208,434,273,1134,1,7,11
3.83E+02,-4466,5795,-2257,503,-37,901,1,7,11
3.83E+02,-4446,5766,-2298,803,-55,932,1,7,11
3.84E+02,-4452,5929,-2304,834,-64,972,1,7,11
3.84E+02,-4461,5579,-2579,659,127,996,1,7,11
3.84E+02,-4249,5537,-2605,746,69,1009,1,7,11
3.84E+02,-4315,5565,-2639,1064,-266,1283,1,7,11
3.85E+02,-4654,5607,-2653,1036,-373,1304,1,7,11
3.85E+02,-4718,5895,-2663,668,-525,1328,1,7,11
3.85E+02,-4503,5941,-2673,502,-431,1341,1,7,11
3.85E+02,-4540,5983,-2662,522,-836,1333,1,7,11
3.86E+02,-4548,6005,-2640,-18,-728,1304,1,7,11
3.86E+02,-4557,5775,-2623,-296,-1123,999,1,7,11
3.86E+02,-4548,5789,-2605,-569,-987,945,1,7,11
3.86E+02,-4521,5789,-2299,-806,-1336,1147,1,7,11
3.87E+02,-4490,5833,-2243,-712,-1165,1087,1,7,11
3.87E+02,-4694,6160,-2432,-1104,-1245,1036,1,7,11
3.87E+02,-4617,6211,-2366,-961,-1567,740,1,7,11
3.87E+02,-4246,6231,-2048,-1002,-1604,712,1,7,11
3.88E+02,-4371,6234,-1998,-961,-1574,688,1,7,11
3.88E+02,-3982,6248,-1958,-1076,-1197,659,1,7,11
3.88E+02,-4138,6040,-2161,-877,-1002,862,1,7,11
3.88E+02,-3794,6111,-2120,-400,-1043,798,1,7,11
3.89E+02,-3956,6438,-2103,-191,-826,468,1,7,11
3.89E+02,-3870,6484,-2076,-286,-594,637,1,7,11
3.89E+02,-3541,6508,-2070,105,-377,527,1,7,11
3.89E+02,-3496,6510,-2056,-50,90,149,1,7,11
3.90E+02,-3464,6273,-2086,323,263,296,1,7,11
3.90E+02,-3689,6518,-2159,158,162,-32,1,7,11
3.90E+02,-3676,6509,-1995,253,570,-77,1,7,11
3.90E+02,-3512,6289,-2245,522,884,-74,1,7,11
3.91E+02,-3546,6275,-2290,206,871,-47,1,7,11
3.91E+02,-3584,6524,-2571,139,798,-31,1,7,11
3.91E+02,-3866,6512,-2589,324,419,-29,1,7,11
3.91E+02,-3894,6493,-2597,-1,520,-47,1,7,11
3.92E+02,-3933,6462,-2604,-51,343,-77,1,7,11
3.92E+02,-3731,6430,-2583,-86,-117,-115,1,7,11
3.92E+02,-3760,6400,-2294,-116,-205,59,1,7,11
3.92E+02,-3777,6134,-2269,-90,-457,-262,1,7,11
3.93E+02,-3782,6130,-2247,-65,-699,-331,1,7,11
3.93E+02,-3794,6126,-2191,-51,-914,-170,1,7,11
3.93E+02,-3816,6128,-2386,-30,-1362,-549,1,7,11
3.93E+02,-3839,6120,-2314,-14,-1268,-418,1,7,11
3.94E+02,-3833,6127,-1989,300,-1652,-790,1,7,11
3.94E+02,-3799,6420,-1977,370,-1418,-884,1,7,11
3.94E+02,-3766,6467,-1953,153,-1553,-697,1,7,11
3.94E+02,-3717,6504,-1934,152,-1312,-744,1,7,11
3.95E+02,-3961,6462,-2168,344,-698,-1072,1,7,11
3.95E+02,-3738,6132,-2129,279,-530,-931,1,7,11
3.95E+02,-4112,6179,-2101,-46,558,-1275,1,7,11
3.95E+02,-4181,5800,-2128,-34,671,-1457,1,7,11
3.96E+02,-3992,5935,-1939,306,1005,-1880,1,7,11
3.96E+02,-4081,5592,-2020,152,1576,-1781,1,7,11
3.96E+02,-4427,5533,-2360,251,1844,-2172,1,7,11
3.96E+02,-4261,5516,-2199,588,2053,-2038,1,7,11
3.97E+02,-4618,5524,-2299,620,1951,-2383,1,7,11
3.97E+02,-4482,5529,-2663,607,2036,-2410,1,7,11
3.97E+02,-4867,5524,-2516,546,2317,-2365,1,7,11
3.97E+02,-4737,5737,-2867,185,2016,-2012,1,7,11
3.98E+02,-4843,5686,-2939,341,2133,-2129,1,7,11
3.98E+02,-5176,5659,-2771,-5,1671,-1702,1,7,11
3.98E+02,-5243,5646,-3096,-114,1425,-1508,1,7,11
3.98E+02,-5026,5368,-3127,9,1398,-1562,1,7,11
3.99E+02,-5052,5355,-3138,-377,1091,-1358,1,7,11
3.99E+02,-5057,5347,-3118,-255,508,-902,1,7,11
3.99E+02,-5030,5356,-3092,-629,166,-716,1,7,11
3.99E+02,-5239,5653,-3076,-497,101,-802,1,7,11
4.00E+02,-5181,5657,-2768,-646,-176,-392,1,7,11
4.00E+02,-4807,5671,-2709,-1034,-398,-530,1,7,11
4.00E+02,-4981,5671,-2905,-908,-794,-188,1,7,11
4.00E+02,-4909,5675,-2849,-1006,-866,-131,1,7,11
4.01E+02,-4600,5691,-2524,-1369,-852,-350,1,7,11
4.01E+02,-4561,5686,-2437,-1160,-798,-349,1,7,11
4.01E+02,-4529,5680,-2614,-1169,-480,-359,1,7,11
4.01E+02,-4519,5675,-2293,-1155,-403,-129,1,7,11
4.02E+02,-4517,5658,-2237,-1371,-576,-163,1,7,11
4.02E+02,-4539,5658,-2178,-1299,-243,-204,1,7,11
4.02E+02,-4565,5688,-2382,-948,-187,-248,1,7,11
4.02E+02,-4583,5688,-2358,-1128,-161,-541,1,7,11
4.03E+02,-4872,5650,-2325,-1059,-132,-586,1,7,11
4.03E+02,-4914,5371,-2318,-688,-374,-640,1,7,11
4.03E+02,-4968,5365,-2317,-830,-376,-429,1,7,11
4.03E+02,-4772,5365,-2319,-461,-136,-450,1,7,11
4.04E+02,-4824,5374,-2340,-610,-172,-442,1,7,11
4.04E+02,-5122,5645,-2349,-523,-211,-412,1,7,11
4.04E+02,-5159,5662,-2351,-201,-247,-619,1,7,11
4.04E+02,-5196,5668,-2346,-159,-539,-568,1,7,11
4.05E+02,-5215,5672,-2330,-135,-573,-518,1,7,11
4.05E+02,-5234,5680,-2311,-383,-607,-214,1,7,11
4.05E+02,-5240,5701,-2046,-138,-385,-173,1,7,11
4.05E+02,-5241,5709,-2021,-169,-411,-135,1,7,11
4.06E+02,-5233,5714,-2003,-206,-430,-355,1,7,11
4.06E+02,-5216,5728,-1984,-244,-431,-318,1,7,11
4.06E+02,-5196,5736,-1972,-542,-412,-279,1,7,11
4.06E+02,-5183,5740,-1954,-580,-629,18,1,7,11
4.07E+02,-5172,5733,-1926,-615,-578,58,1,7,11
4.07E+02,-5163,5729,-2157,-635,-518,92,1,7,11
4.07E+02,-5164,5736,-2122,-389,-199,117,1,7,11
4.07E+02,-5162,5725,-2106,-403,-146,-123,1,7,11
4.08E+02,-5168,5709,-1757,-588,-282,77,1,7,11
4.08E+02,-5180,5701,-1741,-566,2,42,1,7,11
4.08E+02,-5206,5685,-1726,-537,45,-277,1,7,11
4.08E+02,-5230,5666,-1715,-522,58,-316,1,7,11
4.09E+02,-4999,5653,-1712,-232,48,-350,1,7,11
4.09E+02,-5017,5674,-1723,-187,26,-372,1,7,11
4.09E+02,-5036,5693,-1725,-170,10,-377,1,7,11
4.09E+02,-5051,5699,-1724,-164,-261,-359,1,7,11
4.10E+02,-5066,5703,-1722,-168,-273,-337,1,7,11
4.10E+02,-5077,5699,-1709,-172,-279,-308,1,7,11
4.10E+02,-5077,5700,-1699,-163,-298,-278,1,7,11
4.10E+02,-5069,5711,-1694,-141,-322,12,1,7,11
4.11E+02,-5055,5717,-1691,-380,-341,57,1,7,11
4.11E+02,-5049,5716,-1685,-354,-351,102,1,7,11
4.11E+02,-5039,5709,-1917,-329,-354,-105,1,7,11
4.11E+02,-5037,5708,-1914,-301,-353,-93,1,7,11
4.12E+02,-5034,5711,-1909,-266,-354,-88,1,7,11
4.12E+02,-5026,5704,-1912,22,-356,-87,1,7,11
4.12E+02,-5021,5705,-1914,68,-357,-92,1,7,11
4.12E+02,-5017,5711,-1920,91,-350,-102,1,7,11
4.13E+02,-5019,5720,-1668,103,-341,-115,1,7,11
4.13E+02,-5019,5713,-1677,111,-333,-128,1,7,11
4.13E+02,-5024,5708,-1678,120,-332,114,1,7,11
4.13E+02,-5025,5699,-1676,126,-330,101,1,7,11
4.14E+02,-5030,5712,-1685,-114,-331,83,1,7,11
4.14E+02,-5032,5715,-1686,-115,-328,69,1,7,11
4.14E+02,-5031,5713,-1685,-121,-327,65,1,7,11
4.14E+02,-5039,5704,-1685,-123,-322,65,1,7,11
4.15E+02,-5030,5693,-1682,-112,-319,67,1,7,11
4.15E+02,-5024,5688,-1679,-97,-314,71,1,7,11
4.15E+02,-5026,5690,-1667,-77,-301,69,1,7,11
4.15E+02,-5037,5709,-1674,-72,-288,63,1,7,11
4.16E+02,-5040,5721,-1680,-92,-281,60,1,7,11
4.16E+02,-5033,5736,-1686,-121,-270,59,1,7,11
4.16E+02,-5023,5726,-1693,90,14,63,1,7,11
4.16E+02,-5021,5725,-1710,61,62,66,1,7,11
4.17E+02,-5016,5727,-1720,36,121,69,1,7,11
4.17E+02,-5026,5732,-1725,11,-75,72,1,7,11
4.17E+02,-5021,5725,-1718,-272,-26,77,1,7,11
4.17E+02,-5026,5713,-1715,-285,267,78,1,7,11
4.18E+02,-5024,5715,-1711,-282,293,83,1,7,11
4.18E+02,-5039,5726,-1708,-282,312,87,1,7,11
4.18E+02,-5047,5721,-1684,-280,311,89,1,7,11
4.18E+02,-5051,5726,-1914,-266,295,85,1,7,11
4.19E+02,-5057,5714,-1914,-262,264,77,1,7,11
4.19E+02,-5040,5702,-1671,9,-33,73,1,7,11
4.19E+02,-5023,5696,-1676,21,-54,68,1,7,11
4.19E+02,-5017,5689,-1686,35,-67,59,1,7,11
4.20E+02,-5008,5707,-1708,40,-76,51,1,7,11
4.20E+02,-5005,5714,-1707,21,-73,41,1,7,11
4.20E+02,-5000,5717,-1718,4,-75,27,1,7,11
4.20E+02,-5009,5719,-1718,-280,-76,10,1,7,11
4.21E+02,-5013,5722,-1720,-309,-81,-262,1,7,11
4.21E+02,-5019,5725,-1707,-341,-81,-280,1,7,11
4.21E+02,-5023,5718,-1687,-364,-88,-297,1,7,11
4.21E+02,-5021,5722,-1694,-370,-97,-309,1,7,11
4.22E+02,-5027,5703,-1683,-382,-100,-314,1,7,11
4.22E+02,-5025,5695,-1686,-368,-91,-325,1,7,11
4.22E+02,-5042,5695,-1675,-352,-70,-340,1,7,11
4.22E+02,-5059,5696,-1668,-333,-61,-350,1,7,11
4.23E+02,-5076,5693,-1920,-320,-55,-356,1,7,11
4.23E+02,-5089,5688,-1910,-312,-59,-352,1,7,11
4.23E+02,-5097,5683,-1914,-297,-65,-340,1,7,11
4.23E+02,-5098,5673,-1672,-288,-69,-326,1,7,11
4.24E+02,-5094,5659,-1684,-276,-71,-311,1,7,11
4.24E+02,-5093,5647,-1684,1,-62,-299,1,7,11
4.24E+02,-5096,5653,-1696,20,-56,-292,1,7,11
4.24E+02,-5101,5664,-1702,32,-54,-279,1,7,11
4.25E+02,-5107,5668,-1721,24,-52,-256,1,7,11
4.25E+02,-5106,5652,-1729,14,-57,23,1,7,11
4.25E+02,-5097,5373,-1740,9,-64,41,1,7,11
4.25E+02,-5096,5369,-1739,14,-60,44,1,7,11
4.26E+02,-5095,5636,-1750,13,-56,39,1,7,11
4.26E+02,-5104,5643,-1759,-269,-54,32,1,7,11
4.26E+02,-5378,5654,-1763,-310,-57,31,1,7,11
4.26E+02,-5393,5661,-1753,-353,-74,40,1,7,11
4.27E+02,-5406,5670,-1733,-135,-101,51,1,7,11
4.27E+02,-5398,5670,-1715,-161,108,69,1,7,11
4.27E+02,-5390,5674,-1697,-171,64,95,1,7,11
4.27E+02,-5118,5680,-1690,-165,23,125,1,7,11
4.28E+02,-5099,5689,-1677,-147,-260,-103,1,7,11
4.28E+02,-5078,5696,-1665,-380,-282,-80,1,7,11
4.28E+02,-5073,5709,-1916,-354,-288,-66,1,7,11
4.28E+02,-5060,5714,-1913,-339,-289,-58,1,7,11
4.29E+02,-5046,5716,-1903,-328,-279,-62,1,7,11
4.29E+02,-5038,5720,-1896,-319,-259,-81,1,7,11
4.29E+02,-5034,5720,-1887,-316,13,-104,1,7,11
4.29E+02,-5029,5715,-1878,-320,29,125,1,7,11
4.30E+02,-5026,5712,-1887,-323,47,98,1,7,11
4.30E+02,-5022,5709,-1882,-333,73,69,1,7,11
4.30E+02,-5027,5701,-1881,-341,100,43,1,7,11
4.30E+02,-5034,5695,-1881,-352,-126,18,1,7,11
4.31E+02,-5041,5683,-1878,-368,-92,1,1,7,11
4.31E+02,-5054,5676,-1875,-376,-62,-271,1,7,11
4.31E+02,-5072,5670,-1869,-376,-40,-284,1,7,11
4.31E+02,-5090,5664,-1854,-382,-26,-297,1,7,11
4.32E+02,-5108,5658,-1841,-129,-30,-304,1,7,11
4.32E+02,-5383,5665,-1839,-375,-43,-308,1,7,11
4.32E+02,-5395,5654,-1848,-375,-67,-305,1,7,11
4.32E+02,-5393,5641,-1858,-363,-87,-303,1,7,11
4.33E+02,-5401,5641,-1860,-344,-100,-301,1,7,11
4.33E+02,-5408,5657,-1862,-326,-106,-294,1,7,11
4.33E+02,-5415,5676,-1862,-320,-110,-280,1,7,11
4.33E+02,-5411,5686,-1869,-329,-114,-262,1,7,11
4.34E+02,-5400,5686,-1866,-341,-113,5,1,7,11
4.34E+02,-5388,5689,-1867,-347,-103,10,1,7,11
4.34E+02,-5115,5684,-1865,-345,-83,17,1,7,11
4.34E+02,-5112,5689,-1872,-339,-51,28,1,7,11
4.35E+02,-5107,5691,-1864,-333,-14,43,1,7,11
4.35E+02,-5111,5692,-1855,-328,267,59,1,7,11
4.35E+02,-5109,5687,-1866,-325,287,72,1,7,11
4.35E+02,-5111,5692,-1865,-316,301,81,1,7,11
4.36E+02,-5107,5698,-1859,-314,306,91,1,7,11
4.36E+02,-5096,5703,-1869,-312,301,97,1,7,11
4.36E+02,-5090,5713,-1872,-314,291,102,1,7,11
4.36E+02,-5058,5692,-1865,-333,-15,98,1,7,11
4.37E+02,-5048,5695,-1869,-323,-30,82,1,7,11
4.37E+02,-5052,5695,-1858,-310,-39,47,1,7,11
4.37E+02,-5063,5691,-1856,-300,-48,25,1,7,11
4.37E+02,-5070,5687,-1864,-290,-74,11,1,7,11
4.38E+02,-5086,5687,-1867,-280,-93,1,1,7,11
4.38E+02,-5097,5691,-1876,-277,-110,-259,1,7,11
4.38E+02,-5107,5700,-1881,-280,-128,-258,1,7,11
4.38E+02,-5107,5701,-1882,-287,116,6,1,7,11
4.39E+02,-5105,5702,-1888,-299,114,14,1,7,11
4.39E+02,-5098,5702,-1882,-317,126,28,1,7,11
4.39E+02,-5088,5708,-1873,-326,-114,33,1,7,11
4.39E+02,-5091,5711,-1859,-339,-94,36,1,7,11
4.40E+02,-5085,5693,-1855,-353,-77,37,1,7,11
4.40E+02,-5092,5685,-1844,-343,-56,29,1,7,11
4.40E+02,-5103,5678,-1832,-329,-46,18,1,7,11
4.40E+02,-5117,5674,-1827,-308,-47,9,1,7,11
4.41E+02,-5378,5662,-1814,-289,-56,3,1,7,11
4.41E+02,-5386,5651,-1818,-269,-70,-257,1,7,11
4.41E+02,-5387,5644,-1830,12,-89,-259,1,7,11
4.41E+02,-5384,5646,-1836,40,-111,4,1,7,11
4.42E+02,-5382,5659,-1858,68,-125,12,1,7,11
4.42E+02,-5381,5659,-1862,79,121,17,1,7,11
4.42E+02,-5377,5661,-1872,73,120,21,1,7,11
4.42E+02,-5377,5658,-1879,58,125,22,1,7,11
4.43E+02,-5383,5660,-1885,48,-123,14,1,7,11
4.43E+02,-5388,5668,-1883,38,-119,9,1,7,11
4.43E+02,-5390,5678,-1884,20,-116,7,1,7,11
4.43E+02,-5383,5670,-1883,-258,-109,15,1,7,11
4.44E+02,-5391,5675,-1875,-270,-97,23,1,7,11
4.44E+02,-5399,5668,-1873,-278,-87,37,1,7,11
4.44E+02,-5410,5664,-1860,-277,-91,50,1,7,11
4.44E+02,-5405,5663,-1859,-265,-101,62,1,7,11
4.45E+02,-5403,5662,-1850,-257,-114,77,1,7,11
4.45E+02,-5397,5656,-1850,13,-123,92,1,7,11
4.45E+02,-5385,5652,-1848,36,-127,102,1,7,11
4.45E+02,-5119,5654,-1853,65,-124,105,1,7,11
4.46E+02,-5108,5656,-1860,85,-119,99,1,7,11
4.46E+02,-5103,5668,-1873,102,-114,89,1,7,11
4.46E+02,-5099,5671,-1881,105,-104,76,1,7,11
4.46E+02,-5097,5671,-1885,108,-93,60,1,7,11
4.47E+02,-5105,5677,-1906,98,-81,45,1,7,11
4.47E+02,-5114,5673,-1920,83,-65,34,1,7,11
4.47E+02,-5114,5660,-1920,58,-55,27,1,7,11
4.47E+02,-5119,5650,-1665,48,-45,19,1,7,11
4.48E+02,-5387,5653,-1914,45,-35,15,1,7,11
4.48E+02,-5388,5655,-1908,42,-34,15,1,7,11
4.48E+02,-5391,5649,-1902,36,-39,14,1,7,11
4.48E+02,-5392,5637,-1901,29,-45,19,1,7,11
4.49E+02,-5399,5632,-1902,30,-53,21,1,7,11
4.49E+02,-5404,5373,-1902,34,-65,20,1,7,11
4.49E+02,-5411,5367,-1899,40,-80,23,1,7,11
4.49E+02,-5412,5367,-1903,47,-96,34,1,7,11
4.50E+02,-5404,5367,-1906,58,-114,45,1,7,11
4.50E+02,-5397,5369,-1919,70,-127,59,1,7,11
4.50E+02,-5388,5634,-1674,77,124,68,1,7,11
4.50E+02,-5379,5638,-1683,70,124,71,1,7,11
4.51E+02,-5110,5649,-1685,59,-126,70,1,7,11
4.51E+02,-5110,5651,-1686,39,-109,67,1,7,11
4.51E+02,-5111,5641,-1692,27,-92,60,1,7,11
4.51E+02,-5117,5649,-1684,31,-74,48,1,7,11
4.52E+02,-5389,5654,-1670,25,-61,42,1,7,11
4.52E+02,-5390,5657,-1920,11,-66,48,1,7,11
4.52E+02,-5390,5645,-1919,4,-77,58,1,7,11
4.52E+02,-5384,5635,-1920,1,-85,64,1,7,11
4.53E+02,-5119,5372,-1918,8,-86,63,1,7,11
4.53E+02,-5104,5367,-1672,21,-80,66,1,7,11
4.53E+02,-5095,5633,-1672,33,-58,66,1,7,11
4.53E+02,-5109,5343,-1674,32,285,35,1,7,11
4.54E+02,-5381,5346,-1682,58,283,16,1,7,11
4.54E+02,-5398,5371,-1711,80,268,10,1,7,11
4.54E+02,-5404,5367,-1716,65,-5,15,1,7,11
4.54E+02,-5406,5363,-1723,56,-24,24,1,7,11
4.55E+02,-5400,5365,-1733,55,-44,34,1,7,11
4.55E+02,-5394,5365,-1747,54,-71,39,1,7,11
4.55E+02,-5386,5360,-1759,49,-76,37,1,7,11
4.55E+02,-5384,5357,-1768,21,-71,31,1,7,11
4.56E+02,-5378,5351,-1762,3,-61,22,1,7,11
4.56E+02,-5119,5359,-1763,-271,-50,17,1,7,11
4.56E+02,-5381,5361,-1759,-294,-40,18,1,7,11
4.56E+02,-5382,5342,-1761,-318,-30,21,1,7,11
4.57E+02,-5387,5329,-1759,-326,-24,27,1,7,11
4.57E+02,-5401,5329,-1744,-328,-23,31,1,7,11
4.57E+02,-5403,5331,-1749,-325,-31,39,1,7,11
4.57E+02,-5408,5317,-1747,-322,-53,50,1,7,11
4.58E+02,-5409,5311,-1750,-307,-75,61,1,7,11
4.58E+02,-5407,5319,-1752,-286,-94,75,1,7,11
4.58E+02,-5402,5336,-1751,-276,-113,87,1,7,11
4.58E+02,-5400,5352,-1755,-280,122,96,1,7,11
4.59E+02,-5390,5359,-1760,-304,105,101,1,7,11
4.59E+02,-5385,5361,-1746,-327,96,99,1,7,11
4.59E+02,-5382,5362,-1728,-343,102,88,1,7,11
4.59E+02,-5393,5637,-1707,-348,117,71,1,7,11
4.60E+02,-5401,5640,-1681,-360,109,71,1,7,11
4.60E+02,-5393,5643,-1911,-353,95,73,1,7,11
4.60E+02,-5119,5643,-1905,-339,85,76,1,7,11
4.60E+02,-5094,5636,-1901,-320,94,77,1,7,11
4.61E+02,-5090,5375,-1904,-296,112,71,1,7,11
4.61E+02,-5082,5374,-1906,-268,-119,68,1,7,11
4.61E+02,-5092,5640,-1920,14,-93,65,1,7,11
4.61E+02,-5102,5368,-1676,22,-81,66,1,7,11
4.62E+02,-5111,5348,-1686,43,-77,63,1,7,11
4.62E+02,-5386,5336,-1690,78,-77,58,1,7,11
4.62E+02,-5404,5342,-1710,109,-93,60,1,7,11
4.62E+02,-5405,5346,-1734,127,-122,68,1,7,11
4.63E+02,-5402,5338,-1746,-127,108,73,1,7,11
4.63E+02,-5399,5347,-1763,127,83,73,1,7,11
4.63E+02,-5400,5364,-1781,117,69,69,1,7,11
4.63E+02,-5412,5638,-1777,81,59,69,1,7,11
4.64E+02,-5412,5648,-1761,38,44,76,1,7,11
4.64E+02,-5391,5656,-1744,-263,33,89,1,7,11
4.64E+02,-5113,5645,-1729,-326,48,97,1,7,11
4.64E+02,-5097,5635,-1723,-350,87,96,1,7,11
4.65E+02,-5083,5641,-1711,-360,-116,96,1,7,11
4.65E+02,-5070,5643,-1699,-365,-55,98,1,7,11
4.65E+02,-5056,5372,-1696,-350,265,121,1,7,11
4.65E+02,-5057,5362,-1707,-306,342,-92,1,7,11
4.66E+02,-5058,5340,-1713,29,171,-31,1,7,11
4.66E+02,-5072,5346,-1717,113,524,291,1,7,11
4.66E+02,-5102,5346,-1712,-81,608,346,1,7,11
4.66E+02,-5382,5341,-1713,-36,388,379,1,7,11
4.67E+02,-5399,5335,-1728,-9,638,383,1,7,11
4.67E+02,-5399,5328,-1751,-4,598,358,1,7,11
4.67E+02,-5388,5342,-2051,-27,550,308,1,7,11
4.67E+02,-5112,5360,-2103,-98,250,-19,1,7,11
4.68E+02,-5087,5641,-2153,17,247,-101,1,7,11
4.68E+02,-5065,5638,-2131,-150,521,55,1,7,11
4.68E+02,-5046,5643,-2139,-254,202,8,1,7,11
4.68E+02,-5023,5650,-2139,-532,382,-272,1,7,11
4.69E+02,-5015,5657,-2128,-536,302,-289,1,7,11
4.69E+02,-5018,5671,-2115,-523,-43,-308,1,7,11
4.69E+02,-5007,5680,-2110,-515,126,-318,1,7,11
4.69E+02,-5001,5682,-2089,-255,65,-321,1,7,11
4.70E+02,-5003,5675,-2065,-252,24,-322,1,7,11
4.70E+02,-4996,5669,-1791,-236,-261,-327,1,7,11
4.70E+02,-5244,5678,-2050,-207,-277,-327,1,7,11
4.70E+02,-5247,5670,-1789,-181,-258,-313,1,7,11
4.71E+02,-5006,5655,-1773,-147,41,-291,1,7,11
4.71E+02,-5019,5646,-1766,-354,86,-259,1,7,11
4.71E+02,-5030,5651,-1758,-297,-120,31,1,7,11
4.71E+02,-5041,5664,-1750,17,-82,72,1,7,11
4.72E+02,-5038,5677,-1766,74,-51,-124,1,7,11
4.72E+02,-5053,5672,-1756,117,-3,-58,1,7,11
4.72E+02,-5072,5657,-1750,-106,281,-7,1,7,11
4.72E+02,-5086,5647,-1743,-66,282,275,1,7,11
4.73E+02,-5105,5634,-1753,259,-64,290,1,7,11
4.73E+02,-5095,5358,-1777,291,119,306,1,7,11
4.73E+02,-5076,5350,-2054,346,51,329,1,7,11
4.73E+02,-5040,5361,-2073,159,-261,362,1,7,11
4.74E+02,-5004,5372,-2087,238,-298,154,1,7,11
4.74E+02,-5223,5646,-2120,575,-308,211,1,7,11
4.74E+02,-5196,5663,-2137,636,-285,522,1,7,11
4.74E+02,-5178,5678,-2144,427,-260,567,1,7,11
4.75E+02,-5136,5692,-2159,475,8,605,1,7,11
4.75E+02,-4851,5700,-1945,511,47,636,1,7,11
4.75E+02,-4840,5709,-1956,780,106,398,1,7,11
4.75E+02,-4843,5728,-1978,780,-93,396,1,7,11
4.76E+02,-4858,5729,-1981,472,-56,633,1,7,11
4.76E+02,-5127,5733,-1976,415,-50,591,1,7,11
4.76E+02,-5147,5726,-1977,609,-73,539,1,7,11
4.76E+02,-5164,5719,-1973,551,-119,227,1,7,11
4.77E+02,-5181,5716,-1981,248,71,177,1,7,11
4.77E+02,-5195,5711,-1988,206,-264,136,1,7,11
4.77E+02,-5204,5713,-1997,173,-353,360,1,7,11
4.77E+02,-5185,5696,-2015,362,-526,318,1,7,11
4.78E+02,-5177,5686,-2023,347,-594,303,1,7,11
4.78E+02,-5160,5679,-2047,349,-390,297,1,7,11
4.78E+02,-5140,5669,-2322,355,-414,299,1,7,11
4.78E+02,-5147,5675,-2322,378,-418,320,1,7,11
4.79E+02,-5163,5672,-2310,381,-405,351,1,7,11
4.79E+02,-5179,5682,-2044,140,-408,133,1,7,11
4.79E+02,-5193,5680,-2020,135,-421,169,1,7,11
4.79E+02,-5190,5687,-2006,137,-445,201,1,7,11
4.80E+02,-5160,5696,-2008,145,-477,233,1,7,11
4.80E+02,-4861,5697,-2027,151,-475,528,1,7,11
4.80E+02,-4837,5695,-2030,156,-422,561,1,7,11
4.80E+02,-4812,5697,-2024,160,-608,573,1,7,11
4.81E+02,-4793,5709,-2024,159,-531,562,1,7,11
4.81E+02,-4774,5710,-2032,143,-203,533,1,7,11
4.81E+02,-4757,5713,-2036,372,-377,230,1,7,11
4.81E+02,-4743,5723,-2045,340,-284,169,1,7,11
4.82E+02,-4737,5734,-2322,296,75,361,1,7,11
4.82E+02,-4751,5740,-2324,-13,-72,300,1,7,11
4.82E+02,-4775,5740,-2327,-64,272,-8,1,7,11
4.82E+02,-4795,5726,-2330,-114,338,-43,1,7,11
4.83E+02,-4806,5712,-2324,114,378,-63,1,7,11
4.83E+02,-4812,5720,-2339,106,148,-70,1,7,11
4.83E+02,-4814,5729,-2346,95,157,-65,1,7,11
4.83E+02,-4820,5727,-2342,82,162,-51,1,7,11
4.84E+02,-4823,5723,-2335,78,150,-32,1,7,11
4.84E+02,-4826,5722,-2340,85,382,-13,1,7,11
4.84E+02,-4831,5720,-2345,90,347,261,1,7,11
4.84E+02,-4807,5716,-2352,107,297,280,1,7,11
4.85E+02,-4786,5728,-2371,-122,258,298,1,7,11
4.85E+02,-4764,5728,-2378,-103,-27,318,1,7,11
4.85E+02,-4743,5751,-2391,-71,-41,336,1,7,11
4.85E+02,-4975,5522,-2412,-63,-50,353,1,7,11
4.86E+02,-4946,5541,-2411,-65,-51,378,1,7,11
4.86E+02,-4922,5553,-2410,-74,-41,146,1,7,11
4.86E+02,-4900,5551,-2407,-78,-19,157,1,7,11
4.86E+02,-4894,5551,-2392,-73,259,148,1,7,11
4.87E+02,-4888,5557,-2381,-59,261,137,1,7,11
4.87E+02,-4876,5569,-2400,-27,-13,382,1,7,11
4.87E+02,-4597,5580,-2405,-10,-24,374,1,7,11
4.87E+02,-4586,5583,-2419,-4,-18,358,1,7,11
4.88E+02,-4569,5576,-2424,-4,-7,332,1,7,11
4.88E+02,-4545,5577,-2180,-7,260,295,1,7,11
4.88E+02,-4526,5597,-2206,-7,274,-12,1,7,11
4.88E+02,-4517,5609,-2228,-26,301,-91,1,7,11
4.89E+02,-4515,5599,-2243,-73,370,117,1,7,11
4.89E+02,-4516,5567,-2254,126,142,97,1,7,11
4.89E+02,-4517,5530,-2260,84,203,44,1,7,11
4.89E+02,-4523,5504,-2270,79,512,5,1,7,11
4.90E+02,-4535,5749,-2278,91,592,-288,1,7,11
4.90E+02,-4553,5746,-2298,102,629,-317,1,7,11
4.90E+02,-4564,5743,-2574,118,399,-335,1,7,11
4.90E+02,-4582,5743,-2586,116,424,-348,1,7,11
4.91E+02,-4891,5681,-2670,92,429,-383,1,7,11
4.91E+02,-4903,5694,-2675,97,389,-367,1,7,11
4.91E+02,-4918,5690,-2441,95,588,-336,1,7,11
4.91E+02,-4924,5689,-2448,106,255,-295,1,7,11
4.92E+02,-4917,5695,-2463,124,128,42,1,7,11
4.92E+02,-4905,5684,-2480,-122,307,103,1,7,11
4.92E+02,-4888,5669,-2500,-115,-23,-101,1,7,11
4.92E+02,-4600,5669,-2520,-102,-88,-62,1,7,11
4.93E+02,-4573,5711,-2539,-92,125,-37,1,7,11
4.93E+02,-4545,5749,-2558,-123,98,-28,1,7,11
4.93E+02,-4517,5517,-2819,76,91,-28,1,7,11
4.93E+02,-4507,5529,-2555,12,102,-31,1,7,11
4.94E+02,-4522,5530,-2551,-304,122,-11,1,7,11
4.94E+02,-4547,5527,-2529,-349,114,282,1,7,11
4.94E+02,-4557,5510,-2498,-380,71,338,1,7,11
4.94E+02,-4570,5506,-2470,-360,6,143,1,7,11
4.95E+02,-4579,5514,-2436,-325,-330,217,1,7,11
4.95E+02,-4591,5529,-2656,-286,-178,551,1,7,11
4.95E+02,-4581,5539,-2642,2,-565,620,1,7,11
4.95E+02,-4564,5520,-2634,40,-445,426,1,7,11
4.96E+02,-4564,5505,-2607,116,-834,503,1,7,11
4.96E+02,-4547,5733,-2570,-36,-713,837,1,7,11
4.96E+02,-4520,5742,-2293,362,-1124,645,1,7,11
4.96E+02,-4713,5522,-2569,236,-1017,688,1,7,11
4.97E+02,-4659,5548,-2586,580,-1364,703,1,7,11
4.97E+02,-4627,5573,-2610,391,-1153,697,1,7,11
4.97E+02,-4622,5582,-2602,435,-1164,693,1,7,11
4.97E+02,-4617,5590,-2600,471,-1171,681,1,7,11
4.98E+02,-4611,5611,-2621,491,-1171,663,1,7,11
4.98E+02,-4351,5623,-2641,484,-1383,647,1,7,11
4.98E+02,-4349,5624,-2654,454,-1300,881,1,7,11
4.98E+02,-4341,5893,-2650,411,-934,835,1,7,11
4.99E+02,-4346,5908,-2650,599,-1064,511,1,7,11
4.99E+02,-4346,5893,-2650,514,-687,434,1,7,11
4.99E+02,-4341,5628,-2667,181,-824,602,1,7,11
4.99E+02,-4340,5618,-2433,370,-434,255,1,7,11
5.00E+02,-4332,5618,-2452,301,-550,150,1,7,11
5.00E+02,-4334,5617,-2480,-93,-332,-23,1,7,11
5.00E+02,-4613,5629,-2480,68,77,125,1,7,11
5.00E+02,-4650,5908,-2462,-283,-52,55,1,7,11
5.01E+02,-4685,5940,-2433,-366,282,36,1,7,11
5.01E+02,-4712,5984,-2662,-196,309,52,1,7,11
5.01E+02,-4710,5981,-2628,-558,290,90,1,7,11
5.01E+02,-4692,5946,-2586,-626,-7,-119,1,7,11
5.02E+02,-4663,5925,-2298,-625,-47,-75,1,7,11
5.02E+02,-4650,5916,-2267,-593,-85,-43,1,7,11
5.02E+02,-4625,5905,-2248,-535,-124,-23,1,7,11
5.02E+02,-4308,5929,-2249,-193,96,-43,1,7,11
5.03E+02,-4280,5962,-2241,-173,115,-86,1,7,11
5.03E+02,-4283,5982,-2232,-190,-100,116,1,7,11
5.03E+02,-4296,5960,-2228,-207,-60,70,1,7,11
5.03E+02,-4327,5946,-2222,-192,-28,33,1,7,11
5.04E+02,-4622,5922,-2209,-173,-11,7,1,7,11
5.04E+02,-4667,5909,-2199,-129,-19,-265,1,7,11
5.04E+02,-4705,5901,-2180,-326,-70,-264,1,7,11
5.04E+02,-4722,5893,-2414,-258,92,4,1,7,11
5.05E+02,-4729,5623,-2393,78,-282,18,1,7,11
5.05E+02,-4723,5617,-2384,-83,-152,28,1,7,11
5.05E+02,-4708,5618,-2390,280,-528,30,1,7,11
5.05E+02,-4680,5900,-2390,136,-387,17,1,7,11
5.06E+02,-4649,5950,-2426,220,-472,-270,1,7,11
5.06E+02,-4621,5964,-2228,228,-491,-318,1,7,11
5.06E+02,-4339,5960,-2281,199,-445,-374,1,7,11
5.06E+02,-4332,5972,-2609,137,-591,-171,1,7,11
5.07E+02,-4344,5965,-2646,285,-158,-209,1,7,11
5.07E+02,-4631,5950,-2651,-83,45,-223,1,7,11
5.07E+02,-4690,5952,-2646,82,-24,-207,1,7,11
5.07E+02,-4496,5932,-2622,3,130,-154,1,7,11
5.08E+02,-4543,5900,-2584,-293,223,-336,1,7,11
5.08E+02,-4576,5627,-2293,-294,255,-264,1,7,11
5.08E+02,-4579,5630,-2269,-278,239,53,1,7,11
5.08E+02,-4556,5627,-2268,-259,194,107,1,7,11
5.09E+02,-4515,5624,-2286,21,157,-104,1,7,11
5.09E+02,-4733,5894,-2574,11,146,-75,1,7,11
5.09E+02,-4705,5617,-2586,-268,149,-74,1,7,11
5.09E+02,-4686,5610,-2582,-279,160,-83,1,7,11
5.10E+02,-4666,5610,-2587,-273,170,-97,1,7,11
5.10E+02,-4650,5627,-2592,-268,182,-118,1,7,11
5.10E+02,-4639,5896,-2592,-287,196,116,1,7,11
5.10E+02,-4621,5896,-2601,-312,206,89,1,7,11
5.11E+02,-4610,5888,-2591,-339,219,54,1,7,11
5.11E+02,-4345,5617,-2580,-351,232,10,1,7,11
5.11E+02,-4338,5610,-2574,-345,249,-295,1,7,11
5.11E+02,-4329,5608,-2579,-325,532,-343,1,7,11
5.12E+02,-4324,5603,-2581,-305,589,-381,1,7,11
5.12E+02,-4338,5590,-2578,-273,407,-160,1,7,11
5.12E+02,-4618,5574,-2569,33,475,-182,1,7,11
5.12E+02,-4656,5569,-2573,99,779,-194,1,7,11
5.13E+02,-4690,5556,-2583,-95,801,-202,1,7,11
5.13E+02,-4715,5557,-2602,-37,795,-209,1,7,11
5.13E+02,-4481,5554,-2637,257,772,-208,1,7,11
5.13E+02,-4483,5549,-2683,288,484,-202,1,7,11
5.14E+02,-4484,5538,-2469,302,458,-186,1,7,11
5.14E+02,-4491,5538,-2516,325,439,-153,1,7,11
5.14E+02,-4499,5526,-2546,337,419,-354,1,7,11
5.14E+02,-4510,5517,-2821,344,384,-286,1,7,11
5.15E+02,-4513,5504,-2843,351,576,44,1,7,11
5.15E+02,-4506,5511,-2873,361,235,115,1,7,11
5.15E+02,-4487,5514,-2902,346,148,-80,1,7,11
5.15E+02,-4690,5524,-2931,317,317,-19,1,7,11
5.16E+02,-4652,5548,-2701,256,-51,-5,1,7,11
5.16E+02,-4345,5564,-2722,-82,-104,-14,1,7,11
5.16E+02,-4293,5566,-2728,71,-127,-49,1,7,11
5.16E+02,-4251,5565,-2732,-296,-123,-108,1,7,11
5.17E+02,-4468,5570,-2725,-142,-96,70,1,7,11
5.17E+02,-4447,5560,-2719,-227,-42,-261,1,7,11
5.17E+02,-4437,5544,-2697,-545,283,-324,1,7,11
5.17E+02,-4445,5534,-2925,-578,353,-378,1,7,11
5.18E+02,-4464,5529,-2901,-587,155,-173,1,7,11
5.18E+02,-4227,5533,-2896,-591,194,-222,1,7,11
5.18E+02,-4259,5518,-2871,-604,217,-526,1,7,11
5.18E+02,-4288,5510,-2868,-605,221,-576,1,7,11
5.19E+02,-4313,5527,-2861,-606,207,-626,1,7,11
5.19E+02,-4329,5556,-2879,-630,191,-419,1,7,11
5.19E+02,-4336,5573,-2880,-436,178,-470,1,7,11
5.19E+02,-4611,5566,-2857,-851,165,-861,1,7,11
5.20E+02,-4622,5594,-2850,-665,154,-689,1,7,11
5.20E+02,-4624,5630,-2851,-756,146,-760,1,7,11
5.20E+02,-4618,5626,-2836,-1136,164,-1074,1,7,11
5.20E+02,-4623,5619,-2547,-990,193,-1122,1,7,11
5.21E+02,-4641,5579,-2508,-1361,224,-907,1,7,11
5.21E+02,-4652,5676,-2685,-1190,255,-953,1,7,11
5.21E+02,-4650,5291,-2657,-1206,532,-1009,1,7,11
5.21E+02,-4652,5435,-2668,-1368,549,-1321,1,7,11
5.22E+02,-4663,5063,-2438,-929,581,-1298,1,7,11
5.22E+02,-4715,4999,-2481,-663,442,-983,1,7,11
5.22E+02,-4567,5021,-2547,-586,785,-1150,1,7,11
5.22E+02,-4949,5105,-2863,-113,816,-1026,1,7,11
5.23E+02,-4810,5484,-2697,351,785,-882,1,7,11
5.23E+02,-5176,5355,-2783,161,451,-483,1,7,11
5.23E+02,-5002,5715,-3098,346,586,-610,1,7,11
5.23E+02,-5042,5523,-3124,-87,174,-231,1,7,11
5.24E+02,-5043,5556,-3132,-314,263,-370,1,7,11
5.24E+02,-4996,5577,-3135,-566,116,-257,1,7,11
5.24E+02,-5174,5558,-3095,-834,7,107,1,7,11
5.24E+02,-4813,5544,-2783,-1052,-307,-55,1,7,11
5.25E+02,-4981,5550,-2714,-1001,-294,278,1,7,11
5.25E+02,-4900,5509,-2866,-1196,23,339,1,7,11
5.25E+02,-4568,5685,-2488,-1599,108,376,1,7,11
5.25E+02,-4505,5364,-2624,-1632,-40,130,1,7,11
5.26E+02,-4727,5346,-2274,-1569,336,376,1,7,11
5.26E+02,-4714,5350,-2184,-1204,202,353,1,7,11
5.26E+02,-4725,5633,-2345,-1327,553,319,1,7,11
5.26E+02,-4487,5680,-2019,-945,601,277,1,7,11
5.27E+02,-4510,5704,-1962,-1093,599,-14,1,7,11
5.27E+02,-4539,5727,-1928,-721,559,-49,1,7,11
5.27E+02,-4581,5504,-2160,-869,227,-91,1,7,11
5.27E+02,-4869,5524,-2149,-512,368,-122,1,7,11
5.28E+02,-4891,5554,-2174,-400,-25,120,1,7,11
5.28E+02,-4918,5584,-1945,-559,102,-127,1,7,11
5.28E+02,-4944,5613,-1964,-220,-277,-97,1,7,11
5.28E+02,-4961,5629,-1984,-159,-148,-53,1,7,11
5.29E+02,-4956,5891,-2003,-348,-532,256,1,7,11
5.29E+02,-4936,5910,-2019,-275,-393,314,1,7,11
5.29E+02,-4903,5923,-2021,48,-483,134,1,7,11
5.29E+02,-4875,5940,-2031,124,-793,221,1,7,11
5.30E+02,-4590,5961,-2038,-57,-817,562,1,7,11
5.30E+02,-4567,5981,-2027,258,-829,635,1,7,11
5.30E+02,-4538,5999,-2023,307,-840,430,1,7,11
5.30E+02,-4509,6012,-2031,349,-857,464,1,7,11
5.31E+02,-4735,5782,-2029,131,-865,473,1,7,11
5.31E+02,-4687,5805,-2030,144,-875,463,1,7,11
5.31E+02,-4652,5841,-2305,138,-878,431,1,7,11
5.31E+02,-4338,5845,-2315,353,-859,601,1,7,11
5.32E+02,-4273,5844,-2330,315,-815,527,1,7,11
5.32E+02,-4232,5832,-2330,280,-386,181,1,7,11
5.32E+02,-4458,5818,-2330,-15,-219,330,1,7,11
5.32E+02,-4438,5788,-2331,-59,-295,-56,1,7,11
5.33E+02,-4445,6003,-2319,-100,-96,43,1,7,11
5.33E+02,-4480,5949,-2312,-125,344,-130,1,7,11
5.33E+02,-4263,5903,-2314,-123,236,-547,1,7,11
5.33E+02,-4293,5613,-2342,-98,614,-435,1,7,11
5.34E+02,-4330,5577,-2379,-69,480,-810,1,7,11
5.34E+02,-4636,5559,-2177,-29,849,-641,1,7,11
5.34E+02,-4692,5566,-2238,261,693,-697,1,7,11
5.34E+02,-4486,5578,-2300,263,1031,-725,1,7,11
5.35E+02,-4496,5588,-2638,-11,1093,-735,1,7,11
5.35E+02,-4483,5572,-2473,-61,913,-738,1,7,11
5.35E+02,-4702,5557,-2818,118,1290,-754,1,7,11
5.35E+02,-4683,5547,-2880,10,1201,-1048,1,7,11
5.36E+02,-4694,5552,-2938,-378,1648,-1107,1,7,11
5.36E+02,-4721,5552,-2705,-546,1823,-919,1,7,11
5.36E+02,-4518,5537,-2700,-473,1706,-985,1,7,11
5.36E+02,-4583,5521,-2940,-889,1789,-1286,1,7,11
5.37E+02,-4913,5742,-2909,-767,2072,-1288,1,7,11
5.37E+02,-4737,5693,-2859,-1118,1775,-977,1,7,11
5.37E+02,-4814,5653,-2548,-1150,1907,-1126,1,7,11
5.37E+02,-5123,5366,-2495,-1137,1449,-729,1,7,11
5.38E+02,-5154,5345,-2680,-1099,1188,-837,1,7,11
5.38E+02,-5152,5333,-2645,-1048,1149,-444,1,7,11
5.38E+02,-5128,5338,-2619,-734,836,-580,1,7,11
5.38E+02,-4829,5355,-2618,-670,532,-219,1,7,11
5.39E+02,-4759,5367,-2620,-868,256,-328,1,7,11
5.39E+02,-4957,5652,-2633,-806,-302,9,1,7,11
5.39E+02,-4913,5682,-2627,-502,-368,69,1,7,11
5.39E+02,-4878,5713,-2624,-470,-248,109,1,7,11
5.40E+02,-4597,5748,-2605,-457,-544,-122,1,7,11
5.40E+02,-4584,5541,-2582,-476,-557,-112,1,7,11
5.40E+02,-4573,5568,-2562,-784,-550,-113,1,7,11
5.40E+02,-4555,5565,-2277,-845,-527,-122,1,7,11
5.41E+02,-4541,5550,-2238,-881,-233,118,1,7,11
5.41E+02,-4527,5531,-2208,-887,-187,102,1,7,11
5.41E+02,-4527,5539,-2180,-836,-384,90,1,7,11
5.41E+02,-4579,5573,-2364,-577,72,116,1,7,11
5.42E+02,-4599,5591,-2376,-250,81,-125,1,7,11
5.42E+02,-4600,5606,-2384,-182,72,-105,1,7,11
5.42E+02,-4606,5620,-2400,-129,52,-78,1,7,11
5.42E+02,-4867,5624,-2411,-343,23,-47,1,7,11
5.43E+02,-4606,5630,-2418,-314,-271,-18,1,7,11
5.43E+02,-4604,5896,-2430,-290,-318,263,1,7,11
5.43E+02,-4868,5896,-2418,-288,-369,284,1,7,11
5.43E+02,-4594,5896,-2411,-290,-172,300,1,7,11
5.44E+02,-4580,5898,-2394,-296,-219,306,1,7,11
5.44E+02,-4564,5904,-2391,-307,-254,302,1,7,11
5.44E+02,-4555,5906,-2380,-329,-532,292,1,7,11
5.44E+02,-4538,5915,-2370,-360,-542,269,1,7,11
5.45E+02,-4525,5912,-2358,-147,-529,-29,1,7,11
5.45E+02,-4514,5901,-2345,-185,-244,-87,1,7,11
5.45E+02,-4506,5906,-2324,-207,-199,108,1,7,11
5.45E+02,-4506,5901,-2044,-237,-144,46,1,7,11
5.46E+02,-4510,5906,-2023,-247,-349,-266,1,7,11
5.46E+02,-4573,5895,-1978,-232,33,-351,1,7,11
5.46E+02,-4600,5896,-1971,-219,51,-361,1,7,11
5.46E+02,-4889,5890,-1950,-204,53,-380,1,7,11
5.47E+02,-4908,5894,-1947,-183,40,-136,1,7,11
5.47E+02,-4917,5890,-1944,-167,21,-141,1,7,11
5.47E+02,-4917,5902,-1957,-149,5,-140,1,7,11
5.47E+02,-4924,5890,-1962,-148,0,-135,1,7,11
5.48E+02,-4933,5625,-1962,-133,0,-132,1,7,11
5.48E+02,-4942,5631,-1970,-375,-259,-382,1,7,11
5.48E+02,-4953,5631,-1979,-371,-265,-370,1,7,11
5.48E+02,-4955,5627,-1982,-367,-271,-351,1,7,11
5.49E+02,-4943,5606,-1997,-358,-272,-329,1,7,11
5.49E+02,-4911,5606,-2010,-339,10,-310,1,7,11
5.49E+02,-4892,5618,-2017,-332,59,-307,1,7,11
5.49E+02,-4879,5628,-2307,-344,-122,-310,1,7,11
5.50E+02,-4870,5623,-2327,-369,-35,-317,1,7,11
5.50E+02,-4599,5627,-2346,-138,316,-333,1,7,11
5.50E+02,-4562,5624,-2371,-155,155,-346,1,7,11
5.50E+02,-4486,5611,-2404,-153,512,-352,1,7,11
5.51E+02,-4632,5611,-2191,-376,387,-351,1,7,11
5.51E+02,-4233,5630,-2264,-319,823,-327,1,7,11
5.51E+02,-4358,5942,-2601,20,1092,-272,1,7,11
5.51E+02,-4042,6015,-2676,52,1181,33,1,7,11
5.52E+02,-4035,5825,-2447,6,1525,40,1,7,11
5.52E+02,-4072,5868,-2453,-362,2058,-278,1,7,11
5.52E+02,-4378,5869,-2679,-553,1983,-179,1,7,11
5.52E+02,-4410,5806,-2642,-799,2310,-445,1,7,11
5.53E+02,-4436,5972,-2598,-1051,2322,-1056,1,7,11
5.53E+02,-4233,5585,-2295,-1290,2346,-1201,1,7,11
5.53E+02,-4622,5685,-2224,-1220,2417,-1867,1,7,11
5.53E+02,-4553,5298,-2399,-1588,2229,-2004,1,7,11
5.54E+02,-4765,5461,-2331,-1625,2262,-2586,1,7,11
5.54E+02,-5227,5426,-2318,-1563,2262,-2517,1,7,11
5.54E+02,-5416,5447,-2341,-1200,2264,-2522,1,7,11
5.54E+02,-5314,5467,-2368,-1353,2274,-2601,1,7,11
5.55E+02,-5682,5476,-2375,-1020,2281,-2030,1,7,11
5.55E+02,-5522,5480,-2375,-950,2241,-1902,1,7,11
5.55E+02,-5593,5481,-2373,-1133,2366,-1237,1,7,11
5.55E+02,-5603,5472,-2365,-1062,2135,-1092,1,7,11
5.56E+02,-5572,5492,-2363,-727,1834,-469,1,7,11
5.56E+02,-5505,5270,-2383,-669,1239,-145,1,7,11
5.56E+02,-5662,5256,-2392,-659,1136,-126,1,7,11
5.56E+02,-5261,5488,-2389,-866,506,353,1,7,11
5.57E+02,-5094,5498,-2190,-511,167,526,1,7,11
5.57E+02,-5205,5274,-2259,-412,-90,397,1,7,11
5.57E+02,-4819,5299,-2291,-586,-273,480,1,7,11
5.57E+02,-6665,4005,-1529,-193,-188,783,1,7,11
5.58E+02,-5272,5254,-1768,2896,-3479,4065,1,7,11
5.58E+02,-4036,5697,-3141,3295,-4492,4220,1,7,11
5.58E+02,-4142,5962,-2978,2451,-3322,2846,1,7,11
5.58E+02,-3729,5799,-3030,953,-1675,1837,1,7,11
5.59E+02,-3443,6246,-3291,-561,-53,39,1,7,11
5.59E+02,-5166,5284,-1997,-2227,2195,-2892,1,7,11
5.59E+02,-4938,5702,-2237,-1719,1682,-1269,1,7,11
5.59E+02,-4500,5545,-2658,-1138,511,-1043,1,7,11
5.60E+02,-4729,5563,-2651,-749,513,-496,1,7,11
5.60E+02,-4678,5618,-2443,-587,329,-596,1,7,11
5.60E+02,-4649,5628,-2465,-569,266,-243,1,7,11
5.60E+02,-4624,5602,-2441,-587,-4,-198,1,7,11
5.61E+02,-4626,5608,-2437,-586,256,-200,1,7,11
5.61E+02,-5254,5085,-2426,-564,295,-301,1,7,11
5.61E+02,-4767,5266,-1926,974,-879,1983,1,7,11
5.61E+02,-4012,5907,-2848,1965,-965,1958,1,7,11
5.62E+02,-4070,5872,-2714,1212,-546,1001,1,7,11
5.62E+02,-4400,5796,-2909,178,112,164,1,7,11
5.62E+02,-4427,5832,-2925,-884,177,-667,1,7,11
5.62E+02,-4494,5607,-2633,-1800,404,-1659,1,7,11
5.63E+02,-4493,5547,-2584,-1725,226,-1863,1,7,11
5.63E+02,-4873,5659,-2187,-1813,145,-1436,1,7,11
5.63E+02,-4574,5710,-2233,-1160,282,-1250,1,7,11
5.63E+02,-4890,5724,-2228,-987,257,-1189,1,7,11
5.64E+02,-5186,5400,-2049,-836,-330,-693,1,7,11
5.64E+02,-4771,5339,-2351,330,-873,-224,1,7,11
5.64E+02,-4958,5520,-2227,589,-743,-260,1,7,11
5.64E+02,-4884,5584,-2573,-56,-737,-137,1,7,11
5.65E+02,-4575,5569,-2592,-627,-472,-423,1,7,11
5.65E+02,-4593,5583,-2581,-950,-337,-729,1,7,11
5.65E+02,-4590,5673,-2177,-1660,376,-982,1,7,11
5.65E+02,-4929,5734,-2213,-1851,808,-1200,1,7,11
5.66E+02,-4853,5690,-2407,-2084,704,-1197,1,7,11
5.66E+02,-4827,5656,-2410,-1985,881,-1378,1,7,11
5.66E+02,-4854,5318,-2128,-2392,698,-1347,1,7,11
5.66E+02,-5183,5316,-2069,-2108,1132,-1391,1,7,11
5.67E+02,-5184,5360,-2132,-1473,1088,-1254,1,7,11
5.67E+02,-5237,5296,-2091,-1250,1038,-1549,1,7,11
5.67E+02,-4994,5501,-2077,-968,1055,-1223,1,7,11
5.67E+02,-5241,5283,-2140,-500,1088,-1408,1,7,11
5.68E+02,-5241,5256,-2153,-194,1147,-1280,1,7,11
5.68E+02,-5242,5270,-1991,85,918,-1455,1,7,11
5.68E+02,-5026,5275,-2310,362,990,-1909,1,7,11
5.68E+02,-5397,5267,-2331,154,1089,-2154,1,7,11
5.69E+02,-5484,5266,-2349,232,848,-2002,1,7,11
5.69E+02,-5283,5486,-2388,-293,608,-2025,1,7,11
5.69E+02,-5271,5062,-2308,-217,210,-2134,1,7,11
5.69E+02,-5444,5037,-2380,-143,393,-1677,1,7,11
5.70E+02,-5239,5009,-2626,-256,1481,-963,1,7,11
5.70E+02,-5455,5211,-2236,-442,3036,-291,1,7,11
5.70E+02,-5351,5241,-2394,-461,3076,-210,1,7,11
5.70E+02,-5297,5041,-2274,-782,2225,-421,1,7,11
5.71E+02,-5312,5228,-2225,-669,1737,-194,1,7,11
5.71E+02,-5104,4752,-2307,-517,1438,-119,1,7,11
5.71E+02,-5156,5170,-2295,451,1477,-186,1,7,11
5.71E+02,-5046,5502,-2697,146,1503,-873,1,7,11
5.72E+02,-5414,5032,-2467,-417,1415,-492,1,7,11
5.72E+02,-5458,5130,-2610,-390,1168,-538,1,7,11
5.72E+02,-5464,4838,-2591,-269,937,3,1,7,11
5.72E+02,-5075,5011,-2871,268,755,-120,1,7,11
5.73E+02,-5513,5741,-4132,-435,662,-318,1,7,11
5.73E+02,-4959,5009,-2497,-2861,491,-112,1,7,11
5.73E+02,-4770,4339,-1714,-1755,1504,-908,1,7,11
5.73E+02,-5646,5003,-3088,668,1756,-1788,1,7,11
5.74E+02,-5344,5129,-2936,161,1260,-1362,1,7,11
5.74E+02,-5286,5135,-2929,117,1082,-420,1,7,11
5.74E+02,-5268,5208,-2934,59,469,18,1,7,11
5.74E+02,-5499,5194,-2924,-355,212,-10,1,7,11
5.75E+02,-5444,5175,-2940,-209,275,258,1,7,11
5.75E+02,-5398,5215,-2715,-247,67,-101,1,7,11
5.75E+02,-5416,5204,-2927,-774,7,95,1,7,11
5.75E+02,-5446,5195,-2887,-889,-273,-109,1,7,11
5.76E+02,-5478,5214,-2836,-699,-328,-9,1,7,11
5.76E+02,-5437,5189,-2510,-1028,-203,155,1,7,11
5.76E+02,-5464,5073,-2253,330,-1525,431,1,7,11
5.76E+02,-5409,5052,-2263,175,-1860,645,1,7,11
5.77E+02,-5062,5009,-2267,252,-1829,1103,1,7,11
5.77E+02,-5020,5000,-2248,396,-1475,991,1,7,11
5.77E+02,-5197,5081,-2266,861,-1426,1361,1,7,11
5.77E+02,-4838,5452,-2593,1050,-1630,1217,1,7,11
5.78E+02,-4760,5313,-2630,1128,-1265,1558,1,7,11
5.78E+02,-4968,5645,-2637,1086,-1372,1594,1,7,11
5.78E+02,-4945,5694,-2616,733,-982,1560,1,7,11
5.78E+02,-4940,5738,-2610,878,-915,1214,1,7,11
5.79E+02,-4949,5757,-2602,480,-1139,1330,1,7,11
5.79E+02,-4968,5514,-2586,588,-1108,902,1,7,11
5.79E+02,-4753,5531,-2302,153,-1066,705,1,7,11
5.79E+02,-4801,5538,-2246,-58,-767,505,1,7,11
5.80E+02,-4843,5757,-2383,-281,-724,578,1,7,11
5.80E+02,-5148,5725,-2316,-188,-680,358,1,7,11
5.80E+02,-5150,5716,-2027,-597,-884,292,1,7,11
5.80E+02,-5135,5670,-1984,-625,-795,308,1,7,11
5.81E+02,-5150,5374,-1949,-555,-419,379,1,7,11
5.81E+02,-5143,5321,-1929,-162,-568,227,1,7,11
5.81E+02,-5137,5274,-2158,33,-212,571,1,7,11
5.81E+02,-5143,5503,-2137,263,-154,631,1,7,11
5.82E+02,-5125,5265,-1926,239,-144,409,1,7,11
5.82E+02,-4829,5281,-1955,419,-384,428,1,7,11
5.82E+02,-4807,5337,-1997,837,-379,434,1,7,11
5.82E+02,-4793,5675,-2325,682,-132,443,1,7,11
5.83E+02,-4771,5741,-2385,697,-148,458,1,7,11
5.83E+02,-4738,5524,-2208,664,-150,479,1,7,11
5.83E+02,-4971,5531,-2245,843,-362,495,1,7,11
5.83E+02,-4976,5521,-2227,779,-336,496,1,7,11
5.84E+02,-4988,5538,-2269,794,-371,485,1,7,11
5.84E+02,-4974,5549,-2291,465,-383,472,1,7,11
5.84E+02,-4737,5530,-2279,638,-371,443,1,7,11
5.84E+02,-4757,5523,-2262,541,-371,401,1,7,11
5.85E+02,-4767,5738,-2231,174,-371,618,1,7,11
5.85E+02,-4768,5698,-2206,355,-381,573,1,7,11
5.85E+02,-4750,5641,-2187,286,-371,533,1,7,11
5.85E+02,-4742,5364,-2430,258,-336,229,1,7,11
5.86E+02,-4745,5357,-2411,-23,-276,180,1,7,11
5.86E+02,-4764,5365,-2390,-35,49,131,1,7,11
5.86E+02,-4782,5637,-2363,-50,104,338,1,7,11
5.86E+02,-4798,5644,-2342,-55,-117,302,1,7,11
5.87E+02,-4803,5658,-2320,-49,-79,274,1,7,11
5.87E+02,-4824,5682,-2038,-39,-36,-1,1,7,11
5.87E+02,-4842,5696,-2014,-13,-14,-8,1,7,11
5.87E+02,-4832,5700,-2018,286,-19,263,1,7,11
5.88E+02,-4817,5688,-2018,321,-9,301,1,7,11
5.88E+02,-4788,5638,-2024,360,266,361,1,7,11
5.88E+02,-4789,5315,-2041,154,288,141,1,7,11
5.88E+02,-4821,5269,-2035,226,279,134,1,7,11
5.89E+02,-4849,5261,-2318,583,-53,362,1,7,11
5.89E+02,-4861,5276,-2372,409,86,327,1,7,11
5.89E+02,-4845,5306,-2424,468,-302,298,1,7,11
5.89E+02,-4818,5345,-2252,511,-165,288,1,7,11
5.90E+02,-4804,5366,-2582,509,-251,303,1,7,11
5.90E+02,-4791,5645,-2641,509,-531,345,1,7,11
5.90E+02,-4743,5688,-2477,491,-524,160,1,7,11
5.90E+02,-4762,5676,-2492,392,-180,222,1,7,11
5.91E+02,-4748,5681,-2515,589,-135,534,1,7,11
5.91E+02,-4977,5675,-2513,246,-343,576,1,7,11
5.91E+02,-4935,5660,-2532,188,-300,612,1,7,11
5.91E+02,-4907,5643,-2538,377,18,634,1,7,11
5.92E+02,-4866,5635,-2843,339,78,407,1,7,11
5.92E+02,-4515,5365,-2890,280,219,403,1,7,11
5.92E+02,-4499,5656,-2898,296,592,387,1,7,11
5.92E+02,-4729,5658,-2892,285,449,628,1,7,11
5.93E+02,-4699,5669,-2909,311,827,626,1,7,11
5.93E+02,-4709,5679,-2909,322,714,633,1,7,11
5.93E+02,-4708,5661,-2907,331,1088,389,1,7,11
5.93E+02,-4722,5634,-2887,372,923,402,1,7,11
5.94E+02,-4723,5647,-2897,185,962,424,1,7,11
5.94E+02,-4712,5656,-2911,234,979,456,1,7,11
5.94E+02,-4684,5660,-2933,520,981,491,1,7,11
5.94E+02,-4646,5662,-2708,532,992,784,1,7,11
5.95E+02,-4345,5659,-2731,548,993,836,1,7,11
5.95E+02,-4293,5682,-2758,583,994,663,1,7,11
5.95E+02,-4243,5743,-2808,421,953,727,1,7,11
5.95E+02,-4432,5569,-3170,433,927,1070,1,7,11
5.96E+02,-4393,5583,-2958,594,970,915,1,7,11
5.96E+02,-4391,5590,-2975,216,1282,1007,1,7,11
5.96E+02,-4361,5582,-3010,368,1021,1362,1,7,11
5.96E+02,-4038,5583,-3041,339,971,1233,1,7,11
5.97E+02,-4188,5608,-3356,369,931,1409,1,7,11
5.97E+02,-3831,5623,-3375,134,960,1864,1,7,11
5.97E+02,-3741,5893,-3374,193,1000,2049,1,7,11
5.97E+02,-3866,5922,-3400,524,1282,1939,1,7,11
5.98E+02,-3498,5935,-3407,592,1348,2039,1,7,11
5.98E+02,-3614,5952,-3450,405,1173,2351,1,7,11
5.98E+02,-3212,5953,-3235,479,1573,2360,1,7,11
5.98E+02,-3365,5980,-3252,818,1523,2313,1,7,11
5.99E+02,-3018,5796,-3317,646,1732,1971,1,7,11
5.99E+02,-3178,5886,-3663,666,1946,2130,1,7,11
5.99E+02,-3129,6220,-3464,853,2189,1756,1,7,11
5.99E+02,-3125,6021,-3527,443,2640,1877,1,7,11
6.00E+02,-3095,6029,-3577,206,2485,1486,1,7,11
6.00E+02,-2751,6219,-3583,-21,2515,1615,1,7,11
6.00E+02,-2855,6148,-3857,-118,2516,1272,1,7,11
6.00E+02,-2468,5884,-3891,-100,2855,1237,1,7,11
6.01E+02,-2563,5823,-3859,-32,2704,1552,1,7,11
6.01E+02,-2190,5788,-3853,211,3118,1427,1,7,11
6.01E+02,-2372,5820,-3866,782,3064,1888,1,7,11
6.01E+02,-2031,5787,-3874,1042,3265,2143,1,7,11
6.02E+02,-1961,5798,-3914,1352,3707,2396,1,7,11
6.02E+02,-2162,5854,-3737,1622,3862,2644,1,7,11
6.02E+02,-1748,6144,-4122,1809,3712,2721,1,7,11
6.02E+02,-1862,6165,-3987,1690,3942,3146,1,7,11
6.03E+02,-1426,6197,-4393,1766,3894,3018,1,7,11
6.03E+02,-1235,6175,-4245,1699,3578,3377,1,7,11
6.03E+02,-1322,5871,-4325,1857,3488,3427,1,7,11
6.03E+02,-937,5794,-4643,1486,3605,3403,1,7,11
6.04E+02,-1051,5962,-4702,1635,3424,3067,1,7,11
6.04E+02,-894,5915,-4521,1556,2978,3187,1,7,11
6.04E+02,-508,5889,-4586,1177,2798,2734,1,7,11
6.04E+02,-627,5536,-4586,1292,2860,2526,1,7,11
6.05E+02,-219,5512,-4895,997,2628,2585,1,7,11
6.05E+02,-300,5511,-4989,952,2415,2420,1,7,11
6.05E+02,97,5720,-4779,1128,1999,2010,1,7,11
6.05E+02,-57,5695,-4810,1093,2104,2128,1,7,11
6.06E+02,303,5699,-4852,1068,1688,1762,1,7,11
6.06E+02,164,5687,-5152,1037,1523,1677,1,7,11
6.06E+02,515,5702,-5209,733,1651,1850,1,7,11
6.06E+02,587,5670,-5227,873,1549,1518,1,7,11
6.07E+02,391,5372,-5216,802,1183,1453,1,7,11
6.07E+02,450,5344,-5228,780,1301,1655,1,7,11
6.07E+02,784,5343,-5011,776,1146,1599,1,7,11
6.07E+02,876,5310,-5027,450,748,1264,1,7,11
6.08E+02,694,5250,-5034,630,663,1178,1,7,11
6.08E+02,766,5470,-5037,594,843,1338,1,7,11
6.08E+02,1078,5447,-5059,553,784,976,1,7,11
6.08E+02,1113,5412,-5060,238,491,1124,1,7,11
6.09E+02,899,5399,-5084,209,425,762,1,7,11
6.09E+02,941,5387,-5105,153,611,656,1,7,11
6.09E+02,972,5385,-5382,365,545,799,1,7,11
6.09E+02,988,5094,-5377,288,223,433,1,7,11
6.10E+02,999,5095,-5378,-33,383,549,1,7,11
6.10E+02,993,5084,-5095,-81,349,251,1,7,11
6.10E+02,975,5076,-5078,127,289,189,1,7,11
6.10E+02,971,5083,-5078,-125,-47,144,1,7,11
6.11E+02,952,5093,-5067,-118,-110,140,1,7,11
6.11E+02,965,5095,-5091,-107,77,160,1,7,11
6.11E+02,962,5106,-5105,-93,70,178,1,7,11
6.11E+02,938,5105,-5111,-109,65,190,1,7,11
6.12E+02,923,5105,-5379,125,51,186,1,7,11
6.12E+02,929,5093,-5386,111,33,165,1,7,11
6.12E+02,945,5087,-5116,105,16,132,1,7,11
6.12E+02,996,5087,-5393,102,9,366,1,7,11
6.13E+02,1021,5046,-5116,66,56,344,1,7,11
6.13E+02,1286,5044,-5380,94,107,324,1,7,11
6.13E+02,1020,5058,-5382,98,-79,299,1,7,11
6.13E+02,986,5058,-5104,87,-25,272,1,7,11
6.14E+02,973,5063,-5088,94,-6,-3,1,7,11
6.14E+02,967,5061,-5090,95,261,-17,1,7,11
6.14E+02,966,5052,-5091,91,270,-32,1,7,11
6.14E+02,960,5046,-5096,80,276,-56,1,7,11
6.15E+02,954,5034,-5087,76,277,-78,1,7,11
6.15E+02,953,5005,-5070,79,262,-94,1,7,11
6.15E+02,967,5246,-5080,124,-21,-102,1,7,11
6.15E+02,967,4996,-5104,-84,-37,-101,1,7,11
6.16E+02,955,5008,-5381,-45,-57,-98,1,7,11
6.16E+02,951,5008,-5397,-27,-87,-95,1,7,11
6.16E+02,955,5007,-5427,-12,-111,-105,1,7,11
6.16E+02,950,5034,-5452,-7,-113,-128,1,7,11
6.17E+02,941,5030,-5449,-43,-93,103,1,7,11
6.17E+02,928,5018,-5437,-106,-61,82,1,7,11
6.17E+02,933,5002,-5425,-128,-54,87,1,7,11
6.17E+02,949,4997,-5433,121,-53,98,1,7,11
6.18E+02,963,5231,-5426,99,-42,113,1,7,11
6.18E+02,976,5207,-5418,98,-38,123,1,7,11
6.18E+02,977,5200,-5424,106,-37,-128,1,7,11
6.18E+02,990,5194,-5440,113,-40,-122,1,7,11
6.19E+02,1011,5203,-5457,116,-48,-119,1,7,11
6.19E+02,1016,5196,-5461,106,-44,-116,1,7,11
6.19E+02,1281,5172,-5449,108,-48,-101,1,7,11
6.19E+02,1016,5183,-5452,-112,-50,-88,1,7,11
6.20E+02,1004,5210,-5468,-92,-50,-78,1,7,11
6.20E+02,1001,5221,-5459,-109,-39,-66,1,7,11
6.20E+02,1017,5198,-5453,126,-40,-51,1,7,11
6.20E+02,1284,5188,-5453,125,-35,-45,1,7,11
6.21E+02,1293,5177,-5463,116,-23,-38,1,7,11
6.21E+02,1303,5197,-5499,118,-16,-50,1,7,11
6.21E+02,1330,5195,-5269,64,256,-77,1,7,11
6.21E+02,1353,5165,-5273,10,276,-110,1,7,11
6.22E+02,1354,5146,-5258,-278,297,105,1,7,11
6.22E+02,1360,5128,-5496,-287,305,75,1,7,11
6.22E+02,1367,5122,-5486,-284,312,57,1,7,11
6.22E+02,1364,5134,-5475,-269,320,46,1,7,11
6.23E+02,1344,5145,-5472,1,316,44,1,7,11
6.23E+02,1334,5124,-5456,-266,303,48,1,7,11
6.23E+02,1323,4858,-5460,20,293,52,1,7,11
6.23E+02,1324,5142,-5474,49,284,56,1,7,11
6.24E+02,1327,5161,-5486,49,280,62,1,7,11
6.24E+02,1333,5158,-5499,37,278,75,1,7,11
6.24E+02,1335,5158,-5250,9,287,86,1,7,11
6.24E+02,1343,5165,-5251,-260,275,84,1,7,11
6.25E+02,1361,5159,-5259,-292,264,71,1,7,11
6.25E+02,1378,5146,-5267,-315,260,60,1,7,11
6.25E+02,1389,5124,-5502,-348,268,47,1,7,11
6.25E+02,1386,5125,-5487,-341,269,32,1,7,11
6.26E+02,1380,5134,-5480,-336,257,15,1,7,11
6.26E+02,1383,5135,-5468,-338,-16,12,1,7,11
6.26E+02,1397,5127,-5463,-335,-37,8,1,7,11
6.26E+02,1400,5129,-5463,-329,-44,-263,1,7,11
6.27E+02,1157,5124,-5472,-331,-56,-285,1,7,11
6.27E+02,1171,5130,-5479,-344,-58,-317,1,7,11
6.27E+02,1191,5120,-5490,-352,-70,-352,1,7,11
6.27E+02,1188,5129,-5496,-366,-82,-147,1,7,11
6.28E+02,1174,5126,-5488,-144,-101,-196,1,7,11
6.28E+02,1154,5149,-5493,-160,122,-248,1,7,11
6.28E+02,1395,5173,-5490,-190,69,-542,1,7,11
6.28E+02,1380,5180,-5471,-230,5,-574,1,7,11
6.29E+02,1376,5181,-5461,-254,-333,-595,1,7,11
6.29E+02,1380,5192,-5464,-527,-151,-618,1,7,11
6.29E+02,1365,5194,-5456,-546,-205,-390,1,7,11
6.29E+02,1356,5221,-5484,-553,-253,-418,1,7,11
6.30E+02,1350,5234,-5496,-588,-525,-449,1,7,11
6.30E+02,1314,5222,-5467,-622,-525,-493,1,7,11
6.30E+02,1287,5226,-5447,-610,-557,-795,1,7,11
6.30E+02,999,5229,-5409,-583,-633,-848,1,7,11
6.31E+02,975,5203,-5380,-255,-785,-642,1,7,11
6.31E+02,998,5213,-5446,-143,-681,-700,1,7,11
6.31E+02,960,5186,-5442,-159,-720,-749,1,7,11
6.31E+02,961,5210,-5493,-161,-723,-1059,1,7,11
6.32E+02,905,5235,-5500,-521,-656,-1116,1,7,11
6.32E+02,1099,5236,-5462,-632,-866,-1145,1,7,11
6.32E+02,1070,5247,-5458,-419,-882,-904,1,7,11
6.32E+02,683,5037,-5438,-517,-673,-969,1,7,11
6.33E+02,864,5083,-5445,-835,-757,-1319,1,7,11
6.33E+02,506,5406,-5428,-674,-1127,-1204,1,7,11
6.33E+02,596,5455,-5080,-1060,-1304,-1635,1,7,11
6.33E+02,242,5263,-5064,-1123,-1630,-1801,1,7,11
6.34E+02,366,5357,-5056,-975,-1717,-1742,1,7,11
6.34E+02,-15,5715,-5061,-1379,-2343,-1944,1,7,11
6.34E+02,95,5504,-4997,-1622,-2438,-2420,1,7,11
6.34E+02,-321,5525,-5155,-1817,-2800,-2615,1,7,11
6.35E+02,-524,5603,-4814,-1699,-3432,-2547,1,7,11
6.35E+02,-472,5888,-4990,-2138,-3578,-2707,1,7,11
6.35E+02,-653,5902,-4925,-2034,-4014,-3106,1,7,11
6.35E+02,-1064,5892,-4601,-2409,-4701,-2967,1,7,11
6.36E+02,-925,5889,-4535,-2207,-4827,-3056,1,7,11
6.36E+02,-1283,5890,-4711,-2184,-5386,-3355,1,7,11
6.36E+02,-1304,5941,-4637,-2036,-5353,-3040,1,7,11
6.36E+02,-997,5843,-4689,-2060,-5656,-3090,1,7,11
6.37E+02,-1337,5988,-4254,-2055,-5389,-2839,1,7,11
6.37E+02,-1260,5608,-4065,-1843,-4816,-2642,1,7,11
6.37E+02,-1465,5518,-4190,-1557,-4528,-2268,1,7,11
6.37E+02,-1672,5671,-3836,-974,-4264,-2225,1,7,11
6.38E+02,-2167,5664,-3817,-837,-4054,-2281,1,7,11
6.38E+02,-2424,5688,-3835,-526,-4154,-2654,1,7,11
