timestamp,ax,ay,az,gx,gy,gz,Label1,Label2,Label3
3.18E+03,-8292,-516,1524,-290,-90,48,1,7,11
3.18E+03,-8292,-525,1529,-284,-83,48,1,7,11
3.18E+03,-8298,-525,1534,-277,-77,47,1,7,11
3.18E+03,-8300,-255,1532,-270,-82,54,1,7,11
3.18E+03,-8289,-256,1522,-278,-85,60,1,7,11
3.18E+03,-8274,-525,1513,-284,-82,67,1,7,11
3.18E+03,-8285,-529,1519,-285,-67,70,1,7,11
3.18E+03,-8312,-525,1527,-282,-52,80,1,7,11
3.18E+03,-8073,-256,1523,-272,-61,109,1,7,11
3.18E+03,-8320,-236,1503,-265,-71,-113,1,7,11
3.18E+03,-8309,-224,1504,-269,-69,-89,1,7,11
3.18E+03,-8305,-215,1506,-271,-65,-75,1,7,11
3.18E+03,-8305,-210,1513,-271,-56,-78,1,7,11
3.18E+03,-8305,-202,1515,-265,-55,-87,1,7,11
3.18E+03,-8299,-194,1507,1,-59,-106,1,7,11
3.18E+03,-8302,-179,1500,11,-56,124,1,7,11
3.18E+03,-8306,-169,1499,9,-52,101,1,7,11
3.18E+03,-8317,-164,1496,-258,-55,83,1,7,11
3.19E+03,-8068,-172,1496,-270,-59,63,1,7,11
3.19E+03,-8070,-169,1500,-280,-66,43,1,7,11
3.19E+03,-8320,-181,1504,-291,-76,29,1,7,11
3.19E+03,-8307,-186,1504,-301,-80,17,1,7,11
3.19E+03,-8300,-194,1503,-307,-81,8,1,7,11
3.19E+03,-8280,-207,1496,-311,-80,9,1,7,11
3.19E+03,-8286,-223,1500,-316,-55,-257,1,7,11
3.19E+03,-8299,-236,1507,-318,-45,1,1,7,11
3.19E+03,-8295,-245,1507,-313,-45,4,1,7,11
3.19E+03,-8293,-249,1510,-310,-44,8,1,7,11
3.19E+03,-8293,-256,1497,-306,-41,13,1,7,11
3.19E+03,-8291,-251,1487,-306,-37,18,1,7,11
3.19E+03,-8297,-245,1486,-314,-29,31,1,7,11
3.19E+03,-8306,-243,1480,-322,-28,46,1,7,11
3.19E+03,-8316,-244,1483,-326,-23,57,1,7,11
3.19E+03,-8065,-249,1492,-322,-32,72,1,7,11
3.19E+03,-8320,-518,1491,-309,-42,86,1,7,11
3.19E+03,-8320,-518,1486,-294,-47,97,1,7,11
3.19E+03,-8315,-517,1486,-275,-58,99,1,7,11
3.19E+03,-8318,-252,1476,-251,-60,94,1,7,11
3.19E+03,-8319,-239,1479,16,-61,89,1,7,11
3.19E+03,-8319,-228,1472,18,-66,88,1,7,11
3.19E+03,-8319,-226,1476,14,-69,89,1,7,11
3.19E+03,-8066,-221,1478,11,-71,85,1,7,11
3.19E+03,-8317,-215,1472,3,-75,80,1,7,11
3.19E+03,-8310,-214,1466,-267,-76,79,1,7,11
3.19E+03,-8309,-214,1469,-284,-76,77,1,7,11
3.19E+03,-8307,-219,1476,-312,-73,71,1,7,11
3.19E+03,-8305,-218,1468,-317,-68,70,1,7,11
3.19E+03,-8302,-242,1471,-284,-63,73,1,7,11
3.19E+03,-8307,-233,1471,-267,-67,71,1,7,11
3.19E+03,-8308,-222,1469,-259,-74,72,1,7,11
3.19E+03,-8301,-224,1462,-266,-80,74,1,7,11
3.19E+03,-8316,-221,1468,-272,-77,71,1,7,11
3.19E+03,-8076,-222,1477,-277,-82,71,1,7,11
3.19E+03,-8087,-214,1478,-273,-99,77,1,7,11
3.19E+03,-8068,-207,1463,-272,-116,93,1,7,11
3.19E+03,-8312,-205,1464,-278,-121,106,1,7,11
3.19E+03,-8298,-200,1462,-280,-118,115,1,7,11
3.19E+03,-8294,-201,1468,-277,-107,110,1,7,11
3.20E+03,-8301,-194,1480,-266,-103,106,1,7,11
3.20E+03,-8300,-183,1485,1,-107,99,1,7,11
3.20E+03,-8298,-166,1481,12,-105,81,1,7,11
3.20E+03,-8299,-161,1481,18,-98,76,1,7,11
3.20E+03,-8299,-153,1480,10,-89,59,1,7,11
3.20E+03,-8313,-159,1487,-277,-86,45,1,7,11
3.20E+03,-8317,-169,1494,-297,-94,32,1,7,11
3.20E+03,-8314,-184,1489,-317,-104,17,1,7,11
3.20E+03,-8312,-192,1493,-334,-105,4,1,7,11
3.20E+03,-8314,-202,1487,-339,-106,1,1,7,11
3.20E+03,-8295,-221,1492,-347,-100,-259,1,7,11
3.20E+03,-8303,-242,1501,-346,-86,-270,1,7,11
3.20E+03,-8304,-254,1507,-329,-85,-273,1,7,11
3.20E+03,-8302,-252,1501,-306,-82,-277,1,7,11
3.20E+03,-8303,-242,1488,-289,-82,-273,1,7,11
3.20E+03,-8307,-234,1479,-283,-83,-257,1,7,11
3.20E+03,-8308,-230,1469,-289,-77,16,1,7,11
3.20E+03,-8308,-237,1478,-298,-74,34,1,7,11
3.20E+03,-8312,-247,1483,-305,-76,50,1,7,11
3.20E+03,-8314,-514,1492,-308,-84,57,1,7,11
3.20E+03,-8311,-526,1490,-309,-92,58,1,7,11
3.20E+03,-8311,-534,1488,-300,-98,49,1,7,11
3.20E+03,-8313,-523,1496,-285,-103,42,1,7,11
3.20E+03,-8308,-518,1500,-267,-103,44,1,7,11
3.20E+03,-8311,-256,1502,-258,-99,53,1,7,11
3.20E+03,-8305,-255,1499,1,-96,62,1,7,11
3.20E+03,-8304,-248,1493,3,-90,63,1,7,11
3.20E+03,-8302,-233,1493,-264,-90,66,1,7,11
3.20E+03,-8305,-231,1498,-280,-93,70,1,7,11
3.20E+03,-8305,-231,1494,-298,-98,77,1,7,11
3.20E+03,-8299,-232,1488,-309,-99,88,1,7,11
3.20E+03,-8296,-229,1496,-319,-89,98,1,7,11
3.20E+03,-8296,-241,1500,-322,-72,111,1,7,11
3.20E+03,-8288,-237,1497,-311,-67,113,1,7,11
3.20E+03,-8293,-203,1471,-315,-61,70,1,7,11
3.20E+03,-8067,-216,1494,-329,-54,62,1,7,11
3.20E+03,-8077,-215,1496,-317,-71,71,1,7,11
3.20E+03,-8315,-210,1487,-303,-90,85,1,7,11
3.20E+03,-8300,-199,1473,-302,-92,94,1,7,11
3.20E+03,-8292,-209,1477,-301,-84,94,1,7,11
3.21E+03,-8295,-208,1485,-295,-75,87,1,7,11
3.21E+03,-8300,-201,1488,-287,-75,84,1,7,11
3.21E+03,-8298,-190,1485,-281,-84,77,1,7,11
3.21E+03,-8304,-184,1483,-282,-84,73,1,7,11
3.21E+03,-8306,-182,1483,-292,-81,70,1,7,11
3.21E+03,-8308,-188,1481,-309,-75,63,1,7,11
3.21E+03,-8309,-198,1491,-320,-76,55,1,7,11
3.21E+03,-8311,-205,1488,-330,-78,44,1,7,11
3.21E+03,-8308,-217,1488,-332,-79,36,1,7,11
3.21E+03,-8305,-217,1490,-335,-73,30,1,7,11
3.21E+03,-8270,-223,1488,-336,-77,35,1,7,11
3.21E+03,-8292,-241,1501,-345,-56,19,1,7,11
3.21E+03,-8306,-249,1500,-348,-32,15,1,7,11
3.21E+03,-8304,-253,1490,-335,-37,16,1,7,11
3.21E+03,-8303,-248,1479,-320,-38,16,1,7,11
3.21E+03,-8307,-236,1475,-314,-37,19,1,7,11
3.21E+03,-8303,-228,1464,-315,-29,23,1,7,11
3.21E+03,-8311,-231,1460,-326,-25,31,1,7,11
3.21E+03,-8320,-239,1455,-333,-29,37,1,7,11
3.21E+03,-8066,-252,1452,-330,-40,37,1,7,11
3.21E+03,-8069,-517,1458,-323,-56,33,1,7,11
3.21E+03,-8069,-527,1464,-308,-70,27,1,7,11
3.21E+03,-8319,-526,1455,-293,-80,19,1,7,11
3.21E+03,-8316,-527,1449,-278,-85,12,1,7,11
3.21E+03,-8313,-523,1448,-261,-87,7,1,7,11
3.21E+03,-8311,-515,1451,7,-84,1,1,7,11
3.21E+03,-8306,-248,1453,13,-83,1,1,7,11
3.21E+03,-8307,-247,1456,13,-80,4,1,7,11
3.21E+03,-8303,-243,1456,7,-80,11,1,7,11
3.21E+03,-8305,-243,1454,-258,-79,18,1,7,11
3.21E+03,-8300,-246,1452,-268,-73,23,1,7,11
3.21E+03,-8305,-246,1461,-277,-64,29,1,7,11
3.21E+03,-8296,-247,1460,-286,-59,37,1,7,11
3.21E+03,-8304,-251,1460,-290,-57,41,1,7,11
3.21E+03,-8299,-252,1464,-292,-59,41,1,7,11
3.21E+03,-8302,-251,1461,-294,-48,32,1,7,11
3.21E+03,-8310,-249,1461,-292,-45,22,1,7,11
3.21E+03,-8302,-240,1451,-286,-53,9,1,7,11
3.21E+03,-8301,-241,1447,-292,-55,5,1,7,11
3.21E+03,-8307,-240,1444,-313,-56,9,1,7,11
3.22E+03,-8065,-248,1454,-333,-45,4,1,7,11
3.22E+03,-8086,-253,1459,-333,-53,11,1,7,11
3.22E+03,-8077,-253,1456,-324,-75,27,1,7,11
3.22E+03,-8320,-255,1448,-319,-89,41,1,7,11
3.22E+03,-8309,-520,1447,-313,-91,49,1,7,11
3.22E+03,-8305,-526,1457,-301,-86,54,1,7,11
3.22E+03,-8306,-529,1456,-281,-84,59,1,7,11
3.22E+03,-8306,-529,1459,-259,-87,59,1,7,11
3.22E+03,-8307,-525,1455,14,-90,54,1,7,11
3.22E+03,-8307,-519,1454,30,-88,44,1,7,11
3.22E+03,-8313,-254,1453,31,-87,33,1,7,11
3.22E+03,-8316,-256,1456,22,-91,21,1,7,11
3.22E+03,-8317,-513,1459,9,-99,6,1,7,11
3.22E+03,-8318,-517,1461,-261,-105,-262,1,7,11
3.22E+03,-8314,-524,1465,-273,-109,-271,1,7,11
3.22E+03,-8308,-534,1474,-293,-112,-277,1,7,11
3.22E+03,-8284,-547,1459,-298,-115,-281,1,7,11
3.22E+03,-8307,-567,1478,-303,-77,-301,1,7,11
3.22E+03,-8308,-574,1479,-301,-79,-299,1,7,11
3.22E+03,-8310,-578,1470,-296,-75,-294,1,7,11
3.22E+03,-8306,-574,1464,-291,-73,-284,1,7,11
3.22E+03,-8306,-570,1453,-294,-71,-272,1,7,11
3.22E+03,-8313,-572,1451,-304,-65,4,1,7,11
3.22E+03,-8312,-580,1448,-315,-65,27,1,7,11
3.22E+03,-8065,-600,1460,-322,-60,41,1,7,11
3.22E+03,-8317,-603,1471,-312,-63,48,1,7,11
3.22E+03,-8068,-601,1470,-297,-71,49,1,7,11
3.22E+03,-8318,-597,1465,-281,-80,48,1,7,11
3.22E+03,-8314,-590,1464,-267,-87,48,1,7,11
3.22E+03,-8312,-585,1463,-257,-86,52,1,7,11
3.22E+03,-8306,-579,1461,0,-84,57,1,7,11
3.22E+03,-8301,-579,1449,-264,-84,61,1,7,11
3.22E+03,-8299,-573,1453,-270,-84,65,1,7,11
3.22E+03,-8299,-571,1460,-278,-84,69,1,7,11
3.22E+03,-8295,-574,1459,-287,-84,79,1,7,11
3.22E+03,-8294,-570,1460,-295,-80,87,1,7,11
3.22E+03,-8295,-568,1465,-304,-73,98,1,7,11
3.22E+03,-8302,-571,1468,-308,-65,112,1,7,11
3.22E+03,-8303,-576,1463,-307,-63,-128,1,7,11
3.22E+03,-8305,-573,1462,-295,-59,-120,1,7,11
3.23E+03,-8305,-568,1461,-287,-56,-119,1,7,11
3.23E+03,-8306,-564,1452,-272,-50,-126,1,7,11
3.23E+03,-8315,-536,1438,-257,-50,126,1,7,11
3.23E+03,-8304,-531,1435,-272,-61,124,1,7,11
3.23E+03,-8307,-530,1433,-283,-60,120,1,7,11
3.23E+03,-8320,-531,1445,-292,-58,112,1,7,11
3.23E+03,-8080,-539,1451,-295,-66,109,1,7,11
3.23E+03,-8073,-529,1443,-282,-82,116,1,7,11
3.23E+03,-8310,-520,1453,-271,-87,-107,1,7,11
3.23E+03,-8312,-238,1447,5,-72,69,1,7,11
3.23E+03,-8317,-240,1448,-273,-74,50,1,7,11
3.23E+03,-8316,-245,1454,-290,-77,38,1,7,11
3.23E+03,-8312,-246,1454,-302,-81,29,1,7,11
3.23E+03,-8309,-255,1454,-310,-80,25,1,7,11
3.23E+03,-8301,-255,1436,-313,-82,29,1,7,11
3.23E+03,-8290,-517,1439,-326,-72,26,1,7,11
3.23E+03,-8305,-529,1446,-335,-55,13,1,7,11
3.23E+03,-8311,-538,1443,-330,-61,14,1,7,11
3.23E+03,-8314,-538,1444,-329,-75,14,1,7,11
3.23E+03,-8314,-545,1440,-326,-79,20,1,7,11
3.23E+03,-8314,-544,1432,-318,-81,25,1,7,11
3.23E+03,-8315,-548,1428,-318,-74,31,1,7,11
3.23E+03,-8316,-551,1431,-316,-74,32,1,7,11
3.23E+03,-8320,-556,1438,-315,-73,27,1,7,11
3.23E+03,-8066,-560,1437,-311,-82,24,1,7,11
3.23E+03,-8066,-567,1446,-304,-91,19,1,7,11
3.23E+03,-8065,-570,1446,-293,-101,15,1,7,11
3.23E+03,-8319,-577,1447,-284,-109,15,1,7,11
3.23E+03,-8309,-577,1445,-277,-110,15,1,7,11
3.23E+03,-8312,-581,1448,-270,-106,20,1,7,11
3.23E+03,-8310,-584,1444,-266,-105,24,1,7,11
3.23E+03,-8312,-586,1445,-262,-104,31,1,7,11
3.23E+03,-8309,-582,1444,-267,-104,37,1,7,11
3.23E+03,-8302,-582,1444,-273,-107,49,1,7,11
3.23E+03,-8295,-574,1441,-280,-106,59,1,7,11
3.23E+03,-8297,-565,1453,-290,-93,70,1,7,11
3.23E+03,-8299,-565,1456,-301,-83,84,1,7,11
3.23E+03,-8296,-566,1456,-306,-74,98,1,7,11
3.23E+03,-8299,-564,1459,-305,-64,109,1,7,11
3.23E+03,-8300,-567,1450,-304,-52,118,1,7,11
3.24E+03,-8308,-560,1460,-298,-41,120,1,7,11
3.24E+03,-8314,-542,1456,-296,-37,122,1,7,11
3.24E+03,-8305,-533,1457,-294,-40,123,1,7,11
3.24E+03,-8299,-527,1443,-302,-39,120,1,7,11
3.24E+03,-8312,-527,1441,-315,-33,113,1,7,11
3.24E+03,-8084,-530,1448,-321,-31,106,1,7,11
3.24E+03,-8086,-526,1446,-310,-51,114,1,7,11
3.24E+03,-8303,-514,1432,-304,-70,-124,1,7,11
3.24E+03,-8301,-519,1439,-298,-63,126,1,7,11
3.24E+03,-8302,-522,1441,-279,-61,109,1,7,11
3.24E+03,-8305,-514,1439,0,-68,92,1,7,11
3.24E+03,-8303,-239,1438,20,-72,77,1,7,11
3.24E+03,-8305,-219,1425,27,-74,66,1,7,11
3.24E+03,-8314,-215,1434,20,-72,62,1,7,11
3.24E+03,-8065,-217,1423,5,-76,59,1,7,11
3.24E+03,-8067,-227,1425,-279,-83,46,1,7,11
3.24E+03,-8320,-236,1428,-293,-84,32,1,7,11
3.24E+03,-8317,-247,1428,-304,-85,16,1,7,11
3.24E+03,-8320,-253,1432,-304,-80,6,1,7,11
3.24E+03,-8301,-516,1429,-301,-85,4,1,7,11
3.24E+03,-8285,-529,1425,-304,-68,-262,1,7,11
3.24E+03,-8305,-553,1445,-303,-42,-280,1,7,11
3.24E+03,-8303,-560,1438,-277,-39,-289,1,7,11
3.24E+03,-8306,-562,1429,-266,-32,-299,1,7,11
3.24E+03,-8317,-558,1428,-262,-29,-298,1,7,11
3.24E+03,-8312,-559,1424,-263,-34,-284,1,7,11
3.24E+03,-8303,-559,1417,-270,-29,-268,1,7,11
3.24E+03,-8304,-575,1419,-284,-23,-258,1,7,11
3.24E+03,-8305,-583,1418,-283,-17,11,1,7,11
3.24E+03,-8313,-591,1417,-269,-8,17,1,7,11
3.24E+03,-8319,-599,1418,-260,-7,24,1,7,11
3.24E+03,-8066,-602,1420,17,-2,30,1,7,11
3.24E+03,-8065,-591,1416,37,-9,33,1,7,11
3.24E+03,-8320,-591,1413,52,-7,33,1,7,11
3.24E+03,-8067,-586,1662,66,-9,34,1,7,11
3.24E+03,-8320,-584,1658,78,-8,34,1,7,11
3.24E+03,-8067,-576,1658,80,-11,34,1,7,11
3.24E+03,-8317,-573,1663,73,-25,37,1,7,11
3.24E+03,-8308,-574,1658,66,-32,39,1,7,11
3.24E+03,-8312,-555,1649,29,-43,51,1,7,11
3.25E+03,-8301,-547,1643,5,-53,62,1,7,11
3.25E+03,-8297,-547,1639,-270,-54,67,1,7,11
3.25E+03,-8306,-551,1635,-297,-52,66,1,7,11
3.25E+03,-8315,-553,1639,-316,-54,65,1,7,11
3.25E+03,-8320,-557,1631,-332,-71,69,1,7,11
3.25E+03,-8313,-566,1628,-356,-98,78,1,7,11
3.25E+03,-8305,-567,1634,-361,-104,85,1,7,11
3.25E+03,-8306,-571,1635,-360,-92,81,1,7,11
3.25E+03,-8081,-579,1654,-345,-74,80,1,7,11
3.25E+03,-8078,-571,1650,-318,-87,93,1,7,11
3.25E+03,-8313,-560,1650,-300,-91,99,1,7,11
3.25E+03,-8303,-554,1648,-289,-89,102,1,7,11
3.25E+03,-8294,-553,1652,-279,-82,102,1,7,11
3.25E+03,-8310,-549,1650,-265,-75,90,1,7,11
3.25E+03,-8299,-544,1646,3,-78,82,1,7,11
3.25E+03,-8310,-532,1643,21,-78,70,1,7,11
3.25E+03,-8312,-527,1649,19,-78,56,1,7,11
3.25E+03,-8319,-527,1650,14,-77,42,1,7,11
3.25E+03,-8069,-525,1643,2,-83,30,1,7,11
3.25E+03,-8068,-525,1641,-266,-91,20,1,7,11
3.25E+03,-8070,-530,1643,-284,-102,7,1,7,11
3.25E+03,-8073,-541,1645,-302,-107,-257,1,7,11
3.25E+03,-8069,-548,1649,-315,-115,-257,1,7,11
3.25E+03,-8291,-559,1650,-327,-118,5,1,7,11
3.25E+03,-8306,-577,1663,-337,-94,-257,1,7,11
3.25E+03,-8309,-597,1418,-335,-92,9,1,7,11
3.25E+03,-8309,-603,1417,-324,-91,14,1,7,11
3.25E+03,-8308,-608,1409,-314,-90,19,1,7,11
3.25E+03,-8306,-605,1408,-301,-88,26,1,7,11
3.25E+03,-8303,-597,1661,-297,-83,33,1,7,11
3.25E+03,-8308,-591,1662,-309,-77,58,1,7,11
3.25E+03,-8320,-604,1408,-308,-78,63,1,7,11
3.25E+03,-8314,-600,1663,-258,-98,26,1,7,11
3.25E+03,-8310,-592,1661,2,-97,26,1,7,11
3.25E+03,-8304,-586,1661,-260,-98,31,1,7,11
3.25E+03,-8302,-580,1661,-267,-99,34,1,7,11
3.25E+03,-8295,-573,1411,-276,-97,44,1,7,11
3.25E+03,-8287,-575,1417,-288,-93,56,1,7,11
3.25E+03,-8284,-581,1414,-299,-88,67,1,7,11
3.25E+03,-8284,-588,1410,-305,-81,77,1,7,11
3.26E+03,-8291,-588,1414,-308,-70,84,1,7,11
3.26E+03,-8300,-589,1426,-306,-58,95,1,7,11
3.26E+03,-8299,-593,1417,-304,-54,106,1,7,11
3.26E+03,-8300,-590,1415,-293,-47,114,1,7,11
3.26E+03,-8298,-591,1412,-286,-39,117,1,7,11
3.26E+03,-8310,-577,1410,-278,-22,113,1,7,11
3.26E+03,-8314,-561,1649,-267,-22,112,1,7,11
3.26E+03,-8311,-550,1647,-272,-26,114,1,7,11
3.26E+03,-8305,-547,1638,-287,-28,110,1,7,11
3.26E+03,-8072,-548,1642,-310,-17,93,1,7,11
3.26E+03,-8090,-549,1642,-325,-15,88,1,7,11
3.26E+03,-8084,-542,1627,-325,-46,92,1,7,11
3.26E+03,-8070,-541,1628,-332,-62,100,1,7,11
3.26E+03,-8313,-550,1626,-333,-66,99,1,7,11
3.26E+03,-8307,-560,1630,-330,-63,94,1,7,11
3.26E+03,-8307,-560,1630,-304,-61,85,1,7,11
3.26E+03,-8306,-559,1637,-281,-62,72,1,7,11
3.26E+03,-8306,-553,1632,-257,-63,57,1,7,11
3.26E+03,-8305,-548,1625,10,-60,45,1,7,11
3.26E+03,-8311,-539,1627,16,-57,35,1,7,11
3.26E+03,-8066,-543,1618,-259,-67,26,1,7,11
3.26E+03,-8069,-546,1615,-276,-75,20,1,7,11
3.26E+03,-8065,-554,1619,-294,-85,15,1,7,11
3.26E+03,-8314,-559,1627,-308,-94,16,1,7,11
3.26E+03,-8307,-566,1627,-317,-92,17,1,7,11
3.26E+03,-8289,-574,1616,-319,-92,25,1,7,11
3.26E+03,-8288,-589,1631,-327,-71,21,1,7,11
3.26E+03,-8300,-603,1646,-319,-57,20,1,7,11
3.26E+03,-8301,-606,1637,-299,-60,24,1,7,11
3.26E+03,-8311,-609,1634,-292,-60,31,1,7,11
3.26E+03,-8313,-600,1630,-286,-62,41,1,7,11
3.26E+03,-8066,-594,1625,-287,-63,52,1,7,11
3.26E+03,-8068,-592,1629,-291,-64,65,1,7,11
3.26E+03,-8071,-590,1631,-297,-64,73,1,7,11
3.26E+03,-8068,-588,1638,-303,-67,75,1,7,11
3.26E+03,-8067,-586,1639,-301,-75,70,1,7,11
3.26E+03,-8070,-594,1637,-295,-85,59,1,7,11
3.26E+03,-8067,-591,1631,-285,-97,49,1,7,11
3.26E+03,-8068,-590,1636,-281,-104,39,1,7,11
3.26E+03,-8067,-590,1637,-279,-107,36,1,7,11
3.27E+03,-8066,-591,1636,-281,-108,32,1,7,11
3.27E+03,-8316,-586,1636,-286,-105,29,1,7,11
3.27E+03,-8312,-582,1635,-289,-109,23,1,7,11
3.27E+03,-8306,-583,1631,-297,-111,19,1,7,11
3.27E+03,-8306,-583,1640,-312,-108,15,1,7,11
3.27E+03,-8308,-589,1639,-329,-105,19,1,7,11
3.27E+03,-8301,-601,1647,-347,-106,23,1,7,11
3.27E+03,-8295,-606,1646,-349,-100,27,1,7,11
3.27E+03,-8297,-605,1646,-353,-92,33,1,7,11
3.27E+03,-8305,-603,1650,-349,-83,46,1,7,11
3.27E+03,-8308,-610,1661,-344,-78,66,1,7,11
3.27E+03,-8305,-609,1656,-336,-73,85,1,7,11
3.27E+03,-8305,-614,1649,-324,-68,99,1,7,11
3.27E+03,-8306,-614,1653,-311,-56,107,1,7,11
3.27E+03,-8309,-600,1648,-294,-51,114,1,7,11
3.27E+03,-8308,-594,1634,-289,-55,122,1,7,11
3.27E+03,-8296,-584,1631,-293,-61,-127,1,7,11
3.27E+03,-8303,-577,1630,-295,-60,-126,1,7,11
3.27E+03,-8073,-580,1638,-303,-53,124,1,7,11
3.27E+03,-8081,-568,1633,-301,-55,-127,1,7,11
3.27E+03,-8065,-549,1622,-284,-76,-119,1,7,11
3.27E+03,-8309,-549,1629,-285,-73,-114,1,7,11
3.27E+03,-8301,-551,1627,-286,-65,-118,1,7,11
3.27E+03,-8303,-553,1636,-287,-56,-128,1,7,11
3.27E+03,-8307,-545,1638,-277,-53,115,1,7,11
3.27E+03,-8300,-539,1623,-272,-58,103,1,7,11
3.27E+03,-8304,-531,1616,-276,-60,94,1,7,11
3.27E+03,-8311,-525,1611,-285,-59,82,1,7,11
3.27E+03,-8320,-535,1616,-302,-61,67,1,7,11
3.27E+03,-8320,-552,1619,-315,-66,51,1,7,11
3.27E+03,-8065,-555,1616,-322,-72,34,1,7,11
3.27E+03,-8319,-563,1620,-329,-77,19,1,7,11
3.27E+03,-8320,-568,1625,-330,-82,10,1,7,11
3.27E+03,-8069,-577,1614,-329,-81,9,1,7,11
3.27E+03,-8298,-574,1602,-326,-86,19,1,7,11
3.27E+03,-8307,-595,1618,-346,-66,11,1,7,11
3.27E+03,-8072,-607,1626,-351,-64,14,1,7,11
3.27E+03,-8070,-611,1616,-350,-79,24,1,7,11
3.27E+03,-8069,-614,1614,-353,-88,42,1,7,11
3.27E+03,-8320,-610,1618,-351,-91,65,1,7,11
3.28E+03,-8311,-612,1621,-348,-89,91,1,7,11
3.28E+03,-8304,-614,1621,-343,-81,116,1,7,11
3.28E+03,-8299,-616,1628,-327,-71,-119,1,7,11
3.28E+03,-8309,-609,1629,-293,-62,-111,1,7,11
3.28E+03,-8313,-598,1624,-272,-63,-110,1,7,11
3.28E+03,-8314,-579,1624,3,-65,-119,1,7,11
3.28E+03,-8310,-556,1618,9,-66,125,1,7,11
3.28E+03,-8310,-550,1617,4,-64,111,1,7,11
3.28E+03,-8314,-545,1610,-262,-61,95,1,7,11
3.28E+03,-8316,-542,1611,-276,-61,78,1,7,11
3.28E+03,-8318,-544,1614,-293,-62,63,1,7,11
3.28E+03,-8313,-547,1615,-308,-69,54,1,7,11
3.28E+03,-8314,-549,1617,-321,-72,47,1,7,11
3.28E+03,-8310,-551,1606,-328,-69,42,1,7,11
3.28E+03,-8311,-556,1607,-332,-63,42,1,7,11
3.28E+03,-8310,-562,1605,-336,-61,49,1,7,11
3.28E+03,-8304,-568,1598,-333,-66,61,1,7,11
3.28E+03,-8302,-575,1601,-331,-64,71,1,7,11
3.28E+03,-8305,-583,1607,-325,-63,79,1,7,11
3.28E+03,-8317,-581,1608,-310,-67,85,1,7,11
3.28E+03,-8316,-575,1597,-294,-79,95,1,7,11
3.28E+03,-8310,-570,1605,-286,-86,106,1,7,11
3.28E+03,-8301,-557,1594,-281,-91,120,1,7,11
3.28E+03,-8304,-548,1600,-277,-88,127,1,7,11
3.28E+03,-8087,-543,1607,-271,-76,-128,1,7,11
3.28E+03,-8074,-518,1601,4,-104,-115,1,7,11
3.28E+03,-8310,-247,1590,12,-111,-116,1,7,11
3.28E+03,-8313,-244,1592,4,-106,-125,1,7,11
3.28E+03,-8317,-244,1603,-259,-98,110,1,7,11
3.28E+03,-8069,-244,1606,-259,-101,87,1,7,11
3.28E+03,-8067,-241,1600,0,-110,68,1,7,11
3.28E+03,-8316,-238,1601,1,-116,46,1,7,11
3.28E+03,-8314,-233,1603,-258,-113,24,1,7,11
3.28E+03,-8319,-238,1605,-265,-110,4,1,7,11
3.28E+03,-8068,-254,1609,-279,-113,-271,1,7,11
3.28E+03,-8068,-518,1610,-285,-118,-292,1,7,11
3.28E+03,-8068,-531,1619,-286,-122,-310,1,7,11
3.28E+03,-8318,-540,1622,-290,-127,-323,1,7,11
3.28E+03,-8067,-551,1627,-295,124,-327,1,7,11
3.28E+03,-8294,-560,1614,-296,112,-317,1,7,11
3.29E+03,-8300,-580,1620,-309,-128,-321,1,7,11
3.29E+03,-8310,-598,1631,-311,-124,-318,1,7,11
3.29E+03,-8312,-615,1643,-306,125,-314,1,7,11
3.29E+03,-8310,-624,1639,-294,120,-310,1,7,11
3.29E+03,-8303,-617,1639,-278,117,-304,1,7,11
3.29E+03,-8299,-616,1632,-270,119,-291,1,7,11
3.29E+03,-8302,-615,1629,-266,-128,-268,1,7,11
3.29E+03,-8302,-625,1639,-267,-123,10,1,7,11
3.29E+03,-8307,-638,1641,-264,-119,24,1,7,11
3.29E+03,-8315,-390,1650,3,-120,31,1,7,11
3.29E+03,-8319,-640,1657,21,-125,36,1,7,11
3.29E+03,-8313,-629,1660,35,122,40,1,7,11
3.29E+03,-8311,-626,1408,42,123,42,1,7,11
3.29E+03,-8304,-621,1413,45,-126,42,1,7,11
3.29E+03,-8308,-617,1420,39,-118,40,1,7,11
3.29E+03,-8308,-613,1419,37,-113,40,1,7,11
3.29E+03,-8309,-609,1421,31,-111,39,1,7,11
3.29E+03,-8303,-607,1421,19,-109,38,1,7,11
3.29E+03,-8300,-602,1420,7,-101,40,1,7,11
3.29E+03,-8295,-607,1412,-266,-95,40,1,7,11
3.29E+03,-8295,-599,1410,-277,-86,41,1,7,11
3.29E+03,-8297,-600,1409,-287,-78,44,1,7,11
3.29E+03,-8303,-606,1416,-298,-70,48,1,7,11
3.29E+03,-8305,-608,1419,-306,-68,59,1,7,11
3.29E+03,-8303,-617,1423,-306,-70,71,1,7,11
3.29E+03,-8303,-625,1425,-296,-64,75,1,7,11
3.29E+03,-8302,-633,1428,-286,-51,74,1,7,11
3.29E+03,-8307,-623,1420,-266,-41,74,1,7,11
3.29E+03,-8305,-607,1418,6,-38,77,1,7,11
3.29E+03,-8299,-593,1656,7,-35,80,1,7,11
3.29E+03,-8305,-592,1650,-263,-25,79,1,7,11
3.29E+03,-8066,-589,1659,-277,-20,75,1,7,11
3.29E+03,-8077,-585,1650,-280,-36,80,1,7,11
3.29E+03,-8066,-581,1645,-287,-56,92,1,7,11
3.29E+03,-8317,-575,1635,-297,-64,102,1,7,11
3.29E+03,-8305,-580,1637,-304,-63,106,1,7,11
3.29E+03,-8307,-589,1647,-294,-57,106,1,7,11
3.29E+03,-8304,-591,1647,-278,-54,102,1,7,11
3.29E+03,-8303,-587,1646,-257,-51,94,1,7,11
3.29E+03,-8301,-575,1643,21,-44,84,1,7,11
3.30E+03,-8300,-562,1630,27,-38,75,1,7,11
3.30E+03,-8307,-554,1625,16,-36,70,1,7,11
3.30E+03,-8312,-556,1626,-261,-37,64,1,7,11
3.30E+03,-8317,-559,1630,-285,-40,51,1,7,11
3.30E+03,-8312,-566,1634,-306,-45,39,1,7,11
3.30E+03,-8308,-571,1629,-324,-45,25,1,7,11
3.30E+03,-8311,-576,1626,-337,-44,16,1,7,11
3.30E+03,-8301,-588,1619,-346,-49,13,1,7,11
3.30E+03,-8304,-602,1620,-359,-39,0,1,7,11
3.30E+03,-8317,-622,1615,-356,-30,-268,1,7,11
3.30E+03,-8317,-628,1614,-346,-34,-278,1,7,11
3.30E+03,-8318,-631,1618,-336,-37,-282,1,7,11
3.30E+03,-8319,-624,1603,-328,-47,-278,1,7,11
3.30E+03,-8065,-629,1592,-332,-54,-273,1,7,11
3.30E+03,-8068,-633,1583,-341,-61,-261,1,7,11
3.30E+03,-8071,-385,1591,-349,-71,3,1,7,11
3.30E+03,-8068,-392,1591,-341,-82,9,1,7,11
3.30E+03,-8067,-389,1594,-335,-89,16,1,7,11
3.30E+03,-8073,-411,1613,-337,-98,17,1,7,11
3.30E+03,-8069,-409,1610,-314,-114,21,1,7,11
3.30E+03,-8319,-403,1611,-302,-127,23,1,7,11
3.30E+03,-8314,-400,1614,-283,-128,23,1,7,11
3.30E+03,-8317,-386,1607,-266,-124,23,1,7,11
3.30E+03,-8313,-387,1607,-266,-123,26,1,7,11
3.30E+03,-8314,-639,1612,-266,-119,23,1,7,11
3.30E+03,-8065,-637,1614,-274,-116,16,1,7,11
3.30E+03,-8319,-637,1626,-287,-121,12,1,7,11
3.30E+03,-8314,-634,1627,-297,-123,3,1,7,11
3.30E+03,-8309,-630,1626,-316,-122,-258,1,7,11
3.30E+03,-8313,-637,1637,-327,-112,-261,1,7,11
3.30E+03,-8309,-387,1641,-335,-107,-258,1,7,11
3.30E+03,-8303,-394,1646,-335,-103,-257,1,7,11
3.30E+03,-8300,-401,1635,-327,-92,-260,1,7,11
3.30E+03,-8311,-408,1631,-319,-81,-265,1,7,11
3.30E+03,-8316,-407,1632,-300,-83,-265,1,7,11
3.30E+03,-8315,-401,1634,-293,-91,-268,1,7,11
3.30E+03,-8308,-397,1629,-299,-99,-270,1,7,11
3.30E+03,-8309,-399,1618,-308,-103,-276,1,7,11
3.30E+03,-8070,-411,1630,-322,-108,-287,1,7,11
3.30E+03,-8087,-421,1636,-320,-123,-289,1,7,11
3.31E+03,-8068,-416,1627,-306,106,-277,1,7,11
3.31E+03,-8307,-419,1629,-304,102,-273,1,7,11
3.31E+03,-8293,-419,1639,-295,113,-265,1,7,11
3.31E+03,-8292,-415,1649,-280,126,-260,1,7,11
3.31E+03,-8304,-415,1659,-273,-119,3,1,7,11
3.31E+03,-8307,-411,1661,-263,-122,14,1,7,11
3.31E+03,-8304,-403,1663,-260,-123,19,1,7,11
3.31E+03,-8306,-400,1658,-268,-114,17,1,7,11
3.31E+03,-8313,-401,1658,-286,-108,13,1,7,11
3.31E+03,-8313,-410,1410,-304,-111,7,1,7,11
3.31E+03,-8315,-419,1413,-317,-113,-259,1,7,11
3.31E+03,-8312,-427,1661,-326,-114,-271,1,7,11
3.31E+03,-8312,-446,1418,-328,-116,-281,1,7,11
3.31E+03,-8305,-457,1418,-327,-115,-291,1,7,11
3.31E+03,-8284,-461,1656,-314,-117,-294,1,7,11
3.31E+03,-8288,-480,1414,-305,-105,-308,1,7,11
3.31E+03,-8302,-486,1412,-294,-86,-336,1,7,11
3.31E+03,-8304,-480,1415,-272,-95,-343,1,7,11
3.31E+03,-8308,-481,1410,-265,-96,-348,1,7,11
3.31E+03,-8307,-476,1418,-262,-97,-347,1,7,11
3.31E+03,-8303,-474,1663,-273,-97,-346,1,7,11
3.31E+03,-8306,-480,1652,-290,-92,-341,1,7,11
3.31E+03,-8313,-489,1409,-304,-92,-335,1,7,11
3.31E+03,-8312,-502,1663,-314,-95,-327,1,7,11
3.31E+03,-8312,-769,1661,-324,-100,-324,1,7,11
3.31E+03,-8312,-782,1419,-324,-106,-321,1,7,11
3.31E+03,-8304,-792,1420,-318,-108,-321,1,7,11
3.31E+03,-8298,-800,1418,-308,-105,-317,1,7,11
3.31E+03,-8291,-804,1427,-301,-101,-306,1,7,11
3.31E+03,-8292,-809,1424,-293,-98,-294,1,7,11
3.31E+03,-8292,-809,1423,-288,-100,-280,1,7,11
3.31E+03,-8292,-815,1427,-281,-105,-268,1,7,11
3.31E+03,-8288,-809,1421,-277,-109,-262,1,7,11
3.31E+03,-8288,-803,1415,-277,-107,-257,1,7,11
3.31E+03,-8293,-799,1421,-280,-102,6,1,7,11
3.31E+03,-8293,-795,1421,-278,-100,11,1,7,11
3.31E+03,-8286,-791,1420,-276,-98,18,1,7,11
3.31E+03,-8283,-797,1421,-283,-89,11,1,7,11
3.31E+03,-8289,-793,1431,-285,-82,0,1,7,11
3.31E+03,-8283,-786,1423,-290,-87,-266,1,7,11
3.32E+03,-8286,-778,1418,-296,-86,-276,1,7,11
3.32E+03,-8285,-780,1422,-302,-87,-281,1,7,11
3.32E+03,-8296,-779,1427,-305,-81,-284,1,7,11
3.32E+03,-8070,-790,1438,-308,-71,-290,1,7,11
3.32E+03,-8075,-795,1429,-294,-86,-279,1,7,11
3.32E+03,-8312,-791,1417,-283,-99,-271,1,7,11
3.32E+03,-8302,-794,1412,-282,-98,-270,1,7,11
3.32E+03,-8298,-799,1412,-279,-94,-279,1,7,11
3.32E+03,-8307,-807,1420,-276,-92,-293,1,7,11
3.32E+03,-8308,-814,1427,-270,-100,-304,1,7,11
3.32E+03,-8298,-820,1420,-266,-111,-315,1,7,11
3.32E+03,-8291,-821,1415,-261,-113,-325,1,7,11
3.32E+03,-8295,-836,1420,-265,-110,-335,1,7,11
3.32E+03,-8297,-843,1430,-271,-107,-341,1,7,11
3.32E+03,-8305,-853,1437,-282,-114,-350,1,7,11
3.32E+03,-8306,-857,1438,-284,-120,-351,1,7,11
3.32E+03,-8300,-868,1432,-291,-123,-349,1,7,11
3.32E+03,-8295,-876,1432,-292,-123,-342,1,7,11
3.32E+03,-8270,-882,1415,-284,127,-320,1,7,11
3.32E+03,-8270,-894,1426,-292,-107,-315,1,7,11
3.32E+03,-8290,-652,1439,-291,-94,-300,1,7,11
3.32E+03,-8292,-662,1435,-281,-94,-282,1,7,11
3.32E+03,-8290,-665,1441,-271,-92,-264,1,7,11
3.32E+03,-8284,-661,1433,-258,-85,7,1,7,11
3.32E+03,-8275,-649,1423,6,-75,28,1,7,11
3.32E+03,-8280,-644,1427,1,-62,55,1,7,11
3.32E+03,-8287,-645,1428,-266,-50,78,1,7,11
3.32E+03,-8287,-648,1429,-274,-44,101,1,7,11
3.32E+03,-8286,-655,1432,-276,-39,116,1,7,11
3.32E+03,-8285,-662,1438,-275,-38,119,1,7,11
3.32E+03,-8284,-662,1438,-269,-37,111,1,7,11
3.32E+03,-8284,-662,1445,-265,-33,87,1,7,11
3.32E+03,-8291,-663,1438,-265,-33,55,1,7,11
3.32E+03,-8291,-647,1426,-266,-36,24,1,7,11
3.32E+03,-8292,-894,1427,-268,-46,-260,1,7,11
3.32E+03,-8299,-892,1419,-276,-54,-280,1,7,11
3.32E+03,-8301,-888,1422,-286,-62,-294,1,7,11
3.32E+03,-8296,-890,1418,-297,-71,-299,1,7,11
3.32E+03,-8287,-643,1413,-307,-75,-301,1,7,11
3.32E+03,-8289,-644,1414,-309,-72,-299,1,7,11
3.33E+03,-8298,-650,1425,-310,-68,-290,1,7,11
3.33E+03,-8295,-657,1427,-307,-73,-267,1,7,11
3.33E+03,-8283,-666,1420,-297,-72,10,1,7,11
3.33E+03,-8276,-681,1420,-289,-68,31,1,7,11
3.33E+03,-8291,-679,1421,-282,-60,49,1,7,11
3.33E+03,-8287,-678,1418,-268,-57,91,1,7,11
3.33E+03,-8272,-678,1410,-267,-63,122,1,7,11
3.33E+03,-8266,-679,1661,-278,-60,-111,1,7,11
3.33E+03,-8278,-682,1408,-295,-47,-103,1,7,11
3.33E+03,-8302,-685,1415,-298,-43,-106,1,7,11
3.33E+03,-8305,-670,1662,-284,-61,-102,1,7,11
3.33E+03,-8294,-651,1410,-281,-77,-104,1,7,11
3.33E+03,-8292,-892,1659,-279,-82,-106,1,7,11
3.33E+03,-8295,-888,1663,-278,-81,-115,1,7,11
3.33E+03,-8292,-880,1660,-266,-78,-125,1,7,11
3.33E+03,-8295,-879,1411,8,-78,122,1,7,11
3.33E+03,-8293,-872,1411,34,-78,112,1,7,11
3.33E+03,-8295,-861,1662,50,-73,104,1,7,11
3.33E+03,-8295,-857,1659,52,-70,94,1,7,11
3.33E+03,-8305,-845,1662,49,-72,87,1,7,11
3.33E+03,-8305,-844,1662,30,-74,75,1,7,11
3.33E+03,-8303,-838,1656,14,-82,63,1,7,11
3.33E+03,-8306,-843,1659,-267,-90,51,1,7,11
3.33E+03,-8302,-847,1658,-292,-97,41,1,7,11
3.33E+03,-8301,-863,1662,-311,-103,35,1,7,11
3.33E+03,-8275,-869,1656,-328,-107,30,1,7,11
3.33E+03,-8276,-894,1414,-344,-90,12,1,7,11
3.33E+03,-8285,-653,1416,-344,-86,-260,1,7,11
3.33E+03,-8287,-660,1421,-335,-86,-266,1,7,11
3.33E+03,-8298,-663,1415,-328,-90,-266,1,7,11
3.33E+03,-8301,-661,1663,-325,-101,-257,1,7,11
3.33E+03,-8291,-670,1652,-319,-105,9,1,7,11
3.33E+03,-8292,-668,1660,-316,-106,23,1,7,11
3.33E+03,-8289,-665,1412,-312,-106,35,1,7,11
3.33E+03,-8293,-664,1424,-307,-105,44,1,7,11
3.33E+03,-8303,-670,1425,-298,-114,52,1,7,11
3.33E+03,-8307,-662,1433,-284,-128,58,1,7,11
3.33E+03,-8311,-660,1428,-264,112,65,1,7,11
3.33E+03,-8297,-659,1427,5,101,72,1,7,11
3.33E+03,-8283,-657,1436,16,102,79,1,7,11
3.34E+03,-8283,-652,1438,25,113,78,1,7,11
3.34E+03,-8288,-645,1445,33,-124,76,1,7,11
3.34E+03,-8284,-892,1448,36,-119,77,1,7,11
3.34E+03,-8283,-877,1441,21,-113,79,1,7,11
3.34E+03,-8283,-868,1438,-259,-107,86,1,7,11
3.34E+03,-8279,-872,1439,-282,-96,100,1,7,11
3.34E+03,-8284,-882,1441,-312,-87,113,1,7,11
3.34E+03,-8284,-892,1445,-331,-80,-123,1,7,11
3.34E+03,-8283,-654,1453,-341,-71,-107,1,7,11
3.34E+03,-8276,-665,1442,-337,-59,-92,1,7,11
3.34E+03,-8279,-678,1447,-330,-41,-84,1,7,11
3.34E+03,-8284,-666,1444,-311,-26,-74,1,7,11
3.34E+03,-8279,-655,1438,-300,-28,-63,1,7,11
3.34E+03,-8278,-650,1425,-303,-26,-56,1,7,11
3.34E+03,-8291,-895,1418,-321,-22,-59,1,7,11
3.34E+03,-8065,-888,1429,-336,-25,-60,1,7,11
3.34E+03,-8320,-866,1419,-333,-51,-46,1,7,11
3.34E+03,-8302,-850,1413,-330,-69,-36,1,7,11
3.34E+03,-8291,-834,1414,-337,-69,-36,1,7,11
3.34E+03,-8292,-826,1428,-333,-62,-49,1,7,11
3.34E+03,-8296,-820,1427,-322,-55,-73,1,7,11
3.34E+03,-8291,-815,1436,-307,-54,-106,1,7,11
3.34E+03,-8288,-802,1430,-287,-56,116,1,7,11
3.34E+03,-8290,-789,1420,-277,-53,84,1,7,11
3.34E+03,-8303,-778,1413,-277,-52,61,1,7,11
3.34E+03,-8309,-775,1662,-285,-57,45,1,7,11
3.34E+03,-8313,-774,1408,-293,-66,32,1,7,11
3.34E+03,-8312,-780,1408,-310,-76,19,1,7,11
3.34E+03,-8307,-787,1410,-324,-82,9,1,7,11
3.34E+03,-8303,-797,1416,-336,-86,0,1,7,11
3.34E+03,-8299,-804,1416,-340,-83,-263,1,7,11
3.34E+03,-8272,-814,1660,-347,-87,-261,1,7,11
3.34E+03,-8277,-838,1417,-363,-66,-280,1,7,11
3.34E+03,-8294,-845,1415,-358,-58,-290,1,7,11
3.34E+03,-8292,-839,1663,-351,-62,-295,1,7,11
3.34E+03,-8297,-838,1656,-353,-59,-297,1,7,11
3.34E+03,-8291,-840,1651,-359,-56,-284,1,7,11
3.34E+03,-8288,-848,1646,-372,-54,-272,1,7,11
3.34E+03,-8287,-852,1643,-378,-49,1,1,7,11
3.34E+03,-8292,-861,1647,-383,-43,13,1,7,11
3.35E+03,-8295,-878,1652,-378,-41,22,1,7,11
3.35E+03,-8296,-883,1655,-368,-44,32,1,7,11
3.35E+03,-8298,-890,1658,-354,-49,41,1,7,11
3.35E+03,-8295,-893,1653,-338,-50,42,1,7,11
3.35E+03,-8296,-890,1655,-327,-55,47,1,7,11
3.35E+03,-8287,-883,1654,-320,-69,46,1,7,11
3.35E+03,-8295,-879,1659,-317,-69,29,1,7,11
3.35E+03,-8293,-875,1414,-324,-75,6,1,7,11
3.35E+03,-8294,-868,1411,-332,-78,-276,1,7,11
3.35E+03,-8299,-858,1656,-347,-85,-295,1,7,11
3.35E+03,-8298,-852,1651,-378,-88,-300,1,7,11
3.35E+03,-8295,-858,1646,-151,-83,-298,1,7,11
3.35E+03,-8296,-870,1640,-172,-74,-292,1,7,11
3.35E+03,-8292,-892,1644,-188,-65,-278,1,7,11
3.35E+03,-8290,-659,1644,-188,-53,-266,1,7,11
3.35E+03,-8292,-673,1648,-173,-47,6,1,7,11
3.35E+03,-8284,-687,1643,-151,-50,22,1,7,11
3.35E+03,-8287,-692,1644,-132,-45,34,1,7,11
3.35E+03,-8294,-689,1637,-370,-49,47,1,7,11
3.35E+03,-8298,-690,1632,-358,-51,55,1,7,11
3.35E+03,-8066,-693,1642,-345,-48,58,1,7,11
3.35E+03,-8316,-680,1636,-319,-73,71,1,7,11
3.35E+03,-8297,-666,1622,-310,-88,83,1,7,11
3.35E+03,-8286,-665,1625,-308,-87,93,1,7,11
3.35E+03,-8281,-656,1630,-307,-83,97,1,7,11
3.35E+03,-8295,-658,1639,-299,-75,92,1,7,11
3.35E+03,-8301,-651,1640,-282,-85,91,1,7,11
3.35E+03,-8286,-885,1630,7,-98,93,1,7,11
3.35E+03,-8294,-879,1632,14,-95,97,1,7,11
3.35E+03,-8296,-877,1640,12,-95,104,1,7,11
3.35E+03,-8296,-875,1646,14,-96,107,1,7,11
3.35E+03,-8302,-866,1641,11,-96,102,1,7,11
3.35E+03,-8296,-865,1640,1,-102,99,1,7,11
3.35E+03,-8297,-855,1640,-263,-101,92,1,7,11
3.35E+03,-8277,-849,1629,-269,-105,87,1,7,11
3.35E+03,-8282,-868,1644,-306,-84,58,1,7,11
3.35E+03,-8290,-876,1651,-319,-78,32,1,7,11
3.35E+03,-8289,-884,1645,-327,-84,3,1,7,11
3.35E+03,-8288,-884,1642,-333,-84,-276,1,7,11
3.35E+03,-8293,-885,1642,-339,-84,-290,1,7,11
3.36E+03,-8295,-890,1635,-346,-83,-292,1,7,11
3.36E+03,-8296,-645,1636,-358,-79,-285,1,7,11
3.36E+03,-8293,-667,1639,-365,-74,-278,1,7,11
3.36E+03,-8297,-684,1652,-358,-73,-275,1,7,11
3.36E+03,-8298,-697,1649,-340,-81,-277,1,7,11
3.36E+03,-8302,-706,1643,-318,-87,-278,1,7,11
3.36E+03,-8301,-706,1635,-297,-96,-276,1,7,11
3.36E+03,-8302,-705,1636,-279,-99,-269,1,7,11
3.36E+03,-8303,-708,1636,-264,-95,0,1,7,11
3.36E+03,-8300,-707,1638,3,-96,10,1,7,11
3.36E+03,-8299,-702,1648,13,-93,15,1,7,11
3.36E+03,-8296,-699,1649,15,-89,17,1,7,11
3.36E+03,-8291,-693,1642,13,-93,22,1,7,11
3.36E+03,-8283,-684,1641,4,-90,28,1,7,11
3.36E+03,-8283,-681,1643,-265,-78,38,1,7,11
3.36E+03,-8288,-678,1643,-277,-68,52,1,7,11
3.36E+03,-8285,-684,1643,-283,-66,74,1,7,11
3.36E+03,-8283,-690,1657,-283,-58,88,1,7,11
3.36E+03,-8281,-693,1657,-279,-50,92,1,7,11
3.36E+03,-8289,-690,1663,-266,-36,84,1,7,11
3.36E+03,-8298,-677,1655,1,-32,77,1,7,11
3.36E+03,-8286,-669,1643,0,-37,74,1,7,11
3.36E+03,-8278,-664,1636,-269,-38,68,1,7,11
3.36E+03,-8283,-659,1633,-284,-35,60,1,7,11
3.36E+03,-8313,-660,1644,-300,-27,48,1,7,11
3.36E+03,-8067,-664,1641,-296,-45,50,1,7,11
3.36E+03,-8310,-661,1627,-289,-65,61,1,7,11
3.36E+03,-8295,-666,1625,-291,-71,76,1,7,11
3.36E+03,-8283,-674,1625,-288,-70,86,1,7,11
3.36E+03,-8274,-675,1631,-273,-59,89,1,7,11
3.36E+03,-8293,-682,1642,-260,-50,85,1,7,11
3.36E+03,-8288,-674,1635,23,-54,83,1,7,11
3.36E+03,-8295,-653,1631,31,-53,76,1,7,11
3.36E+03,-8293,-642,1620,28,-52,72,1,7,11
3.36E+03,-8299,-891,1617,16,-52,66,1,7,11
3.36E+03,-8301,-888,1610,-260,-57,58,1,7,11
3.36E+03,-8303,-895,1607,-279,-67,51,1,7,11
3.36E+03,-8302,-646,1616,-292,-77,43,1,7,11
3.36E+03,-8298,-657,1619,-301,-88,39,1,7,11
3.36E+03,-8298,-663,1624,-304,-88,40,1,7,11
3.37E+03,-8283,-665,1613,-298,-94,54,1,7,11
3.37E+03,-8281,-681,1629,-299,-73,60,1,7,11
3.37E+03,-8294,-684,1633,-288,-59,74,1,7,11
3.37E+03,-8293,-689,1627,-274,-60,100,1,7,11
3.37E+03,-8296,-679,1625,-262,-55,-128,1,7,11
3.37E+03,-8292,-669,1619,4,-51,-64,1,7,11
3.37E+03,-8298,-665,1618,8,-33,-7,1,7,11
3.37E+03,-8304,-665,1611,8,-14,318,1,7,11
3.37E+03,-8305,-653,1611,18,259,147,1,7,11
3.37E+03,-8309,-883,1603,40,272,517,1,7,11
3.37E+03,-8316,-870,1602,48,287,401,1,7,11
3.37E+03,-8303,-848,1605,76,305,830,1,7,11
3.37E+03,-8289,-820,1592,91,332,760,1,7,11
3.37E+03,-8283,-833,1594,86,364,928,1,7,11
3.37E+03,-8262,-856,1600,80,380,1297,1,7,11
3.37E+03,-8276,-894,1618,67,147,1299,1,7,11
3.37E+03,-8263,-863,1610,123,142,979,1,7,11
3.37E+03,-8290,-812,1603,-97,144,1080,1,7,11
3.37E+03,-8068,-482,1594,-82,370,874,1,7,11
3.37E+03,-8106,-396,1575,-77,311,631,1,7,11
3.37E+03,-8137,-542,1276,-92,-19,380,1,7,11
3.37E+03,-8172,-195,1257,122,-96,-100,1,7,11
3.37E+03,-8171,-150,1252,59,64,-268,1,7,11
3.37E+03,-8153,-149,1261,-259,-269,-133,1,7,11
3.37E+03,-8119,-158,1267,-283,-322,-206,1,7,11
3.37E+03,-8097,-193,1547,-294,-342,-245,1,7,11
3.37E+03,-8079,-229,1577,-271,-338,-255,1,7,11
3.37E+03,-8066,-252,1588,34,-320,-234,1,7,11
3.37E+03,-8295,-517,1595,78,-291,-185,1,7,11
3.37E+03,-8273,-523,1592,106,7,-377,1,7,11
3.37E+03,-8269,-528,1589,112,67,-308,1,7,11
3.37E+03,-8285,-533,1595,91,117,25,1,7,11
3.37E+03,-8293,-535,1597,61,-112,98,1,7,11
3.37E+03,-8289,-532,1595,25,-99,-82,1,7,11
3.37E+03,-8278,-534,1597,-277,-81,-13,1,7,11
3.37E+03,-8263,-534,1597,-317,-58,309,1,7,11
3.37E+03,-8262,-537,1611,-345,-27,382,1,7,11
3.37E+03,-8262,-547,1622,-357,-1,215,1,7,11
3.37E+03,-8254,-553,1632,-345,273,567,1,7,11
3.37E+03,-8264,-549,1639,-308,301,390,1,7,11
3.38E+03,-8283,-533,1647,0,322,468,1,7,11
3.38E+03,-8311,-248,1639,44,336,791,1,7,11
3.38E+03,-8084,-236,1647,63,323,837,1,7,11
3.38E+03,-8137,-210,1414,98,295,845,1,7,11
3.38E+03,-8164,-350,1408,-97,-29,847,1,7,11
3.38E+03,-8172,-280,1653,-68,-108,838,1,7,11
3.38E+03,-8152,39,1631,-69,75,844,1,7,11
3.38E+03,-8091,71,1596,-91,8,857,1,7,11
3.38E+03,-8299,59,1581,77,30,849,1,7,11
3.38E+03,-8249,29,1585,34,85,824,1,7,11
3.38E+03,-8236,12,1591,18,-80,505,1,7,11
3.38E+03,-8249,-259,1600,20,264,428,1,7,11
3.38E+03,-8262,-264,1598,38,331,604,1,7,11
3.38E+03,-8282,7,1584,58,378,255,1,7,11
3.38E+03,-8301,35,1561,73,150,166,1,7,11
3.38E+03,-8071,66,1557,63,173,338,1,7,11
3.38E+03,-8087,81,1544,34,157,276,1,7,11
3.38E+03,-8109,96,1270,-260,132,-32,1,7,11
3.38E+03,-8114,104,1257,-298,342,-59,1,7,11
3.38E+03,-8109,100,1259,-338,299,-62,1,7,11
3.38E+03,-8099,83,1272,-365,263,-40,1,7,11
3.38E+03,-8092,55,1543,-365,-18,260,1,7,11
3.38E+03,-8081,35,1568,-337,-39,333,1,7,11
3.38E+03,-8074,36,1577,-269,-50,167,1,7,11
3.38E+03,-8307,56,1581,63,-51,523,1,7,11
3.38E+03,-8302,100,1571,-118,-38,613,1,7,11
3.38E+03,-8290,-99,1556,-64,-25,436,1,7,11
3.38E+03,-8280,-30,1538,-43,262,477,1,7,11
3.38E+03,-8287,285,1539,-43,296,505,1,7,11
3.38E+03,-8275,345,1272,-64,327,773,1,7,11
3.38E+03,-8282,128,1266,-106,359,504,1,7,11
3.38E+03,-8287,160,1261,102,376,471,1,7,11
3.38E+03,-8293,189,1258,62,382,411,1,7,11
3.38E+03,-8308,517,1253,-3,375,541,1,7,11
3.38E+03,-8068,564,1246,-302,354,211,1,7,11
3.38E+03,-8302,596,1217,-357,317,157,1,7,11
3.38E+03,-8277,600,1189,-172,317,358,1,7,11
3.38E+03,-8257,577,1165,-246,341,310,1,7,11
3.38E+03,-8267,544,1169,-567,132,-7,1,7,11
3.38E+03,-8068,515,1186,-598,176,-56,1,7,11
3.39E+03,-8102,246,1174,-592,163,-63,1,7,11
3.39E+03,-8104,242,1155,-579,128,-44,1,7,11
3.39E+03,-8098,208,1152,-572,353,-28,1,7,11
3.39E+03,-8103,191,1404,-528,326,-31,1,7,11
3.39E+03,-8102,190,1406,-217,288,-48,1,7,11
3.39E+03,-8095,196,1402,-153,-7,-67,1,7,11
3.39E+03,-8085,200,1402,-351,-44,-92,1,7,11
3.39E+03,-8072,221,1400,-301,-66,-125,1,7,11
3.39E+03,-8068,255,1403,-266,-80,95,1,7,11
3.39E+03,-8319,552,1393,4,-90,65,1,7,11
3.39E+03,-8316,574,1397,-258,-96,43,1,7,11
3.39E+03,-8315,578,1154,-282,-97,34,1,7,11
3.39E+03,-8305,573,1152,-306,-92,30,1,7,11
3.39E+03,-8295,573,1157,-336,-79,29,1,7,11
3.39E+03,-8286,565,1160,-374,-64,31,1,7,11
3.39E+03,-8310,234,1160,-245,273,11,1,7,11
3.39E+03,-8313,227,1403,-252,273,-263,1,7,11
3.39E+03,-8318,223,1405,-514,275,-273,1,7,11
3.39E+03,-8314,218,1395,-247,276,-276,1,7,11
3.39E+03,-8309,201,1389,-235,283,-274,1,7,11
3.39E+03,-8311,183,1392,-205,305,-263,1,7,11
3.39E+03,-8310,175,1391,-171,309,7,1,7,11
3.39E+03,-8320,171,1382,-137,311,25,1,7,11
3.39E+03,-8319,162,1381,-363,306,53,1,7,11
3.39E+03,-8065,153,1380,-346,295,75,1,7,11
3.39E+03,-8319,160,1371,-332,289,89,1,7,11
3.39E+03,-8316,171,1364,-328,281,97,1,7,11
3.39E+03,-8316,180,1355,-331,282,99,1,7,11
3.39E+03,-8315,194,1350,-335,293,109,1,7,11
3.39E+03,-8318,201,1356,-345,301,-122,1,7,11
3.39E+03,-8307,207,1344,-342,312,-86,1,7,11
3.39E+03,-8305,200,1340,-333,333,-52,1,7,11
3.39E+03,-8305,210,1327,-309,350,-22,1,7,11
3.39E+03,-8311,228,1320,-291,374,261,1,7,11
3.39E+03,-8065,515,1311,-289,131,284,1,7,11
3.39E+03,-8077,521,1301,-296,135,283,1,7,11
3.39E+03,-8087,538,1291,-311,370,263,1,7,11
3.39E+03,-8098,521,1298,-339,341,-42,1,7,11
3.39E+03,-8085,244,1304,-370,290,-104,1,7,11
3.39E+03,-8072,252,1293,-375,-13,27,1,7,11
3.40E+03,-8082,513,1296,-371,-46,-306,1,7,11
3.40E+03,-8316,528,1022,-366,-62,-344,1,7,11
3.40E+03,-8089,529,1293,-367,-57,-371,1,7,11
3.40E+03,-8093,518,1296,-365,-69,-355,1,7,11
3.40E+03,-8086,241,1307,-358,-84,-323,1,7,11
3.40E+03,-8066,228,1312,-337,-92,-279,1,7,11
3.40E+03,-8311,216,1314,-318,-93,25,1,7,11
3.40E+03,-8308,204,1317,-299,-86,65,1,7,11
3.40E+03,-8065,203,1312,-274,-81,99,1,7,11
3.40E+03,-8310,205,1320,7,-85,119,1,7,11
3.40E+03,-8311,219,1312,37,-80,121,1,7,11
3.40E+03,-8312,253,1296,58,-75,116,1,7,11
3.40E+03,-8065,535,1283,54,-72,106,1,7,11
3.40E+03,-8072,547,1281,40,-78,93,1,7,11
3.40E+03,-8068,554,1287,19,-92,73,1,7,11
3.40E+03,-8317,554,1285,2,-103,48,1,7,11
3.40E+03,-8068,548,1295,-264,-107,22,1,7,11
3.40E+03,-8075,547,1293,-268,-110,5,1,7,11
3.40E+03,-8298,539,1291,-261,-127,7,1,7,11
3.40E+03,-8301,519,1293,-272,-106,-265,1,7,11
3.40E+03,-8315,246,1309,-270,-93,-276,1,7,11
3.40E+03,-8313,231,1301,-262,-91,-291,1,7,11
3.40E+03,-8066,231,1303,5,-87,-306,1,7,11
3.40E+03,-8067,238,1299,10,-91,-312,1,7,11
3.40E+03,-8315,248,1290,1,-94,-320,1,7,11
3.40E+03,-8318,248,1292,-273,-89,-333,1,7,11
3.40E+03,-8072,242,1292,-297,-95,-349,1,7,11
3.40E+03,-8077,219,1296,-316,-100,-368,1,7,11
3.40E+03,-8073,198,1300,-327,-107,-137,1,7,11
3.40E+03,-8077,180,1305,-324,-114,-165,1,7,11
3.40E+03,-8073,163,1309,-308,-124,-186,1,7,11
3.40E+03,-8077,153,1320,-290,-127,-205,1,7,11
3.40E+03,-8080,145,1320,-270,126,-208,1,7,11
3.40E+03,-8078,139,1323,15,123,-190,1,7,11
3.40E+03,-8084,138,1321,30,124,-159,1,7,11
3.40E+03,-8083,135,1318,33,119,-374,1,7,11
3.40E+03,-8076,379,1317,27,118,-341,1,7,11
3.40E+03,-8068,361,1327,15,115,-327,1,7,11
3.40E+03,-8067,347,1327,14,116,-342,1,7,11
3.40E+03,-8068,359,1335,18,112,-372,1,7,11
3.41E+03,-8067,377,1332,14,110,-144,1,7,11
3.41E+03,-8069,132,1338,2,111,-158,1,7,11
3.41E+03,-8068,130,1336,-271,108,-155,1,7,11
3.41E+03,-8318,379,1332,-278,111,-141,1,7,11
3.41E+03,-8309,361,1342,-286,124,-377,1,7,11
3.41E+03,-8303,333,1335,-286,-112,-358,1,7,11
3.41E+03,-8310,324,1343,-283,-97,-345,1,7,11
3.41E+03,-8304,313,1344,-278,-98,-337,1,7,11
3.41E+03,-8296,310,1340,-275,-95,-342,1,7,11
3.41E+03,-8307,305,1339,-279,-86,-356,1,7,11
3.41E+03,-8085,294,1339,-287,-81,-373,1,7,11
3.41E+03,-8103,287,1340,-285,-104,-382,1,7,11
3.41E+03,-8093,281,1329,-273,124,-131,1,7,11
3.41E+03,-8085,285,1327,-259,112,-135,1,7,11
3.41E+03,-8320,294,1325,12,101,-129,1,7,11
3.41E+03,-8094,288,1332,0,107,-135,1,7,11
3.41E+03,-8093,288,1337,-263,85,-370,1,7,11
3.41E+03,-8086,275,1344,-258,66,-342,1,7,11
3.41E+03,-8071,266,1344,10,61,-308,1,7,11
3.41E+03,-8315,266,1354,28,76,-265,1,7,11
3.41E+03,-8311,260,1358,41,96,41,1,7,11
3.41E+03,-8306,-8,1358,40,116,87,1,7,11
3.41E+03,-8302,-21,1366,40,-126,107,1,7,11
3.41E+03,-8320,-22,1374,42,-116,92,1,7,11
3.41E+03,-8067,-1,1365,44,-121,64,1,7,11
3.41E+03,-8074,272,1365,38,-125,24,1,7,11
3.41E+03,-8314,284,1355,19,117,-263,1,7,11
3.41E+03,-8318,274,1360,-271,113,-312,1,7,11
3.41E+03,-8071,259,1378,-297,122,-338,1,7,11
3.41E+03,-8078,-9,1386,-307,113,-360,1,7,11
3.41E+03,-8074,-9,1376,-338,78,-148,1,7,11
3.41E+03,-8074,-17,1376,-363,75,-155,1,7,11
3.41E+03,-8320,-31,1388,-131,75,-157,1,7,11
3.41E+03,-8319,-55,1395,-146,81,-157,1,7,11
3.41E+03,-8317,-82,1401,-144,83,-158,1,7,11
3.41E+03,-8315,-99,1162,-381,92,-157,1,7,11
3.41E+03,-8308,-110,1160,-348,103,-155,1,7,11
3.41E+03,-8305,-120,1166,-322,119,-148,1,7,11
3.41E+03,-8311,-123,1168,-302,-118,-140,1,7,11
3.41E+03,-8311,-123,1167,-281,-104,-382,1,7,11
3.42E+03,-8317,-123,1162,-273,-91,-363,1,7,11
3.42E+03,-8317,-128,1166,-273,-84,-342,1,7,11
3.42E+03,-8316,-126,1167,-279,-80,-323,1,7,11
3.42E+03,-8066,-124,1159,-288,-78,-300,1,7,11
3.42E+03,-8065,125,1162,-303,-77,-277,1,7,11
3.42E+03,-8069,115,1158,-314,-74,0,1,7,11
3.42E+03,-8073,111,1407,-314,-75,19,1,7,11
3.42E+03,-8076,115,1153,-307,-71,35,1,7,11
3.42E+03,-8082,112,1153,-298,-68,50,1,7,11
3.42E+03,-8079,111,1165,-281,-69,63,1,7,11
3.42E+03,-8075,111,1167,-265,-69,72,1,7,11
3.42E+03,-8072,117,1163,8,-69,76,1,7,11
3.42E+03,-8076,115,1154,19,-65,73,1,7,11
3.42E+03,-8083,124,1406,24,-65,66,1,7,11
3.42E+03,-8067,126,1397,17,-79,57,1,7,11
3.42E+03,-8316,-123,1396,3,-82,36,1,7,11
3.42E+03,-8319,-125,1403,-276,-78,11,1,7,11
3.42E+03,-8089,124,1152,-303,-70,-277,1,7,11
3.42E+03,-8106,117,1153,-311,-83,-294,1,7,11
3.42E+03,-8096,120,1395,-315,-104,-299,1,7,11
3.42E+03,-8081,123,1396,-325,-106,-305,1,7,11
3.42E+03,-8068,116,1395,-333,-100,-312,1,7,11
3.42E+03,-8320,106,1395,-340,-92,-318,1,7,11
3.42E+03,-8068,98,1153,-335,-90,-315,1,7,11
3.42E+03,-8318,83,1407,-322,-99,-310,1,7,11
3.42E+03,-8315,82,1403,-303,-104,-300,1,7,11
3.42E+03,-8319,79,1402,-290,-96,-293,1,7,11
3.42E+03,-8072,80,1406,-283,-92,-279,1,7,11
3.42E+03,-8080,77,1406,-282,-95,-264,1,7,11
3.42E+03,-8078,70,1154,-285,-99,7,1,7,11
3.42E+03,-8079,67,1154,-287,-102,14,1,7,11
3.42E+03,-8082,58,1159,-290,-109,14,1,7,11
3.42E+03,-8080,56,1157,-289,-114,7,1,7,11
3.42E+03,-8320,65,1401,-283,125,4,1,7,11
3.42E+03,-8068,54,1161,-290,124,-294,1,7,11
3.42E+03,-8078,53,1162,-295,-120,-316,1,7,11
3.42E+03,-8070,61,1165,-285,126,-331,1,7,11
3.42E+03,-8069,65,1159,-283,-119,-342,1,7,11
3.42E+03,-8072,71,1162,-276,-110,-338,1,7,11
3.42E+03,-8072,76,1406,-283,-99,-322,1,7,11
3.43E+03,-8074,74,1160,-295,-89,-298,1,7,11
3.43E+03,-8077,58,1162,-305,-80,-276,1,7,11
3.43E+03,-8073,34,1171,-313,-78,-261,1,7,11
3.43E+03,-8079,14,1170,-300,-68,-259,1,7,11
3.43E+03,-8087,15,1168,-270,-68,0,1,7,11
3.43E+03,-8087,15,1158,5,-79,3,1,7,11
3.43E+03,-8080,19,1406,17,-85,7,1,7,11
3.43E+03,-8079,17,1407,12,-89,1,1,7,11
3.43E+03,-8079,19,1162,7,-90,-272,1,7,11
3.43E+03,-8081,16,1168,3,-92,-292,1,7,11
3.43E+03,-8082,13,1167,-263,-102,-307,1,7,11
3.43E+03,-8079,8,1174,-268,-110,-320,1,7,11
3.43E+03,-8073,-257,1170,-265,-113,-324,1,7,11
3.43E+03,-8072,-261,1178,-265,-118,-320,1,7,11
3.43E+03,-8072,-269,1184,-261,-116,-310,1,7,11
3.43E+03,-8070,-274,1189,-257,-118,-294,1,7,11
3.43E+03,-8071,-282,1189,5,-114,-279,1,7,11
3.43E+03,-8066,-283,1191,10,-111,-266,1,7,11
3.43E+03,-8076,-276,1189,14,-108,-258,1,7,11
3.43E+03,-8078,-280,1184,15,-114,8,1,7,11
3.43E+03,-8074,-269,1183,12,-120,14,1,7,11
3.43E+03,-8066,-269,1184,5,-118,23,1,7,11
3.43E+03,-8315,-268,1177,2,-115,31,1,7,11
3.43E+03,-8068,-272,1188,-261,-104,27,1,7,11
3.43E+03,-8095,-274,1192,-266,-87,28,1,7,11
3.43E+03,-8082,-264,1177,-260,-105,34,1,7,11
3.43E+03,-8073,0,1174,-263,-103,35,1,7,11
3.43E+03,-8320,7,1179,-278,-94,32,1,7,11
3.43E+03,-8068,3,1188,-292,-89,31,1,7,11
3.43E+03,-8076,-261,1193,-303,-91,36,1,7,11
3.43E+03,-8071,-274,1194,-302,-96,36,1,7,11
3.43E+03,-8319,-275,1179,-292,-98,30,1,7,11
3.43E+03,-8065,-269,1187,-283,-92,21,1,7,11
3.43E+03,-8074,-270,1189,-280,-89,14,1,7,11
3.43E+03,-8081,-274,1185,-283,-93,9,1,7,11
3.43E+03,-8082,-279,1183,-281,-96,2,1,7,11
3.43E+03,-8077,-278,1183,-281,-102,-263,1,7,11
3.43E+03,-8081,-278,1187,-286,-105,-274,1,7,11
3.43E+03,-8085,-283,1195,-289,-109,-284,1,7,11
3.43E+03,-8310,-286,1186,-286,-124,-285,1,7,11
3.44E+03,-8312,-300,1187,-301,-102,-308,1,7,11
3.44E+03,-8071,-316,1192,-304,-90,-320,1,7,11
3.44E+03,-8072,-326,1196,-305,-88,-329,1,7,11
3.44E+03,-8080,-331,1209,-304,-82,-336,1,7,11
3.44E+03,-8079,-331,1201,-299,-84,-337,1,7,11
3.44E+03,-8077,-328,1200,-305,-81,-329,1,7,11
3.44E+03,-8078,-334,1200,-314,-74,-315,1,7,11
3.44E+03,-8078,-345,1194,-325,-70,-301,1,7,11
3.44E+03,-8077,-360,1192,-331,-69,-298,1,7,11
3.44E+03,-8079,-364,1202,-323,-71,-300,1,7,11
3.44E+03,-8079,-364,1200,-308,-74,-305,1,7,11
3.44E+03,-8087,-367,1197,-296,-78,-310,1,7,11
3.44E+03,-8088,-371,1194,-285,-85,-308,1,7,11
3.44E+03,-8086,-371,1191,-282,-91,-300,1,7,11
3.44E+03,-8081,-377,1191,-284,-96,-293,1,7,11
3.44E+03,-8083,-136,1188,-280,-98,-291,1,7,11
3.44E+03,-8076,-143,1186,-276,-105,-290,1,7,11
3.44E+03,-8068,-144,1187,-274,-108,-291,1,7,11
3.44E+03,-8317,-131,1186,-269,-113,-295,1,7,11
3.44E+03,-8311,-138,1185,-284,-108,-296,1,7,11
3.44E+03,-8281,-146,1186,-294,-102,-298,1,7,11
3.44E+03,-8293,-173,1215,-321,-63,-317,1,7,11
3.44E+03,-8308,-193,1241,-298,-35,-327,1,7,11
3.44E+03,-8318,-197,1245,7,-21,-331,1,7,11
3.44E+03,-8068,-194,1230,62,-14,-332,1,7,11
3.44E+03,-8068,-178,1218,102,-7,-332,1,7,11
3.44E+03,-8078,-164,1202,-125,-5,-328,1,7,11
3.44E+03,-8084,-151,1182,-116,-13,-317,1,7,11
3.44E+03,-8088,-139,1166,-120,-26,-298,1,7,11
3.44E+03,-8100,-133,1407,115,-34,-286,1,7,11
3.44E+03,-8121,-138,1161,90,-49,-272,1,7,11
3.44E+03,-8113,-149,1169,68,-83,1,1,7,11
3.44E+03,-8099,-160,1162,53,-111,10,1,7,11
3.44E+03,-8090,-162,1167,40,-127,13,1,7,11
3.44E+03,-8072,-170,1169,35,118,13,1,7,11
3.44E+03,-8320,-169,1172,38,119,13,1,7,11
3.44E+03,-8319,-169,1176,44,122,18,1,7,11
3.44E+03,-8306,-168,1170,56,117,30,1,7,11
3.44E+03,-8300,-166,1175,56,127,32,1,7,11
3.44E+03,-8309,-162,1173,54,-118,32,1,7,11
3.45E+03,-8317,-160,1174,39,-114,39,1,7,11
3.45E+03,-8067,-162,1180,20,-117,43,1,7,11
3.45E+03,-8071,-167,1189,1,-122,43,1,7,11
3.45E+03,-8069,-171,1192,-269,-128,40,1,7,11
3.45E+03,-8067,-177,1201,-281,126,35,1,7,11
3.45E+03,-8066,-177,1204,-287,125,30,1,7,11
3.45E+03,-8318,-191,1206,-308,-118,17,1,7,11
3.45E+03,-8068,-193,1207,-309,-108,7,1,7,11
3.45E+03,-8075,-195,1204,-303,-112,-258,1,7,11
3.45E+03,-8078,-197,1200,-303,-113,-257,1,7,11
3.45E+03,-8067,-193,1201,-302,-117,8,1,7,11
3.45E+03,-8319,-200,1207,-307,-109,14,1,7,11
3.45E+03,-8066,-206,1216,-313,-103,24,1,7,11
3.45E+03,-8071,-213,1221,-311,-96,28,1,7,11
3.45E+03,-8075,-217,1228,-308,-92,31,1,7,11
3.45E+03,-8082,-223,1229,-304,-91,30,1,7,11
3.45E+03,-8076,-228,1229,-295,-96,20,1,7,11
3.45E+03,-8077,-231,1227,-286,-100,13,1,7,11
3.45E+03,-8075,-230,1222,-278,-100,5,1,7,11
3.45E+03,-8079,-235,1213,-276,-99,1,1,7,11
3.45E+03,-8077,-237,1216,-276,-100,1,1,7,11
3.45E+03,-8075,-240,1219,-281,-103,0,1,7,11
3.45E+03,-8068,-248,1220,-288,-102,1,1,7,11
3.45E+03,-8311,-252,1225,-294,-103,2,1,7,11
3.45E+03,-8299,-255,1223,-299,-101,8,1,7,11
3.45E+03,-8296,-514,1225,-302,-92,14,1,7,11
3.45E+03,-8309,-253,1223,-305,-79,24,1,7,11
3.45E+03,-8313,-248,1224,-308,-74,39,1,7,11
3.45E+03,-8311,-247,1236,-311,-68,52,1,7,11
3.45E+03,-8316,-249,1234,-308,-62,61,1,7,11
3.45E+03,-8081,-243,1221,-306,-39,50,1,7,11
3.45E+03,-8065,-238,1219,-305,-49,42,1,7,11
3.45E+03,-8065,-226,1204,-304,-48,30,1,7,11
3.45E+03,-8069,-225,1207,-316,-47,22,1,7,11
3.45E+03,-8097,-228,1216,-328,-43,12,1,7,11
3.45E+03,-8105,-210,1215,-319,-63,25,1,7,11
3.45E+03,-8075,-204,1208,-311,-77,45,1,7,11
3.45E+03,-8316,-205,1201,-312,-76,71,1,7,11
3.45E+03,-8314,-212,1216,-315,-66,71,1,7,11
3.45E+03,-8318,-220,1221,-306,-60,67,1,7,11
3.46E+03,-8065,-219,1215,-292,-65,62,1,7,11
3.46E+03,-8065,-212,1208,-278,-68,53,1,7,11
3.46E+03,-8071,-203,1202,-274,-64,40,1,7,11
3.46E+03,-8077,-195,1203,-288,-60,33,1,7,11
3.46E+03,-8085,-197,1191,-305,-61,26,1,7,11
3.46E+03,-8084,-204,1197,-323,-66,21,1,7,11
3.46E+03,-8085,-213,1188,-334,-74,19,1,7,11
3.46E+03,-8075,-230,1189,-345,-80,20,1,7,11
3.46E+03,-8071,-241,1198,-348,-78,20,1,7,11
3.46E+03,-8065,-245,1189,-342,-81,24,1,7,11
3.46E+03,-8293,-250,1184,-344,-82,31,1,7,11
3.46E+03,-8066,-519,1202,-347,-60,19,1,7,11
3.46E+03,-8073,-524,1209,-328,-71,23,1,7,11
3.46E+03,-8072,-518,1193,-305,-82,21,1,7,11
3.46E+03,-8074,-516,1187,-294,-84,19,1,7,11
3.46E+03,-8076,-252,1187,-287,-82,22,1,7,11
3.46E+03,-8069,-252,1180,-287,-81,30,1,7,11
3.46E+03,-8069,-252,1178,-294,-76,33,1,7,11
3.46E+03,-8076,-516,1189,-299,-74,36,1,7,11
3.46E+03,-8071,-520,1193,-302,-77,37,1,7,11
3.46E+03,-8076,-521,1197,-306,-79,34,1,7,11
3.46E+03,-8076,-519,1198,-307,-86,35,1,7,11
3.46E+03,-8318,-527,1190,-306,-83,37,1,7,11
3.46E+03,-8308,-540,1192,-306,-78,36,1,7,11
3.46E+03,-8303,-540,1191,-299,-53,22,1,7,11
3.46E+03,-8305,-537,1202,-288,-24,12,1,7,11
3.46E+03,-8068,-539,1216,-290,266,1,1,7,11
3.46E+03,-8065,-525,1205,-288,263,-259,1,7,11
3.46E+03,-8067,-513,1190,-302,259,-265,1,7,11
3.46E+03,-8068,-251,1180,-326,257,-263,1,7,11
3.46E+03,-8070,-513,1171,-353,258,-264,1,7,11
3.46E+03,-8074,-524,1162,-377,259,-263,1,7,11
3.46E+03,-8067,-543,1174,-136,260,-267,1,7,11
3.46E+03,-8081,-561,1176,-140,-2,-276,1,7,11
3.46E+03,-8076,-566,1170,-134,-20,-280,1,7,11
3.46E+03,-8069,-570,1163,-379,-33,-277,1,7,11
3.46E+03,-8071,-583,1170,-369,-42,-267,1,7,11
3.46E+03,-8314,-587,1162,-349,-51,5,1,7,11
3.46E+03,-8079,-590,1175,-337,-39,18,1,7,11
3.46E+03,-8090,-580,1181,-308,-47,43,1,7,11
3.47E+03,-8072,-567,1171,-280,-62,69,1,7,11
3.47E+03,-8312,-548,1159,-271,-62,93,1,7,11
3.47E+03,-8309,-543,1163,-268,-55,109,1,7,11
3.47E+03,-8320,-528,1163,-271,-49,109,1,7,11
3.47E+03,-8072,-520,1164,-273,-54,105,1,7,11
3.47E+03,-8071,-514,1152,-275,-66,100,1,7,11
3.47E+03,-8069,-247,1400,-277,-71,94,1,7,11
3.47E+03,-8075,-242,1395,-286,-69,88,1,7,11
3.47E+03,-8077,-244,1390,-297,-71,81,1,7,11
3.47E+03,-8080,-252,1395,-304,-75,71,1,7,11
3.47E+03,-8084,-521,1397,-306,-78,54,1,7,11
3.47E+03,-8089,-523,1398,-306,-84,37,1,7,11
3.47E+03,-8088,-528,1406,-310,-87,24,1,7,11
3.47E+03,-8086,-537,1153,-320,-91,17,1,7,11
3.47E+03,-8311,-542,1390,-323,-94,19,1,7,11
3.47E+03,-8319,-557,1399,-342,-66,5,1,7,11
3.47E+03,-8072,-566,1406,-347,-54,-257,1,7,11
3.47E+03,-8318,-576,1405,-346,-54,-264,1,7,11
3.47E+03,-8318,-579,1391,-346,-50,-271,1,7,11
3.47E+03,-8066,-577,1388,-342,-45,-277,1,7,11
3.47E+03,-8320,-570,1382,-345,-41,-280,1,7,11
3.47E+03,-8073,-574,1388,-349,-27,-280,1,7,11
3.47E+03,-8081,-586,1393,-359,-27,-283,1,7,11
3.47E+03,-8090,-593,1396,-363,-39,-287,1,7,11
3.47E+03,-8088,-608,1396,-358,-56,-293,1,7,11
3.47E+03,-8082,-612,1391,-336,-74,-299,1,7,11
3.47E+03,-8078,-616,1382,-324,-81,-302,1,7,11
3.47E+03,-8081,-620,1382,-317,-83,-303,1,7,11
3.47E+03,-8082,-625,1391,-306,-90,-295,1,7,11
3.47E+03,-8078,-627,1393,-289,-99,-283,1,7,11
3.47E+03,-8078,-623,1389,-284,-108,-269,1,7,11
3.47E+03,-8073,-633,1394,-286,-116,6,1,7,11
3.47E+03,-8317,-392,1399,-288,-123,25,1,7,11
3.47E+03,-8300,-393,1390,-287,-122,43,1,7,11
3.47E+03,-8306,-637,1391,-278,-105,54,1,7,11
3.47E+03,-8066,-614,1396,-276,-96,79,1,7,11
3.47E+03,-8068,-606,1406,-284,-94,106,1,7,11
3.47E+03,-8065,-605,1405,-283,-89,122,1,7,11
3.47E+03,-8313,-606,1400,-277,-82,123,1,7,11
3.47E+03,-8065,-590,1407,-265,-71,105,1,7,11
3.48E+03,-8077,-578,1404,-257,-74,90,1,7,11
3.48E+03,-8071,-569,1393,0,-82,84,1,7,11
3.48E+03,-8320,-565,1386,-271,-83,76,1,7,11
3.48E+03,-8065,-560,1385,-289,-75,66,1,7,11
3.48E+03,-8083,-564,1396,-314,-68,52,1,7,11
3.48E+03,-8097,-577,1398,-316,-81,45,1,7,11
3.48E+03,-8084,-573,1391,-308,-100,49,1,7,11
3.48E+03,-8071,-575,1384,-315,-105,49,1,7,11
3.48E+03,-8066,-581,1393,-316,-101,47,1,7,11
3.48E+03,-8320,-593,1397,-314,-97,41,1,7,11
3.48E+03,-8071,-599,1405,-298,-96,33,1,7,11
3.48E+03,-8070,-605,1399,-277,-102,27,1,7,11
3.48E+03,-8320,-600,1400,-265,-102,22,1,7,11
3.48E+03,-8065,-600,1397,-262,-100,20,1,7,11
3.48E+03,-8068,-607,1400,-270,-101,19,1,7,11
3.48E+03,-8077,-610,1400,-277,-106,18,1,7,11
3.48E+03,-8078,-617,1402,-283,-115,14,1,7,11
3.48E+03,-8077,-620,1153,-289,-122,10,1,7,11
3.48E+03,-8081,-621,1154,-294,-124,15,1,7,11
3.48E+03,-8075,-623,1158,-293,-125,24,1,7,11
3.48E+03,-8308,-621,1157,-287,-124,41,1,7,11
3.48E+03,-8315,-636,1166,-285,-102,40,1,7,11
3.48E+03,-8065,-639,1162,-275,-91,43,1,7,11
3.48E+03,-8319,-629,1162,-262,-91,46,1,7,11
3.48E+03,-8066,-622,1159,-263,-89,49,1,7,11
3.48E+03,-8072,-616,1157,-267,-88,54,1,7,11
3.48E+03,-8078,-616,1155,-274,-89,61,1,7,11
3.48E+03,-8075,-614,1406,-283,-89,63,1,7,11
3.48E+03,-8075,-614,1156,-290,-86,56,1,7,11
3.48E+03,-8076,-620,1159,-292,-87,45,1,7,11
3.48E+03,-8076,-634,1168,-293,-92,31,1,7,11
3.48E+03,-8083,-639,1167,-288,-100,16,1,7,11
3.48E+03,-8080,-388,1180,-278,-109,-258,1,7,11
3.48E+03,-8075,-387,1172,-269,-112,-271,1,7,11
3.48E+03,-8068,-639,1164,-263,-110,-282,1,7,11
3.48E+03,-8067,-385,1168,-262,-108,-288,1,7,11
3.48E+03,-8072,-639,1163,-264,-107,-291,1,7,11
3.48E+03,-8068,-387,1165,-275,-109,-289,1,7,11
3.48E+03,-8065,-385,1171,-284,-113,-285,1,7,11
3.48E+03,-8320,-392,1163,-300,-117,-276,1,7,11
3.49E+03,-8316,-398,1154,-314,-118,-261,1,7,11
3.49E+03,-8309,-405,1157,-322,-122,11,1,7,11
3.49E+03,-8294,-409,1154,-332,-118,31,1,7,11
3.49E+03,-8303,-418,1171,-346,-103,42,1,7,11
3.49E+03,-8316,-424,1176,-342,-96,58,1,7,11
3.49E+03,-8071,-424,1181,-331,-94,81,1,7,11
3.49E+03,-8067,-428,1188,-311,-95,102,1,7,11
3.49E+03,-8319,-421,1184,-288,-91,114,1,7,11
3.49E+03,-8069,-416,1187,0,-80,118,1,7,11
3.49E+03,-8072,-387,1184,33,-79,122,1,7,11
3.49E+03,-8068,-622,1175,48,-84,127,1,7,11
3.49E+03,-8067,-608,1169,42,-86,-127,1,7,11
3.49E+03,-8320,-604,1164,26,-85,125,1,7,11
3.49E+03,-8084,-615,1178,-260,-85,111,1,7,11
3.49E+03,-8089,-610,1174,-276,-95,91,1,7,11
3.49E+03,-8079,-607,1173,-284,-118,88,1,7,11
3.49E+03,-8067,-603,1177,-292,-122,90,1,7,11
3.49E+03,-8313,-616,1179,-302,-116,88,1,7,11
3.49E+03,-8311,-620,1186,-296,-106,82,1,7,11
3.49E+03,-8314,-637,1188,-282,-101,79,1,7,11
3.49E+03,-8309,-636,1187,-261,-93,73,1,7,11
3.49E+03,-8311,-629,1182,6,-83,62,1,7,11
3.49E+03,-8320,-619,1175,8,-79,56,1,7,11
3.49E+03,-8069,-615,1179,-258,-81,56,1,7,11
3.49E+03,-8072,-617,1183,-280,-91,60,1,7,11
3.49E+03,-8077,-627,1181,-301,-95,62,1,7,11
3.49E+03,-8076,-626,1188,-313,-99,61,1,7,11
3.49E+03,-8077,-634,1187,-321,-100,55,1,7,11
3.49E+03,-8079,-634,1190,-319,-100,58,1,7,11
3.49E+03,-8314,-640,1192,-313,-108,71,1,7,11
3.49E+03,-8306,-391,1199,-311,-93,67,1,7,11
3.49E+03,-8065,-397,1198,-302,-81,60,1,7,11
3.49E+03,-8070,-392,1190,-287,-83,55,1,7,11
3.49E+03,-8072,-637,1179,-280,-89,54,1,7,11
3.49E+03,-8075,-626,1183,-282,-95,53,1,7,11
3.49E+03,-8076,-622,1182,-290,-101,53,1,7,11
3.49E+03,-8068,-627,1186,-298,-106,55,1,7,11
3.49E+03,-8318,-638,1192,-307,-102,51,1,7,11
3.49E+03,-8318,-391,1199,-315,-101,42,1,7,11
3.49E+03,-8067,-397,1203,-314,-99,30,1,7,11
3.50E+03,-8072,-392,1196,-316,-100,8,1,7,11
3.50E+03,-8076,-398,1199,-327,-116,0,1,7,11
3.50E+03,-8065,-400,1194,-321,-127,-259,1,7,11
3.50E+03,-8318,-405,1199,-309,-127,0,1,7,11
3.50E+03,-8317,-407,1205,-296,125,11,1,7,11
3.50E+03,-8315,-396,1202,-279,-128,18,1,7,11
3.50E+03,-8310,-399,1205,-278,-126,24,1,7,11
3.50E+03,-8313,-398,1201,-281,-121,28,1,7,11
3.50E+03,-8316,-393,1206,-287,-120,33,1,7,11
3.50E+03,-8313,-385,1203,-297,-120,45,1,7,11
3.50E+03,-8302,-388,1202,-302,-112,54,1,7,11
3.50E+03,-8308,-392,1213,-305,-99,69,1,7,11
3.50E+03,-8313,-400,1218,-304,-90,86,1,7,11
3.50E+03,-8315,-400,1215,-297,-80,100,1,7,11
3.50E+03,-8314,-399,1216,-283,-69,108,1,7,11
3.50E+03,-8065,-394,1214,-273,-59,108,1,7,11
3.50E+03,-8074,-386,1209,-266,-53,105,1,7,11
3.50E+03,-8073,-635,1213,-267,-55,100,1,7,11
3.50E+03,-8317,-630,1213,-270,-65,97,1,7,11
3.50E+03,-8315,-633,1207,-282,-68,90,1,7,11
3.50E+03,-8312,-632,1201,-291,-72,83,1,7,11
3.50E+03,-8077,-391,1212,-307,-63,67,1,7,11
3.50E+03,-8096,-385,1216,-296,-72,60,1,7,11
3.50E+03,-8073,-628,1193,-283,-92,65,1,7,11
3.50E+03,-8314,-629,1197,-284,-91,64,1,7,11
3.50E+03,-8313,-632,1195,-285,-81,59,1,7,11
3.50E+03,-8317,-631,1198,-283,-76,49,1,7,11
3.50E+03,-8068,-635,1200,-278,-80,41,1,7,11
3.50E+03,-8318,-628,1197,-269,-93,37,1,7,11
3.50E+03,-8314,-625,1186,-267,-100,31,1,7,11
3.50E+03,-8319,-622,1194,-276,-98,29,1,7,11
3.50E+03,-8319,-638,1203,-287,-100,33,1,7,11
3.50E+03,-8066,-388,1205,-293,-100,33,1,7,11
3.50E+03,-8070,-397,1207,-297,-102,34,1,7,11
3.50E+03,-8320,-407,1217,-295,-102,33,1,7,11
3.50E+03,-8319,-408,1218,-291,-101,31,1,7,11
3.50E+03,-8314,-402,1212,-284,-99,34,1,7,11
3.50E+03,-8292,-396,1194,-276,-105,49,1,7,11
3.50E+03,-8312,-402,1206,-287,-83,43,1,7,11
3.50E+03,-8065,-407,1214,-295,-71,41,1,7,11
3.51E+03,-8068,-404,1201,-290,-77,42,1,7,11
3.51E+03,-8065,-399,1206,-294,-77,46,1,7,11
3.51E+03,-8314,-400,1201,-303,-75,51,1,7,11
3.51E+03,-8312,-400,1186,-316,-70,54,1,7,11
3.51E+03,-8318,-404,1191,-325,-67,58,1,7,11
3.51E+03,-8066,-415,1193,-327,-69,57,1,7,11
3.51E+03,-8315,-425,1198,-316,-74,56,1,7,11
3.51E+03,-8315,-424,1197,-300,-77,50,1,7,11
3.51E+03,-8315,-430,1197,-283,-81,49,1,7,11
3.51E+03,-8318,-421,1196,-267,-80,47,1,7,11
3.51E+03,-8068,-413,1202,0,-77,47,1,7,11
3.51E+03,-8071,-418,1216,2,-77,50,1,7,11
3.51E+03,-8073,-410,1216,8,-79,48,1,7,11
3.51E+03,-8077,-405,1209,3,-86,45,1,7,11
3.51E+03,-8071,-405,1204,-263,-97,43,1,7,11
3.51E+03,-8067,-399,1202,-276,-100,37,1,7,11
3.51E+03,-8316,-397,1204,-286,-99,36,1,7,11
3.51E+03,-8065,-393,1201,-293,-90,39,1,7,11
3.51E+03,-8317,-394,1209,-297,-87,48,1,7,11
3.51E+03,-8314,-398,1209,-297,-81,52,1,7,11
3.51E+03,-8310,-399,1202,-292,-75,51,1,7,11
3.51E+03,-8314,-394,1207,-291,-66,44,1,7,11
3.51E+03,-8320,-405,1212,-292,-63,38,1,7,11
3.51E+03,-8319,-402,1212,-293,-73,34,1,7,11
3.51E+03,-8317,-393,1205,-299,-81,37,1,7,11
3.51E+03,-8313,-406,1203,-311,-86,44,1,7,11
3.51E+03,-8314,-422,1197,-312,-76,56,1,7,11
3.51E+03,-8084,-430,1218,-314,-70,57,1,7,11
3.51E+03,-8085,-427,1217,-304,-76,68,1,7,11
3.51E+03,-8066,-411,1208,-284,-101,79,1,7,11
3.51E+03,-8311,-412,1205,-276,-97,81,1,7,11
3.51E+03,-8311,-404,1205,-268,-92,77,1,7,11
3.51E+03,-8320,-395,1201,-264,-86,74,1,7,11
3.51E+03,-8319,-398,1203,-264,-92,74,1,7,11
3.51E+03,-8312,-388,1201,-258,-100,74,1,7,11
3.51E+03,-8313,-391,1200,-259,-101,71,1,7,11
3.51E+03,-8066,-386,1212,-264,-99,62,1,7,11
3.51E+03,-8069,-392,1218,-268,-100,51,1,7,11
3.51E+03,-8066,-392,1215,-274,-102,37,1,7,11
3.51E+03,-8065,-395,1222,-279,-105,22,1,7,11
3.52E+03,-8320,-400,1223,-283,-107,9,1,7,11
3.52E+03,-8066,-401,1220,-289,-106,0,1,7,11
3.52E+03,-8316,-410,1214,-292,-105,-257,1,7,11
3.52E+03,-8291,-409,1206,-294,-101,4,1,7,11
3.52E+03,-8309,-420,1219,-306,-77,-259,1,7,11
3.52E+03,-8319,-431,1221,-302,-71,-258,1,7,11
3.52E+03,-8319,-436,1214,-301,-77,-257,1,7,11
3.52E+03,-8318,-436,1215,-298,-78,-257,1,7,11
3.52E+03,-8318,-432,1203,-298,-78,3,1,7,11
3.52E+03,-8319,-430,1202,-304,-76,10,1,7,11
3.52E+03,-8319,-437,1202,-314,-73,23,1,7,11
3.52E+03,-8317,-451,1208,-319,-72,33,1,7,11
3.52E+03,-8066,-460,1211,-314,-73,36,1,7,11
3.52E+03,-8072,-473,1211,-305,-77,34,1,7,11
3.52E+03,-8072,-477,1214,-283,-86,29,1,7,11
3.52E+03,-8067,-476,1207,-264,-95,24,1,7,11
3.52E+03,-8069,-468,1200,3,-98,24,1,7,11
3.52E+03,-8071,-459,1204,10,-101,28,1,7,11
3.52E+03,-8069,-457,1206,10,-102,34,1,7,11
3.52E+03,-8319,-452,1215,9,-105,38,1,7,11
3.52E+03,-8067,-445,1217,5,-111,41,1,7,11
3.52E+03,-8066,-438,1215,-262,-112,45,1,7,11
3.52E+03,-8318,-436,1213,-276,-112,52,1,7,11
3.52E+03,-8312,-441,1216,-282,-108,57,1,7,11
3.52E+03,-8307,-447,1219,-288,-101,64,1,7,11
3.52E+03,-8309,-446,1229,-289,-90,68,1,7,11
3.52E+03,-8311,-450,1232,-288,-84,75,1,7,11
3.52E+03,-8309,-450,1223,-286,-82,84,1,7,11
3.52E+03,-8307,-455,1220,-280,-77,89,1,7,11
3.52E+03,-8308,-449,1229,-274,-66,84,1,7,11
3.52E+03,-8317,-448,1228,-271,-63,76,1,7,11
3.52E+03,-8318,-435,1215,-264,-60,74,1,7,11
3.52E+03,-8311,-433,1212,-274,-66,69,1,7,11
3.52E+03,-8301,-436,1204,-295,-63,69,1,7,11
3.52E+03,-8315,-441,1217,-315,-53,68,1,7,11
3.52E+03,-8084,-450,1231,-322,-52,68,1,7,11
3.52E+03,-8079,-447,1228,-312,-71,77,1,7,11
3.52E+03,-8075,-438,1228,-307,-78,86,1,7,11
3.52E+03,-8066,-432,1214,-302,-80,92,1,7,11
3.52E+03,-8317,-430,1221,-296,-80,94,1,7,11
3.53E+03,-8065,-432,1229,-286,-77,95,1,7,11
3.53E+03,-8320,-435,1229,-266,-83,97,1,7,11
3.53E+03,-8314,-426,1227,10,-90,94,1,7,11
3.53E+03,-8313,-415,1219,21,-86,83,1,7,11
3.53E+03,-8069,-412,1218,21,-84,72,1,7,11
3.53E+03,-8072,-407,1213,15,-89,60,1,7,11
3.53E+03,-8073,-404,1212,3,-95,45,1,7,11
3.53E+03,-8075,-407,1211,-272,-101,28,1,7,11
3.53E+03,-8070,-413,1218,-286,-108,18,1,7,11
3.53E+03,-8065,-420,1218,-299,-110,11,1,7,11
3.53E+03,-8067,-432,1223,-303,-106,11,1,7,11
3.53E+03,-8301,-440,1220,-306,-109,18,1,7,11
3.53E+03,-8305,-454,1226,-316,-93,10,1,7,11
3.53E+03,-8314,-457,1232,-306,-80,6,1,7,11
3.53E+03,-8319,-453,1227,-301,-78,6,1,7,11
3.53E+03,-8318,-451,1222,-300,-77,16,1,7,11
3.53E+03,-8320,-457,1218,-306,-74,29,1,7,11
3.53E+03,-8320,-464,1211,-313,-78,43,1,7,11
3.53E+03,-8314,-469,1210,-316,-77,50,1,7,11
3.53E+03,-8318,-476,1218,-312,-81,50,1,7,11
3.53E+03,-8316,-477,1216,-302,-84,48,1,7,11
3.53E+03,-8320,-484,1223,-290,-86,43,1,7,11
3.53E+03,-8072,-491,1226,-274,-91,37,1,7,11
3.53E+03,-8067,-482,1223,2,-98,33,1,7,11
3.53E+03,-8319,-472,1216,21,-101,30,1,7,11
3.53E+03,-8320,-467,1218,35,-100,29,1,7,11
3.53E+03,-8067,-459,1215,34,-95,34,1,7,11
3.53E+03,-8068,-450,1221,18,-96,38,1,7,11
3.53E+03,-8065,-447,1224,-257,-97,40,1,7,11
3.53E+03,-8311,-443,1220,-275,-99,42,1,7,11
3.53E+03,-8312,-450,1220,-292,-98,42,1,7,11
3.53E+03,-8318,-459,1226,-308,-95,44,1,7,11
3.53E+03,-8315,-469,1232,-317,-90,47,1,7,11
3.53E+03,-8305,-473,1225,-318,-85,51,1,7,11
3.53E+03,-8306,-476,1230,-314,-77,51,1,7,11
3.53E+03,-8314,-477,1232,-306,-71,54,1,7,11
3.53E+03,-8313,-470,1230,-299,-72,62,1,7,11
3.53E+03,-8309,-472,1232,-293,-71,67,1,7,11
3.53E+03,-8303,-472,1230,-288,-68,72,1,7,11
3.53E+03,-8312,-477,1234,-287,-68,68,1,7,11
3.54E+03,-8318,-468,1234,-283,-72,67,1,7,11
3.54E+03,-8308,-463,1232,-286,-81,69,1,7,11
3.54E+03,-8301,-461,1224,-295,-82,66,1,7,11
3.54E+03,-8294,-458,1219,-305,-76,63,1,7,11
3.54E+03,-8086,-465,1244,-321,-61,57,1,7,11
3.54E+03,-8092,-463,1233,-313,-77,73,1,7,11
3.54E+03,-8071,-454,1214,-306,-88,93,1,7,11
3.54E+03,-8320,-451,1221,-305,-86,113,1,7,11
3.54E+03,-8306,-445,1222,-302,-78,122,1,7,11
3.54E+03,-8311,-446,1228,-294,-66,116,1,7,11
3.54E+03,-8318,-447,1239,-278,-68,108,1,7,11
3.54E+03,-8309,-433,1231,-264,-72,93,1,7,11
3.54E+03,-8312,-418,1232,-261,-71,79,1,7,11
3.54E+03,-8318,-409,1222,-264,-73,70,1,7,11
3.54E+03,-8318,-412,1226,-275,-76,64,1,7,11
3.54E+03,-8317,-417,1225,-288,-80,51,1,7,11
3.54E+03,-8315,-428,1228,-297,-85,25,1,7,11
3.54E+03,-8315,-431,1226,-302,-85,7,1,7,11
3.54E+03,-8315,-438,1226,-305,-83,-259,1,7,11
3.54E+03,-8314,-453,1219,-311,-84,-257,1,7,11
3.54E+03,-8290,-461,1214,-316,-83,-258,1,7,11
3.54E+03,-8311,-480,1219,-325,-63,-272,1,7,11
3.54E+03,-8315,-488,1213,-317,-66,-276,1,7,11
3.54E+03,-8317,-485,1215,-310,-73,-277,1,7,11
3.54E+03,-8065,-483,1208,-309,-74,-269,1,7,11
3.54E+03,-8318,-481,1209,-310,-75,1,1,7,11
3.54E+03,-8315,-491,1205,-316,-71,15,1,7,11
3.54E+03,-8312,-499,1208,-322,-67,30,1,7,11
3.54E+03,-8316,-509,1213,-320,-65,38,1,7,11
3.54E+03,-8311,-510,1214,-310,-70,48,1,7,11
3.54E+03,-8315,-774,1219,-301,-77,55,1,7,11
3.54E+03,-8316,-773,1220,-284,-81,58,1,7,11
3.54E+03,-8317,-503,1216,-269,-86,60,1,7,11
3.54E+03,-8318,-500,1217,-259,-85,64,1,7,11
3.54E+03,-8312,-496,1222,-259,-84,67,1,7,11
3.54E+03,-8311,-494,1230,-261,-83,66,1,7,11
3.54E+03,-8314,-493,1225,-266,-89,67,1,7,11
3.54E+03,-8312,-483,1218,-272,-88,69,1,7,11
3.54E+03,-8311,-482,1222,-281,-88,74,1,7,11
3.54E+03,-8306,-480,1225,-300,-89,81,1,7,11
3.55E+03,-8304,-486,1216,-305,-89,84,1,7,11
3.55E+03,-8302,-491,1229,-306,-82,83,1,7,11
3.55E+03,-8304,-490,1238,-305,-73,80,1,7,11
3.55E+03,-8304,-491,1231,-295,-67,84,1,7,11
3.55E+03,-8306,-489,1233,-287,-65,90,1,7,11
3.55E+03,-8305,-481,1225,-280,-62,98,1,7,11
3.55E+03,-8309,-480,1220,-277,-53,99,1,7,11
3.55E+03,-8067,-466,1222,-267,-55,105,1,7,11
3.55E+03,-8315,-456,1212,-270,-67,112,1,7,11
3.55E+03,-8316,-450,1210,-282,-67,111,1,7,11
3.55E+03,-8311,-454,1201,-286,-70,110,1,7,11
3.55E+03,-8065,-452,1208,-295,-58,95,1,7,11
3.55E+03,-8091,-446,1211,-297,-52,80,1,7,11
3.55E+03,-8086,-433,1198,-291,-70,77,1,7,11
3.55E+03,-8320,-423,1194,-296,-83,69,1,7,11
3.55E+03,-8315,-425,1191,-305,-86,60,1,7,11
3.55E+03,-8309,-436,1195,-311,-88,45,1,7,11
3.55E+03,-8316,-446,1203,-309,-88,30,1,7,11
3.55E+03,-8316,-450,1212,-299,-96,21,1,7,11
3.55E+03,-8305,-448,1218,-287,-100,11,1,7,11
3.55E+03,-8309,-444,1208,-279,-99,0,1,7,11
3.55E+03,-8313,-448,1211,-277,-93,-270,1,7,11
3.55E+03,-8314,-456,1209,-285,-94,-277,1,7,11
3.55E+03,-8320,-466,1211,-293,-101,-284,1,7,11
3.55E+03,-8320,-473,1216,-303,-105,-287,1,7,11
3.55E+03,-8318,-476,1217,-317,-106,-284,1,7,11
3.55E+03,-8320,-483,1228,-319,-104,-272,1,7,11
3.55E+03,-8290,-496,1211,-313,-110,5,1,7,11
3.55E+03,-8295,-769,1215,-314,-86,9,1,7,11
3.55E+03,-8309,-776,1224,-306,-73,18,1,7,11
3.55E+03,-8318,-770,1208,-275,-81,29,1,7,11
3.55E+03,-8311,-508,1215,-277,-78,36,1,7,11
3.55E+03,-8314,-504,1206,-285,-73,50,1,7,11
3.55E+03,-8316,-510,1201,-296,-74,63,1,7,11
3.55E+03,-8317,-774,1222,-297,-77,67,1,7,11
3.55E+03,-8314,-786,1219,-263,-90,34,1,7,11
3.55E+03,-8317,-779,1212,-258,-90,24,1,7,11
3.55E+03,-8065,-771,1209,-260,-91,18,1,7,11
3.55E+03,-8070,-776,1211,-264,-92,19,1,7,11
3.55E+03,-8069,-780,1210,-266,-93,19,1,7,11
3.56E+03,-8318,-783,1214,-270,-97,22,1,7,11
3.56E+03,-8308,-782,1209,-274,-101,23,1,7,11
3.56E+03,-8307,-786,1212,-277,-103,28,1,7,11
3.56E+03,-8306,-786,1221,-277,-99,33,1,7,11
3.56E+03,-8300,-783,1221,-272,-93,43,1,7,11
3.56E+03,-8306,-787,1221,-275,-91,52,1,7,11
3.56E+03,-8308,-784,1219,-273,-91,62,1,7,11
3.56E+03,-8309,-779,1221,-271,-90,73,1,7,11
3.56E+03,-8313,-775,1219,-268,-85,83,1,7,11
3.56E+03,-8319,-779,1222,-263,-84,95,1,7,11
3.56E+03,-8317,-775,1224,-258,-90,106,1,7,11
3.56E+03,-8308,-772,1236,6,-91,111,1,7,11
3.56E+03,-8303,-770,1229,12,-86,108,1,7,11
3.56E+03,-8311,-503,1226,19,-76,99,1,7,11
3.56E+03,-8315,-483,1228,24,-74,92,1,7,11
3.56E+03,-8306,-472,1215,17,-81,95,1,7,11
3.56E+03,-8290,-474,1204,0,-79,98,1,7,11
3.56E+03,-8318,-476,1213,-277,-68,94,1,7,11
3.56E+03,-8083,-480,1215,-292,-62,86,1,7,11
3.56E+03,-8079,-476,1213,-294,-76,88,1,7,11
3.56E+03,-8068,-474,1213,-297,-95,92,1,7,11
3.56E+03,-8313,-474,1220,-307,-92,88,1,7,11
3.56E+03,-8307,-483,1222,-304,-85,83,1,7,11
3.56E+03,-8312,-484,1223,-290,-80,76,1,7,11
3.56E+03,-8307,-478,1228,-272,-76,66,1,7,11
3.56E+03,-8303,-473,1220,1,-77,58,1,7,11
3.56E+03,-8304,-463,1214,6,-74,47,1,7,11
3.56E+03,-8307,-458,1221,2,-72,37,1,7,11
3.56E+03,-8319,-458,1217,-270,-72,29,1,7,11
3.56E+03,-8068,-469,1214,-294,-79,24,1,7,11
3.56E+03,-8069,-473,1211,-312,-88,18,1,7,11
3.56E+03,-8065,-487,1211,-327,-97,11,1,7,11
3.56E+03,-8067,-500,1214,-339,-103,3,1,7,11
3.56E+03,-8319,-510,1217,-340,-113,3,1,7,11
3.56E+03,-8295,-780,1217,-332,-115,1,1,7,11
3.56E+03,-8303,-794,1233,-320,-100,-269,1,7,11
3.56E+03,-8311,-797,1238,-298,-96,-278,1,7,11
3.56E+03,-8318,-799,1237,-276,-97,-284,1,7,11
3.56E+03,-8320,-786,1238,-261,-98,-281,1,7,11
3.56E+03,-8316,-776,1229,0,-100,-267,1,7,11
3.57E+03,-8317,-509,1212,-263,-99,6,1,7,11
3.57E+03,-8318,-511,1217,-275,-96,23,1,7,11
3.57E+03,-8313,-776,1228,-285,-91,34,1,7,11
3.57E+03,-8309,-791,1233,-292,-90,39,1,7,11
3.57E+03,-8305,-813,1237,-297,-91,32,1,7,11
3.57E+03,-8306,-819,1239,-288,-88,13,1,7,11
3.57E+03,-8311,-814,1235,-275,-84,-261,1,7,11
3.57E+03,-8313,-804,1232,-270,-82,-275,1,7,11
3.57E+03,-8314,-806,1229,-276,-82,-276,1,7,11
3.57E+03,-8317,-806,1231,-285,-83,-271,1,7,11
3.57E+03,-8316,-806,1235,-296,-83,-259,1,7,11
3.57E+03,-8313,-817,1237,-307,-85,8,1,7,11
3.57E+03,-8303,-824,1239,-313,-88,29,1,7,11
3.57E+03,-8296,-824,1237,-317,-86,62,1,7,11
3.57E+03,-8294,-827,1236,-313,-70,76,1,7,11
3.57E+03,-8299,-826,1245,-305,-59,89,1,7,11
3.57E+03,-8295,-820,1248,-299,-57,98,1,7,11
3.57E+03,-8307,-812,1250,-293,-47,106,1,7,11
3.57E+03,-8312,-796,1240,-289,-41,118,1,7,11
3.57E+03,-8314,-788,1234,-294,-39,-128,1,7,11
3.57E+03,-8318,-780,1238,-299,-37,-124,1,7,11
3.57E+03,-8315,-778,1234,-303,-36,-122,1,7,11
3.57E+03,-8308,-783,1235,-305,-32,-127,1,7,11
3.57E+03,-8306,-782,1227,-303,-27,120,1,7,11
3.57E+03,-8308,-770,1218,-301,-34,109,1,7,11
3.57E+03,-8299,-769,1220,-303,-45,105,1,7,11
3.57E+03,-8300,-512,1212,-308,-47,96,1,7,11
3.57E+03,-8308,-769,1211,-314,-38,82,1,7,11
3.57E+03,-8085,-774,1216,-316,-28,66,1,7,11
3.57E+03,-8094,-770,1203,-301,-48,71,1,7,11
3.57E+03,-8070,-502,1193,-293,-66,81,1,7,11
3.57E+03,-8316,-501,1192,-296,-66,85,1,7,11
3.57E+03,-8308,-507,1201,-302,-65,84,1,7,11
3.57E+03,-8315,-508,1206,-305,-62,80,1,7,11
3.57E+03,-8314,-770,1202,-299,-75,81,1,7,11
3.57E+03,-8306,-770,1195,-290,-81,78,1,7,11
3.57E+03,-8305,-769,1191,-288,-80,80,1,7,11
3.57E+03,-8308,-508,1201,-292,-76,79,1,7,11
3.57E+03,-8310,-770,1198,-297,-76,76,1,7,11
3.57E+03,-8313,-775,1200,-300,-77,71,1,7,11
3.58E+03,-8316,-771,1202,-303,-79,70,1,7,11
3.58E+03,-8319,-774,1200,-308,-77,70,1,7,11
3.58E+03,-8065,-774,1203,-309,-75,74,1,7,11
3.58E+03,-8301,-773,1194,-302,-78,87,1,7,11
3.58E+03,-8289,-775,1191,-307,-60,90,1,7,11
3.58E+03,-8315,-785,1203,-317,-33,83,1,7,11
3.58E+03,-8068,-786,1192,-308,-39,84,1,7,11
3.58E+03,-8069,-785,1185,-303,-46,81,1,7,11
3.58E+03,-8069,-779,1182,-298,-50,77,1,7,11
3.58E+03,-8320,-510,1174,-296,-55,71,1,7,11
3.58E+03,-8066,-506,1174,-302,-54,68,1,7,11
3.58E+03,-8072,-507,1182,-307,-59,65,1,7,11
3.58E+03,-8069,-774,1188,-306,-64,55,1,7,11
3.58E+03,-8073,-781,1189,-300,-74,42,1,7,11
3.58E+03,-8071,-780,1196,-290,-85,28,1,7,11
3.58E+03,-8065,-782,1183,-279,-93,20,1,7,11
3.58E+03,-8314,-774,1185,-266,-100,5,1,7,11
3.58E+03,-8314,-778,1183,-270,-104,10,1,7,11
3.58E+03,-8318,-770,1191,-278,-108,17,1,7,11
3.58E+03,-8320,-773,1195,-289,-111,27,1,7,11
3.58E+03,-8314,-780,1204,-299,-113,38,1,7,11
3.58E+03,-8311,-778,1204,-302,-110,48,1,7,11
3.58E+03,-8306,-779,1208,-303,-105,58,1,7,11
3.58E+03,-8313,-782,1216,-300,-101,69,1,7,11
3.58E+03,-8313,-785,1221,-293,-97,72,1,7,11
3.58E+03,-8305,-782,1221,-283,-95,74,1,7,11
3.58E+03,-8307,-779,1216,-275,-90,64,1,7,11
3.58E+03,-8317,-781,1214,-270,-88,52,1,7,11
3.58E+03,-8314,-771,1207,-262,-96,43,1,7,11
3.58E+03,-8309,-509,1208,-264,-104,36,1,7,11
3.58E+03,-8307,-770,1206,-273,-103,33,1,7,11
3.58E+03,-8310,-770,1204,-276,-98,31,1,7,11
3.58E+03,-8080,-781,1214,-290,-85,25,1,7,11
3.58E+03,-8081,-779,1213,-283,-88,25,1,7,11
3.58E+03,-8319,-775,1201,-278,-105,31,1,7,11
3.58E+03,-8308,-777,1200,-285,-102,37,1,7,11
3.58E+03,-8298,-785,1209,-294,-98,36,1,7,11
3.58E+03,-8304,-788,1223,-291,-89,30,1,7,11
3.58E+03,-8308,-794,1231,-281,-89,24,1,7,11
3.58E+03,-8302,-796,1224,-260,-93,16,1,7,11
3.59E+03,-8306,-792,1220,6,-90,7,1,7,11
3.59E+03,-8310,-788,1216,8,-88,2,1,7,11
3.59E+03,-8315,-790,1209,2,-88,-262,1,7,11
3.59E+03,-8319,-799,1216,-264,-93,-271,1,7,11
3.59E+03,-8320,-801,1216,-271,-100,-282,1,7,11
3.59E+03,-8320,-799,1218,-278,-107,-284,1,7,11
3.59E+03,-8311,-811,1216,-287,-111,-285,1,7,11
3.59E+03,-8303,-819,1213,-289,-119,-275,1,7,11
3.59E+03,-8283,-827,1209,-291,-113,-272,1,7,11
3.59E+03,-8303,-841,1221,-292,-92,-268,1,7,11
3.59E+03,-8307,-845,1228,-283,-92,-263,1,7,11
3.59E+03,-8305,-852,1222,-271,-96,1,1,7,11
3.59E+03,-8313,-849,1214,-262,-97,5,1,7,11
3.59E+03,-8307,-842,1213,-257,-100,9,1,7,11
3.59E+03,-8305,-833,1201,-263,-94,16,1,7,11
3.59E+03,-8317,-833,1216,-271,-91,27,1,7,11
3.59E+03,-8312,-841,1222,-277,-94,35,1,7,11
3.59E+03,-8314,-845,1229,-278,-100,38,1,7,11
3.59E+03,-8311,-856,1236,-274,-103,30,1,7,11
3.59E+03,-8308,-852,1235,-262,-107,21,1,7,11
3.59E+03,-8298,-848,1236,0,-108,8,1,7,11
3.59E+03,-8290,-840,1230,4,-103,-267,1,7,11
3.59E+03,-8294,-841,1230,2,-98,-279,1,7,11
3.59E+03,-8303,-840,1232,-261,-88,-284,1,7,11
3.59E+03,-8305,-840,1237,-272,-87,-279,1,7,11
3.59E+03,-8306,-838,1239,-293,-88,-263,1,7,11
3.59E+03,-8302,-845,1235,-308,-82,15,1,7,11
3.59E+03,-8307,-860,1237,-319,-75,42,1,7,11
3.59E+03,-8301,-871,1235,-332,-66,66,1,7,11
3.59E+03,-8293,-877,1227,-326,-55,83,1,7,11
3.59E+03,-8293,-874,1235,-316,-44,97,1,7,11
3.59E+03,-8307,-871,1241,-308,-34,105,1,7,11
3.59E+03,-8315,-868,1234,-299,-30,112,1,7,11
3.59E+03,-8306,-857,1236,-293,-31,117,1,7,11
3.59E+03,-8299,-846,1228,-287,-31,116,1,7,11
3.59E+03,-8298,-851,1222,-284,-27,103,1,7,11
3.59E+03,-8303,-838,1213,-274,-27,85,1,7,11
3.59E+03,-8308,-826,1212,-278,-39,70,1,7,11
3.59E+03,-8297,-824,1199,-285,-46,58,1,7,11
3.59E+03,-8293,-823,1198,-294,-40,42,1,7,11
3.60E+03,-8065,-830,1215,-311,-34,28,1,7,11
3.60E+03,-8083,-848,1220,-314,-48,23,1,7,11
3.60E+03,-8077,-839,1211,-304,-68,31,1,7,11
3.60E+03,-8320,-837,1196,-301,-77,45,1,7,11
3.60E+03,-8307,-845,1192,-298,-77,59,1,7,11
3.60E+03,-8303,-854,1189,-293,-71,68,1,7,11
3.60E+03,-8308,-854,1210,-283,-66,73,1,7,11
3.60E+03,-8306,-854,1206,-266,-69,75,1,7,11
3.60E+03,-8299,-845,1195,4,-73,76,1,7,11
3.60E+03,-8299,-835,1186,6,-68,71,1,7,11
3.60E+03,-8301,-830,1181,3,-67,66,1,7,11
3.60E+03,-8307,-821,1179,-271,-68,62,1,7,11
3.60E+03,-8311,-820,1183,-288,-76,54,1,7,11
3.60E+03,-8315,-827,1185,-307,-86,47,1,7,11
3.60E+03,-8313,-839,1193,-324,-92,45,1,7,11
3.60E+03,-8313,-849,1194,-333,-92,47,1,7,11
3.60E+03,-8305,-863,1186,-329,-99,61,1,7,11
3.60E+03,-8302,-878,1196,-326,-79,60,1,7,11
3.60E+03,-8313,-885,1209,-315,-69,62,1,7,11
3.60E+03,-8319,-879,1206,-299,-70,63,1,7,11
3.60E+03,-8317,-867,1198,-286,-72,68,1,7,11
3.60E+03,-8315,-856,1195,-280,-74,75,1,7,11
3.60E+03,-8306,-848,1194,-287,-72,83,1,7,11
3.60E+03,-8311,-842,1196,-295,-63,83,1,7,11
3.60E+03,-8319,-848,1196,-305,-64,79,1,7,11
3.60E+03,-8068,-853,1197,-309,-71,72,1,7,11
3.60E+03,-8316,-853,1195,-301,-83,67,1,7,11
3.60E+03,-8065,-863,1202,-309,-81,53,1,7,11
3.60E+03,-8065,-871,1202,-299,-93,47,1,7,11
3.60E+03,-8313,-875,1202,-287,-97,32,1,7,11
3.60E+03,-8313,-882,1202,-277,-98,16,1,7,11
3.60E+03,-8312,-881,1199,-268,-102,7,1,7,11
3.60E+03,-8315,-881,1201,-266,-107,4,1,7,11
3.60E+03,-8314,-875,1200,-266,-110,12,1,7,11
3.60E+03,-8311,-877,1206,-273,-112,23,1,7,11
3.60E+03,-8308,-872,1208,-277,-111,42,1,7,11
3.60E+03,-8304,-877,1219,-285,-109,65,1,7,11
3.60E+03,-8293,-878,1223,-288,-104,89,1,7,11
3.60E+03,-8289,-871,1225,-286,-92,112,1,7,11
3.60E+03,-8288,-868,1226,-288,-78,-123,1,7,11
3.61E+03,-8294,-861,1222,-286,-64,-101,1,7,11
3.61E+03,-8294,-856,1220,-282,-55,-82,1,7,11
3.61E+03,-8294,-843,1222,-279,-46,-74,1,7,11
3.61E+03,-8295,-838,1206,-280,-35,-80,1,7,11
3.61E+03,-8304,-822,1202,-277,-32,-91,1,7,11
3.61E+03,-8310,-809,1202,-283,-34,-109,1,7,11
3.61E+03,-8305,-799,1190,-289,-42,-122,1,7,11
3.61E+03,-8301,-796,1192,-301,-42,118,1,7,11
3.61E+03,-8316,-795,1195,-314,-36,99,1,7,11
3.61E+03,-8091,-805,1205,-320,-33,81,1,7,11
3.61E+03,-8092,-793,1190,-309,-56,82,1,7,11
3.61E+03,-8072,-784,1184,-302,-70,86,1,7,11
3.61E+03,-8313,-786,1183,-300,-65,84,1,7,11
3.61E+03,-8302,-794,1179,-300,-61,74,1,7,11
3.61E+03,-8310,-803,1179,-297,-57,58,1,7,11
3.61E+03,-8317,-809,1188,-289,-64,47,1,7,11
3.61E+03,-8312,-796,1186,-273,-74,39,1,7,11
3.61E+03,-8308,-795,1180,-275,-80,32,1,7,11
3.61E+03,-8314,-796,1182,-282,-77,29,1,7,11
3.61E+03,-8320,-808,1180,-291,-78,29,1,7,11
3.61E+03,-8320,-820,1181,-303,-82,25,1,7,11
3.61E+03,-8317,-838,1185,-309,-88,22,1,7,11
3.61E+03,-8315,-844,1184,-312,-92,20,1,7,11
3.61E+03,-8319,-850,1190,-311,-95,23,1,7,11
3.61E+03,-8296,-854,1181,-307,-97,44,1,7,11
3.61E+03,-8288,-863,1184,-303,-99,45,1,7,11
3.61E+03,-8308,-875,1191,-307,-63,48,1,7,11
3.61E+03,-8309,-869,1190,-293,-64,59,1,7,11
3.61E+03,-8309,-860,1189,-285,-64,68,1,7,11
3.61E+03,-8304,-854,1184,-283,-60,81,1,7,11
3.61E+03,-8299,-839,1174,-291,-56,87,1,7,11
3.61E+03,-8303,-835,1172,-308,-44,89,1,7,11
3.61E+03,-8065,-836,1180,-324,-36,82,1,7,11
3.61E+03,-8072,-844,1173,-330,-47,76,1,7,11
3.61E+03,-8073,-849,1182,-325,-62,65,1,7,11
3.61E+03,-8069,-858,1179,-315,-77,54,1,7,11
3.61E+03,-8065,-861,1172,-298,-87,40,1,7,11
3.61E+03,-8314,-859,1169,-279,-93,25,1,7,11
3.61E+03,-8310,-860,1174,-261,-94,8,1,7,11
3.61E+03,-8314,-854,1179,11,-94,-260,1,7,11
3.62E+03,-8315,-844,1176,18,-97,-268,1,7,11
3.62E+03,-8320,-841,1184,15,-102,-269,1,7,11
3.62E+03,-8313,-833,1184,4,-116,-261,1,7,11
3.62E+03,-8308,-831,1182,-266,-120,6,1,7,11
3.62E+03,-8304,-832,1185,-284,-117,21,1,7,11
3.62E+03,-8303,-837,1192,-297,-113,39,1,7,11
3.62E+03,-8301,-851,1196,-303,-108,58,1,7,11
3.62E+03,-8298,-848,1194,-301,-101,72,1,7,11
3.62E+03,-8294,-854,1196,-298,-94,76,1,7,11
3.62E+03,-8301,-854,1202,-292,-79,72,1,7,11
3.62E+03,-8301,-840,1203,-284,-82,70,1,7,11
3.62E+03,-8299,-828,1200,-283,-81,71,1,7,11
3.62E+03,-8292,-835,1194,-291,-83,73,1,7,11
3.62E+03,-8298,-841,1188,-300,-73,70,1,7,11
3.62E+03,-8079,-850,1204,-305,-65,67,1,7,11
3.62E+03,-8080,-848,1198,-294,-81,76,1,7,11
3.62E+03,-8319,-839,1188,-288,-98,87,1,7,11
3.62E+03,-8308,-838,1189,-288,-101,96,1,7,11
3.62E+03,-8304,-838,1188,-284,-102,96,1,7,11
3.62E+03,-8309,-836,1194,-276,-94,90,1,7,11
3.62E+03,-8316,-840,1206,-259,-95,80,1,7,11
3.62E+03,-8308,-834,1205,19,-102,69,1,7,11
3.62E+03,-8307,-822,1198,31,-106,57,1,7,11
3.62E+03,-8304,-819,1197,33,-103,43,1,7,11
3.62E+03,-8306,-818,1203,26,-97,29,1,7,11
3.62E+03,-8312,-831,1202,13,-94,16,1,7,11
3.62E+03,-8316,-835,1203,1,-96,-258,1,7,11
3.62E+03,-8313,-839,1206,-265,-99,-272,1,7,11
3.62E+03,-8311,-843,1208,-277,-100,-282,1,7,11
3.62E+03,-8304,-847,1210,-286,-106,-281,1,7,11
3.62E+03,-8287,-861,1198,-302,-98,-283,1,7,11
3.62E+03,-8296,-878,1210,-310,-74,-287,1,7,11
3.62E+03,-8302,-888,1208,-309,-67,-287,1,7,11
3.62E+03,-8308,-896,1205,-306,-66,-283,1,7,11
3.62E+03,-8305,-891,1199,-292,-71,-273,1,7,11
3.62E+03,-8299,-877,1188,-293,-68,-268,1,7,11
3.62E+03,-8312,-875,1192,-307,-58,1,1,7,11
3.62E+03,-8310,-879,1194,-319,-59,24,1,7,11
3.62E+03,-8317,-889,1191,-336,-65,47,1,7,11
3.62E+03,-8313,-650,1194,-336,-79,65,1,7,11
3.63E+03,-8310,-657,1199,-323,-86,69,1,7,11
3.63E+03,-8313,-656,1204,-300,-95,71,1,7,11
3.63E+03,-8306,-652,1196,-281,-95,70,1,7,11
3.63E+03,-8302,-645,1197,-265,-92,74,1,7,11
3.63E+03,-8304,-892,1195,-257,-85,76,1,7,11
3.63E+03,-8315,-887,1197,3,-85,81,1,7,11
3.63E+03,-8310,-880,1197,-260,-84,88,1,7,11
3.63E+03,-8304,-872,1196,-265,-77,92,1,7,11
3.63E+03,-8303,-870,1195,-279,-76,93,1,7,11
3.63E+03,-8297,-878,1189,-289,-74,98,1,7,11
3.63E+03,-8295,-881,1187,-295,-69,103,1,7,11
3.63E+03,-8302,-880,1187,-295,-59,108,1,7,11
3.63E+03,-8304,-877,1191,-292,-55,115,1,7,11
3.63E+03,-8303,-870,1193,-288,-52,122,1,7,11
3.63E+03,-8303,-867,1197,-278,-46,124,1,7,11
3.63E+03,-8299,-868,1198,-273,-39,116,1,7,11
3.63E+03,-8311,-860,1192,-266,-35,108,1,7,11
3.63E+03,-8320,-846,1191,-263,-40,97,1,7,11
3.63E+03,-8307,-839,1176,-268,-51,93,1,7,11
3.63E+03,-8296,-839,1166,-279,-56,88,1,7,11
3.63E+03,-8310,-847,1164,-297,-52,77,1,7,11
3.63E+03,-8078,-861,1174,-308,-56,63,1,7,11
3.63E+03,-8079,-858,1180,-304,-74,65,1,7,11
3.63E+03,-8068,-850,1173,-299,-92,77,1,7,11
3.63E+03,-8312,-843,1169,-295,-97,84,1,7,11
3.63E+03,-8303,-846,1178,-290,-90,90,1,7,11
3.63E+03,-8305,-851,1179,-283,-85,94,1,7,11
3.63E+03,-8304,-854,1184,-269,-85,94,1,7,11
3.63E+03,-8297,-843,1176,2,-92,95,1,7,11
3.63E+03,-8300,-831,1175,4,-91,96,1,7,11
3.63E+03,-8308,-827,1168,-261,-91,97,1,7,11
3.63E+03,-8310,-825,1168,-273,-95,97,1,7,11
3.63E+03,-8317,-826,1181,-289,-102,93,1,7,11
3.63E+03,-8318,-828,1182,-298,-111,91,1,7,11
3.63E+03,-8313,-836,1184,-302,-118,89,1,7,11
3.63E+03,-8304,-843,1191,-306,-120,87,1,7,11
3.63E+03,-8303,-845,1195,-299,-117,87,1,7,11
3.63E+03,-8276,-842,1188,-287,-118,90,1,7,11
3.63E+03,-8293,-851,1199,-289,-92,77,1,7,11
3.63E+03,-8307,-857,1208,-282,-82,64,1,7,11
3.64E+03,-8309,-843,1202,-272,-85,55,1,7,11
3.64E+03,-8310,-841,1197,-274,-84,50,1,7,11
3.64E+03,-8315,-830,1192,-284,-87,49,1,7,11
3.64E+03,-8310,-829,1192,-299,-86,48,1,7,11
3.64E+03,-8306,-836,1197,-313,-84,49,1,7,11
3.64E+03,-8304,-841,1192,-319,-79,46,1,7,11
3.64E+03,-8314,-855,1196,-320,-79,43,1,7,11
3.64E+03,-8306,-867,1195,-319,-90,42,1,7,11
3.64E+03,-8309,-874,1198,-302,-94,35,1,7,11
3.64E+03,-8314,-873,1201,-283,-101,28,1,7,11
3.64E+03,-8308,-873,1200,-269,-104,24,1,7,11
3.64E+03,-8301,-861,1195,-258,-108,22,1,7,11
3.64E+03,-8298,-858,1194,3,-111,21,1,7,11
3.64E+03,-8305,-853,1193,1,-110,27,1,7,11
3.64E+03,-8307,-851,1199,-262,-114,32,1,7,11
3.64E+03,-8307,-843,1203,-272,-117,39,1,7,11
3.64E+03,-8299,-843,1199,-279,-119,47,1,7,11
3.64E+03,-8295,-840,1200,-286,-112,57,1,7,11
3.64E+03,-8295,-842,1207,-295,-99,67,1,7,11
3.64E+03,-8296,-847,1209,-298,-89,77,1,7,11
3.64E+03,-8288,-845,1200,-297,-81,84,1,7,11
3.64E+03,-8291,-850,1205,-294,-71,84,1,7,11
3.64E+03,-8304,-850,1207,-293,-60,78,1,7,11
3.64E+03,-8308,-838,1206,-288,-59,76,1,7,11
3.64E+03,-8305,-837,1207,-289,-68,74,1,7,11
3.64E+03,-8304,-836,1201,-296,-72,71,1,7,11
3.64E+03,-8294,-838,1192,-303,-75,71,1,7,11
3.64E+03,-8308,-850,1198,-313,-63,62,1,7,11
3.64E+03,-8082,-849,1209,-308,-61,64,1,7,11
3.64E+03,-8075,-840,1186,-293,-83,82,1,7,11
3.64E+03,-8310,-832,1183,-292,-91,97,1,7,11
3.64E+03,-8297,-829,1189,-296,-80,104,1,7,11
3.64E+03,-8299,-837,1192,-296,-72,100,1,7,11
3.64E+03,-8307,-840,1190,-292,-69,91,1,7,11
3.64E+03,-8311,-838,1186,-280,-78,86,1,7,11
3.64E+03,-8302,-824,1179,-269,-80,84,1,7,11
3.64E+03,-8308,-822,1187,-270,-77,83,1,7,11
3.64E+03,-8313,-828,1191,-278,-80,76,1,7,11
3.64E+03,-8068,-836,1193,-287,-84,61,1,7,11
3.64E+03,-8068,-837,1191,-292,-91,46,1,7,11
3.65E+03,-8320,-835,1196,-297,-98,33,1,7,11
3.65E+03,-8320,-840,1200,-303,-98,24,1,7,11
3.65E+03,-8314,-843,1200,-305,-95,20,1,7,11
3.65E+03,-8279,-845,1186,-304,-100,25,1,7,11
3.65E+03,-8292,-859,1201,-317,-72,7,1,7,11
3.65E+03,-8320,-869,1204,-314,-69,1,1,7,11
3.65E+03,-8316,-866,1196,-306,-83,5,1,7,11
3.65E+03,-8306,-869,1188,-309,-89,15,1,7,11
3.65E+03,-8300,-867,1187,-313,-92,30,1,7,11
3.65E+03,-8302,-869,1184,-317,-87,37,1,7,11
3.65E+03,-8305,-875,1194,-321,-83,45,1,7,11
3.65E+03,-8308,-885,1203,-312,-84,49,1,7,11
3.65E+03,-8313,-896,1207,-297,-86,51,1,7,11
3.65E+03,-8314,-643,1212,-281,-90,49,1,7,11
3.65E+03,-8312,-641,1209,-260,-94,46,1,7,11
3.65E+03,-8320,-887,1205,15,-103,49,1,7,11
3.65E+03,-8311,-878,1203,25,-108,52,1,7,11
3.65E+03,-8312,-864,1197,31,-106,58,1,7,11
3.65E+03,-8313,-857,1199,25,-100,62,1,7,11
3.65E+03,-8313,-849,1205,16,-101,67,1,7,11
3.65E+03,-8304,-838,1207,6,-105,72,1,7,11
3.65E+03,-8300,-831,1199,-263,-99,76,1,7,11
3.65E+03,-8300,-829,1208,-280,-92,81,1,7,11
3.65E+03,-8302,-831,1210,-295,-83,86,1,7,11
3.65E+03,-8302,-837,1213,-308,-77,87,1,7,11
3.65E+03,-8304,-836,1218,-312,-71,83,1,7,11
3.65E+03,-8307,-843,1217,-313,-63,72,1,7,11
3.65E+03,-8316,-849,1220,-309,-59,55,1,7,11
3.65E+03,-8313,-844,1207,-307,-67,40,1,7,11
3.65E+03,-8307,-847,1207,-310,-75,25,1,7,11
3.65E+03,-8297,-852,1192,-317,-82,17,1,7,11
3.65E+03,-8305,-860,1190,-321,-82,10,1,7,11
3.65E+03,-8077,-869,1195,-333,-73,3,1,7,11
3.65E+03,-8075,-868,1189,-320,-85,15,1,7,11
3.65E+03,-8303,-870,1191,-308,-114,35,1,7,11
3.65E+03,-8298,-875,1195,-302,-110,46,1,7,11
3.65E+03,-8291,-881,1194,-297,-106,52,1,7,11
3.65E+03,-8297,-886,1207,-283,-96,58,1,7,11
3.65E+03,-8301,-882,1205,-264,-100,66,1,7,11
3.65E+03,-8301,-876,1207,15,-110,76,1,7,11
3.66E+03,-8303,-861,1209,25,-108,81,1,7,11
3.66E+03,-8303,-858,1210,22,-104,84,1,7,11
3.66E+03,-8307,-854,1216,15,-103,81,1,7,11
3.66E+03,-8307,-852,1216,6,-105,78,1,7,11
3.66E+03,-8306,-856,1217,-258,-103,71,1,7,11
3.66E+03,-8302,-859,1213,-264,-102,66,1,7,11
3.66E+03,-8306,-861,1220,-265,-99,66,1,7,11
3.66E+03,-8290,-862,1219,-266,-102,77,1,7,11
3.66E+03,-8282,-869,1217,-271,-84,74,1,7,11
3.66E+03,-8296,-872,1220,-270,-61,70,1,7,11
3.66E+03,-8302,-873,1231,-267,-57,67,1,7,11
3.66E+03,-8308,-877,1225,-263,-59,65,1,7,11
3.66E+03,-8309,-870,1219,-263,-58,61,1,7,11
3.66E+03,-8304,-860,1214,-264,-60,63,1,7,11
3.66E+03,-8312,-855,1215,-273,-54,69,1,7,11
3.66E+03,-8066,-854,1211,-288,-49,76,1,7,11
3.66E+03,-8065,-865,1212,-300,-52,80,1,7,11
3.66E+03,-8320,-880,1211,-301,-58,76,1,7,11
3.66E+03,-8320,-885,1215,-291,-69,67,1,7,11
3.66E+03,-8319,-886,1212,-275,-84,53,1,7,11
3.66E+03,-8309,-887,1208,-257,-95,43,1,7,11
3.66E+03,-8306,-881,1208,11,-100,39,1,7,11
3.66E+03,-8306,-877,1206,19,-102,41,1,7,11
3.66E+03,-8309,-873,1204,26,-108,46,1,7,11
3.66E+03,-8307,-877,1211,30,-116,52,1,7,11
3.66E+03,-8301,-869,1206,29,-118,60,1,7,11
3.66E+03,-8299,-869,1211,20,-118,71,1,7,11
3.66E+03,-8295,-853,1216,8,-117,85,1,7,11
3.66E+03,-8291,-850,1221,-264,-112,97,1,7,11
3.66E+03,-8294,-849,1216,-275,-101,107,1,7,11
3.66E+03,-8301,-847,1220,-287,-88,115,1,7,11
3.66E+03,-8304,-845,1226,-291,-81,123,1,7,11
3.66E+03,-8298,-848,1222,-288,-78,-124,1,7,11
3.66E+03,-8301,-849,1225,-280,-66,-127,1,7,11
3.66E+03,-8306,-838,1224,-271,-62,122,1,7,11
3.66E+03,-8309,-825,1215,-262,-64,113,1,7,11
3.66E+03,-8303,-815,1205,-267,-75,107,1,7,11
3.66E+03,-8299,-813,1191,-280,-72,95,1,7,11
3.66E+03,-8315,-816,1196,-298,-62,78,1,7,11
3.66E+03,-8084,-822,1206,-309,-67,64,1,7,11
3.67E+03,-8079,-825,1199,-301,-94,67,1,7,11
3.67E+03,-8065,-824,1201,-294,-114,77,1,7,11
3.67E+03,-8307,-830,1192,-290,-118,85,1,7,11
3.67E+03,-8298,-827,1203,-284,-115,87,1,7,11
3.67E+03,-8299,-837,1210,-272,-107,85,1,7,11
3.67E+03,-8303,-839,1218,2,-108,76,1,7,11
3.67E+03,-8297,-830,1216,20,-114,66,1,7,11
3.67E+03,-8305,-816,1219,28,-112,58,1,7,11
3.67E+03,-8305,-811,1217,21,-118,61,1,7,11
3.67E+03,-8312,-814,1210,2,-118,59,1,7,11
3.67E+03,-8068,-813,1216,-280,-126,59,1,7,11
3.67E+03,-8066,-826,1223,-300,110,64,1,7,11
3.67E+03,-8308,-839,1232,-314,95,64,1,7,11
3.67E+03,-8303,-845,1237,-315,93,62,1,7,11
3.67E+03,-8302,-855,1250,-306,101,63,1,7,11
3.67E+03,-8277,-853,1245,-293,105,72,1,7,11
3.67E+03,-8287,-864,1255,-287,-124,60,1,7,11
3.67E+03,-8300,-860,1251,-272,-109,52,1,7,11
3.67E+03,-8309,-851,1242,-258,-107,53,1,7,11
3.67E+03,-8311,-841,1245,-259,-105,59,1,7,11
3.67E+03,-8305,-842,1237,-273,-106,67,1,7,11
3.67E+03,-8305,-845,1245,-290,-104,74,1,7,11
3.67E+03,-8308,-858,1242,-306,-98,73,1,7,11
3.67E+03,-8308,-861,1251,-313,-93,67,1,7,11
3.67E+03,-8306,-868,1249,-312,-94,63,1,7,11
3.67E+03,-8306,-869,1255,-300,-94,57,1,7,11
3.67E+03,-8311,-875,1257,-288,-96,47,1,7,11
3.67E+03,-8313,-866,1259,-272,-98,44,1,7,11
3.67E+03,-8313,-868,1251,-265,-99,44,1,7,11
3.67E+03,-8311,-862,1251,-263,-100,47,1,7,11
3.67E+03,-8310,-861,1245,-267,-100,55,1,7,11
3.67E+03,-8309,-852,1248,-274,-101,67,1,7,11
3.67E+03,-8305,-847,1255,-282,-101,81,1,7,11
3.67E+03,-8302,-846,1257,-294,-99,98,1,7,11
3.67E+03,-8298,-845,1253,-304,-96,114,1,7,11
3.67E+03,-8291,-843,1262,-303,-88,-124,1,7,11
3.67E+03,-8291,-845,1259,-304,-74,-107,1,7,11
3.67E+03,-8297,-834,1265,-303,-60,-91,1,7,11
3.67E+03,-8301,-832,1268,-301,-52,-82,1,7,11
3.67E+03,-8302,-822,1263,-295,-45,-72,1,7,11
3.68E+03,-8304,-815,1250,-295,-37,-69,1,7,11
3.68E+03,-8309,-808,1252,-296,-30,-80,1,7,11
3.68E+03,-8314,-799,1247,-291,-33,-96,1,7,11
3.68E+03,-8312,-785,1239,-290,-49,-110,1,7,11
3.68E+03,-8311,-783,1230,-294,-51,-125,1,7,11
3.68E+03,-8308,-784,1228,-297,-53,123,1,7,11
3.68E+03,-8077,-792,1245,-306,-41,111,1,7,11
3.68E+03,-8095,-785,1247,-292,-48,110,1,7,11
3.68E+03,-8075,-773,1235,-277,-69,119,1,7,11
3.68E+03,-8313,-512,1228,-276,-70,127,1,7,11
3.68E+03,-8298,-510,1226,-280,-68,-126,1,7,11
3.68E+03,-8295,-508,1225,-284,-61,124,1,7,11
3.68E+03,-8308,-506,1228,-286,-64,117,1,7,11
3.68E+03,-8307,-502,1229,-283,-74,114,1,7,11
3.68E+03,-8310,-498,1221,-281,-78,108,1,7,11
3.68E+03,-8312,-499,1219,-283,-76,102,1,7,11
3.68E+03,-8313,-503,1224,-283,-80,93,1,7,11
3.68E+03,-8318,-512,1221,-289,-82,76,1,7,11
3.68E+03,-8317,-773,1223,-291,-88,56,1,7,11
3.68E+03,-8065,-769,1220,-291,-96,31,1,7,11
3.68E+03,-8316,-512,1220,-293,-102,23,1,7,11
3.68E+03,-8310,-774,1225,-289,-105,24,1,7,11
3.68E+03,-8281,-776,1227,-289,-105,27,1,7,11
3.68E+03,-8301,-799,1244,-299,-79,17,1,7,11
3.68E+03,-8309,-803,1242,-289,-79,10,1,7,11
3.68E+03,-8306,-792,1231,-282,-85,4,1,7,11
3.68E+03,-8315,-788,1225,-286,-82,6,1,7,11
3.68E+03,-8313,-788,1225,-295,-83,19,1,7,11
3.68E+03,-8311,-790,1231,-310,-79,30,1,7,11
3.68E+03,-8313,-803,1233,-325,-74,37,1,7,11
3.68E+03,-8317,-814,1238,-326,-78,35,1,7,11
3.68E+03,-8319,-823,1242,-321,-83,26,1,7,11
3.68E+03,-8318,-834,1248,-308,-91,18,1,7,11
3.68E+03,-8320,-833,1241,-290,-97,12,1,7,11
3.68E+03,-8308,-830,1242,-271,-100,11,1,7,11
3.68E+03,-8304,-827,1245,1,-100,13,1,7,11
3.68E+03,-8297,-818,1243,10,-96,24,1,7,11
3.68E+03,-8298,-812,1243,12,-92,34,1,7,11
3.68E+03,-8302,-808,1247,9,-92,44,1,7,11
3.68E+03,-8295,-801,1246,1,-96,53,1,7,11
3.69E+03,-8288,-797,1245,-266,-96,59,1,7,11
3.69E+03,-8290,-789,1242,-279,-89,63,1,7,11
3.69E+03,-8303,-782,1239,-294,-85,71,1,7,11
3.69E+03,-8302,-789,1239,-304,-79,80,1,7,11
3.69E+03,-8302,-790,1237,-308,-74,85,1,7,11
3.69E+03,-8303,-803,1240,-308,-68,84,1,7,11
3.69E+03,-8311,-808,1243,-308,-63,72,1,7,11
3.69E+03,-8310,-803,1243,-300,-70,53,1,7,11
3.69E+03,-8310,-798,1246,-297,-79,40,1,7,11
3.69E+03,-8304,-802,1237,-300,-87,32,1,7,11
3.69E+03,-8303,-799,1236,-301,-85,24,1,7,11
3.69E+03,-8075,-810,1247,-299,-76,18,1,7,11
3.69E+03,-8078,-809,1250,-288,-93,21,1,7,11
3.69E+03,-8312,-803,1248,-277,-107,32,1,7,11
3.69E+03,-8300,-806,1250,-277,-104,39,1,7,11
3.69E+03,-8297,-806,1247,-277,-97,44,1,7,11
3.69E+03,-8305,-806,1253,-277,-87,44,1,7,11
3.69E+03,-8312,-802,1249,-272,-86,44,1,7,11
3.69E+03,-8307,-799,1245,-266,-92,46,1,7,11
3.69E+03,-8305,-797,1247,-264,-92,48,1,7,11
3.69E+03,-8303,-800,1247,-271,-85,47,1,7,11
3.69E+03,-8311,-798,1246,-279,-81,42,1,7,11
3.69E+03,-8311,-800,1236,-289,-82,37,1,7,11
3.69E+03,-8312,-805,1234,-295,-83,28,1,7,11
3.69E+03,-8309,-810,1238,-301,-85,23,1,7,11
3.69E+03,-8306,-817,1240,-309,-86,18,1,7,11
3.69E+03,-8301,-824,1244,-310,-88,24,1,7,11
3.69E+03,-8280,-829,1236,-309,-86,32,1,7,11
3.69E+03,-8297,-838,1254,-310,-58,36,1,7,11
3.69E+03,-8311,-848,1259,-305,-54,39,1,7,11
3.69E+03,-8310,-850,1252,-293,-57,42,1,7,11
3.69E+03,-8307,-845,1244,-284,-55,44,1,7,11
3.69E+03,-8304,-836,1235,-281,-54,45,1,7,11
3.69E+03,-8302,-826,1236,-287,-50,54,1,7,11
3.69E+03,-8308,-824,1227,-301,-45,64,1,7,11
3.69E+03,-8311,-833,1229,-311,-46,70,1,7,11
3.69E+03,-8313,-846,1244,-311,-54,69,1,7,11
3.69E+03,-8314,-856,1246,-307,-61,62,1,7,11
3.69E+03,-8315,-858,1239,-293,-69,52,1,7,11
3.69E+03,-8308,-859,1237,-279,-74,40,1,7,11
3.70E+03,-8316,-856,1238,-268,-74,27,1,7,11
3.70E+03,-8314,-851,1231,1,-75,23,1,7,11
3.70E+03,-8315,-843,1224,5,-76,17,1,7,11
3.70E+03,-8312,-834,1226,5,-81,18,1,7,11
3.70E+03,-8311,-832,1227,-261,-85,22,1,7,11
3.70E+03,-8313,-830,1229,-279,-88,28,1,7,11
3.70E+03,-8311,-836,1230,-290,-90,35,1,7,11
3.70E+03,-8306,-842,1232,-295,-89,45,1,7,11
3.70E+03,-8308,-845,1236,-297,-82,51,1,7,11
3.70E+03,-8306,-841,1236,-295,-76,64,1,7,11
3.70E+03,-8306,-845,1241,-291,-74,78,1,7,11
3.70E+03,-8301,-848,1244,-278,-73,85,1,7,11
3.70E+03,-8299,-845,1242,-271,-64,83,1,7,11
3.70E+03,-8305,-836,1238,-266,-55,76,1,7,11
3.70E+03,-8314,-824,1233,-263,-56,69,1,7,11
3.70E+03,-8301,-814,1236,-272,-63,63,1,7,11
3.70E+03,-8298,-814,1224,-286,-66,57,1,7,11
3.70E+03,-8309,-818,1223,-305,-58,46,1,7,11
3.70E+03,-8074,-827,1229,-318,-55,35,1,7,11
3.70E+03,-8082,-828,1233,-314,-68,36,1,7,11
3.70E+03,-8069,-824,1221,-307,-83,46,1,7,11
3.70E+03,-8315,-822,1229,-307,-84,54,1,7,11
3.70E+03,-8307,-832,1227,-304,-81,59,1,7,11
3.70E+03,-8307,-836,1232,-292,-74,61,1,7,11
3.70E+03,-8305,-842,1230,-277,-74,58,1,7,11
3.70E+03,-8302,-838,1228,-264,-79,50,1,7,11
3.70E+03,-8305,-835,1233,2,-77,44,1,7,11
3.70E+03,-8310,-827,1224,1,-78,43,1,7,11
3.70E+03,-8308,-824,1215,-263,-81,40,1,7,11
3.70E+03,-8310,-821,1215,-274,-85,33,1,7,11
3.70E+03,-8310,-828,1214,-285,-87,26,1,7,11
3.70E+03,-8308,-839,1221,-297,-94,21,1,7,11
3.70E+03,-8307,-845,1216,-306,-94,18,1,7,11
3.70E+03,-8301,-855,1222,-308,-93,23,1,7,11
3.70E+03,-8285,-863,1222,-311,-84,25,1,7,11
3.70E+03,-8294,-878,1226,-312,-68,17,1,7,11
3.70E+03,-8301,-877,1234,-303,-61,10,1,7,11
3.70E+03,-8312,-873,1239,-299,-65,7,1,7,11
3.70E+03,-8319,-864,1233,-297,-69,12,1,7,11
3.70E+03,-8316,-867,1217,-300,-80,27,1,7,11
3.71E+03,-8313,-873,1228,-307,-84,41,1,7,11
3.71E+03,-8309,-874,1228,-309,-85,54,1,7,11
3.71E+03,-8310,-884,1227,-303,-83,60,1,7,11
3.71E+03,-8313,-888,1236,-292,-81,62,1,7,11
3.71E+03,-8308,-890,1237,-281,-86,63,1,7,11
3.71E+03,-8311,-893,1236,-269,-88,59,1,7,11
3.71E+03,-8307,-883,1226,-260,-96,54,1,7,11
3.71E+03,-8304,-876,1225,0,-99,51,1,7,11
3.71E+03,-8304,-869,1228,-259,-98,49,1,7,11
3.71E+03,-8303,-869,1226,-264,-93,50,1,7,11
3.71E+03,-8304,-861,1220,-273,-86,48,1,7,11
3.71E+03,-8305,-860,1232,-283,-81,49,1,7,11
3.71E+03,-8305,-859,1231,-294,-83,51,1,7,11
3.71E+03,-8304,-867,1234,-304,-83,58,1,7,11
3.71E+03,-8303,-873,1236,-313,-85,63,1,7,11
3.71E+03,-8293,-871,1235,-314,-82,74,1,7,11
3.71E+03,-8300,-871,1239,-316,-74,85,1,7,11
3.71E+03,-8305,-877,1238,-314,-68,102,1,7,11
3.71E+03,-8305,-880,1229,-309,-65,-128,1,7,11
3.71E+03,-8297,-882,1225,-300,-61,-115,1,7,11
3.71E+03,-8302,-877,1231,-292,-42,-115,1,7,11
3.71E+03,-8310,-860,1240,-278,-37,-111,1,7,11
3.71E+03,-8315,-844,1232,-276,-41,-110,1,7,11
3.71E+03,-8305,-831,1225,-282,-49,-110,1,7,11
3.71E+03,-8297,-827,1210,-296,-51,-114,1,7,11
3.71E+03,-8309,-825,1213,-315,-41,127,1,7,11
3.71E+03,-8081,-831,1229,-326,-40,116,1,7,11
3.71E+03,-8084,-823,1225,-313,-61,120,1,7,11
3.71E+03,-8320,-814,1210,-308,-75,126,1,7,11
3.71E+03,-8311,-807,1206,-310,-73,126,1,7,11
3.71E+03,-8297,-805,1208,-301,-68,119,1,7,11
3.71E+03,-8302,-808,1222,-290,-62,103,1,7,11
3.71E+03,-8306,-808,1210,-274,-67,92,1,7,11
3.71E+03,-8305,-798,1204,-261,-76,81,1,7,11
3.71E+03,-8309,-794,1207,-265,-77,77,1,7,11
3.71E+03,-8312,-798,1207,-272,-81,76,1,7,11
3.71E+03,-8315,-805,1209,-281,-81,73,1,7,11
3.71E+03,-8312,-817,1209,-289,-86,68,1,7,11
3.71E+03,-8312,-822,1207,-299,-90,60,1,7,11
3.71E+03,-8311,-830,1211,-305,-89,51,1,7,11
3.72E+03,-8310,-829,1215,-308,-89,44,1,7,11
3.72E+03,-8314,-825,1213,-303,-87,45,1,7,11
3.72E+03,-8289,-818,1200,-304,-93,54,1,7,11
3.72E+03,-8293,-835,1212,-321,-71,43,1,7,11
3.72E+03,-8314,-843,1224,-322,-62,30,1,7,11
3.72E+03,-8316,-833,1220,-314,-71,24,1,7,11
3.72E+03,-8318,-828,1214,-312,-72,26,1,7,11
3.72E+03,-8317,-826,1213,-312,-72,39,1,7,11
3.72E+03,-8306,-823,1212,-315,-67,55,1,7,11
3.72E+03,-8307,-833,1210,-320,-55,65,1,7,11
3.72E+03,-8310,-843,1213,-314,-49,65,1,7,11
3.72E+03,-8316,-844,1207,-303,-54,59,1,7,11
3.72E+03,-8317,-849,1204,-296,-60,53,1,7,11
3.72E+03,-8320,-854,1207,-290,-67,46,1,7,11
3.72E+03,-8317,-850,1203,-284,-74,39,1,7,11
3.72E+03,-8310,-852,1203,-279,-79,33,1,7,11
3.72E+03,-8308,-851,1201,-276,-79,25,1,7,11
3.72E+03,-8308,-852,1204,-276,-78,17,1,7,11
3.72E+03,-8310,-848,1200,-278,-79,13,1,7,11
3.72E+03,-8303,-849,1204,-284,-82,11,1,7,11
3.72E+03,-8302,-845,1204,-288,-85,13,1,7,11
3.72E+03,-8296,-844,1205,-297,-88,21,1,7,11
3.72E+03,-8292,-843,1197,-305,-86,33,1,7,11
3.72E+03,-8291,-847,1201,-309,-80,58,1,7,11
3.72E+03,-8294,-848,1206,-306,-71,74,1,7,11
3.72E+03,-8299,-849,1200,-302,-60,92,1,7,11
3.72E+03,-8297,-849,1195,-291,-53,106,1,7,11
3.72E+03,-8306,-851,1199,-285,-45,104,1,7,11
3.72E+03,-8316,-842,1191,-276,-53,101,1,7,11
3.72E+03,-8312,-829,1189,-273,-64,98,1,7,11
3.72E+03,-8313,-825,1194,-282,-64,89,1,7,11
3.72E+03,-8307,-820,1190,-289,-71,83,1,7,11
3.72E+03,-8071,-827,1196,-299,-65,63,1,7,11
3.72E+03,-8096,-829,1208,-295,-71,54,1,7,11
3.72E+03,-8079,-824,1208,-285,-97,53,1,7,11
3.72E+03,-8309,-820,1202,-279,-108,51,1,7,11
3.72E+03,-8298,-825,1197,-279,-102,43,1,7,11
3.72E+03,-8297,-834,1200,-277,-91,29,1,7,11
3.72E+03,-8308,-838,1197,-272,-86,18,1,7,11
3.72E+03,-8314,-837,1202,-266,-95,15,1,7,11
3.73E+03,-8308,-831,1199,-263,-96,11,1,7,11
3.73E+03,-8310,-832,1203,-270,-95,9,1,7,11
3.73E+03,-8306,-830,1202,-279,-93,7,1,7,11
3.73E+03,-8312,-836,1208,-289,-93,4,1,7,11
3.73E+03,-8313,-843,1216,-300,-96,0,1,7,11
3.73E+03,-8312,-849,1219,-308,-99,-259,1,7,11
3.73E+03,-8312,-860,1210,-310,-102,-261,1,7,11
3.73E+03,-8315,-869,1214,-307,-98,-265,1,7,11
3.73E+03,-8293,-870,1201,-296,-104,1,1,7,11
3.73E+03,-8289,-876,1210,-302,-88,-261,1,7,11
3.73E+03,-8302,-880,1220,-300,-72,-263,1,7,11
3.73E+03,-8308,-884,1219,-291,-78,-259,1,7,11
3.73E+03,-8304,-888,1219,-282,-84,3,1,7,11
3.73E+03,-8307,-880,1207,-274,-84,6,1,7,11
3.73E+03,-8307,-880,1210,-275,-80,15,1,7,11
3.73E+03,-8305,-875,1207,-278,-74,30,1,7,11
3.73E+03,-8306,-882,1206,-285,-66,44,1,7,11
3.73E+03,-8313,-889,1206,-286,-62,54,1,7,11
3.73E+03,-8312,-642,1217,-283,-64,59,1,7,11
3.73E+03,-8310,-644,1217,-277,-70,63,1,7,11
3.73E+03,-8311,-641,1211,-269,-79,66,1,7,11
3.73E+03,-8302,-642,1205,-268,-81,66,1,7,11
3.73E+03,-8305,-895,1202,-263,-78,64,1,7,11
3.73E+03,-8303,-644,1196,-261,-74,59,1,7,11
3.73E+03,-8312,-641,1198,-258,-73,60,1,7,11
3.73E+03,-8311,-895,1196,-257,-73,61,1,7,11
3.73E+03,-8308,-885,1205,-265,-77,63,1,7,11
3.73E+03,-8305,-881,1195,-277,-76,65,1,7,11
3.73E+03,-8305,-880,1199,-290,-72,68,1,7,11
3.73E+03,-8299,-878,1210,-299,-72,71,1,7,11
3.73E+03,-8291,-879,1213,-310,-70,74,1,7,11
3.73E+03,-8292,-882,1214,-310,-64,77,1,7,11
3.73E+03,-8297,-880,1212,-306,-59,80,1,7,11
3.73E+03,-8305,-881,1209,-298,-56,88,1,7,11
3.73E+03,-8308,-879,1209,-285,-54,95,1,7,11
3.73E+03,-8302,-876,1209,-276,-54,102,1,7,11
3.73E+03,-8306,-876,1200,-271,-48,98,1,7,11
3.73E+03,-8315,-863,1205,-261,-46,95,1,7,11
3.73E+03,-8315,-848,1197,-258,-53,94,1,7,11
3.73E+03,-8303,-843,1198,-267,-61,94,1,7,11
3.74E+03,-8298,-837,1186,-279,-59,85,1,7,11
3.74E+03,-8311,-843,1186,-296,-53,71,1,7,11
3.74E+03,-8080,-851,1203,-304,-53,57,1,7,11
3.74E+03,-8077,-848,1192,-296,-75,59,1,7,11
3.74E+03,-8319,-847,1192,-294,-88,65,1,7,11
3.74E+03,-8307,-850,1191,-291,-89,72,1,7,11
3.74E+03,-8302,-859,1197,-286,-85,70,1,7,11
3.74E+03,-8301,-863,1204,-274,-81,66,1,7,11
3.74E+03,-8305,-855,1201,-260,-84,58,1,7,11
3.74E+03,-8301,-851,1193,9,-88,52,1,7,11
3.74E+03,-8301,-842,1200,14,-87,44,1,7,11
3.74E+03,-8305,-839,1198,8,-84,36,1,7,11
3.74E+03,-8307,-840,1201,-259,-86,32,1,7,11
3.74E+03,-8308,-845,1197,-270,-91,27,1,7,11
3.74E+03,-8306,-852,1198,-282,-94,22,1,7,11
3.74E+03,-8304,-857,1190,-291,-93,19,1,7,11
3.74E+03,-8303,-864,1191,-300,-94,19,1,7,11
3.74E+03,-8303,-874,1201,-306,-91,24,1,7,11
3.74E+03,-8280,-879,1198,-307,-93,30,1,7,11
3.74E+03,-8286,-896,1199,-312,-72,21,1,7,11
3.74E+03,-8303,-646,1196,-310,-63,17,1,7,11
3.74E+03,-8306,-643,1188,-303,-65,17,1,7,11
3.74E+03,-8307,-893,1191,-301,-74,22,1,7,11
3.74E+03,-8302,-894,1182,-302,-79,28,1,7,11
3.74E+03,-8302,-893,1183,-306,-80,37,1,7,11
3.74E+03,-8310,-643,1188,-315,-70,42,1,7,11
3.74E+03,-8311,-645,1197,-312,-78,49,1,7,11
3.74E+03,-8310,-654,1197,-307,-87,51,1,7,11
3.74E+03,-8315,-663,1202,-294,-95,43,1,7,11
3.74E+03,-8315,-666,1208,-278,-100,33,1,7,11
3.74E+03,-8311,-656,1199,-263,-108,24,1,7,11
3.74E+03,-8308,-655,1204,0,-111,18,1,7,11
3.74E+03,-8308,-651,1204,6,-108,13,1,7,11
3.74E+03,-8308,-658,1205,4,-107,12,1,7,11
3.74E+03,-8306,-654,1213,2,-107,16,1,7,11
3.74E+03,-8304,-651,1211,-263,-110,23,1,7,11
3.74E+03,-8302,-653,1208,-276,-113,36,1,7,11
3.74E+03,-8299,-654,1210,-287,-109,48,1,7,11
3.74E+03,-8291,-657,1213,-297,-102,65,1,7,11
3.74E+03,-8295,-660,1209,-310,-96,82,1,7,11
3.75E+03,-8293,-663,1206,-319,-89,98,1,7,11
3.75E+03,-8293,-661,1218,-322,-85,110,1,7,11
3.75E+03,-8291,-656,1224,-317,-79,117,1,7,11
3.75E+03,-8293,-647,1221,-312,-67,127,1,7,11
3.75E+03,-8295,-646,1217,-309,-59,-111,1,7,11
3.75E+03,-8295,-641,1220,-302,-52,-94,1,7,11
3.75E+03,-8295,-887,1214,-293,-49,-82,1,7,11
3.75E+03,-8294,-887,1213,-286,-44,-85,1,7,11
3.75E+03,-8299,-870,1215,-277,-38,-95,1,7,11
3.75E+03,-8307,-857,1212,-277,-41,-107,1,7,11
3.75E+03,-8302,-842,1201,-284,-50,-117,1,7,11
3.75E+03,-8302,-830,1188,-301,-49,127,1,7,11
3.75E+03,-8303,-832,1194,-322,-42,112,1,7,11
3.75E+03,-8089,-838,1199,-337,-31,95,1,7,11
3.75E+03,-8069,-832,1192,-328,-53,99,1,7,11
3.75E+03,-8305,-827,1182,-321,-68,105,1,7,11
3.75E+03,-8295,-828,1188,-319,-61,100,1,7,11
3.75E+03,-8294,-834,1192,-317,-53,90,1,7,11
3.75E+03,-8303,-837,1200,-308,-48,77,1,7,11
3.75E+03,-8301,-828,1199,-295,-51,67,1,7,11
3.75E+03,-8296,-825,1183,-291,-56,57,1,7,11
3.75E+03,-8302,-820,1175,-298,-55,49,1,7,11
3.75E+03,-8301,-825,1179,-307,-55,42,1,7,11
3.75E+03,-8309,-842,1177,-320,-57,31,1,7,11
3.75E+03,-8309,-855,1185,-324,-61,18,1,7,11
3.75E+03,-8314,-859,1184,-320,-70,9,1,7,11
3.75E+03,-8316,-865,1185,-317,-73,0,1,7,11
3.75E+03,-8316,-869,1178,-310,-74,-261,1,7,11
3.75E+03,-8304,-876,1179,-301,-83,-257,1,7,11
3.75E+03,-8284,-879,1169,-303,-80,-257,1,7,11
3.75E+03,-8304,-889,1183,-307,-58,-266,1,7,11
3.75E+03,-8314,-641,1183,-299,-64,-267,1,7,11
3.75E+03,-8311,-893,1173,-293,-74,-261,1,7,11
3.75E+03,-8312,-884,1166,-293,-73,3,1,7,11
3.75E+03,-8307,-881,1158,-302,-69,17,1,7,11
3.75E+03,-8313,-890,1174,-321,-56,25,1,7,11
3.75E+03,-8319,-644,1173,-331,-49,34,1,7,11
3.75E+03,-8319,-652,1176,-332,-49,37,1,7,11
3.75E+03,-8315,-659,1166,-323,-56,37,1,7,11
3.75E+03,-8315,-669,1166,-315,-68,30,1,7,11
3.76E+03,-8315,-664,1166,-301,-74,27,1,7,11
3.76E+03,-8312,-663,1166,-290,-79,25,1,7,11
3.76E+03,-8309,-664,1171,-284,-81,24,1,7,11
3.76E+03,-8312,-661,1163,-280,-82,19,1,7,11
3.76E+03,-8309,-659,1161,-276,-87,20,1,7,11
3.76E+03,-8304,-653,1169,-274,-91,23,1,7,11
3.76E+03,-8301,-651,1168,-276,-93,30,1,7,11
3.76E+03,-8297,-649,1168,-285,-92,40,1,7,11
3.76E+03,-8298,-656,1171,-296,-95,56,1,7,11
3.76E+03,-8296,-657,1172,-303,-95,70,1,7,11
3.76E+03,-8298,-652,1168,-304,-94,83,1,7,11
3.76E+03,-8305,-648,1175,-305,-90,96,1,7,11
3.76E+03,-8298,-646,1179,-303,-89,110,1,7,11
3.76E+03,-8302,-642,1178,-296,-83,121,1,7,11
3.76E+03,-8303,-893,1181,-291,-75,127,1,7,11
3.76E+03,-8302,-890,1178,-287,-68,123,1,7,11
3.76E+03,-8313,-883,1174,-275,-70,118,1,7,11
3.76E+03,-8310,-872,1167,-269,-81,112,1,7,11
3.76E+03,-8306,-864,1164,-275,-85,102,1,7,11
3.76E+03,-8299,-862,1161,-283,-87,97,1,7,11
3.76E+03,-8307,-863,1168,-290,-82,82,1,7,11
3.76E+03,-8081,-874,1170,-293,-78,68,1,7,11
3.76E+03,-8069,-866,1168,-282,-98,69,1,7,11
3.76E+03,-8304,-864,1168,-277,-117,69,1,7,11
3.76E+03,-8293,-863,1171,-275,-118,64,1,7,11
3.76E+03,-8301,-863,1172,-275,-102,51,1,7,11
3.76E+03,-8309,-868,1171,-270,-97,43,1,7,11
3.76E+03,-8310,-868,1174,-258,-102,38,1,7,11
3.76E+03,-8305,-859,1174,7,-110,37,1,7,11
3.76E+03,-8303,-858,1176,5,-109,39,1,7,11
3.76E+03,-8307,-860,1175,-261,-106,39,1,7,11
3.76E+03,-8310,-865,1178,-270,-104,38,1,7,11
3.76E+03,-8309,-870,1183,-281,-106,32,1,7,11
3.76E+03,-8307,-876,1183,-291,-106,24,1,7,11
3.76E+03,-8306,-882,1191,-294,-106,16,1,7,11
3.76E+03,-8308,-888,1198,-298,-102,12,1,7,11
3.76E+03,-8284,-888,1188,-298,-109,23,1,7,11
3.76E+03,-8292,-646,1186,-309,-92,20,1,7,11
3.76E+03,-8305,-659,1200,-310,-78,22,1,7,11
3.76E+03,-8303,-662,1195,-305,-81,26,1,7,11
3.77E+03,-8308,-666,1198,-300,-84,29,1,7,11
3.77E+03,-8301,-661,1188,-293,-83,31,1,7,11
3.77E+03,-8302,-654,1187,-293,-75,35,1,7,11
3.77E+03,-8303,-650,1186,-296,-67,44,1,7,11
3.77E+03,-8306,-656,1185,-300,-64,54,1,7,11
3.77E+03,-8312,-669,1189,-298,-63,57,1,7,11
3.77E+03,-8312,-677,1187,-291,-69,53,1,7,11
3.77E+03,-8312,-677,1188,-282,-75,46,1,7,11
3.77E+03,-8311,-674,1192,-271,-79,39,1,7,11
3.77E+03,-8309,-671,1188,-264,-81,37,1,7,11
3.77E+03,-8315,-667,1185,-259,-78,39,1,7,11
3.77E+03,-8309,-666,1184,0,-78,42,1,7,11
3.77E+03,-8304,-662,1190,1,-79,53,1,7,11
3.77E+03,-8301,-659,1183,-258,-81,62,1,7,11
3.77E+03,-8298,-658,1185,-263,-74,69,1,7,11
3.77E+03,-8296,-656,1188,-273,-72,77,1,7,11
3.77E+03,-8291,-648,1184,-281,-66,84,1,7,11
3.77E+03,-8296,-650,1188,-290,-63,88,1,7,11
3.77E+03,-8293,-649,1189,-296,-60,92,1,7,11
3.77E+03,-8295,-647,1183,-298,-54,95,1,7,11
3.77E+03,-8300,-642,1186,-296,-49,104,1,7,11
3.77E+03,-8311,-892,1188,-290,-45,113,1,7,11
3.77E+03,-8314,-893,1184,-287,-47,123,1,7,11
3.77E+03,-8308,-893,1179,-278,-46,127,1,7,11
3.77E+03,-8301,-892,1178,-272,-42,117,1,7,11
3.77E+03,-8307,-888,1179,-264,-36,105,1,7,11
3.77E+03,-8311,-874,1174,-257,-37,96,1,7,11
3.77E+03,-8304,-870,1162,-261,-48,96,1,7,11
3.77E+03,-8295,-868,1155,-271,-52,97,1,7,11
3.77E+03,-8298,-864,1155,-279,-49,101,1,7,11
3.77E+03,-8079,-882,1161,-302,-32,95,1,7,11
3.77E+03,-8086,-892,1172,-293,-53,111,1,7,11
3.77E+03,-8068,-888,1163,-277,-72,114,1,7,11
3.77E+03,-8312,-885,1407,-271,-76,113,1,7,11
3.77E+03,-8309,-877,1155,-263,-74,105,1,7,11
3.77E+03,-8314,-871,1159,-257,-72,97,1,7,11
3.77E+03,-8317,-870,1161,4,-73,90,1,7,11
3.77E+03,-8311,-864,1163,12,-85,85,1,7,11
3.77E+03,-8305,-853,1155,15,-87,75,1,7,11
3.77E+03,-8303,-845,1158,12,-84,64,1,7,11
3.78E+03,-8305,-846,1156,1,-83,54,1,7,11
3.78E+03,-8308,-857,1406,-272,-87,45,1,7,11
3.78E+03,-8310,-858,1153,-284,-91,29,1,7,11
3.78E+03,-8315,-861,1155,-295,-95,15,1,7,11
3.78E+03,-8315,-867,1160,-303,-98,4,1,7,11
3.78E+03,-8308,-876,1165,-306,-97,1,1,7,11
3.78E+03,-8290,-881,1163,-307,-95,1,1,7,11
3.78E+03,-8301,-641,1174,-307,-77,-262,1,7,11
3.78E+03,-8316,-649,1176,-301,-73,-266,1,7,11
3.78E+03,-8310,-652,1173,-293,-72,-267,1,7,11
3.78E+03,-8309,-646,1169,-286,-72,-264,1,7,11
3.78E+03,-8305,-895,1166,-285,-72,1,1,7,11
3.78E+03,-8304,-892,1163,-289,-73,19,1,7,11
3.78E+03,-8307,-644,1168,-297,-72,39,1,7,11
3.78E+03,-8308,-655,1172,-301,-73,56,1,7,11
3.78E+03,-8310,-669,1162,-296,-74,66,1,7,11
3.78E+03,-8308,-680,1173,-289,-82,69,1,7,11
3.78E+03,-8313,-675,1172,-273,-87,64,1,7,11
3.78E+03,-8310,-660,1166,-259,-91,59,1,7,11
3.78E+03,-8304,-652,1171,6,-94,59,1,7,11
3.78E+03,-8305,-895,1162,7,-92,58,1,7,11
3.78E+03,-8311,-889,1166,3,-91,59,1,7,11
3.78E+03,-8306,-890,1168,-261,-92,58,1,7,11
3.78E+03,-8305,-887,1167,-271,-94,57,1,7,11
3.78E+03,-8309,-887,1165,-287,-98,56,1,7,11
3.78E+03,-8308,-892,1165,-305,-101,57,1,7,11
3.78E+03,-8307,-895,1167,-322,-105,60,1,7,11
3.78E+03,-8305,-646,1171,-331,-102,63,1,7,11
3.78E+03,-8308,-659,1173,-328,-102,64,1,7,11
3.78E+03,-8306,-664,1174,-316,-102,62,1,7,11
3.78E+03,-8304,-665,1177,-299,-96,56,1,7,11
3.78E+03,-8307,-658,1176,-282,-90,51,1,7,11
3.78E+03,-8311,-648,1185,-273,-89,50,1,7,11
3.78E+03,-8312,-648,1179,-267,-96,54,1,7,11
3.78E+03,-8302,-643,1175,-264,-100,59,1,7,11
3.78E+03,-8296,-645,1174,-264,-96,56,1,7,11
3.78E+03,-8305,-896,1188,-267,-90,50,1,7,11
3.78E+03,-8306,-891,1183,-274,-95,43,1,7,11
3.78E+03,-8293,-895,1178,-289,-99,40,1,7,11
3.78E+03,-8289,-646,1163,-301,-93,36,1,7,11
3.79E+03,-8308,-654,1173,-323,-81,30,1,7,11
3.79E+03,-8082,-658,1180,-326,-82,33,1,7,11
3.79E+03,-8077,-658,1175,-316,-102,56,1,7,11
3.79E+03,-8317,-652,1172,-315,-109,80,1,7,11
3.79E+03,-8302,-658,1177,-314,-105,100,1,7,11
3.79E+03,-8291,-661,1180,-307,-96,113,1,7,11
3.79E+03,-8297,-664,1187,-292,-87,119,1,7,11
3.79E+03,-8299,-656,1187,-267,-87,121,1,7,11
3.79E+03,-8291,-896,1191,8,-84,122,1,7,11
3.79E+03,-8295,-883,1187,13,-78,124,1,7,11
3.79E+03,-8303,-873,1181,6,-73,124,1,7,11
3.79E+03,-8307,-873,1178,-264,-71,115,1,7,11
3.79E+03,-8309,-871,1179,-278,-75,102,1,7,11
3.79E+03,-8307,-869,1180,-290,-85,88,1,7,11
3.79E+03,-8308,-868,1184,-316,-90,63,1,7,11
3.79E+03,-8302,-867,1173,-317,-96,63,1,7,11
3.79E+03,-8280,-875,1172,-323,-91,60,1,7,11
3.79E+03,-8298,-893,1177,-329,-64,43,1,7,11
3.79E+03,-8312,-647,1188,-320,-65,32,1,7,11
3.79E+03,-8314,-644,1183,-313,-71,25,1,7,11
3.79E+03,-8318,-891,1178,-305,-73,25,1,7,11
3.79E+03,-8309,-890,1175,-305,-80,30,1,7,11
3.79E+03,-8307,-891,1175,-313,-78,36,1,7,11
3.79E+03,-8307,-892,1176,-317,-73,40,1,7,11
3.79E+03,-8311,-646,1178,-313,-78,44,1,7,11
3.79E+03,-8308,-651,1183,-305,-83,46,1,7,11
3.79E+03,-8311,-660,1175,-277,-95,34,1,7,11
3.79E+03,-8310,-654,1179,-263,-99,27,1,7,11
3.79E+03,-8306,-648,1171,-258,-104,23,1,7,11
3.79E+03,-8303,-642,1175,0,-104,22,1,7,11
3.79E+03,-8305,-893,1175,-261,-103,28,1,7,11
3.79E+03,-8306,-641,1173,-272,-101,34,1,7,11
3.79E+03,-8300,-650,1179,-281,-100,44,1,7,11
3.79E+03,-8301,-651,1181,-291,-99,52,1,7,11
3.79E+03,-8295,-653,1179,-303,-96,62,1,7,11
3.79E+03,-8296,-660,1184,-309,-93,66,1,7,11
3.79E+03,-8295,-652,1184,-308,-81,68,1,7,11
3.79E+03,-8297,-655,1185,-304,-74,70,1,7,11
3.79E+03,-8301,-650,1187,-299,-68,75,1,7,11
3.79E+03,-8305,-644,1177,-291,-64,76,1,7,11
3.80E+03,-8305,-648,1170,-290,-63,75,1,7,11
3.80E+03,-8308,-659,1179,-291,-60,66,1,7,11
3.80E+03,-8312,-657,1177,-288,-64,54,1,7,11
3.80E+03,-8306,-652,1172,-284,-78,42,1,7,11
3.80E+03,-8299,-648,1176,-291,-80,30,1,7,11
3.80E+03,-8295,-648,1167,-295,-84,26,1,7,11
3.80E+03,-8308,-657,1165,-298,-79,19,1,7,11
3.80E+03,-8076,-665,1181,-295,-75,18,1,7,11
3.80E+03,-8072,-661,1177,-281,-92,31,1,7,11
3.80E+03,-8304,-656,1174,-277,-99,47,1,7,11
3.80E+03,-8289,-661,1165,-277,-96,61,1,7,11
3.80E+03,-8288,-662,1176,-276,-88,70,1,7,11
3.80E+03,-8299,-660,1182,-272,-81,73,1,7,11
3.80E+03,-8307,-651,1180,-263,-85,82,1,7,11
3.80E+03,-8304,-644,1180,-257,-94,89,1,7,11
3.80E+03,-8297,-889,1180,5,-97,93,1,7,11
3.80E+03,-8301,-889,1180,-257,-93,91,1,7,11
3.80E+03,-8309,-886,1185,-263,-90,84,1,7,11
3.80E+03,-8314,-889,1190,-271,-95,76,1,7,11
3.80E+03,-8313,-891,1189,-279,-102,64,1,7,11
3.80E+03,-8312,-895,1191,-286,-105,40,1,7,11
3.80E+03,-8065,-895,1191,-289,-105,29,1,7,11
3.80E+03,-8290,-888,1180,-289,-115,32,1,7,11
3.80E+03,-8303,-646,1190,-303,-97,20,1,7,11
3.80E+03,-8312,-654,1193,-305,-92,18,1,7,11
3.80E+03,-8314,-663,1194,-306,-98,18,1,7,11
3.80E+03,-8310,-675,1202,-303,-105,16,1,7,11
3.80E+03,-8301,-671,1195,-298,-110,13,1,7,11
3.80E+03,-8293,-670,1190,-293,-107,9,1,7,11
3.80E+03,-8295,-671,1185,-296,-98,11,1,7,11
3.80E+03,-8301,-676,1187,-296,-92,15,1,7,11
3.80E+03,-8307,-684,1192,-296,-92,19,1,7,11
3.80E+03,-8305,-691,1206,-287,-95,19,1,7,11
3.80E+03,-8304,-695,1203,-278,-94,14,1,7,11
3.80E+03,-8302,-693,1203,-269,-96,9,1,7,11
3.80E+03,-8301,-693,1200,-268,-95,2,1,7,11
3.80E+03,-8301,-694,1196,-268,-93,1,1,7,11
3.80E+03,-8299,-698,1198,-267,-93,4,1,7,11
3.80E+03,-8304,-698,1201,-265,-93,7,1,7,11
3.80E+03,-8304,-698,1199,-261,-96,14,1,7,11
3.81E+03,-8304,-692,1195,-258,-93,25,1,7,11
3.81E+03,-8295,-695,1196,-264,-88,38,1,7,11
3.81E+03,-8291,-699,1204,-266,-88,49,1,7,11
3.81E+03,-8282,-696,1192,-266,-84,54,1,7,11
3.81E+03,-8293,-693,1194,-270,-72,53,1,7,11
3.81E+03,-8301,-682,1194,-269,-68,60,1,7,11
3.81E+03,-8303,-681,1201,-275,-67,65,1,7,11
3.81E+03,-8300,-682,1214,-274,-68,73,1,7,11
3.81E+03,-8292,-678,1210,-272,-70,76,1,7,11
3.81E+03,-8294,-681,1211,-272,-61,70,1,7,11
3.81E+03,-8303,-674,1207,-265,-55,60,1,7,11
3.81E+03,-8293,-667,1200,-260,-61,53,1,7,11
3.81E+03,-8284,-669,1189,-270,-61,45,1,7,11
3.81E+03,-8295,-673,1183,-289,-54,39,1,7,11
3.81E+03,-8320,-678,1198,-303,-48,32,1,7,11
3.81E+03,-8081,-681,1187,-302,-59,37,1,7,11
3.81E+03,-8073,-676,1183,-308,-76,49,1,7,11
3.81E+03,-8315,-679,1171,-314,-84,61,1,7,11
3.81E+03,-8303,-678,1176,-318,-86,66,1,7,11
3.81E+03,-8298,-686,1185,-314,-80,66,1,7,11
3.81E+03,-8303,-688,1196,-302,-75,65,1,7,11
3.81E+03,-8300,-690,1195,-282,-78,65,1,7,11
3.81E+03,-8299,-686,1192,-267,-79,62,1,7,11
3.81E+03,-8301,-681,1187,-260,-77,57,1,7,11
3.81E+03,-8302,-677,1187,-263,-72,54,1,7,11
3.81E+03,-8300,-679,1181,-274,-74,47,1,7,11
3.81E+03,-8305,-679,1179,-285,-79,41,1,7,11
3.81E+03,-8305,-681,1179,-297,-85,35,1,7,11
3.81E+03,-8305,-680,1186,-305,-89,33,1,7,11
3.81E+03,-8309,-683,1196,-312,-90,35,1,7,11
3.81E+03,-8291,-692,1193,-309,-93,44,1,7,11
3.81E+03,-8286,-701,1188,-309,-73,38,1,7,11
3.81E+03,-8298,-713,1192,-308,-56,31,1,7,11
3.81E+03,-8304,-717,1198,-299,-51,28,1,7,11
3.81E+03,-8305,-716,1190,-296,-51,24,1,7,11
3.81E+03,-8306,-713,1173,-295,-53,19,1,7,11
3.81E+03,-8311,-700,1166,-293,-53,19,1,7,11
3.81E+03,-8309,-691,1172,-298,-53,24,1,7,11
3.81E+03,-8318,-696,1174,-306,-50,34,1,7,11
3.81E+03,-8315,-712,1177,-308,-54,38,1,7,11
3.82E+03,-8314,-722,1180,-307,-64,42,1,7,11
3.82E+03,-8314,-732,1185,-297,-73,35,1,7,11
3.82E+03,-8312,-731,1172,-281,-83,28,1,7,11
3.82E+03,-8305,-726,1167,-271,-87,24,1,7,11
3.82E+03,-8309,-722,1175,-262,-88,23,1,7,11
3.82E+03,-8307,-714,1185,-254,-87,23,1,7,11
3.82E+03,-8307,-716,1180,4,-89,25,1,7,11
3.82E+03,-8300,-716,1174,-257,-90,27,1,7,11
3.82E+03,-8299,-713,1161,-267,-92,28,1,7,11
3.82E+03,-8301,-704,1168,-282,-92,29,1,7,11
3.82E+03,-8301,-705,1176,-293,-95,32,1,7,11
3.82E+03,-8293,-705,1178,-303,-95,43,1,7,11
3.82E+03,-8289,-708,1188,-307,-88,60,1,7,11
3.82E+03,-8289,-716,1186,-306,-81,76,1,7,11
3.82E+03,-8296,-724,1188,-296,-77,94,1,7,11
3.82E+03,-8298,-724,1192,-286,-73,111,1,7,11
3.82E+03,-8293,-725,1190,-271,-69,115,1,7,11
3.82E+03,-8288,-726,1181,-258,-65,113,1,7,11
3.82E+03,-8300,-709,1180,7,-57,107,1,7,11
3.82E+03,-8305,-692,1181,9,-61,103,1,7,11
3.82E+03,-8304,-678,1168,-262,-72,103,1,7,11
3.82E+03,-8292,-679,1173,-285,-84,104,1,7,11
3.82E+03,-8293,-682,1173,-306,-81,89,1,7,11
3.82E+03,-8067,-698,1189,-323,-79,72,1,7,11
3.82E+03,-8075,-701,1192,-315,-99,66,1,7,11
3.82E+03,-8065,-697,1188,-306,-120,67,1,7,11
3.82E+03,-8313,-692,1183,-297,-126,73,1,7,11
3.82E+03,-8300,-693,1184,-285,-122,77,1,7,11
3.82E+03,-8297,-695,1182,-273,-112,74,1,7,11
3.82E+03,-8301,-695,1193,-260,-106,67,1,7,11
3.82E+03,-8296,-693,1195,8,-105,56,1,7,11
3.82E+03,-8291,-680,1189,10,-105,45,1,7,11
3.82E+03,-8295,-678,1190,-257,-100,35,1,7,11
3.82E+03,-8304,-682,1194,-274,-101,27,1,7,11
3.82E+03,-8304,-696,1195,-294,-106,16,1,7,11
3.82E+03,-8307,-704,1196,-307,-113,8,1,7,11
3.82E+03,-8298,-717,1201,-313,-118,4,1,7,11
3.82E+03,-8295,-731,1194,-317,-120,2,1,7,11
3.82E+03,-8294,-738,1189,-314,-112,7,1,7,11
3.82E+03,-8270,-742,1195,-303,-118,26,1,7,11
3.83E+03,-8283,-757,1202,-303,-102,35,1,7,11
3.83E+03,-8293,-755,1207,-294,-89,43,1,7,11
3.83E+03,-8296,-751,1200,-272,-89,55,1,7,11
3.83E+03,-8302,-736,1200,-264,-85,70,1,7,11
3.83E+03,-8304,-723,1195,-263,-84,93,1,7,11
3.83E+03,-8297,-721,1199,-277,-80,117,1,7,11
3.83E+03,-8295,-721,1206,-288,-73,-123,1,7,11
3.83E+03,-8291,-718,1206,-293,-70,-116,1,7,11
3.83E+03,-8295,-716,1209,-297,-66,-121,1,7,11
3.83E+03,-8292,-714,1199,-298,-66,-127,1,7,11
3.83E+03,-8298,-710,1200,-298,-68,118,1,7,11
3.83E+03,-8293,-709,1193,-291,-68,108,1,7,11
3.83E+03,-8300,-697,1189,-284,-66,90,1,7,11
3.83E+03,-8296,-690,1192,-280,-66,82,1,7,11
3.83E+03,-8291,-690,1193,-279,-64,75,1,7,11
3.83E+03,-8294,-686,1198,-282,-65,69,1,7,11
3.83E+03,-8299,-675,1200,-288,-64,66,1,7,11
3.83E+03,-8301,-680,1205,-296,-68,69,1,7,11
3.83E+03,-8299,-679,1190,-305,-71,71,1,7,11
3.83E+03,-8297,-679,1194,-310,-68,76,1,7,11
3.83E+03,-8291,-694,1188,-322,-47,102,1,7,11
3.83E+03,-8288,-701,1185,-320,-43,107,1,7,11
3.83E+03,-8299,-700,1184,-314,-35,104,1,7,11
3.83E+03,-8300,-692,1180,-306,-35,101,1,7,11
3.83E+03,-8305,-692,1170,-304,-42,99,1,7,11
3.83E+03,-8297,-682,1163,-307,-50,99,1,7,11
3.83E+03,-8295,-683,1163,-310,-56,102,1,7,11
3.83E+03,-8307,-684,1162,-316,-53,98,1,7,11
3.83E+03,-8080,-688,1180,-314,-50,97,1,7,11
3.83E+03,-8077,-675,1173,-296,-69,107,1,7,11
3.83E+03,-8312,-666,1162,-290,-82,115,1,7,11
3.83E+03,-8304,-665,1161,-285,-76,117,1,7,11
3.83E+03,-8300,-657,1169,-281,-69,109,1,7,11
3.83E+03,-8309,-653,1169,-278,-66,100,1,7,11
3.83E+03,-8311,-644,1166,-269,-74,89,1,7,11
3.83E+03,-8305,-896,1164,-261,-85,77,1,7,11
3.83E+03,-8301,-641,1158,-262,-85,65,1,7,11
3.83E+03,-8306,-645,1164,-272,-83,46,1,7,11
3.83E+03,-8309,-647,1170,-287,-87,27,1,7,11
3.83E+03,-8314,-652,1174,-297,-92,8,1,7,11
3.84E+03,-8308,-659,1168,-308,-95,-264,1,7,11
3.84E+03,-8306,-667,1171,-317,-98,-273,1,7,11
3.84E+03,-8304,-683,1178,-324,-97,-277,1,7,11
3.84E+03,-8277,-686,1164,-317,-105,-269,1,7,11
3.84E+03,-8284,-703,1175,-326,-81,-283,1,7,11
3.84E+03,-8306,-711,1175,-322,-72,-285,1,7,11
3.84E+03,-8303,-714,1173,-309,-81,-276,1,7,11
3.84E+03,-8301,-722,1169,-301,-84,-264,1,7,11
3.84E+03,-8297,-712,1167,-294,-85,8,1,7,11
3.84E+03,-8299,-707,1166,-295,-78,24,1,7,11
3.84E+03,-8299,-708,1161,-298,-73,48,1,7,11
3.84E+03,-8307,-715,1169,-298,-69,70,1,7,11
3.84E+03,-8311,-721,1176,-293,-71,84,1,7,11
3.84E+03,-8307,-726,1179,-283,-77,88,1,7,11
3.84E+03,-8307,-724,1174,-270,-80,87,1,7,11
3.84E+03,-8306,-715,1181,0,-81,84,1,7,11
3.84E+03,-8305,-702,1174,7,-80,82,1,7,11
3.84E+03,-8303,-698,1171,11,-79,80,1,7,11
3.84E+03,-8306,-694,1165,9,-77,78,1,7,11
3.84E+03,-8307,-690,1171,3,-78,72,1,7,11
3.84E+03,-8306,-687,1170,-262,-81,65,1,7,11
3.84E+03,-8312,-682,1169,-269,-88,56,1,7,11
3.84E+03,-8306,-677,1171,-281,-94,49,1,7,11
3.84E+03,-8305,-683,1171,-294,-93,44,1,7,11
3.84E+03,-8305,-688,1174,-306,-91,40,1,7,11
3.84E+03,-8308,-688,1178,-308,-90,43,1,7,11
3.84E+03,-8304,-689,1181,-305,-91,47,1,7,11
3.84E+03,-8296,-696,1181,-299,-89,54,1,7,11
3.84E+03,-8300,-701,1188,-291,-81,51,1,7,11
3.84E+03,-8302,-698,1184,-280,-72,54,1,7,11
3.84E+03,-8302,-692,1176,-274,-73,55,1,7,11
3.84E+03,-8298,-691,1173,-285,-72,55,1,7,11
3.84E+03,-8290,-691,1168,-294,-75,59,1,7,11
3.84E+03,-8301,-695,1177,-307,-69,53,1,7,11
3.84E+03,-8071,-694,1182,-307,-67,52,1,7,11
