timestamp,ax,ay,az,gx,gy,gz,Label1,Label2,Label3
3.79E+03,-8273,1889,1436,-270,-115,-147,1,7,11
3.79E+03,-8271,1891,1429,-294,-109,-190,1,7,11
3.79E+03,-8267,1888,1429,-323,-108,-240,1,7,11
3.79E+03,-8268,1887,1418,-349,-112,-581,1,7,11
3.79E+03,-8282,1890,1662,-375,-124,-438,1,7,11
3.79E+03,-8299,1910,1660,-145,108,-817,1,7,11
3.79E+03,-8317,1668,1653,-187,79,-681,1,7,11
3.79E+03,-8315,1918,1642,-238,38,-1043,1,7,11
3.79E+03,-8307,1907,1632,-555,2,-1134,1,7,11
3.79E+03,-8311,1875,1630,-623,-281,-951,1,7,11
3.79E+03,-8304,1825,1648,-434,-305,-1012,1,7,11
3.79E+03,-8302,1518,1647,-488,-322,-1319,1,7,11
3.79E+03,-8294,1452,1661,-798,-343,-1354,1,7,11
3.79E+03,-8287,1600,1440,-867,-348,-1402,1,7,11
3.79E+03,-8279,1253,1466,-649,-339,-1176,1,7,11
3.79E+03,-8281,1175,1487,-669,-320,-1220,1,7,11
3.79E+03,-8285,1364,1510,-679,-292,-1254,1,7,11
3.79E+03,-8295,1292,1527,-684,-259,-1539,1,7,11
3.79E+03,-8311,980,1792,-682,38,-1564,1,7,11
3.79E+03,-8072,920,1808,-679,69,-1579,1,7,11
3.79E+03,-8093,1113,1819,-673,94,-1586,1,7,11
3.79E+03,-8109,1039,1828,-657,109,-1591,1,7,11
3.79E+03,-8112,710,1851,-878,-124,-1603,1,7,11
3.79E+03,-8118,894,1863,-827,-103,-1627,1,7,11
3.79E+03,-8112,807,1880,-495,-75,-1660,1,7,11
3.79E+03,-8099,468,1891,-628,-15,-1451,1,7,11
3.79E+03,-8090,411,1902,-210,322,-1504,1,7,11
3.79E+03,-8077,631,1902,-290,163,-1822,1,7,11
3.79E+03,-8077,613,1905,-125,518,-1881,1,7,11
3.79E+03,-8068,594,1890,267,601,-1680,1,7,11
3.79E+03,-8078,569,1871,370,413,-1745,1,7,11
3.79E+03,-8096,552,1847,181,461,-2063,1,7,11
3.79E+03,-8119,520,1817,206,484,-2126,1,7,11
3.79E+03,-8120,218,1514,178,476,-1934,1,7,11
3.79E+03,-8123,155,1473,365,449,-2017,1,7,11
3.79E+03,-8112,333,1423,269,422,-2375,1,7,11
3.80E+03,-8112,-11,1647,-112,394,-2235,1,7,11
3.80E+03,-8159,-110,1629,6,613,-2623,1,7,11
3.80E+03,-8191,38,1604,-132,546,-2485,1,7,11
3.80E+03,-8476,-325,1603,-538,214,-2845,1,7,11
3.80E+03,-8492,-222,1611,-456,365,-2919,1,7,11
3.80E+03,-8496,-422,1630,-874,-5,-2712,1,7,11
3.80E+03,-8483,-888,1637,-726,-96,-2726,1,7,11
3.80E+03,-8170,-1105,1656,-1034,120,-2698,1,7,11
3.80E+03,-8463,-1284,1460,-758,-102,-2907,1,7,11
3.80E+03,-8463,-1158,1468,-700,-122,-2521,1,7,11
3.80E+03,-8129,-1565,1451,-649,123,-2632,1,7,11
3.80E+03,-8128,-1660,1455,-822,-76,-2266,1,7,11
3.80E+03,-8116,-1471,1441,-465,-18,-2370,1,7,11
3.80E+03,-8125,-1464,1410,-591,334,-1949,1,7,11
3.80E+03,-8145,-1427,1625,-525,178,-1740,1,7,11
3.80E+03,-8156,-1656,1579,-539,237,-1522,1,7,11
3.80E+03,-8167,-1638,1543,-610,254,-1580,1,7,11
3.80E+03,-8468,-1638,1245,-453,519,-1401,1,7,11
3.80E+03,-8493,-1628,1188,-802,250,-976,1,7,11
3.80E+03,-8503,-1622,1396,-657,242,-1081,1,7,11
3.80E+03,-8516,-1632,1349,-758,242,-674,1,7,11
3.80E+03,-8516,-1642,1318,-1076,238,-781,1,7,11
3.80E+03,-8537,-1633,1295,-1106,220,-624,1,7,11
3.80E+03,-8538,-1641,1008,-1111,166,-188,1,7,11
3.80E+03,-8543,-1660,982,-1104,375,-270,1,7,11
3.80E+03,-8533,-1435,968,-1088,309,-107,1,7,11
3.80E+03,-8476,-1485,956,-1049,-12,284,1,7,11
3.80E+03,-8182,-1507,942,-700,-53,378,1,7,11
3.80E+03,-8175,-1480,948,-825,-82,211,1,7,11
3.80E+03,-8160,-1420,950,-431,-127,575,1,7,11
3.80E+03,-8137,-1618,955,-566,98,449,1,7,11
3.80E+03,-8142,-1557,976,-209,63,847,1,7,11
3.80E+03,-8137,-1258,975,-135,12,743,1,7,11
3.80E+03,-8140,-1215,967,-342,-302,1137,1,7,11
3.80E+03,-8109,-1184,948,-323,-351,1014,1,7,11
3.80E+03,-8120,-1370,956,-298,-324,1163,1,7,11
3.80E+03,-8160,-1015,972,33,-275,1537,1,7,11
3.80E+03,-8188,-929,992,62,30,1437,1,7,11
3.80E+03,-8457,-1115,1009,69,64,1854,1,7,11
3.80E+03,-8469,-1066,1280,73,96,1743,1,7,11
3.81E+03,-8465,-768,1301,93,-113,2106,1,7,11
3.81E+03,-8489,-703,1325,-111,-52,2166,1,7,11
3.81E+03,-8513,-854,1337,-62,259,1966,1,7,11
3.81E+03,-8535,-470,1341,-42,303,2025,1,7,11
3.81E+03,-8553,-583,1330,-55,343,2353,1,7,11
3.81E+03,-8569,-181,1326,-104,371,2198,1,7,11
3.81E+03,-8556,-321,1315,54,139,2580,1,7,11
3.81E+03,-8524,-275,1317,-352,170,2456,1,7,11
3.81E+03,-8465,-288,1306,-234,212,2544,1,7,11
3.81E+03,-8161,-293,1296,-566,542,2544,1,7,11
3.81E+03,-8139,-262,1287,-579,627,2478,1,7,11
3.81E+03,-8114,28,1005,-572,452,2643,1,7,11
3.81E+03,-8074,50,972,-547,805,2254,1,7,11
3.81E+03,-8071,50,952,-241,666,2316,1,7,11
3.81E+03,-8104,76,945,-144,756,2067,1,7,11
3.81E+03,-8146,125,930,-275,1044,1796,1,7,11
3.81E+03,-8451,-58,908,122,1029,1258,1,7,11
3.81E+03,-8496,304,1132,257,704,1001,1,7,11
3.81E+03,-8529,157,1091,357,847,1043,1,7,11
3.81E+03,-8569,576,750,166,464,881,1,7,11
3.81E+03,-8572,408,697,195,530,769,1,7,11
3.81E+03,-8575,473,655,166,183,503,1,7,11
3.81E+03,-8569,798,872,374,358,795,1,7,11
3.81E+03,-8539,846,841,291,295,860,1,7,11
3.81E+03,-8522,881,830,-85,264,687,1,7,11
3.81E+03,-8497,887,825,22,-10,1041,1,7,11
3.81E+03,-8464,849,842,-134,-8,1125,1,7,11
3.81E+03,-8187,783,879,-515,266,920,1,7,11
3.81E+03,-8148,459,652,-588,286,920,1,7,11
3.81E+03,-8139,407,691,-601,326,1109,1,7,11
3.81E+03,-8156,404,724,-541,368,739,1,7,11
3.81E+03,-8184,439,740,-191,382,880,1,7,11
3.81E+03,-8472,492,732,-345,379,775,1,7,11
3.81E+03,-8501,810,715,12,362,427,1,7,11
3.81E+03,-8529,863,697,92,335,605,1,7,11
3.81E+03,-8545,660,678,-85,293,533,1,7,11
3.81E+03,-8558,717,655,-24,-17,215,1,7,11
3.81E+03,-8555,766,883,271,-73,158,1,7,11
3.81E+03,-8550,1062,861,285,125,368,1,7,11
3.81E+03,-8539,1096,844,276,67,336,1,7,11
3.82E+03,-8524,1111,841,259,11,307,1,7,11
3.82E+03,-8508,1121,850,-23,-290,283,1,7,11
3.82E+03,-8483,1129,846,-42,-331,260,1,7,11
3.82E+03,-8460,1143,862,-53,-361,-21,1,7,11
3.82E+03,-8187,907,872,-65,-382,-33,1,7,11
3.82E+03,-8173,915,877,-74,-144,-35,1,7,11
3.82E+03,-8151,927,887,-71,-154,-29,1,7,11
3.82E+03,-8134,930,640,-63,-151,-21,1,7,11
3.82E+03,-8120,941,895,-49,-147,-11,1,7,11
3.82E+03,-8117,954,651,-35,-130,-4,1,7,11
3.82E+03,-8119,972,661,-26,-363,256,1,7,11
3.82E+03,-8128,990,672,-21,-346,261,1,7,11
3.82E+03,-8140,1004,680,-22,-327,265,1,7,11
3.82E+03,-8152,1014,684,-29,-314,270,1,7,11
3.82E+03,-8164,1281,689,-41,-300,269,1,7,11
3.82E+03,-8171,1288,704,-65,-282,-1,1,7,11
3.82E+03,-8178,1283,720,-89,-272,-27,1,7,11
3.82E+03,-8188,1013,728,-115,-264,-65,1,7,11
3.82E+03,-8452,1003,733,106,-260,119,1,7,11
3.82E+03,-8462,997,745,75,-264,65,1,7,11
3.82E+03,-8471,981,762,46,-275,12,1,7,11
3.82E+03,-8477,973,1026,33,-285,-289,1,7,11
3.82E+03,-8467,959,1030,23,-286,-327,1,7,11
3.82E+03,-8461,942,1037,16,-282,-357,1,7,11
3.82E+03,-8449,920,1034,16,-274,-380,1,7,11
3.82E+03,-8189,902,1036,19,0,-147,1,7,11
3.82E+03,-8455,1137,1046,29,16,-165,1,7,11
3.82E+03,-8465,1118,1056,42,18,-182,1,7,11
3.82E+03,-8467,1105,1072,57,14,-194,1,7,11
3.82E+03,-8478,1106,1087,77,3,-200,1,7,11
3.82E+03,-8476,1108,1085,95,-277,-191,1,7,11
3.82E+03,-8468,1105,1082,108,-300,-174,1,7,11
3.82E+03,-8463,1104,1083,121,-315,-146,1,7,11
3.82E+03,-8466,1104,1080,-125,-333,-362,1,7,11
3.82E+03,-8471,1100,1084,-115,-355,-315,1,7,11
3.82E+03,-8468,1092,1077,-107,-375,-262,1,7,11
3.82E+03,-8461,1092,1071,-97,-137,45,1,7,11
3.82E+03,-8461,1091,1068,-87,-149,95,1,7,11
3.82E+03,-8450,1092,1062,-77,-154,-120,1,7,11
3.82E+03,-8178,1101,1058,-74,-150,-84,1,7,11
3.83E+03,-8163,1101,1056,-79,-130,-59,1,7,11
3.83E+03,-8157,1107,1067,-85,-347,-51,1,7,11
3.83E+03,-8159,1109,1080,-88,-306,-51,1,7,11
3.83E+03,-8169,1111,1092,-91,-271,-56,1,7,11
3.83E+03,-8182,1114,1107,-89,11,-63,1,7,11
3.83E+03,-8184,1126,1115,-89,30,-75,1,7,11
3.83E+03,-8183,1132,1122,-88,46,-93,1,7,11
3.83E+03,-8189,1141,1121,-94,60,-114,1,7,11
3.83E+03,-8189,900,1115,-106,72,122,1,7,11
3.83E+03,-8190,898,1107,-125,79,102,1,7,11
3.83E+03,-8188,897,1118,101,86,81,1,7,11
3.83E+03,-8190,1149,1121,72,90,61,1,7,11
3.83E+03,-8181,1139,1120,49,94,40,1,7,11
3.83E+03,-8177,1128,1127,38,98,25,1,7,11
3.83E+03,-8173,1123,1130,29,106,22,1,7,11
3.83E+03,-8174,1119,1140,29,116,30,1,7,11
3.83E+03,-8172,1121,1134,29,-127,47,1,7,11
3.83E+03,-8176,1114,1137,33,-112,68,1,7,11
3.83E+03,-8175,1117,1135,44,-100,91,1,7,11
3.83E+03,-8177,1129,1129,54,-93,109,1,7,11
3.83E+03,-8184,1131,1124,56,-91,126,1,7,11
3.83E+03,-8184,1134,1126,60,-89,-119,1,7,11
3.83E+03,-8455,1138,1127,57,-93,-109,1,7,11
3.83E+03,-8472,1144,1130,52,-111,-103,1,7,11
3.83E+03,-8474,898,1129,60,119,-95,1,7,11
3.83E+03,-8474,910,1121,68,98,-81,1,7,11
3.83E+03,-8462,912,1126,71,87,-65,1,7,11
3.83E+03,-8452,920,1130,81,84,-56,1,7,11
3.83E+03,-8183,919,1125,87,89,-56,1,7,11
3.83E+03,-8186,924,1129,95,93,-68,1,7,11
3.83E+03,-8454,932,1134,106,87,-83,1,7,11
3.83E+03,-8188,940,1134,115,75,-107,1,7,11
3.83E+03,-8177,943,1129,118,72,123,1,7,11
3.83E+03,-8176,955,1127,112,80,79,1,7,11
3.83E+03,-8178,962,1124,98,83,59,1,7,11
3.83E+03,-8186,971,1124,76,92,48,1,7,11
3.83E+03,-8187,963,1121,54,99,46,1,7,11
3.83E+03,-8180,951,1127,33,102,47,1,7,11
3.83E+03,-8186,925,1133,15,104,45,1,7,11
3.83E+03,-8190,917,1139,12,103,42,1,7,11
3.84E+03,-8188,908,1147,16,103,43,1,7,11
3.84E+03,-8191,906,1150,31,101,44,1,7,11
3.84E+03,-8185,907,1142,44,102,53,1,7,11
3.84E+03,-8176,905,1137,58,107,63,1,7,11
3.84E+03,-8182,912,1137,76,115,75,1,7,11
3.84E+03,-8184,921,1123,85,117,89,1,7,11
3.84E+03,-8184,927,1123,90,117,98,1,7,11
3.84E+03,-8183,936,1136,94,117,101,1,7,11
3.84E+03,-8185,944,1135,93,112,103,1,7,11
3.84E+03,-8182,942,1130,87,103,103,1,7,11
3.84E+03,-8185,950,1130,84,99,94,1,7,11
3.84E+03,-8175,951,1135,76,95,90,1,7,11
3.84E+03,-8172,942,1136,69,100,82,1,7,11
3.84E+03,-8174,948,1144,68,109,67,1,7,11
3.84E+03,-8182,942,1142,64,121,57,1,7,11
3.84E+03,-8187,938,1149,61,-114,48,1,7,11
3.84E+03,-8171,934,1151,62,-112,42,1,7,11
3.84E+03,-8169,934,1141,62,-106,36,1,7,11
3.84E+03,-8168,933,1149,62,-85,31,1,7,11
3.84E+03,-8171,933,1141,59,-69,32,1,7,11
3.84E+03,-8177,928,1144,55,-55,39,1,7,11
3.84E+03,-8184,929,1142,53,-42,44,1,7,11
3.84E+03,-8185,926,1134,49,-34,48,1,7,11
3.84E+03,-8192,922,1134,51,-34,51,1,7,11
3.84E+03,-8453,916,1132,51,-37,56,1,7,11
3.84E+03,-8458,911,1128,53,-47,63,1,7,11
3.84E+03,-8453,908,1124,57,-60,66,1,7,11
3.84E+03,-8464,909,1121,61,-78,62,1,7,11
3.84E+03,-8476,908,1120,70,-103,67,1,7,11
3.84E+03,-8468,916,1122,90,126,84,1,7,11
3.84E+03,-8455,919,1113,111,112,106,1,7,11
3.84E+03,-8177,919,1111,-124,109,123,1,7,11
3.84E+03,-8162,918,1102,-98,116,-126,1,7,11
3.84E+03,-8163,925,1099,-73,-127,-128,1,7,11
3.84E+03,-8172,928,1092,-51,-121,121,1,7,11
3.84E+03,-8185,938,1096,-35,-122,110,1,7,11
3.84E+03,-8189,947,1101,-28,-126,99,1,7,11
3.84E+03,-8190,948,1084,-29,124,86,1,7,11
3.84E+03,-8449,958,1084,-30,119,73,1,7,11
3.84E+03,-8189,965,1075,-34,119,63,1,7,11
3.85E+03,-8186,967,1074,-43,119,59,1,7,11
3.85E+03,-8180,961,1075,-60,121,56,1,7,11
3.85E+03,-8188,963,1079,-74,125,46,1,7,11
3.85E+03,-8190,953,1092,-89,122,38,1,7,11
3.85E+03,-8184,951,1091,-95,115,29,1,7,11
3.85E+03,-8184,947,1084,-104,112,26,1,7,11
3.85E+03,-8189,953,1078,-105,112,21,1,7,11
3.85E+03,-8189,952,1074,-106,109,23,1,7,11
3.85E+03,-8191,950,1077,-104,108,28,1,7,11
3.85E+03,-8449,949,1072,-100,99,42,1,7,11
3.85E+03,-8449,949,1068,-97,88,70,1,7,11
3.85E+03,-8450,950,1072,-90,72,83,1,7,11
3.85E+03,-8187,948,1079,-90,64,86,1,7,11
3.85E+03,-8180,950,1077,-90,61,80,1,7,11
3.85E+03,-8183,946,1085,-93,60,69,1,7,11
3.85E+03,-8179,940,1093,-96,59,53,1,7,11
3.85E+03,-8178,937,1097,-96,62,39,1,7,11
3.85E+03,-8179,930,1093,-95,66,26,1,7,11
3.85E+03,-8178,930,1100,-89,64,15,1,7,11
3.85E+03,-8172,930,1090,-82,67,8,1,7,11
3.85E+03,-8171,935,1085,-78,74,4,1,7,11
3.85E+03,-8175,941,1085,-72,90,2,1,7,11
3.85E+03,-8175,945,1080,-78,103,8,1,7,11
3.85E+03,-8181,947,1081,-89,121,14,1,7,11
3.85E+03,-8189,952,1082,-105,-121,20,1,7,11
3.85E+03,-8455,950,1077,-121,-118,26,1,7,11
3.85E+03,-8450,951,1071,115,-120,29,1,7,11
3.85E+03,-8459,944,1079,87,-116,25,1,7,11
3.85E+03,-8456,934,1073,61,-120,24,1,7,11
3.85E+03,-8473,924,1080,36,-124,13,1,7,11
3.85E+03,-8494,925,1086,18,109,9,1,7,11
3.85E+03,-8486,924,1083,13,72,19,1,7,11
3.85E+03,-8474,918,1081,12,52,32,1,7,11
3.85E+03,-8461,906,1085,19,50,53,1,7,11
3.85E+03,-8186,1149,1087,33,50,65,1,7,11
3.85E+03,-8185,1142,1095,55,57,66,1,7,11
3.85E+03,-8188,1146,1107,83,60,61,1,7,11
3.85E+03,-8452,1151,1109,109,51,59,1,7,11
3.85E+03,-8455,900,1108,-127,41,59,1,7,11
3.85E+03,-8192,905,1110,-119,34,61,1,7,11
3.86E+03,-8450,911,1110,-119,32,61,1,7,11
3.86E+03,-8187,917,1109,-123,28,67,1,7,11
3.86E+03,-8186,929,1113,-127,31,69,1,7,11
3.86E+03,-8157,933,1113,119,30,75,1,7,11
3.86E+03,-8164,934,1118,103,45,74,1,7,11
3.86E+03,-8182,930,1124,85,54,75,1,7,11
3.86E+03,-8185,922,1135,74,50,74,1,7,11
3.86E+03,-8185,911,1141,66,49,72,1,7,11
3.86E+03,-8180,908,1142,59,58,72,1,7,11
3.86E+03,-8177,916,1147,60,71,68,1,7,11
3.86E+03,-8187,918,1145,59,88,71,1,7,11
3.86E+03,-8190,915,901,61,99,77,1,7,11
3.86E+03,-8451,913,905,64,99,80,1,7,11
3.86E+03,-8454,913,904,68,96,79,1,7,11
3.86E+03,-8453,913,900,71,91,77,1,7,11
3.86E+03,-8454,917,901,74,89,74,1,7,11
3.86E+03,-8453,913,1144,75,84,75,1,7,11
3.86E+03,-8456,916,1141,74,79,78,1,7,11
3.86E+03,-8451,911,1146,73,73,84,1,7,11
3.86E+03,-8189,915,1151,73,69,93,1,7,11
3.86E+03,-8185,919,899,76,66,102,1,7,11
3.86E+03,-8180,911,897,82,64,112,1,7,11
3.86E+03,-8182,913,897,91,70,121,1,7,11
3.86E+03,-8180,923,1141,98,79,-128,1,7,11
3.86E+03,-8180,932,1139,103,91,-122,1,7,11
3.86E+03,-8179,932,1140,108,101,-120,1,7,11
3.86E+03,-8186,938,1140,108,106,-122,1,7,11
3.86E+03,-8191,945,1146,108,102,-123,1,7,11
3.86E+03,-8187,955,1134,99,99,-123,1,7,11
3.86E+03,-8188,959,1125,89,98,-124,1,7,11
3.86E+03,-8186,957,1126,70,94,-128,1,7,11
3.86E+03,-8463,960,1138,49,87,116,1,7,11
3.86E+03,-8477,968,1151,41,56,113,1,7,11
3.86E+03,-8461,974,1150,41,25,117,1,7,11
3.86E+03,-8187,976,1139,43,19,124,1,7,11
3.86E+03,-8175,969,1151,50,23,-128,1,7,11
3.86E+03,-8161,967,910,64,35,123,1,7,11
3.86E+03,-8165,962,919,78,48,114,1,7,11
3.86E+03,-8174,962,924,94,48,100,1,7,11
3.86E+03,-8171,964,916,105,41,87,1,7,11
3.87E+03,-8170,967,911,109,39,73,1,7,11
3.87E+03,-8166,973,917,106,39,60,1,7,11
3.87E+03,-8172,979,913,96,44,48,1,7,11
3.87E+03,-8176,975,917,85,47,44,1,7,11
3.87E+03,-8173,981,914,73,49,51,1,7,11
3.87E+03,-8159,975,923,59,53,59,1,7,11
3.87E+03,-8165,970,930,46,65,65,1,7,11
3.87E+03,-8179,956,942,32,69,72,1,7,11
3.87E+03,-8183,955,945,33,60,77,1,7,11
3.87E+03,-8184,951,948,36,55,80,1,7,11
3.87E+03,-8179,951,946,45,52,81,1,7,11
3.87E+03,-8177,958,942,53,53,85,1,7,11
3.87E+03,-8175,964,948,60,58,90,1,7,11
3.87E+03,-8178,973,947,73,63,91,1,7,11
3.87E+03,-8181,978,952,79,63,94,1,7,11
3.87E+03,-8182,986,947,84,58,94,1,7,11
3.87E+03,-8188,987,951,81,58,93,1,7,11
3.87E+03,-8187,993,950,76,54,88,1,7,11
3.87E+03,-8179,998,952,67,49,84,1,7,11
3.87E+03,-8171,995,953,57,46,82,1,7,11
3.87E+03,-8167,991,960,51,46,76,1,7,11
3.87E+03,-8165,986,961,44,49,67,1,7,11
3.87E+03,-8163,980,970,39,58,58,1,7,11
3.87E+03,-8163,984,972,39,63,48,1,7,11
3.87E+03,-8157,983,978,43,62,44,1,7,11
3.87E+03,-8156,982,971,50,70,43,1,7,11
3.87E+03,-8161,983,972,56,83,44,1,7,11
3.87E+03,-8163,980,969,56,94,49,1,7,11
3.87E+03,-8163,982,967,52,108,55,1,7,11
3.87E+03,-8161,980,975,44,120,57,1,7,11
3.87E+03,-8166,975,973,35,125,53,1,7,11
3.87E+03,-8167,978,967,32,127,47,1,7,11
3.87E+03,-8171,968,964,23,-127,42,1,7,11
3.87E+03,-8169,960,960,13,-126,38,1,7,11
3.87E+03,-8176,957,973,2,-127,30,1,7,11
3.87E+03,-8456,950,982,-267,119,20,1,7,11
3.87E+03,-8464,952,990,-267,91,20,1,7,11
3.87E+03,-8453,953,986,-263,73,30,1,7,11
3.87E+03,-8181,952,974,1,71,46,1,7,11
3.87E+03,-8168,953,969,13,81,55,1,7,11
3.88E+03,-8158,945,973,25,97,60,1,7,11
3.88E+03,-8167,937,987,41,112,57,1,7,11
3.88E+03,-8172,943,994,55,114,50,1,7,11
3.88E+03,-8181,948,986,67,108,41,1,7,11
3.88E+03,-8173,950,979,71,105,34,1,7,11
3.88E+03,-8173,959,970,67,110,27,1,7,11
3.88E+03,-8171,963,974,58,121,23,1,7,11
3.88E+03,-8178,963,976,48,-125,23,1,7,11
3.88E+03,-8181,961,976,38,-119,34,1,7,11
3.88E+03,-8182,959,970,25,-115,44,1,7,11
3.88E+03,-8182,950,965,13,-114,58,1,7,11
3.88E+03,-8189,934,968,8,-119,64,1,7,11
3.88E+03,-8188,928,966,12,127,67,1,7,11
3.88E+03,-8186,918,977,18,124,70,1,7,11
3.88E+03,-8185,922,974,33,121,68,1,7,11
3.88E+03,-8184,931,970,47,119,71,1,7,11
3.88E+03,-8179,936,974,61,121,71,1,7,11
3.88E+03,-8182,949,978,73,124,76,1,7,11
3.88E+03,-8181,958,970,76,123,85,1,7,11
3.88E+03,-8179,962,971,76,122,91,1,7,11
3.88E+03,-8176,970,963,69,121,93,1,7,11
3.88E+03,-8178,971,961,60,120,93,1,7,11
3.88E+03,-8177,966,957,51,115,91,1,7,11
3.88E+03,-8180,967,949,41,110,87,1,7,11
3.88E+03,-8182,964,959,36,107,79,1,7,11
3.88E+03,-8178,963,956,32,104,75,1,7,11
3.88E+03,-8176,957,956,35,106,71,1,7,11
3.88E+03,-8179,952,957,40,107,69,1,7,11
3.88E+03,-8179,955,964,46,111,65,1,7,11
3.88E+03,-8180,959,972,53,110,61,1,7,11
3.88E+03,-8176,955,977,57,105,62,1,7,11
3.88E+03,-8175,959,983,61,106,60,1,7,11
3.88E+03,-8176,967,973,61,113,62,1,7,11
3.88E+03,-8178,968,965,55,120,69,1,7,11
3.88E+03,-8174,970,961,48,-128,73,1,7,11
3.88E+03,-8177,968,966,41,-123,69,1,7,11
3.88E+03,-8183,959,963,39,-122,64,1,7,11
3.88E+03,-8185,960,964,42,-125,58,1,7,11
3.88E+03,-8187,954,963,35,-127,51,1,7,11
3.88E+03,-8185,955,961,30,125,44,1,7,11
3.89E+03,-8452,952,970,22,119,38,1,7,11
3.89E+03,-8463,951,983,15,102,32,1,7,11
3.89E+03,-8463,949,980,15,75,43,1,7,11
3.89E+03,-8184,954,961,19,59,69,1,7,11
3.89E+03,-8167,952,964,27,72,82,1,7,11
3.89E+03,-8166,953,975,37,91,85,1,7,11
3.89E+03,-8173,955,984,49,104,82,1,7,11
3.89E+03,-8183,961,987,63,105,74,1,7,11
3.89E+03,-8180,964,984,69,100,66,1,7,11
3.89E+03,-8167,969,969,67,99,58,1,7,11
3.89E+03,-8160,970,965,61,106,50,1,7,11
3.89E+03,-8162,969,969,50,120,42,1,7,11
3.89E+03,-8168,968,970,37,-125,39,1,7,11
3.89E+03,-8182,969,976,27,-119,45,1,7,11
3.89E+03,-8182,962,965,18,-119,56,1,7,11
3.89E+03,-8185,952,968,9,-118,61,1,7,11
3.89E+03,-8191,939,981,2,-123,65,1,7,11
3.89E+03,-8451,936,978,6,123,62,1,7,11
3.89E+03,-8452,927,991,14,113,59,1,7,11
3.89E+03,-8455,923,991,29,102,54,1,7,11
3.89E+03,-8188,925,999,42,97,56,1,7,11
3.89E+03,-8180,927,997,56,95,55,1,7,11
3.89E+03,-8177,928,991,70,97,54,1,7,11
3.89E+03,-8172,931,992,81,97,54,1,7,11
3.89E+03,-8173,939,993,90,100,55,1,7,11
3.89E+03,-8175,943,980,97,101,60,1,7,11
3.89E+03,-8176,952,981,98,103,62,1,7,11
3.89E+03,-8176,958,983,97,104,65,1,7,11
3.89E+03,-8178,961,984,90,107,68,1,7,11
3.89E+03,-8174,964,982,78,107,72,1,7,11
3.89E+03,-8170,964,982,68,107,76,1,7,11
3.89E+03,-8166,965,986,58,113,77,1,7,11
3.89E+03,-8166,965,978,49,120,80,1,7,11
3.89E+03,-8169,966,982,44,-124,83,1,7,11
3.89E+03,-8162,961,985,40,-117,83,1,7,11
3.89E+03,-8160,954,983,39,-110,78,1,7,11
3.89E+03,-8157,961,975,44,-100,72,1,7,11
3.89E+03,-8163,966,982,44,-78,67,1,7,11
3.89E+03,-8169,971,971,42,-65,66,1,7,11
3.89E+03,-8170,972,964,32,-57,67,1,7,11
3.90E+03,-8175,975,957,23,-56,62,1,7,11
3.90E+03,-8185,966,958,15,-60,55,1,7,11
3.90E+03,-8183,959,966,13,-72,47,1,7,11
3.90E+03,-8181,952,964,9,-78,43,1,7,11
3.90E+03,-8187,947,960,10,-84,41,1,7,11
3.90E+03,-8185,941,957,12,-91,39,1,7,11
3.90E+03,-8458,940,962,11,-102,36,1,7,11
3.90E+03,-8468,942,963,19,-126,41,1,7,11
3.90E+03,-8455,945,951,25,108,63,1,7,11
3.90E+03,-8183,945,944,34,105,83,1,7,11
3.90E+03,-8166,952,946,42,116,96,1,7,11
3.90E+03,-8155,950,942,49,-122,98,1,7,11
3.90E+03,-8159,949,938,57,-106,86,1,7,11
3.90E+03,-8169,952,951,65,-104,72,1,7,11
3.90E+03,-8172,959,947,69,-107,61,1,7,11
3.90E+03,-8171,963,943,67,-106,58,1,7,11
3.90E+03,-8165,960,937,59,-99,55,1,7,11
3.90E+03,-8165,956,936,53,-92,51,1,7,11
3.90E+03,-8174,948,935,47,-84,46,1,7,11
3.90E+03,-8181,948,935,47,-82,43,1,7,11
3.90E+03,-8173,943,931,42,-80,47,1,7,11
3.90E+03,-8178,932,933,42,-73,44,1,7,11
3.90E+03,-8187,914,946,50,-77,33,1,7,11
3.90E+03,-8188,908,952,68,-80,24,1,7,11
3.90E+03,-8184,913,949,88,-84,21,1,7,11
3.90E+03,-8183,916,941,108,-84,22,1,7,11
3.90E+03,-8180,929,933,122,-77,30,1,7,11
3.90E+03,-8169,941,923,-127,-68,45,1,7,11
3.90E+03,-8190,947,927,-121,-47,46,1,7,11
3.90E+03,-8454,962,922,-122,-54,58,1,7,11
3.90E+03,-8461,967,909,-127,-67,59,1,7,11
3.90E+03,-8459,981,899,116,-77,60,1,7,11
3.90E+03,-8460,986,1145,95,-93,63,1,7,11
3.90E+03,-8453,985,1144,70,-108,68,1,7,11
3.90E+03,-8190,979,1145,47,-122,72,1,7,11
3.90E+03,-8184,964,1150,29,125,71,1,7,11
3.90E+03,-8181,959,897,24,120,68,1,7,11
3.90E+03,-8183,946,902,23,117,67,1,7,11
3.90E+03,-8187,937,910,32,113,68,1,7,11
3.90E+03,-8184,940,908,45,113,72,1,7,11
3.91E+03,-8188,942,903,59,113,79,1,7,11
3.91E+03,-8183,944,903,72,114,88,1,7,11
3.91E+03,-8182,948,1144,79,118,96,1,7,11
3.91E+03,-8178,953,1145,81,125,97,1,7,11
3.91E+03,-8185,956,898,77,-123,95,1,7,11
3.91E+03,-8187,966,1150,74,-124,91,1,7,11
3.91E+03,-8191,965,1150,60,-125,84,1,7,11
3.91E+03,-8191,961,1145,47,123,76,1,7,11
3.91E+03,-8192,952,1149,33,118,65,1,7,11
3.91E+03,-8450,942,1147,17,114,51,1,7,11
3.91E+03,-8472,936,901,7,101,31,1,7,11
3.91E+03,-8481,945,911,6,69,27,1,7,11
3.91E+03,-8456,947,897,7,41,35,1,7,11
3.91E+03,-8186,938,1150,13,41,45,1,7,11
3.91E+03,-8171,933,902,24,52,52,1,7,11
3.91E+03,-8165,926,918,36,68,50,1,7,11
3.91E+03,-8170,925,920,50,81,42,1,7,11
3.91E+03,-8180,927,922,64,85,35,1,7,11
3.91E+03,-8184,928,915,73,81,36,1,7,11
3.91E+03,-8177,933,910,72,78,36,1,7,11
3.91E+03,-8170,939,908,66,83,37,1,7,11
3.91E+03,-8177,939,918,58,90,36,1,7,11
3.91E+03,-8187,943,914,48,96,41,1,7,11
3.91E+03,-8190,952,924,41,96,56,1,7,11
3.91E+03,-8176,943,920,30,97,71,1,7,11
3.91E+03,-8181,940,919,23,106,77,1,7,11
3.91E+03,-8191,933,937,19,105,77,1,7,11
3.91E+03,-8451,927,940,22,94,77,1,7,11
3.91E+03,-8190,925,941,31,84,73,1,7,11
3.91E+03,-8188,932,933,40,82,72,1,7,11
3.91E+03,-8185,932,935,47,88,74,1,7,11
3.91E+03,-8183,938,932,53,99,77,1,7,11
3.91E+03,-8190,946,933,56,104,80,1,7,11
3.91E+03,-8449,951,937,52,105,82,1,7,11
3.91E+03,-8192,953,927,47,100,81,1,7,11
3.91E+03,-8192,954,927,38,94,79,1,7,11
3.91E+03,-8192,954,925,27,89,76,1,7,11
3.91E+03,-8449,947,934,19,87,76,1,7,11
3.91E+03,-8190,946,930,16,81,75,1,7,11
3.91E+03,-8187,944,932,19,75,80,1,7,11
3.92E+03,-8184,938,936,26,72,87,1,7,11
3.92E+03,-8178,939,941,36,74,94,1,7,11
3.92E+03,-8174,931,939,48,80,101,1,7,11
3.92E+03,-8176,931,943,58,85,104,1,7,11
3.92E+03,-8173,946,939,70,92,105,1,7,11
3.92E+03,-8181,957,936,76,99,107,1,7,11
3.92E+03,-8184,960,935,77,105,111,1,7,11
3.92E+03,-8180,966,932,68,111,116,1,7,11
3.92E+03,-8181,967,931,57,118,118,1,7,11
3.92E+03,-8187,970,925,48,119,117,1,7,11
3.92E+03,-8183,971,923,40,113,115,1,7,11
3.92E+03,-8186,966,936,28,112,109,1,7,11
3.92E+03,-8186,963,934,25,105,98,1,7,11
3.92E+03,-8455,956,947,16,98,83,1,7,11
3.92E+03,-8472,956,950,13,82,68,1,7,11
3.92E+03,-8477,966,953,16,51,70,1,7,11
3.92E+03,-8459,970,946,23,30,82,1,7,11
3.92E+03,-8184,970,945,30,27,93,1,7,11
3.92E+03,-8168,968,952,37,38,100,1,7,11
3.92E+03,-8164,966,949,45,54,101,1,7,11
3.92E+03,-8167,961,961,55,66,96,1,7,11
3.92E+03,-8167,960,968,66,65,87,1,7,11
3.92E+03,-8163,967,964,78,63,75,1,7,11
3.92E+03,-8161,972,958,80,65,65,1,7,11
3.92E+03,-8162,976,957,76,74,59,1,7,11
3.92E+03,-8167,980,959,70,85,52,1,7,11
3.92E+03,-8167,986,967,62,96,52,1,7,11
3.92E+03,-8171,991,960,54,99,61,1,7,11
3.92E+03,-8166,991,959,39,104,70,1,7,11
3.92E+03,-8172,980,965,21,111,73,1,7,11
3.92E+03,-8188,970,979,12,111,71,1,7,11
3.92E+03,-8192,954,987,17,101,71,1,7,11
3.92E+03,-8188,951,992,31,96,67,1,7,11
3.92E+03,-8179,955,986,42,95,67,1,7,11
3.92E+03,-8169,956,983,55,101,67,1,7,11
3.92E+03,-8173,966,985,66,111,66,1,7,11
3.92E+03,-8183,976,983,73,118,70,1,7,11
3.92E+03,-8183,984,973,73,120,75,1,7,11
3.92E+03,-8177,982,970,66,121,80,1,7,11
3.92E+03,-8177,981,964,57,122,82,1,7,11
3.93E+03,-8180,979,968,46,125,84,1,7,11
3.93E+03,-8181,972,974,34,-126,83,1,7,11
3.93E+03,-8177,971,974,28,-125,84,1,7,11
3.93E+03,-8178,972,964,27,-127,89,1,7,11
3.93E+03,-8174,970,965,30,-126,93,1,7,11
3.93E+03,-8179,969,967,34,-123,99,1,7,11
3.93E+03,-8179,964,963,43,-121,99,1,7,11
3.93E+03,-8176,968,967,52,-120,102,1,7,11
3.93E+03,-8168,974,965,61,-118,103,1,7,11
3.93E+03,-8167,986,959,71,-109,105,1,7,11
3.93E+03,-8168,994,958,75,-101,110,1,7,11
3.93E+03,-8169,1004,956,71,-91,115,1,7,11
3.93E+03,-8172,1000,952,60,-85,121,1,7,11
3.93E+03,-8176,1004,947,52,-83,117,1,7,11
3.93E+03,-8178,1005,944,46,-82,110,1,7,11
3.93E+03,-8178,1006,939,42,-88,105,1,7,11
3.93E+03,-8180,1001,938,33,-91,96,1,7,11
3.93E+03,-8184,998,934,27,-99,90,1,7,11
3.93E+03,-8453,997,942,16,-112,77,1,7,11
3.93E+03,-8470,1000,943,8,121,69,1,7,11
3.93E+03,-8471,1008,940,8,87,72,1,7,11
3.93E+03,-8447,1008,934,9,66,87,1,7,11
3.93E+03,-8175,1007,933,17,61,98,1,7,11
3.93E+03,-8170,1005,947,25,70,102,1,7,11
3.93E+03,-8168,996,955,35,82,101,1,7,11
3.93E+03,-8172,992,961,51,87,91,1,7,11
3.93E+03,-8172,996,954,68,78,80,1,7,11
3.93E+03,-8173,1004,947,77,72,71,1,7,11
3.93E+03,-8161,1004,949,79,76,58,1,7,11
3.93E+03,-8161,1005,947,73,86,54,1,7,11
3.93E+03,-8164,1011,949,64,96,49,1,7,11
3.93E+03,-8174,1015,955,54,102,51,1,7,11
3.93E+03,-8176,1017,960,48,101,62,1,7,11
3.93E+03,-8172,1013,966,32,104,73,1,7,11
3.93E+03,-8175,1003,983,23,104,79,1,7,11
3.93E+03,-8182,989,985,20,99,79,1,7,11
3.93E+03,-8185,979,995,26,93,72,1,7,11
3.93E+03,-8184,978,993,39,85,64,1,7,11
3.93E+03,-8184,984,993,55,81,59,1,7,11
3.93E+03,-8176,985,984,70,82,61,1,7,11
3.94E+03,-8171,998,982,82,88,67,1,7,11
3.94E+03,-8173,1007,975,87,99,79,1,7,11
3.94E+03,-8181,1013,974,87,106,84,1,7,11
3.94E+03,-8178,1016,981,76,110,88,1,7,11
3.94E+03,-8175,1015,982,68,112,88,1,7,11
3.94E+03,-8171,1011,982,48,114,86,1,7,11
3.94E+03,-8169,1011,974,37,113,81,1,7,11
3.94E+03,-8167,1013,975,37,112,77,1,7,11
3.94E+03,-8164,1012,974,39,111,74,1,7,11
3.94E+03,-8163,1015,978,42,113,74,1,7,11
3.94E+03,-8169,1014,971,48,114,75,1,7,11
3.94E+03,-8172,1016,966,55,117,75,1,7,11
3.94E+03,-8178,1019,959,58,118,76,1,7,11
3.94E+03,-8178,1020,965,58,115,77,1,7,11
3.94E+03,-8175,1020,959,54,110,81,1,7,11
3.94E+03,-8170,1283,947,52,112,84,1,7,11
3.94E+03,-8167,1286,944,44,114,86,1,7,11
3.94E+03,-8170,1284,946,35,112,92,1,7,11
3.94E+03,-8176,1281,946,28,111,95,1,7,11
3.94E+03,-8180,1012,955,24,105,94,1,7,11
3.94E+03,-8184,1000,964,27,96,86,1,7,11
3.94E+03,-8181,1005,964,40,85,76,1,7,11
3.94E+03,-8177,1001,972,51,80,68,1,7,11
3.94E+03,-8172,1001,973,60,79,65,1,7,11
3.94E+03,-8178,1001,985,63,76,57,1,7,11
3.94E+03,-8191,1006,991,59,65,52,1,7,11
3.94E+03,-8188,1017,994,61,44,59,1,7,11
3.94E+03,-8179,1281,989,61,35,77,1,7,11
3.94E+03,-8161,1288,988,60,47,96,1,7,11
3.94E+03,-8146,1285,993,56,69,107,1,7,11
3.94E+03,-8142,1022,1002,52,98,105,1,7,11
3.94E+03,-8151,1018,1010,53,120,91,1,7,11
3.94E+03,-8153,1023,1013,58,124,76,1,7,11
3.94E+03,-8153,1283,997,59,-122,66,1,7,11
3.94E+03,-8151,1022,990,56,-108,54,1,7,11
3.94E+03,-8156,1280,991,49,-91,49,1,7,11
3.94E+03,-8163,1284,992,43,-80,48,1,7,11
3.94E+03,-8172,1283,991,37,-71,51,1,7,11
3.94E+03,-8167,1287,987,30,-70,61,1,7,11
3.94E+03,-8170,1287,981,19,-64,65,1,7,11
3.95E+03,-8183,1018,980,11,-60,68,1,7,11
3.95E+03,-8184,1005,986,11,-69,65,1,7,11
3.95E+03,-8179,1004,986,20,-79,61,1,7,11
3.95E+03,-8176,1003,981,32,-86,61,1,7,11
3.95E+03,-8173,1007,978,45,-89,62,1,7,11
3.95E+03,-8172,1014,967,55,-85,70,1,7,11
3.95E+03,-8169,1283,961,64,-81,79,1,7,11
3.95E+03,-8178,1291,956,66,-75,86,1,7,11
3.95E+03,-8177,1297,950,64,-77,89,1,7,11
3.95E+03,-8177,1297,947,56,-79,96,1,7,11
3.95E+03,-8177,1296,944,48,-80,95,1,7,11
3.95E+03,-8178,1294,943,39,-86,92,1,7,11
3.95E+03,-8180,1290,940,33,-93,88,1,7,11
3.95E+03,-8176,1283,940,31,-101,78,1,7,11
3.95E+03,-8177,1023,938,32,-107,74,1,7,11
3.95E+03,-8173,1020,932,38,-112,72,1,7,11
3.95E+03,-8175,1281,925,45,-112,70,1,7,11
3.95E+03,-8176,1280,933,52,-112,70,1,7,11
3.95E+03,-8174,1022,930,59,-117,69,1,7,11
3.95E+03,-8165,1021,923,65,-122,69,1,7,11
3.95E+03,-8164,1287,920,71,-120,68,1,7,11
3.95E+03,-8165,1293,917,71,-119,72,1,7,11
3.95E+03,-8166,1292,915,68,-113,77,1,7,11
3.95E+03,-8169,1295,915,67,-106,77,1,7,11
3.95E+03,-8175,1296,913,63,-106,73,1,7,11
3.95E+03,-8182,1288,924,60,-111,68,1,7,11
3.95E+03,-8178,1283,927,58,-124,63,1,7,11
3.95E+03,-8180,1282,932,54,-128,56,1,7,11
3.95E+03,-8172,1023,925,50,119,53,1,7,11
3.95E+03,-8183,1023,932,43,111,46,1,7,11
3.95E+03,-8466,1283,945,42,94,46,1,7,11
3.95E+03,-8456,1286,935,44,67,60,1,7,11
3.95E+03,-8175,1287,931,49,62,78,1,7,11
3.95E+03,-8153,1285,926,53,81,95,1,7,11
3.95E+03,-8140,1284,921,59,105,98,1,7,11
3.95E+03,-8146,1284,927,65,127,89,1,7,11
3.95E+03,-8152,1289,936,71,-116,77,1,7,11
3.95E+03,-8165,1304,939,71,-111,67,1,7,11
3.95E+03,-8167,1308,930,64,-112,61,1,7,11
3.95E+03,-8161,1306,934,48,-104,54,1,7,11
3.96E+03,-8172,1302,935,38,-95,49,1,7,11
3.96E+03,-8173,1300,935,32,-87,46,1,7,11
3.96E+03,-8176,1302,928,30,-85,50,1,7,11
3.96E+03,-8169,1294,923,21,-79,53,1,7,11
3.96E+03,-8179,1286,924,15,-71,51,1,7,11
3.96E+03,-8452,1022,931,11,-80,44,1,7,11
3.96E+03,-8192,1020,927,19,-98,39,1,7,11
3.96E+03,-8192,1017,922,25,-114,36,1,7,11
3.96E+03,-8183,1012,917,30,-122,38,1,7,11
3.96E+03,-8179,1014,913,35,-121,44,1,7,11
3.96E+03,-8182,1020,916,40,-119,51,1,7,11
3.96E+03,-8186,1022,908,48,-124,63,1,7,11
3.96E+03,-8187,1281,899,51,120,71,1,7,11
3.96E+03,-8183,1287,898,49,108,77,1,7,11
3.96E+03,-8177,1286,904,43,99,79,1,7,11
3.96E+03,-8177,1280,904,38,93,76,1,7,11
3.96E+03,-8174,1280,911,39,85,73,1,7,11
3.96E+03,-8170,1281,913,39,80,72,1,7,11
3.96E+03,-8170,1282,912,44,78,74,1,7,11
3.96E+03,-8168,1284,912,50,79,77,1,7,11
3.96E+03,-8169,1284,907,52,81,80,1,7,11
3.96E+03,-8172,1288,909,52,84,82,1,7,11
3.96E+03,-8170,1287,906,52,86,80,1,7,11
3.96E+03,-8172,1294,918,52,87,75,1,7,11
3.96E+03,-8169,1301,920,48,87,71,1,7,11
3.96E+03,-8170,1300,918,42,91,68,1,7,11
3.96E+03,-8168,1303,916,35,92,65,1,7,11
3.96E+03,-8169,1304,907,30,93,58,1,7,11
3.96E+03,-8177,1294,928,27,95,50,1,7,11
3.96E+03,-8182,1286,927,28,88,47,1,7,11
3.96E+03,-8178,1283,931,28,79,45,1,7,11
3.96E+03,-8176,1022,940,27,80,41,1,7,11
3.96E+03,-8171,1012,944,28,75,38,1,7,11
3.96E+03,-8187,1018,949,25,70,32,1,7,11
3.96E+03,-8453,1014,954,22,53,35,1,7,11
3.96E+03,-8184,1280,950,25,27,52,1,7,11
3.96E+03,-8168,1281,941,25,24,76,1,7,11
3.96E+03,-8156,1023,943,31,35,93,1,7,11
3.96E+03,-8144,1280,944,39,52,101,1,7,11
3.96E+03,-8149,1017,955,47,74,105,1,7,11
3.97E+03,-8156,1023,959,59,83,95,1,7,11
3.97E+03,-8159,1287,964,69,82,88,1,7,11
3.97E+03,-8153,1292,966,70,82,79,1,7,11
3.97E+03,-8146,1292,965,65,87,67,1,7,11
3.97E+03,-8150,1297,961,59,101,59,1,7,11
3.97E+03,-8156,1300,955,53,110,52,1,7,11
3.97E+03,-8163,1304,960,43,117,48,1,7,11
3.97E+03,-8155,1304,948,37,120,53,1,7,11
3.97E+03,-8160,1304,952,24,-128,59,1,7,11
3.97E+03,-8175,1285,962,11,-120,65,1,7,11
3.97E+03,-8179,1020,971,10,-126,63,1,7,11
3.97E+03,-8177,1005,976,18,124,61,1,7,11
3.97E+03,-8169,1004,970,33,119,57,1,7,11
3.97E+03,-8169,1016,962,47,121,54,1,7,11
3.97E+03,-8163,1019,962,57,127,57,1,7,11
3.97E+03,-8160,1281,968,69,-119,61,1,7,11
3.97E+03,-8168,1287,966,72,-112,70,1,7,11
3.97E+03,-8174,1296,957,70,-111,82,1,7,11
3.97E+03,-8168,1295,948,63,-113,89,1,7,11
3.97E+03,-8172,1301,943,53,-114,91,1,7,11
3.97E+03,-8171,1296,945,41,-116,91,1,7,11
3.97E+03,-8165,1292,942,31,-119,88,1,7,11
3.97E+03,-8173,1291,947,24,-121,86,1,7,11
3.97E+03,-8166,1289,950,23,-125,84,1,7,11
3.97E+03,-8167,1286,951,30,-124,78,1,7,11
3.97E+03,-8168,1287,946,38,-122,79,1,7,11
3.97E+03,-8166,1287,947,48,-120,76,1,7,11
3.97E+03,-8168,1292,944,53,-120,77,1,7,11
3.97E+03,-8168,1292,941,58,-122,77,1,7,11
3.97E+03,-8162,1299,940,60,-124,75,1,7,11
3.97E+03,-8162,1304,936,58,-120,74,1,7,11
3.97E+03,-8158,1309,935,51,-116,77,1,7,11
3.97E+03,-8155,1306,929,43,-112,81,1,7,11
3.97E+03,-8162,1303,921,33,-108,81,1,7,11
3.97E+03,-8166,1293,929,31,-104,73,1,7,11
3.97E+03,-8175,1295,923,36,-108,64,1,7,11
3.97E+03,-8175,1292,923,39,-113,58,1,7,11
3.97E+03,-8180,1290,930,39,-116,53,1,7,11
3.97E+03,-8177,1294,929,35,-124,49,1,7,11
3.97E+03,-8191,1289,931,27,119,42,1,7,11
3.98E+03,-8458,1287,937,23,93,41,1,7,11
3.98E+03,-8191,1287,929,18,69,57,1,7,11
3.98E+03,-8180,1291,926,19,60,76,1,7,11
3.98E+03,-8164,1291,923,24,69,92,1,7,11
3.98E+03,-8154,1288,926,31,84,96,1,7,11
3.98E+03,-8159,1287,938,40,97,93,1,7,11
3.98E+03,-8163,1283,945,51,97,88,1,7,11
3.98E+03,-8169,1293,946,66,89,79,1,7,11
3.98E+03,-8158,1293,941,69,85,71,1,7,11
3.98E+03,-8158,1294,936,65,93,63,1,7,11
3.98E+03,-8157,1294,937,62,107,53,1,7,11
3.98E+03,-8162,1299,938,57,117,48,1,7,11
3.98E+03,-8171,1307,947,53,125,51,1,7,11
3.98E+03,-8168,1313,940,47,127,60,1,7,11
3.98E+03,-8174,1305,942,34,-127,71,1,7,11
3.98E+03,-8173,1287,944,22,-128,77,1,7,11
3.98E+03,-8182,1281,951,21,122,74,1,7,11
3.98E+03,-8189,1017,952,26,115,71,1,7,11
3.98E+03,-8190,1019,955,39,108,66,1,7,11
3.98E+03,-8179,1023,956,52,105,66,1,7,11
3.98E+03,-8173,1283,957,64,109,66,1,7,11
3.98E+03,-8166,1293,952,78,115,69,1,7,11
3.98E+03,-8170,1303,946,84,123,78,1,7,11
3.98E+03,-8167,1312,946,81,-126,91,1,7,11
3.98E+03,-8167,1314,947,72,-124,103,1,7,11
3.98E+03,-8165,1314,945,60,-124,108,1,7,11
3.98E+03,-8161,1313,941,46,-123,105,1,7,11
3.98E+03,-8166,1309,944,37,-123,99,1,7,11
3.98E+03,-8162,1309,953,33,-122,91,1,7,11
3.98E+03,-8160,1310,946,35,-124,87,1,7,11
3.98E+03,-8162,1307,945,40,-123,85,1,7,11
3.98E+03,-8164,1306,946,46,-120,83,1,7,11
3.98E+03,-8165,1311,940,52,-117,77,1,7,11
3.98E+03,-8164,1314,935,52,-113,75,1,7,11
3.98E+03,-8173,1322,930,49,-115,69,1,7,11
3.98E+03,-8172,1324,933,48,-117,64,1,7,11
3.98E+03,-8169,1319,928,41,-122,64,1,7,11
3.98E+03,-8163,1314,914,36,-125,61,1,7,11
3.98E+03,-8166,1318,915,33,-119,60,1,7,11
3.98E+03,-8170,1313,913,29,-113,60,1,7,11
3.99E+03,-8174,1310,922,28,-112,58,1,7,11
3.99E+03,-8175,1309,924,28,-113,54,1,7,11
3.99E+03,-8182,1307,930,33,-120,48,1,7,11
3.99E+03,-8181,1309,925,42,127,45,1,7,11
3.99E+03,-8177,1305,923,43,120,44,1,7,11
3.99E+03,-8181,1300,918,42,113,44,1,7,11
3.99E+03,-8183,1298,915,39,107,44,1,7,11
3.99E+03,-8451,1295,928,30,96,42,1,7,11
3.99E+03,-8192,1293,938,22,73,51,1,7,11
3.99E+03,-8185,1298,930,20,45,68,1,7,11
3.99E+03,-8168,1297,925,23,34,86,1,7,11
3.99E+03,-8161,1296,926,36,51,98,1,7,11
3.99E+03,-8158,1299,927,47,71,102,1,7,11
3.99E+03,-8167,1302,940,57,83,96,1,7,11
3.99E+03,-8170,1314,945,69,83,87,1,7,11
3.99E+03,-8167,1318,943,72,77,78,1,7,11
3.99E+03,-8150,1316,936,66,77,73,1,7,11
3.99E+03,-8153,1316,940,57,86,65,1,7,11
3.99E+03,-8159,1318,933,47,97,58,1,7,11
3.99E+03,-8160,1315,934,43,100,55,1,7,11
3.99E+03,-8164,1314,938,36,102,58,1,7,11
3.99E+03,-8171,1312,944,31,98,70,1,7,11
3.99E+03,-8170,1301,949,25,95,79,1,7,11
3.99E+03,-8175,1287,963,20,91,81,1,7,11
3.99E+03,-8180,1280,968,31,78,76,1,7,11
3.99E+03,-8174,1017,973,46,68,73,1,7,11
3.99E+03,-8170,1020,976,67,63,68,1,7,11
3.99E+03,-8155,1285,972,83,67,69,1,7,11
3.99E+03,-8146,1295,969,98,77,74,1,7,11
3.99E+03,-8145,1312,973,108,94,79,1,7,11
3.99E+03,-8148,1328,966,111,108,88,1,7,11
3.99E+03,-8143,1343,963,102,123,99,1,7,11
3.99E+03,-8154,1351,961,85,-118,102,1,7,11
3.99E+03,-8151,1351,957,65,-107,101,1,7,11
3.99E+03,-8152,1354,955,40,-98,93,1,7,11
3.99E+03,-8160,1346,956,22,-90,82,1,7,11
3.99E+03,-8158,1340,959,11,-85,70,1,7,11
3.99E+03,-8157,1328,959,1,-81,60,1,7,11
3.99E+03,-8162,1319,968,0,-76,54,1,7,11
3.99E+03,-8157,1311,960,7,-73,48,1,7,11
4.00E+03,-8158,1308,953,15,-70,44,1,7,11
4.00E+03,-8164,1306,957,24,-65,44,1,7,11
4.00E+03,-8164,1309,946,30,-59,44,1,7,11
4.00E+03,-8164,1315,934,31,-57,48,1,7,11
4.00E+03,-8162,1319,926,30,-59,53,1,7,11
4.00E+03,-8163,1321,930,25,-56,57,1,7,11
4.00E+03,-8164,1324,920,23,-52,62,1,7,11
4.00E+03,-8165,1323,912,18,-46,64,1,7,11
4.00E+03,-8167,1319,905,14,-45,66,1,7,11
4.00E+03,-8173,1316,906,16,-49,64,1,7,11
4.00E+03,-8188,1313,903,19,-52,60,1,7,11
4.00E+03,-8190,1311,896,25,-63,56,1,7,11
4.00E+03,-8184,1310,900,30,-71,49,1,7,11
4.00E+03,-8186,1311,896,32,-83,46,1,7,11
4.00E+03,-8174,1306,1142,31,-95,41,1,7,11
4.00E+03,-8184,1306,1150,24,-102,37,1,7,11
4.00E+03,-8458,1314,1151,21,-123,43,1,7,11
4.00E+03,-8191,1318,1145,17,110,63,1,7,11
4.00E+03,-8175,1314,1142,17,106,83,1,7,11
4.00E+03,-8157,1313,1138,24,118,90,1,7,11
4.00E+03,-8150,1304,1145,32,-119,88,1,7,11
4.00E+03,-8152,1302,897,42,-103,77,1,7,11
4.00E+03,-8166,1306,903,54,-98,64,1,7,11
4.00E+03,-8170,1320,899,59,-103,56,1,7,11
4.00E+03,-8169,1320,1148,59,-110,55,1,7,11
4.00E+03,-8167,1318,1146,51,-112,51,1,7,11
4.00E+03,-8170,1320,1141,44,-109,45,1,7,11
4.00E+03,-8168,1317,1139,37,-109,40,1,7,11
4.00E+03,-8175,1321,1137,36,-110,37,1,7,11
4.00E+03,-8163,1314,1133,33,-117,44,1,7,11
4.00E+03,-8165,1305,1137,30,-112,44,1,7,11
4.00E+03,-8179,1297,1147,25,-113,42,1,7,11
4.00E+03,-8190,1292,897,28,-122,37,1,7,11
4.00E+03,-8188,1290,899,35,118,34,1,7,11
4.00E+03,-8183,1292,1151,44,105,37,1,7,11
4.00E+03,-8175,1295,1142,54,103,43,1,7,11
4.00E+03,-8172,1298,1138,58,107,51,1,7,11
4.00E+03,-8170,1304,1141,62,116,58,1,7,11
4.00E+03,-8174,1312,1136,66,120,66,1,7,11
4.00E+03,-8177,1312,1128,64,119,69,1,7,11
4.01E+03,-8173,1312,1126,59,116,70,1,7,11
4.01E+03,-8172,1309,1125,53,113,71,1,7,11
4.01E+03,-8173,1311,1135,45,113,71,1,7,11
4.01E+03,-8170,1314,1139,37,113,72,1,7,11
4.01E+03,-8169,1313,1148,33,112,71,1,7,11
4.01E+03,-8170,1309,1144,35,112,65,1,7,11
4.01E+03,-8166,1306,1146,39,113,61,1,7,11
4.01E+03,-8165,1306,1144,43,116,58,1,7,11
4.01E+03,-8166,1309,1141,46,118,54,1,7,11
4.01E+03,-8173,1316,1136,49,122,50,1,7,11
4.01E+03,-8167,1313,1131,50,120,47,1,7,11
4.01E+03,-8166,1319,1125,44,120,45,1,7,11
4.01E+03,-8168,1316,1123,35,121,44,1,7,11
4.01E+03,-8174,1312,1129,29,122,42,1,7,11
4.01E+03,-8178,1303,1131,25,120,40,1,7,11
4.01E+03,-8180,1301,1129,27,108,38,1,7,11
4.01E+03,-8179,1289,1129,28,100,34,1,7,11
4.01E+03,-8177,1023,1133,29,96,31,1,7,11
4.01E+03,-8180,1017,1139,31,86,27,1,7,11
4.01E+03,-8453,1280,1149,30,74,21,1,7,11
4.01E+03,-8463,1288,900,32,50,31,1,7,11
4.01E+03,-8191,1294,1150,34,28,51,1,7,11
4.01E+03,-8164,1294,1143,32,28,71,1,7,11
4.01E+03,-8156,1291,1143,37,47,85,1,7,11
4.01E+03,-8143,1283,896,43,68,86,1,7,11
4.01E+03,-8148,1287,904,51,85,80,1,7,11
4.01E+03,-8165,1297,912,59,91,69,1,7,11
4.01E+03,-8174,1304,905,60,88,62,1,7,11
4.01E+03,-8169,1309,900,51,88,61,1,7,11
4.01E+03,-8165,1304,902,39,91,56,1,7,11
4.01E+03,-8169,1298,913,31,99,49,1,7,11
4.01E+03,-8177,1283,917,24,104,44,1,7,11
4.01E+03,-8181,1286,921,26,108,42,1,7,11
4.01E+03,-8168,1282,907,29,109,49,1,7,11
4.01E+03,-8169,1281,915,27,121,51,1,7,11
4.01E+03,-8182,1016,921,24,-126,54,1,7,11
4.01E+03,-8450,1011,930,27,122,53,1,7,11
4.01E+03,-8188,1012,928,33,109,55,1,7,11
4.01E+03,-8175,1014,927,41,103,59,1,7,11
4.01E+03,-8172,1022,924,46,105,63,1,7,11
4.02E+03,-8165,1286,914,48,116,71,1,7,11
4.02E+03,-8168,1291,912,48,127,79,1,7,11
4.02E+03,-8174,1295,910,48,-125,85,1,7,11
4.02E+03,-8177,1299,920,45,-126,88,1,7,11
4.02E+03,-8171,1297,913,40,-128,91,1,7,11
4.02E+03,-8172,1300,906,32,124,89,1,7,11
4.02E+03,-8171,1302,901,26,121,85,1,7,11
4.02E+03,-8174,1304,903,21,117,80,1,7,11
4.02E+03,-8178,1300,905,21,116,75,1,7,11
4.02E+03,-8174,1296,904,24,115,73,1,7,11
4.02E+03,-8167,1293,904,33,116,71,1,7,11
4.02E+03,-8165,1294,908,40,117,69,1,7,11
4.02E+03,-8167,1298,912,47,118,65,1,7,11
4.02E+03,-8168,1304,906,52,118,62,1,7,11
4.02E+03,-8167,1306,903,55,120,60,1,7,11
4.02E+03,-8167,1308,1150,51,124,61,1,7,11
4.02E+03,-8166,1306,1151,43,126,64,1,7,11
4.02E+03,-8164,1303,901,37,127,65,1,7,11
4.02E+03,-8169,1301,907,35,-125,59,1,7,11
4.02E+03,-8173,1295,900,31,126,54,1,7,11
4.02E+03,-8174,1294,1149,36,120,48,1,7,11
4.02E+03,-8180,1293,1147,32,118,43,1,7,11
4.02E+03,-8180,1293,1141,32,112,43,1,7,11
4.02E+03,-8186,1023,901,27,109,38,1,7,11
4.02E+03,-8464,1282,917,20,93,39,1,7,11
4.02E+03,-8461,1288,920,23,62,53,1,7,11
4.02E+03,-8191,1287,905,26,45,76,1,7,11
4.02E+03,-8170,1287,899,27,48,94,1,7,11
4.02E+03,-8157,1287,900,36,63,103,1,7,11
4.02E+03,-8157,1286,904,43,81,100,1,7,11
4.02E+03,-8167,1284,920,53,93,94,1,7,11
4.02E+03,-8171,1285,923,64,87,86,1,7,11
4.02E+03,-8160,1294,914,68,86,76,1,7,11
4.02E+03,-8152,1296,904,63,89,69,1,7,11
4.02E+03,-8156,1297,910,56,100,60,1,7,11
4.02E+03,-8162,1295,921,48,108,54,1,7,11
4.02E+03,-8161,1302,925,44,113,51,1,7,11
4.02E+03,-8163,1306,917,42,116,54,1,7,11
4.02E+03,-8161,1303,911,37,122,61,1,7,11
4.02E+03,-8168,1292,926,30,-126,66,1,7,11
4.03E+03,-8178,1283,933,25,-126,68,1,7,11
4.03E+03,-8182,1023,934,26,121,71,1,7,11
4.03E+03,-8180,1019,938,35,111,69,1,7,11
4.03E+03,-8174,1283,934,46,106,65,1,7,11
4.03E+03,-8172,1288,934,54,108,67,1,7,11
4.03E+03,-8166,1289,929,63,117,72,1,7,11
4.03E+03,-8168,1300,929,72,125,78,1,7,11
4.03E+03,-8177,1303,929,73,-125,86,1,7,11
4.03E+03,-8175,1307,930,71,-123,94,1,7,11
4.03E+03,-8174,1313,933,64,-121,95,1,7,11
4.03E+03,-8173,1313,924,54,-122,90,1,7,11
4.03E+03,-8169,1316,920,44,-125,84,1,7,11
4.03E+03,-8170,1310,926,36,-127,81,1,7,11
4.03E+03,-8164,1306,915,33,-127,77,1,7,11
4.03E+03,-8163,1300,913,32,-125,74,1,7,11
4.03E+03,-8161,1298,913,38,-122,71,1,7,11
4.03E+03,-8166,1299,905,46,-120,67,1,7,11
4.03E+03,-8165,1300,905,51,-116,61,1,7,11
4.03E+03,-8169,1306,909,53,-113,57,1,7,11
4.03E+03,-8169,1307,906,54,-116,58,1,7,11
4.03E+03,-8166,1308,903,51,-118,58,1,7,11
4.03E+03,-8162,1312,1150,45,-116,61,1,7,11
4.03E+03,-8163,1313,1148,37,-110,65,1,7,11
4.03E+03,-8161,1314,1147,31,-102,68,1,7,11
4.03E+03,-8163,1303,1150,27,-97,71,1,7,11
4.03E+03,-8171,1300,897,27,-96,67,1,7,11
4.03E+03,-8173,1296,1150,31,-104,61,1,7,11
4.03E+03,-8174,1302,1149,40,-111,61,1,7,11
4.03E+03,-8173,1299,1149,38,-121,59,1,7,11
4.03E+03,-8178,1296,1140,39,126,54,1,7,11
4.03E+03,-8184,1295,1144,32,113,51,1,7,11
4.03E+03,-8449,1297,901,25,90,51,1,7,11
4.03E+03,-8188,1297,901,26,60,62,1,7,11
4.03E+03,-8173,1300,896,27,47,79,1,7,11
4.03E+03,-8156,1294,896,31,55,93,1,7,11
4.03E+03,-8148,1296,900,40,70,94,1,7,11
4.03E+03,-8150,1295,912,47,85,89,1,7,11
4.03E+03,-8156,1298,917,57,90,78,1,7,11
4.03E+03,-8164,1310,913,65,85,71,1,7,11
4.03E+03,-8154,1313,914,65,80,64,1,7,11
4.04E+03,-8148,1315,915,62,88,56,1,7,11
4.04E+03,-8150,1310,915,53,98,51,1,7,11
4.04E+03,-8156,1307,921,49,107,45,1,7,11
4.04E+03,-8163,1308,914,43,113,45,1,7,11
4.04E+03,-8165,1310,916,42,117,52,1,7,11
4.04E+03,-8166,1306,914,36,121,64,1,7,11
4.04E+03,-8170,1302,920,30,121,72,1,7,11
4.04E+03,-8183,1298,924,25,117,72,1,7,11
4.04E+03,-8181,1291,929,30,105,67,1,7,11
4.04E+03,-8176,1288,936,40,96,63,1,7,11
4.04E+03,-8171,1283,925,52,89,61,1,7,11
4.04E+03,-8167,1285,926,64,90,63,1,7,11
4.04E+03,-8167,1292,917,76,97,69,1,7,11
4.04E+03,-8170,1305,915,85,100,76,1,7,11
4.04E+03,-8173,1314,916,87,103,90,1,7,11
4.04E+03,-8188,1317,926,83,98,106,1,7,11
4.04E+03,-8189,1321,924,82,80,-118,1,7,11
4.04E+03,-8180,1321,929,81,66,-92,1,7,11
4.04E+03,-8170,1326,923,76,61,-84,1,7,11
4.04E+03,-8171,1329,933,69,59,-91,1,7,11
4.04E+03,-8171,1324,930,68,59,-98,1,7,11
4.04E+03,-8163,1324,931,72,58,-107,1,7,11
4.04E+03,-8150,1324,929,79,58,-118,1,7,11
4.04E+03,-8145,1327,928,86,66,124,1,7,11
4.04E+03,-8147,1327,928,93,75,111,1,7,11
4.04E+03,-8142,1334,928,96,86,97,1,7,11
4.04E+03,-8152,1336,928,91,96,82,1,7,11
4.04E+03,-8149,1339,932,84,99,72,1,7,11
4.04E+03,-8144,1342,934,71,109,67,1,7,11
4.04E+03,-8150,1350,938,61,122,64,1,7,11
4.04E+03,-8152,1344,923,48,-120,63,1,7,11
4.04E+03,-8159,1343,930,42,-110,67,1,7,11
4.04E+03,-8162,1344,931,36,-103,70,1,7,11
4.04E+03,-8166,1341,932,30,-97,65,1,7,11
4.04E+03,-8170,1336,943,30,-99,57,1,7,11
4.04E+03,-8166,1336,931,32,-104,49,1,7,11
4.04E+03,-8177,1335,925,25,-105,43,1,7,11
4.04E+03,-8180,1329,922,22,-113,40,1,7,11
4.04E+03,-8188,1322,924,15,-121,37,1,7,11
4.04E+03,-8452,1321,941,8,114,38,1,7,11
4.05E+03,-8190,1323,933,13,88,50,1,7,11
4.05E+03,-8173,1322,924,18,80,71,1,7,11
4.05E+03,-8152,1323,913,24,90,88,1,7,11
4.05E+03,-8136,1329,918,33,111,92,1,7,11
4.05E+03,-8140,1332,919,40,-120,88,1,7,11
4.05E+03,-8154,1334,924,47,-108,78,1,7,11
4.05E+03,-8157,1344,932,54,-111,68,1,7,11
4.05E+03,-8149,1349,927,51,-115,65,1,7,11
4.05E+03,-8143,1351,918,40,-106,59,1,7,11
4.05E+03,-8150,1346,908,29,-94,55,1,7,11
4.05E+03,-8167,1346,907,19,-87,51,1,7,11
4.05E+03,-8171,1346,908,13,-87,52,1,7,11
4.05E+03,-8173,1344,906,10,-87,62,1,7,11
4.05E+03,-8173,1337,909,4,-92,68,1,7,11
4.05E+03,-8177,1324,912,3,-93,65,1,7,11
4.05E+03,-8189,1310,918,9,-102,62,1,7,11
4.05E+03,-8183,1313,916,21,-117,58,1,7,11
4.05E+03,-8177,1313,901,43,123,57,1,7,11
4.05E+03,-8174,1320,899,55,119,60,1,7,11
4.05E+03,-8170,1325,904,64,120,68,1,7,11
4.05E+03,-8171,1331,905,70,127,76,1,7,11
4.05E+03,-8167,1336,910,72,125,85,1,7,11
4.05E+03,-8166,1341,901,68,125,93,1,7,11
4.05E+03,-8166,1345,896,59,127,96,1,7,11
4.05E+03,-8168,1342,902,50,122,93,1,7,11
4.05E+03,-8168,1341,901,40,122,89,1,7,11
4.05E+03,-8167,1337,909,35,120,85,1,7,11
4.05E+03,-8160,1336,915,35,118,79,1,7,11
4.05E+03,-8158,1331,917,37,117,77,1,7,11
4.05E+03,-8155,1333,909,43,119,76,1,7,11
4.05E+03,-8158,1335,910,48,121,75,1,7,11
4.05E+03,-8162,1336,914,52,122,74,1,7,11
4.05E+03,-8159,1337,920,54,123,75,1,7,11
4.05E+03,-8154,1337,907,58,123,75,1,7,11
4.05E+03,-8150,1346,897,61,-127,76,1,7,11
4.05E+03,-8152,1351,909,61,-120,77,1,7,11
4.05E+03,-8155,1356,909,55,-111,76,1,7,11
4.05E+03,-8160,1352,903,50,-104,77,1,7,11
4.05E+03,-8166,1351,900,46,-100,68,1,7,11
4.05E+03,-8172,1348,1150,44,-98,60,1,7,11
4.06E+03,-8166,1344,897,45,-105,55,1,7,11
4.06E+03,-8167,1337,902,39,-108,52,1,7,11
4.06E+03,-8166,1326,898,36,-111,49,1,7,11
4.06E+03,-8176,1327,896,30,-115,43,1,7,11
4.06E+03,-8454,1331,907,25,-125,40,1,7,11
4.06E+03,-8459,1340,903,27,102,53,1,7,11
4.06E+03,-8181,1340,1139,30,80,72,1,7,11
4.06E+03,-8158,1337,1138,32,84,86,1,7,11
4.06E+03,-8146,1330,1144,38,98,91,1,7,11
4.06E+03,-8149,1325,1141,47,117,84,1,7,11
4.06E+03,-8160,1328,896,55,-127,75,1,7,11
4.06E+03,-8171,1340,1148,63,-128,69,1,7,11
4.06E+03,-8166,1351,1132,63,121,67,1,7,11
4.06E+03,-8162,1349,1141,57,120,70,1,7,11
4.06E+03,-8164,1348,1139,49,122,67,1,7,11
4.06E+03,-8171,1341,1142,42,126,63,1,7,11
4.06E+03,-8172,1341,1140,36,123,62,1,7,11
4.06E+03,-8175,1346,1138,37,121,64,1,7,11
4.06E+03,-8162,1343,1138,30,122,67,1,7,11
4.06E+03,-8169,1329,1145,26,125,63,1,7,11
4.06E+03,-8180,1323,906,26,117,58,1,7,11
4.06E+03,-8183,1313,907,32,102,53,1,7,11
4.06E+03,-8174,1314,902,43,90,51,1,7,11
4.06E+03,-8164,1328,1141,57,84,52,1,7,11
4.06E+03,-8160,1335,1146,61,90,59,1,7,11
4.06E+03,-8168,1335,898,64,101,69,1,7,11
4.06E+03,-8170,1344,904,66,105,80,1,7,11
4.06E+03,-8169,1347,903,61,101,84,1,7,11
4.06E+03,-8165,1351,896,59,95,83,1,7,11
4.06E+03,-8164,1354,897,50,93,80,1,7,11
4.06E+03,-8167,1348,903,42,90,76,1,7,11
4.06E+03,-8163,1348,905,39,89,73,1,7,11
4.06E+03,-8162,1348,909,37,86,71,1,7,11
4.06E+03,-8164,1348,917,39,84,70,1,7,11
4.06E+03,-8155,1349,922,45,85,68,1,7,11
4.06E+03,-8159,1349,914,48,91,69,1,7,11
4.06E+03,-8162,1347,915,54,93,65,1,7,11
4.06E+03,-8161,1349,909,57,96,58,1,7,11
4.06E+03,-8163,1351,911,58,99,49,1,7,11
4.06E+03,-8160,1356,911,55,104,43,1,7,11
4.07E+03,-8158,1359,905,45,108,46,1,7,11
4.07E+03,-8162,1352,902,32,114,48,1,7,11
4.07E+03,-8165,1348,907,22,117,50,1,7,11
4.07E+03,-8167,1341,908,16,117,49,1,7,11
4.07E+03,-8168,1337,909,15,111,46,1,7,11
4.07E+03,-8164,1328,901,16,106,45,1,7,11
4.07E+03,-8167,1324,908,17,106,42,1,7,11
4.07E+03,-8171,1324,910,18,99,43,1,7,11
4.07E+03,-8177,1316,922,16,88,40,1,7,11
4.07E+03,-8189,1318,927,13,63,42,1,7,11
4.07E+03,-8184,1326,927,15,35,63,1,7,11
4.07E+03,-8170,1327,917,21,22,84,1,7,11
4.07E+03,-8153,1326,913,26,30,104,1,7,11
4.07E+03,-8139,1324,917,34,46,111,1,7,11
4.07E+03,-8144,1324,922,46,66,110,1,7,11
4.07E+03,-8158,1325,930,56,78,102,1,7,11
4.07E+03,-8168,1332,936,71,80,96,1,7,11
4.07E+03,-8155,1334,928,77,75,89,1,7,11
4.07E+03,-8144,1340,919,76,77,79,1,7,11
4.07E+03,-8151,1348,915,71,90,71,1,7,11
4.07E+03,-8156,1351,920,62,95,65,1,7,11
4.07E+03,-8155,1349,929,52,99,64,1,7,11
4.07E+03,-8152,1353,933,48,101,70,1,7,11
4.07E+03,-8149,1351,937,40,107,75,1,7,11
4.07E+03,-8157,1339,936,33,114,78,1,7,11
4.07E+03,-8168,1331,951,32,114,76,1,7,11
4.07E+03,-8173,1330,960,41,106,71,1,7,11
4.07E+03,-8174,1328,961,53,98,67,1,7,11
4.07E+03,-8169,1334,950,65,93,64,1,7,11
4.07E+03,-8166,1340,945,71,97,67,1,7,11
4.07E+03,-8155,1346,948,77,107,73,1,7,11
4.07E+03,-8162,1356,949,84,123,79,1,7,11
4.07E+03,-8165,1359,957,80,-126,88,1,7,11
4.07E+03,-8161,1364,958,70,-123,94,1,7,11
4.07E+03,-8162,1364,947,62,-121,94,1,7,11
4.07E+03,-8158,1366,947,50,-119,90,1,7,11
4.07E+03,-8159,1364,944,41,-117,85,1,7,11
4.07E+03,-8160,1366,940,35,-121,79,1,7,11
4.07E+03,-8158,1363,941,33,-121,76,1,7,11
4.07E+03,-8156,1359,937,36,-118,73,1,7,11
4.08E+03,-8150,1353,940,40,-116,70,1,7,11
4.08E+03,-8153,1355,932,48,-111,64,1,7,11
4.08E+03,-8155,1357,933,54,-104,57,1,7,11
4.08E+03,-8158,1357,925,54,-102,52,1,7,11
4.08E+03,-8156,1364,922,54,-101,49,1,7,11
4.08E+03,-8156,1364,919,48,-99,47,1,7,11
4.08E+03,-8154,1367,914,42,-92,46,1,7,11
4.08E+03,-8163,1365,912,32,-88,46,1,7,11
4.08E+03,-8164,1357,912,24,-85,49,1,7,11
4.08E+03,-8170,1345,915,19,-82,47,1,7,11
4.08E+03,-8173,1335,911,19,-82,42,1,7,11
4.08E+03,-8181,1338,903,25,-89,40,1,7,11
4.08E+03,-8172,1340,896,32,-100,38,1,7,11
4.08E+03,-8175,1334,901,33,-107,35,1,7,11
4.08E+03,-8180,1334,1149,31,-116,32,1,7,11
4.08E+03,-8189,1327,903,23,121,31,1,7,11
4.08E+03,-8454,1332,907,20,90,37,1,7,11
4.08E+03,-8192,1331,900,20,63,56,1,7,11
4.08E+03,-8173,1336,1144,24,55,78,1,7,11
4.08E+03,-8159,1332,1148,29,62,91,1,7,11
4.08E+03,-8152,1335,902,37,75,96,1,7,11
4.08E+03,-8155,1338,904,46,87,94,1,7,11
4.08E+03,-8162,1341,915,55,84,87,1,7,11
4.08E+03,-8163,1345,916,64,74,80,1,7,11
4.08E+03,-8154,1347,912,66,70,74,1,7,11
4.08E+03,-8144,1346,915,63,78,65,1,7,11
4.08E+03,-8148,1350,916,59,88,55,1,7,11
4.08E+03,-8155,1353,920,55,98,49,1,7,11
4.08E+03,-8161,1352,920,54,106,50,1,7,11
4.08E+03,-8161,1358,923,50,109,61,1,7,11
4.08E+03,-8166,1352,928,40,112,72,1,7,11
4.08E+03,-8169,1338,941,29,112,80,1,7,11
4.08E+03,-8173,1333,937,27,104,77,1,7,11
4.08E+03,-8177,1322,944,31,95,73,1,7,11
4.08E+03,-8175,1321,948,41,85,67,1,7,11
4.08E+03,-8170,1327,949,57,82,63,1,7,11
4.08E+03,-8159,1326,949,72,86,66,1,7,11
4.08E+03,-8154,1339,944,86,93,71,1,7,11
4.08E+03,-8159,1350,936,94,103,78,1,7,11
4.08E+03,-8164,1363,928,93,109,88,1,7,11
4.09E+03,-8167,1370,924,83,108,95,1,7,11
4.09E+03,-8165,1372,921,69,110,97,1,7,11
4.09E+03,-8165,1364,927,51,110,98,1,7,11
4.09E+03,-8162,1360,929,39,109,92,1,7,11
4.09E+03,-8163,1357,931,31,110,86,1,7,11
4.09E+03,-8158,1350,940,29,111,84,1,7,11
4.09E+03,-8155,1346,942,35,114,81,1,7,11
4.09E+03,-8152,1344,943,44,114,77,1,7,11
4.09E+03,-8150,1345,935,55,117,77,1,7,11
4.09E+03,-8152,1352,925,64,121,77,1,7,11
4.09E+03,-8151,1361,925,66,126,76,1,7,11
4.09E+03,-8155,1366,922,61,-128,76,1,7,11
4.09E+03,-8156,1370,913,52,125,76,1,7,11
4.09E+03,-8152,1372,923,43,125,78,1,7,11
4.09E+03,-8154,1374,918,36,125,78,1,7,11
4.09E+03,-8155,1372,923,31,126,80,1,7,11
4.09E+03,-8159,1362,927,32,-128,80,1,7,11
4.09E+03,-8159,1360,926,37,127,79,1,7,11
4.09E+03,-8154,1349,933,44,126,72,1,7,11
4.09E+03,-8157,1349,933,53,122,62,1,7,11
4.09E+03,-8157,1361,933,65,117,55,1,7,11
4.09E+03,-8158,1359,939,63,117,51,1,7,11
4.09E+03,-8153,1364,928,59,119,51,1,7,11
4.09E+03,-8164,1367,931,45,117,50,1,7,11
4.09E+03,-8179,1363,936,29,104,55,1,7,11
4.09E+03,-8181,1367,934,19,88,71,1,7,11
4.09E+03,-8157,1376,928,12,83,94,1,7,11
4.09E+03,-8141,1369,936,11,95,106,1,7,11
4.09E+03,-8129,1364,935,14,120,107,1,7,11
4.09E+03,-8127,1359,936,20,-113,98,1,7,11
4.09E+03,-8136,1363,935,32,-98,83,1,7,11
4.09E+03,-8141,1364,942,39,-98,69,1,7,11
4.09E+03,-8144,1372,924,43,-96,57,1,7,11
4.09E+03,-8145,1373,923,37,-88,50,1,7,11
4.09E+03,-8148,1371,918,30,-72,45,1,7,11
4.09E+03,-8162,1371,916,23,-63,42,1,7,11
4.09E+03,-8167,1367,919,16,-60,43,1,7,11
4.09E+03,-8175,1373,916,15,-57,51,1,7,11
4.09E+03,-8167,1367,908,8,-60,62,1,7,11
4.09E+03,-8163,1355,905,1,-58,62,1,7,11
4.10E+03,-8176,1344,910,0,-63,61,1,7,11
4.10E+03,-8168,1339,906,9,-74,55,1,7,11
4.10E+03,-8170,1341,911,23,-83,49,1,7,11
4.10E+03,-8166,1341,905,38,-88,50,1,7,11
4.10E+03,-8165,1346,904,50,-86,58,1,7,11
4.10E+03,-8163,1355,1150,60,-79,68,1,7,11
4.10E+03,-8166,1368,1143,65,-75,74,1,7,11
4.10E+03,-8164,1377,1140,64,-75,80,1,7,11
4.10E+03,-8163,1383,1133,54,-78,83,1,7,11
4.10E+03,-8159,1386,1128,44,-82,82,1,7,11
4.10E+03,-8160,1384,1121,34,-84,77,1,7,11
4.10E+03,-8165,1372,1125,25,-85,71,1,7,11
4.10E+03,-8164,1369,1129,20,-88,60,1,7,11
4.10E+03,-8163,1368,1131,22,-91,60,1,7,11
4.10E+03,-8156,1363,1134,29,-95,59,1,7,11
4.10E+03,-8162,1362,1137,38,-96,60,1,7,11
4.10E+03,-8161,1360,1134,45,-97,58,1,7,11
4.10E+03,-8166,1362,1128,49,-100,58,1,7,11
4.10E+03,-8161,1363,1129,51,-105,61,1,7,11
4.10E+03,-8162,1361,1126,55,-106,61,1,7,11
4.10E+03,-8154,1368,1117,64,-107,62,1,7,11
4.10E+03,-8156,1369,1116,63,-102,70,1,7,11
4.10E+03,-8157,1364,1113,56,-101,72,1,7,11
4.10E+03,-8161,1369,1111,53,-97,73,1,7,11
4.10E+03,-8172,1367,1113,45,-95,64,1,7,11
4.10E+03,-8179,1360,1113,44,-102,61,1,7,11
4.10E+03,-8178,1361,1113,49,-115,57,1,7,11
4.10E+03,-8177,1354,1122,47,-120,52,1,7,11
4.10E+03,-8171,1355,1126,48,-128,51,1,7,11
4.10E+03,-8176,1353,1132,43,121,46,1,7,11
4.10E+03,-8192,1366,1141,36,109,42,1,7,11
4.10E+03,-8457,1373,1123,36,80,50,1,7,11
4.10E+03,-8180,1368,1107,34,59,69,1,7,11
4.10E+03,-8159,1363,1106,33,64,87,1,7,11
4.10E+03,-8146,1362,1112,36,80,93,1,7,11
4.10E+03,-8146,1357,1122,44,96,88,1,7,11
4.10E+03,-8158,1361,1133,50,107,72,1,7,11
4.10E+03,-8160,1374,1128,57,97,57,1,7,11
4.10E+03,-8160,1380,1129,52,87,54,1,7,11
4.10E+03,-8157,1368,1128,45,86,50,1,7,11
4.11E+03,-8151,1363,1130,39,88,42,1,7,11
4.11E+03,-8160,1359,1129,38,88,37,1,7,11
4.11E+03,-8165,1364,1139,39,89,33,1,7,11
4.11E+03,-8154,1369,1135,42,83,39,1,7,11
4.11E+03,-8149,1360,1132,38,92,43,1,7,11
4.11E+03,-8162,1354,1141,34,102,41,1,7,11
4.11E+03,-8171,1350,1149,34,96,40,1,7,11
4.11E+03,-8168,1346,1146,41,83,42,1,7,11
4.11E+03,-8160,1347,1143,46,80,43,1,7,11
4.11E+03,-8155,1352,1139,48,84,47,1,7,11
4.11E+03,-8155,1350,1137,46,95,55,1,7,11
4.11E+03,-8164,1353,1146,46,106,60,1,7,11
4.11E+03,-8163,1355,896,45,113,66,1,7,11
4.11E+03,-8166,1354,1149,43,111,69,1,7,11
4.11E+03,-8165,1355,1144,39,110,68,1,7,11
4.11E+03,-8163,1361,1144,34,108,63,1,7,11
4.11E+03,-8165,1359,1147,29,107,56,1,7,11
4.11E+03,-8165,1356,1148,23,105,52,1,7,11
4.11E+03,-8161,1355,898,24,103,52,1,7,11
4.11E+03,-8158,1344,1151,26,104,54,1,7,11
4.11E+03,-8157,1344,1149,29,106,54,1,7,11
4.11E+03,-8158,1343,902,34,108,55,1,7,11
4.11E+03,-8159,1342,1151,39,107,57,1,7,11
4.11E+03,-8157,1346,1143,46,109,58,1,7,11
4.11E+03,-8150,1349,1143,53,116,57,1,7,11
4.11E+03,-8152,1351,1137,57,124,62,1,7,11
4.11E+03,-8150,1353,1131,57,-123,67,1,7,11
4.11E+03,-8149,1361,1134,55,-115,70,1,7,11
4.11E+03,-8153,1363,1140,51,-108,69,1,7,11
4.11E+03,-8156,1363,1138,47,-107,65,1,7,11
4.11E+03,-8163,1369,1129,44,-110,65,1,7,11
4.11E+03,-8165,1361,1122,33,-107,61,1,7,11
4.11E+03,-8163,1358,1121,26,-108,58,1,7,11
4.11E+03,-8169,1350,1121,11,-117,51,1,7,11
4.11E+03,-8187,1349,1130,1,121,45,1,7,11
4.11E+03,-8450,1351,1141,5,91,48,1,7,11
4.11E+03,-8176,1351,1129,8,72,58,1,7,11
4.11E+03,-8159,1350,1124,18,75,69,1,7,11
4.11E+03,-8151,1347,1130,31,85,72,1,7,11
4.11E+03,-8149,1345,1132,42,99,70,1,7,11
4.12E+03,-8158,1342,1131,52,103,65,1,7,11
4.12E+03,-8162,1349,1136,61,94,57,1,7,11
4.12E+03,-8162,1353,1127,62,84,48,1,7,11
4.12E+03,-8156,1352,1126,56,84,37,1,7,11
4.12E+03,-8160,1350,1136,46,98,33,1,7,11
4.12E+03,-8163,1344,1150,43,103,34,1,7,11
4.12E+03,-8165,1337,897,43,103,40,1,7,11
4.12E+03,-8164,1339,1149,44,103,52,1,7,11
4.12E+03,-8168,1343,1148,42,108,62,1,7,11
4.12E+03,-8173,1333,1148,37,110,69,1,7,11
4.12E+03,-8178,1329,1146,40,103,69,1,7,11
4.12E+03,-8179,1325,899,46,91,68,1,7,11
4.12E+03,-8182,1324,1149,53,80,67,1,7,11
4.12E+03,-8171,1332,1145,60,77,68,1,7,11
4.12E+03,-8161,1332,1151,67,81,72,1,7,11
4.12E+03,-8165,1337,897,74,91,77,1,7,11
4.12E+03,-8165,1343,1148,75,98,84,1,7,11
4.12E+03,-8172,1351,899,74,96,91,1,7,11
4.12E+03,-8171,1354,898,69,94,95,1,7,11
4.12E+03,-8167,1356,899,60,94,99,1,7,11
4.12E+03,-8160,1359,904,52,94,96,1,7,11
4.12E+03,-8162,1358,907,48,93,93,1,7,11
4.12E+03,-8158,1356,909,44,92,90,1,7,11
4.12E+03,-8161,1359,908,45,89,90,1,7,11
4.12E+03,-8157,1357,906,47,89,92,1,7,11
4.12E+03,-8154,1359,905,55,91,91,1,7,11
4.12E+03,-8152,1361,912,62,96,87,1,7,11
4.12E+03,-8153,1364,907,67,99,85,1,7,11
4.12E+03,-8152,1362,906,70,100,85,1,7,11
4.12E+03,-8154,1368,905,70,104,85,1,7,11
4.12E+03,-8154,1375,899,69,107,84,1,7,11
4.12E+03,-8154,1375,898,61,113,87,1,7,11
4.12E+03,-8156,1366,904,53,121,89,1,7,11
4.12E+03,-8156,1367,908,45,125,87,1,7,11
4.12E+03,-8168,1360,904,40,-128,78,1,7,11
4.12E+03,-8171,1368,900,41,126,69,1,7,11
4.12E+03,-8171,1363,899,42,120,63,1,7,11
4.12E+03,-8175,1364,1147,36,117,55,1,7,11
4.12E+03,-8184,1363,1144,30,109,50,1,7,11
4.12E+03,-8453,1358,1149,19,95,48,1,7,11
4.13E+03,-8451,1357,896,9,68,59,1,7,11
4.13E+03,-8183,1348,899,8,38,75,1,7,11
4.13E+03,-8165,1345,903,12,27,92,1,7,11
4.13E+03,-8150,1344,905,21,41,99,1,7,11
4.13E+03,-8143,1341,911,34,57,98,1,7,11
4.13E+03,-8151,1341,922,54,66,90,1,7,11
4.13E+03,-8158,1353,931,72,66,81,1,7,11
4.13E+03,-8152,1364,928,80,63,74,1,7,11
4.13E+03,-8141,1368,913,79,69,70,1,7,11
4.13E+03,-8139,1369,915,72,81,65,1,7,11
4.13E+03,-8146,1378,918,65,94,59,1,7,11
4.13E+03,-8156,1380,923,56,104,62,1,7,11
4.13E+03,-8166,1383,922,47,112,68,1,7,11
4.13E+03,-8166,1384,923,34,115,80,1,7,11
4.13E+03,-8164,1372,929,24,116,86,1,7,11
4.13E+03,-8171,1357,939,15,115,86,1,7,11
4.13E+03,-8174,1350,942,21,104,80,1,7,11
4.13E+03,-8172,1343,952,32,95,77,1,7,11
4.13E+03,-8167,1347,948,50,81,73,1,7,11
4.13E+03,-8162,1361,941,66,78,74,1,7,11
4.13E+03,-8160,1360,938,80,83,77,1,7,11
4.13E+03,-8157,1375,940,90,90,80,1,7,11
4.13E+03,-8158,1388,941,92,97,87,1,7,11
4.13E+03,-8165,1397,942,85,96,95,1,7,11
4.13E+03,-8163,1396,938,72,93,101,1,7,11
4.13E+03,-8155,1392,937,57,89,105,1,7,11
4.13E+03,-8156,1389,930,44,85,103,1,7,11
4.13E+03,-8154,1381,942,37,86,99,1,7,11
4.13E+03,-8155,1375,948,39,85,92,1,7,11
4.13E+03,-8158,1370,950,47,87,88,1,7,11
4.13E+03,-8148,1370,962,58,92,83,1,7,11
4.13E+03,-8142,1371,955,71,100,79,1,7,11
4.13E+03,-8139,1379,950,82,112,74,1,7,11
4.13E+03,-8144,1385,952,87,122,73,1,7,11
4.13E+03,-8144,1390,941,85,-125,70,1,7,11
4.13E+03,-8137,1402,936,78,-113,66,1,7,11
4.13E+03,-8139,1406,934,66,-97,66,1,7,11
4.13E+03,-8147,1155,937,47,-82,68,1,7,11
4.13E+03,-8149,1405,936,25,-71,69,1,7,11
4.13E+03,-8152,1393,931,9,-64,68,1,7,11
4.14E+03,-8161,1387,937,-258,-58,60,1,7,11
4.14E+03,-8165,1379,936,-259,-59,53,1,7,11
4.14E+03,-8169,1377,929,2,-65,44,1,7,11
4.14E+03,-8165,1366,931,1,-66,36,1,7,11
4.14E+03,-8166,1362,917,7,-72,34,1,7,11
4.14E+03,-8175,1357,916,5,-83,29,1,7,11
4.14E+03,-8450,1362,926,5,-101,31,1,7,11
4.14E+03,-8452,1369,926,10,-128,53,1,7,11
4.14E+03,-8172,1372,913,15,110,77,1,7,11
4.14E+03,-8150,1368,908,22,121,97,1,7,11
4.14E+03,-8139,1370,907,29,-113,104,1,7,11
4.14E+03,-8141,1370,910,34,-90,100,1,7,11
4.14E+03,-8154,1377,908,44,-85,89,1,7,11
4.14E+03,-8160,1383,907,48,-92,79,1,7,11
4.14E+03,-8160,1391,1151,47,-101,74,1,7,11
4.14E+03,-8152,1393,1141,40,-97,72,1,7,11
4.14E+03,-8152,1390,1141,28,-88,65,1,7,11
4.14E+03,-8160,1392,1144,20,-82,57,1,7,11
4.14E+03,-8166,1393,1151,18,-80,52,1,7,11
4.14E+03,-8160,1390,1149,18,-85,53,1,7,11
4.14E+03,-8157,1379,1151,16,-89,57,1,7,11
4.14E+03,-8172,1369,899,13,-88,54,1,7,11
4.14E+03,-8181,1362,905,18,-96,49,1,7,11
4.14E+03,-8181,1360,906,25,-107,44,1,7,11
4.14E+03,-8178,1360,899,32,-120,44,1,7,11
4.14E+03,-8171,1366,1143,45,-126,51,1,7,11
4.14E+03,-8169,1365,1131,51,-126,60,1,7,11
4.14E+03,-8167,1372,1145,59,-122,68,1,7,11
4.14E+03,-8171,1379,1145,64,-118,76,1,7,11
4.14E+03,-8170,1383,1142,65,-121,81,1,7,11
4.14E+03,-8172,1382,1143,62,127,81,1,7,11
4.14E+03,-8176,1376,1144,55,123,80,1,7,11
4.14E+03,-8171,1380,1144,48,118,78,1,7,11
4.14E+03,-8164,1377,1147,42,114,75,1,7,11
4.14E+03,-8166,1373,1150,43,110,74,1,7,11
4.14E+03,-8164,1369,1146,45,108,72,1,7,11
4.14E+03,-8161,1369,1148,51,107,70,1,7,11
4.14E+03,-8157,1377,1142,58,107,69,1,7,11
4.14E+03,-8156,1380,898,59,108,68,1,7,11
4.14E+03,-8155,1379,1151,64,110,67,1,7,11
4.15E+03,-8152,1386,896,66,116,65,1,7,11
4.15E+03,-8153,1394,1148,65,124,67,1,7,11
4.15E+03,-8149,1393,1144,57,-124,70,1,7,11
4.15E+03,-8144,1398,1133,50,-116,71,1,7,11
4.15E+03,-8151,1398,1133,41,-108,63,1,7,11
4.15E+03,-8158,1391,1132,35,-106,57,1,7,11
4.15E+03,-8156,1383,1130,35,-109,50,1,7,11
4.15E+03,-8165,1379,1133,31,-109,47,1,7,11
4.15E+03,-8161,1374,1125,32,-116,44,1,7,11
4.15E+03,-8181,1372,1126,29,-118,34,1,7,11
4.15E+03,-8452,1376,1137,24,117,35,1,7,11
4.15E+03,-8188,1380,1129,22,90,51,1,7,11
4.15E+03,-8168,1383,1123,21,79,66,1,7,11
4.15E+03,-8157,1376,1123,24,90,78,1,7,11
4.15E+03,-8149,1368,1124,29,104,80,1,7,11
4.15E+03,-8153,1368,1124,35,117,69,1,7,11
4.15E+03,-8162,1372,1126,41,119,61,1,7,11
4.15E+03,-8167,1380,1134,46,114,53,1,7,11
4.15E+03,-8163,1381,1129,43,108,51,1,7,11
4.15E+03,-8158,1375,1132,39,104,50,1,7,11
4.15E+03,-8161,1371,1137,35,105,47,1,7,11
4.15E+03,-8164,1368,1136,34,105,43,1,7,11
4.15E+03,-8167,1364,1139,41,107,41,1,7,11
4.15E+03,-8158,1373,1138,46,104,48,1,7,11
4.15E+03,-8166,1367,1134,45,114,52,1,7,11
4.15E+03,-8168,1363,1144,42,119,56,1,7,11
4.15E+03,-8175,1358,1145,42,110,56,1,7,11
4.15E+03,-8172,1359,1148,46,99,57,1,7,11
4.15E+03,-8165,1360,1148,50,92,58,1,7,11
4.15E+03,-8161,1369,1142,54,96,59,1,7,11
4.15E+03,-8157,1368,1150,56,109,66,1,7,11
4.15E+03,-8158,1374,1142,60,118,69,1,7,11
4.15E+03,-8167,1379,1144,62,125,73,1,7,11
4.15E+03,-8169,1387,1132,61,123,71,1,7,11
4.15E+03,-8170,1387,1135,53,117,66,1,7,11
4.15E+03,-8164,1389,1132,42,113,58,1,7,11
4.15E+03,-8166,1379,1135,35,111,49,1,7,11
4.15E+03,-8165,1374,1140,30,108,42,1,7,11
4.15E+03,-8165,1372,896,27,106,39,1,7,11
4.15E+03,-8156,1366,1151,30,106,38,1,7,11
4.16E+03,-8153,1367,896,36,108,40,1,7,11
4.16E+03,-8153,1364,1148,39,108,42,1,7,11
4.16E+03,-8153,1362,1146,43,113,44,1,7,11
4.16E+03,-8157,1359,1147,47,112,47,1,7,11
4.16E+03,-8150,1359,1142,50,112,49,1,7,11
4.16E+03,-8157,1362,1149,48,115,52,1,7,11
4.16E+03,-8157,1361,1142,47,120,56,1,7,11
4.16E+03,-8150,1369,1141,47,-128,60,1,7,11
4.16E+03,-8153,1374,1132,45,-120,62,1,7,11
4.16E+03,-8161,1370,1132,43,-112,60,1,7,11
4.16E+03,-8169,1375,1130,45,-115,58,1,7,11
4.16E+03,-8171,1368,1122,42,-116,55,1,7,11
4.16E+03,-8171,1363,1126,33,-120,53,1,7,11
4.16E+03,-8174,1356,1137,22,-127,48,1,7,11
4.16E+03,-8192,1353,1145,9,113,42,1,7,11
4.16E+03,-8186,1352,1148,2,86,43,1,7,11
4.16E+03,-8166,1354,1136,4,62,63,1,7,11
4.16E+03,-8158,1349,1143,11,60,78,1,7,11
4.16E+03,-8155,1349,1139,22,71,84,1,7,11
4.16E+03,-8156,1344,1147,34,88,83,1,7,11
4.16E+03,-8159,1351,903,48,99,81,1,7,11
4.16E+03,-8166,1359,897,61,99,72,1,7,11
4.16E+03,-8157,1364,1148,71,92,66,1,7,11
4.16E+03,-8145,1368,1143,69,90,61,1,7,11
4.16E+03,-8147,1367,1142,58,101,54,1,7,11
4.16E+03,-8149,1358,1136,50,110,52,1,7,11
4.16E+03,-8156,1361,1140,48,115,53,1,7,11
4.16E+03,-8156,1365,1141,49,117,58,1,7,11
4.16E+03,-8157,1363,1151,45,120,66,1,7,11
4.16E+03,-8164,1356,1150,41,125,70,1,7,11
4.16E+03,-8176,1349,896,36,123,71,1,7,11
4.16E+03,-8177,1346,899,38,112,72,1,7,11
4.16E+03,-8171,1345,903,47,100,70,1,7,11
4.16E+03,-8163,1346,901,58,93,65,1,7,11
4.16E+03,-8159,1346,897,67,96,63,1,7,11
4.16E+03,-8153,1352,897,76,106,66,1,7,11
4.16E+03,-8155,1363,897,81,116,68,1,7,11
4.16E+03,-8164,1375,1151,82,123,75,1,7,11
4.16E+03,-8164,1379,1149,76,124,84,1,7,11
4.16E+03,-8159,1377,896,67,122,89,1,7,11
4.17E+03,-8158,1379,1144,53,124,89,1,7,11
4.17E+03,-8158,1378,1140,43,125,86,1,7,11
4.17E+03,-8158,1376,899,35,124,83,1,7,11
4.17E+03,-8158,1372,899,34,124,82,1,7,11
4.17E+03,-8161,1369,899,35,124,80,1,7,11
4.17E+03,-8156,1365,1150,41,127,78,1,7,11
4.17E+03,-8155,1369,901,51,-124,74,1,7,11
4.17E+03,-8158,1367,899,58,-123,71,1,7,11
4.17E+03,-8158,1375,1148,62,-121,70,1,7,11
4.17E+03,-8159,1372,1142,61,-121,70,1,7,11
4.17E+03,-8154,1377,1133,59,-118,71,1,7,11
4.17E+03,-8156,1381,1133,54,-112,71,1,7,11
4.17E+03,-8158,1384,1135,39,-98,78,1,7,11
4.17E+03,-8162,1378,1126,32,-95,80,1,7,11
4.17E+03,-8167,1371,1131,27,-95,77,1,7,11
4.17E+03,-8174,1368,1124,28,-98,70,1,7,11
4.17E+03,-8168,1372,1130,34,-108,62,1,7,11
4.17E+03,-8167,1366,1129,36,-116,57,1,7,11
4.17E+03,-8172,1364,1130,36,-121,50,1,7,11
4.17E+03,-8185,1363,1145,32,122,48,1,7,11
4.17E+03,-8449,1358,1148,27,99,47,1,7,11
4.17E+03,-8190,1365,1144,28,69,56,1,7,11
4.17E+03,-8177,1369,1135,30,52,75,1,7,11
4.17E+03,-8153,1372,1122,34,57,89,1,7,11
4.17E+03,-8142,1365,1125,40,74,98,1,7,11
4.17E+03,-8139,1369,1132,46,94,98,1,7,11
4.17E+03,-8152,1369,1136,53,101,92,1,7,11
4.17E+03,-8159,1375,1145,62,96,88,1,7,11
4.17E+03,-8152,1378,1143,64,91,84,1,7,11
4.17E+03,-8150,1379,1143,60,95,75,1,7,11
4.17E+03,-8147,1382,1139,52,107,65,1,7,11
4.17E+03,-8152,1384,1140,47,118,55,1,7,11
4.17E+03,-8160,1382,1137,44,122,54,1,7,11
4.17E+03,-8163,1387,1139,42,122,58,1,7,11
4.17E+03,-8162,1385,1134,35,122,68,1,7,11
4.17E+03,-8166,1380,1134,27,118,76,1,7,11
4.17E+03,-8175,1363,1150,22,117,78,1,7,11
4.17E+03,-8173,1356,1147,26,105,74,1,7,11
4.17E+03,-8176,1352,898,35,91,71,1,7,11
4.17E+03,-8170,1349,899,49,81,70,1,7,11
4.18E+03,-8157,1356,899,64,79,74,1,7,11
4.18E+03,-8153,1366,896,75,87,75,1,7,11
4.18E+03,-8150,1369,1149,83,98,80,1,7,11
4.18E+03,-8156,1385,896,85,103,88,1,7,11
4.18E+03,-8160,1388,900,78,102,98,1,7,11
4.18E+03,-8159,1387,896,69,103,104,1,7,11
4.18E+03,-8159,1388,896,59,101,102,1,7,11
4.18E+03,-8153,1390,902,51,101,99,1,7,11
4.18E+03,-8155,1385,908,48,106,93,1,7,11
4.18E+03,-8146,1386,914,47,106,90,1,7,11
4.18E+03,-8143,1386,907,50,112,85,1,7,11
4.18E+03,-8143,1386,910,57,121,80,1,7,11
4.18E+03,-8144,1395,903,62,-125,75,1,7,11
4.18E+03,-8144,1400,901,64,-114,74,1,7,11
4.18E+03,-8141,1403,903,63,-105,70,1,7,11
4.18E+03,-8131,1405,1148,57,-96,68,1,7,11
4.18E+03,-8135,1159,1140,48,-86,62,1,7,11
4.18E+03,-8140,1162,1138,33,-72,62,1,7,11
4.18E+03,-8146,1160,1126,16,-62,65,1,7,11
4.18E+03,-8148,1152,1128,2,-55,62,1,7,11
4.18E+03,-8155,1394,1128,-265,-53,55,1,7,11
4.18E+03,-8163,1385,1133,-268,-53,45,1,7,11
4.18E+03,-8169,1385,1129,-260,-64,38,1,7,11
4.18E+03,-8166,1374,1129,-260,-69,37,1,7,11
4.18E+03,-8163,1364,1125,4,-76,35,1,7,11
4.18E+03,-8172,1359,1132,5,-83,29,1,7,11
4.18E+03,-8191,1362,1145,4,-103,31,1,7,11
4.18E+03,-8190,1368,1140,8,125,48,1,7,11
4.18E+03,-8171,1374,1131,11,107,71,1,7,11
4.18E+03,-8148,1376,1123,17,114,92,1,7,11
4.18E+03,-8136,1376,1109,22,-123,99,1,7,11
4.18E+03,-8139,1378,1115,28,-101,98,1,7,11
4.18E+03,-8151,1375,1117,36,-91,88,1,7,11
4.18E+03,-8160,1386,1112,44,-96,76,1,7,11
4.18E+03,-8155,1392,1102,44,-101,71,1,7,11
4.18E+03,-8151,1397,1093,40,-97,66,1,7,11
4.18E+03,-8151,1396,1088,30,-87,59,1,7,11
4.18E+03,-8155,1392,1092,23,-81,51,1,7,11
4.18E+03,-8159,1392,1091,17,-81,47,1,7,11
4.18E+03,-8168,1387,1100,18,-84,50,1,7,11
4.19E+03,-8163,1381,1089,13,-89,57,1,7,11
4.19E+03,-8168,1371,1096,9,-90,55,1,7,11
4.19E+03,-8176,1359,1113,6,-97,53,1,7,11
4.19E+03,-8175,1351,1109,16,-113,50,1,7,11
4.19E+03,-8173,1351,1107,29,-128,49,1,7,11
4.19E+03,-8167,1354,1103,43,122,51,1,7,11
4.19E+03,-8167,1363,1094,55,122,61,1,7,11
4.19E+03,-8163,1368,1092,63,125,73,1,7,11
4.19E+03,-8160,1377,1082,70,127,82,1,7,11
4.19E+03,-8161,1392,1080,74,124,90,1,7,11
4.19E+03,-8164,1399,1075,72,121,95,1,7,11
4.19E+03,-8163,1400,1080,62,119,95,1,7,11
4.19E+03,-8158,1400,1089,51,118,92,1,7,11
4.19E+03,-8163,1402,1086,42,117,86,1,7,11
4.19E+03,-8159,1395,1092,37,113,82,1,7,11
4.19E+03,-8157,1396,1099,34,108,76,1,7,11
4.19E+03,-8154,1392,1109,33,107,71,1,7,11
4.19E+03,-8150,1382,1107,39,106,66,1,7,11
4.19E+03,-8147,1385,1110,48,106,63,1,7,11
4.19E+03,-8146,1385,1105,58,112,60,1,7,11
4.19E+03,-8143,1389,1101,63,120,60,1,7,11
4.19E+03,-8145,1390,1093,62,-123,61,1,7,11
4.19E+03,-8152,1396,1090,59,-107,59,1,7,11
4.19E+03,-8157,1395,1095,50,-101,55,1,7,11
4.19E+03,-8162,1397,1094,44,-104,53,1,7,11
4.19E+03,-8156,1395,1081,36,-109,50,1,7,11
4.19E+03,-8154,1385,1081,25,-105,44,1,7,11
4.19E+03,-8156,1383,1082,17,-105,42,1,7,11
4.19E+03,-8171,1379,1082,9,-107,34,1,7,11
4.19E+03,-8187,1379,1100,3,-122,31,1,7,11
4.19E+03,-8181,1382,1106,7,111,42,1,7,11
4.19E+03,-8172,1385,1094,10,97,56,1,7,11
4.19E+03,-8160,1380,1084,15,102,68,1,7,11
4.19E+03,-8152,1375,1081,22,112,70,1,7,11
4.19E+03,-8153,1372,1083,31,121,61,1,7,11
4.19E+03,-8159,1373,1077,41,121,50,1,7,11
4.19E+03,-8164,1385,1078,46,113,43,1,7,11
4.19E+03,-8157,1378,1079,42,101,45,1,7,11
4.19E+03,-8157,1371,1089,36,99,46,1,7,11
4.19E+03,-8159,1371,1088,32,100,42,1,7,11
4.20E+03,-8160,1372,1095,32,101,37,1,7,11
4.20E+03,-8168,1373,1097,37,102,34,1,7,11
4.20E+03,-8154,1370,1084,42,99,43,1,7,11
4.20E+03,-8158,1370,1090,40,107,50,1,7,11
4.20E+03,-8167,1362,1099,34,110,55,1,7,11
4.20E+03,-8179,1356,1105,34,102,55,1,7,11
4.20E+03,-8179,1350,1104,37,89,55,1,7,11
4.20E+03,-8170,1347,1109,43,79,54,1,7,11
4.20E+03,-8159,1350,1103,52,82,57,1,7,11
4.20E+03,-8159,1354,1108,58,96,63,1,7,11
4.20E+03,-8162,1364,1110,65,108,73,1,7,11
4.20E+03,-8167,1370,1110,70,111,85,1,7,11
4.20E+03,-8162,1383,1104,71,113,92,1,7,11
4.20E+03,-8160,1385,1107,61,113,90,1,7,11
4.20E+03,-8156,1385,1108,50,110,86,1,7,11
4.20E+03,-8157,1381,1105,37,108,82,1,7,11
4.20E+03,-8153,1380,1111,29,106,77,1,7,11
4.20E+03,-8153,1383,1111,30,108,74,1,7,11
4.20E+03,-8150,1380,1112,38,113,72,1,7,11
4.20E+03,-8150,1379,1103,44,114,72,1,7,11
4.20E+03,-8143,1384,1102,55,119,75,1,7,11
4.20E+03,-8146,1391,1093,59,-126,73,1,7,11
4.20E+03,-8142,1391,1089,58,-115,72,1,7,11
4.20E+03,-8142,1398,1087,56,-105,70,1,7,11
4.20E+03,-8148,1401,1083,50,-99,68,1,7,11
4.20E+03,-8157,1394,1082,41,-100,63,1,7,11
4.20E+03,-8163,1399,1076,36,-104,60,1,7,11
4.20E+03,-8158,1387,1075,26,-106,54,1,7,11
4.20E+03,-8153,1386,1073,17,-107,50,1,7,11
4.20E+03,-8166,1378,1084,5,-112,40,1,7,11
4.20E+03,-8184,1368,1095,-261,127,33,1,7,11
4.20E+03,-8191,1372,1099,-260,99,38,1,7,11
4.20E+03,-8178,1369,1091,-257,79,53,1,7,11
4.20E+03,-8158,1367,1080,7,80,65,1,7,11
4.20E+03,-8151,1362,1077,19,90,70,1,7,11
4.20E+03,-8154,1357,1087,32,108,68,1,7,11
4.20E+03,-8163,1357,1084,43,114,60,1,7,11
4.20E+03,-8169,1360,1094,56,108,52,1,7,11
4.20E+03,-8162,1361,1092,57,98,49,1,7,11
4.20E+03,-8154,1361,1088,54,100,48,1,7,11
4.21E+03,-8151,1364,1088,48,108,47,1,7,11
4.21E+03,-8151,1362,1091,42,115,49,1,7,11
4.21E+03,-8154,1367,1094,40,118,57,1,7,11
4.21E+03,-8164,1374,1088,42,122,69,1,7,11
4.21E+03,-8162,1369,1086,38,-128,83,1,7,11
4.21E+03,-8165,1368,1089,34,-125,93,1,7,11
4.21E+03,-8177,1354,1102,31,-128,97,1,7,11
4.21E+03,-8172,1352,1107,38,116,100,1,7,11
4.21E+03,-8165,1346,1106,48,106,101,1,7,11
4.21E+03,-8165,1361,1103,62,99,98,1,7,11
4.21E+03,-8157,1375,1090,72,100,99,1,7,11
4.21E+03,-8152,1380,1098,80,106,100,1,7,11
4.21E+03,-8157,1389,1096,85,114,102,1,7,11
4.21E+03,-8163,1400,1097,80,116,109,1,7,11
4.21E+03,-8164,1405,1090,73,114,109,1,7,11
4.21E+03,-8163,1402,1091,64,110,106,1,7,11
4.21E+03,-8160,1405,1096,50,108,99,1,7,11
4.21E+03,-8155,1403,1103,39,106,92,1,7,11
4.21E+03,-8151,1397,1110,34,102,83,1,7,11
4.21E+03,-8150,1392,1110,33,102,78,1,7,11
4.21E+03,-8148,1395,1104,40,104,72,1,7,11
4.21E+03,-8147,1388,1101,48,108,69,1,7,11
4.21E+03,-8148,1390,1102,57,112,65,1,7,11
4.21E+03,-8151,1393,1101,62,115,61,1,7,11
4.21E+03,-8149,1394,1106,64,118,62,1,7,11
4.21E+03,-8144,1395,1098,63,119,61,1,7,11
4.21E+03,-8143,1406,1090,59,124,60,1,7,11
4.21E+03,-8146,1152,1085,50,-124,64,1,7,11
4.21E+03,-8149,1403,1085,41,-116,70,1,7,11
4.21E+03,-8150,1401,1089,32,-113,76,1,7,11
4.21E+03,-8152,1395,1088,28,-109,73,1,7,11
4.21E+03,-8158,1389,1089,32,-110,69,1,7,11
4.21E+03,-8160,1389,1086,36,-116,66,1,7,11
4.21E+03,-8163,1383,1089,33,-121,61,1,7,11
4.21E+03,-8167,1378,1084,32,127,54,1,7,11
4.21E+03,-8173,1376,1095,25,111,47,1,7,11
4.21E+03,-8185,1378,1100,22,85,48,1,7,11
4.21E+03,-8180,1380,1093,26,64,62,1,7,11
4.21E+03,-8160,1385,1087,33,58,83,1,7,11
4.21E+03,-8146,1386,1087,41,74,95,1,7,11
4.22E+03,-8138,1383,1089,48,93,100,1,7,11
4.22E+03,-8142,1384,1086,55,109,92,1,7,11
4.22E+03,-8150,1391,1100,62,110,86,1,7,11
4.22E+03,-8149,1395,1098,66,105,82,1,7,11
4.22E+03,-8144,1400,1097,62,101,75,1,7,11
4.22E+03,-8138,1402,1096,52,110,70,1,7,11
4.22E+03,-8145,1403,1099,45,119,63,1,7,11
4.22E+03,-8152,1407,1099,39,125,59,1,7,11
4.22E+03,-8155,1155,1095,33,-127,62,1,7,11
4.22E+03,-8160,1152,1090,31,126,73,1,7,11
4.22E+03,-8163,1404,1096,27,126,79,1,7,11
4.22E+03,-8164,1388,1103,22,125,79,1,7,11
4.22E+03,-8169,1377,1111,28,118,76,1,7,11
4.22E+03,-8175,1375,1104,36,105,71,1,7,11
4.22E+03,-8165,1373,1107,47,93,68,1,7,11
4.22E+03,-8161,1375,1105,59,88,69,1,7,11
4.22E+03,-8149,1385,1101,66,92,73,1,7,11
4.22E+03,-8152,1392,1100,72,101,77,1,7,11
4.22E+03,-8155,1152,1102,77,108,82,1,7,11
4.22E+03,-8159,1158,1097,75,108,89,1,7,11
4.22E+03,-8158,1153,1095,67,108,94,1,7,11
4.22E+03,-8164,1154,1085,58,106,95,1,7,11
4.22E+03,-8160,1157,1085,45,104,96,1,7,11
4.22E+03,-8154,1153,1093,40,100,92,1,7,11
4.22E+03,-8152,1406,1095,38,100,88,1,7,11
4.22E+03,-8151,1401,1094,42,100,88,1,7,11
4.22E+03,-8146,1399,1103,47,100,85,1,7,11
4.22E+03,-8148,1405,1108,57,100,85,1,7,11
4.22E+03,-8146,1154,1104,66,101,84,1,7,11
4.22E+03,-8151,1155,1103,71,105,83,1,7,11
4.22E+03,-8152,1162,1103,70,107,82,1,7,11
4.22E+03,-8149,1165,1095,68,108,84,1,7,11
4.22E+03,-8144,1166,1089,62,109,84,1,7,11
4.22E+03,-8147,1173,1096,56,122,87,1,7,11
4.22E+03,-8150,1168,1107,47,124,89,1,7,11
4.22E+03,-8152,1163,1103,39,125,89,1,7,11
4.22E+03,-8152,1157,1100,36,126,84,1,7,11
4.22E+03,-8155,1152,1102,34,123,77,1,7,11
4.22E+03,-8156,1154,1102,41,113,71,1,7,11
4.22E+03,-8155,1153,1112,48,107,67,1,7,11
4.23E+03,-8157,1404,1107,48,105,62,1,7,11
4.23E+03,-8164,1155,1102,42,98,60,1,7,11
4.23E+03,-8171,1159,1120,34,81,59,1,7,11
4.23E+03,-8169,1160,1111,32,56,69,1,7,11
4.23E+03,-8153,1156,1103,34,49,86,1,7,11
4.23E+03,-8137,1165,1102,37,65,97,1,7,11
4.23E+03,-8128,1166,1111,41,91,101,1,7,11
4.23E+03,-8131,1166,1114,43,119,97,1,7,11
4.23E+03,-8142,1171,1126,44,-123,89,1,7,11
4.23E+03,-8150,1179,1122,43,-121,79,1,7,11
4.23E+03,-8137,1179,1109,34,-124,73,1,7,11
4.23E+03,-8135,1177,1103,23,-114,64,1,7,11
4.23E+03,-8140,1173,1104,12,-97,56,1,7,11
4.23E+03,-8146,1164,1100,6,-87,51,1,7,11
4.23E+03,-8157,1161,1095,4,-84,52,1,7,11
4.23E+03,-8160,1168,1105,7,-87,57,1,7,11
4.23E+03,-8154,1164,1093,8,-88,69,1,7,11
4.23E+03,-8161,1155,1096,7,-89,77,1,7,11
4.23E+03,-8165,1399,1100,8,-97,79,1,7,11
4.23E+03,-8169,1394,1108,20,-112,77,1,7,11
4.23E+03,-8164,1394,1100,32,-124,77,1,7,11
4.23E+03,-8155,1401,1099,49,124,78,1,7,11
4.23E+03,-8148,1152,1096,60,124,84,1,7,11
4.23E+03,-8146,1160,1090,69,-127,93,1,7,11
4.23E+03,-8151,1171,1084,75,-123,101,1,7,11
4.23E+03,-8156,1177,1084,73,-124,107,1,7,11
4.23E+03,-8156,1187,1087,67,-128,108,1,7,11
4.23E+03,-8158,1191,1084,55,127,105,1,7,11
4.23E+03,-8159,1188,1079,44,121,101,1,7,11
4.23E+03,-8157,1182,1081,38,120,98,1,7,11
4.23E+03,-8154,1180,1083,34,115,90,1,7,11
4.23E+03,-8149,1173,1087,35,111,82,1,7,11
4.23E+03,-8151,1170,1091,42,110,77,1,7,11
4.23E+03,-8151,1167,1093,49,111,75,1,7,11
4.23E+03,-8147,1172,1090,58,113,72,1,7,11
4.23E+03,-8148,1175,1094,63,116,73,1,7,11
4.23E+03,-8147,1182,1094,65,115,73,1,7,11
4.23E+03,-8141,1183,1087,65,113,75,1,7,11
4.23E+03,-8139,1186,1086,64,117,74,1,7,11
4.23E+03,-8142,1189,1083,55,-127,78,1,7,11
4.24E+03,-8140,1184,1085,50,-117,77,1,7,11
4.24E+03,-8145,1180,1092,43,-111,75,1,7,11
4.24E+03,-8150,1176,1089,44,-110,71,1,7,11
4.24E+03,-8153,1178,1092,46,-113,66,1,7,11
4.24E+03,-8148,1179,1083,48,-121,62,1,7,11
4.24E+03,-8153,1179,1090,45,-124,57,1,7,11
4.24E+03,-8146,1178,1093,44,125,54,1,7,11
4.24E+03,-8161,1178,1084,37,122,46,1,7,11
4.24E+03,-8185,1183,1097,33,108,46,1,7,11
4.24E+03,-8181,1190,1096,31,83,58,1,7,11
4.24E+03,-8161,1185,1088,31,71,76,1,7,11
4.24E+03,-8141,1184,1089,34,84,88,1,7,11
4.24E+03,-8131,1179,1098,37,104,90,1,7,11
4.24E+03,-8132,1177,1095,44,125,82,1,7,11
4.24E+03,-8144,1181,1102,50,-119,70,1,7,11
4.24E+03,-8150,1187,1094,54,-121,62,1,7,11
4.24E+03,-8151,1187,1094,52,-120,61,1,7,11
4.24E+03,-8147,1180,1084,45,-117,59,1,7,11
4.24E+03,-8153,1171,1079,36,-109,52,1,7,11
4.24E+03,-8155,1173,1083,32,-107,46,1,7,11
4.24E+03,-8156,1169,1082,31,-105,43,1,7,11
4.24E+03,-8149,1178,1083,35,-109,49,1,7,11
4.24E+03,-8151,1171,1078,30,-101,50,1,7,11
4.24E+03,-8162,1166,1082,26,-97,48,1,7,11
4.24E+03,-8176,1157,1092,26,-104,48,1,7,11
4.24E+03,-8174,1155,1087,32,-121,46,1,7,11
4.24E+03,-8166,1159,1080,39,121,45,1,7,11
4.24E+03,-8165,1160,1077,46,117,46,1,7,11
4.24E+03,-8158,1158,1077,48,124,50,1,7,11
4.24E+03,-8159,1165,1085,49,125,59,1,7,11
4.24E+03,-8162,1168,1077,53,122,69,1,7,11
4.24E+03,-8161,1170,1077,51,115,72,1,7,11
4.24E+03,-8159,1173,1069,46,107,75,1,7,11
4.24E+03,-8156,1168,1067,38,100,77,1,7,11
4.24E+03,-8149,1170,1074,35,93,76,1,7,11
4.24E+03,-8143,1170,1078,36,89,76,1,7,11
4.24E+03,-8139,1169,1089,43,86,75,1,7,11
4.24E+03,-8139,1176,1087,51,85,76,1,7,11
4.24E+03,-8140,1176,1085,55,87,79,1,7,11
4.24E+03,-8143,1180,1090,60,87,81,1,7,11
4.25E+03,-8140,1182,1084,60,91,79,1,7,11
4.25E+03,-8144,1186,1084,60,95,74,1,7,11
4.25E+03,-8143,1191,1087,57,101,73,1,7,11
4.25E+03,-8143,1192,1091,50,105,74,1,7,11
4.25E+03,-8146,1193,1088,39,110,74,1,7,11
4.25E+03,-8149,1192,1092,33,118,69,1,7,11
4.25E+03,-8156,1189,1097,29,121,61,1,7,11
4.25E+03,-8158,1186,1097,30,113,56,1,7,11
4.25E+03,-8156,1182,1084,26,108,51,1,7,11
4.25E+03,-8155,1174,1089,24,102,45,1,7,11
4.25E+03,-8155,1166,1090,20,97,37,1,7,11
4.25E+03,-8177,1167,1098,15,86,32,1,7,11
4.25E+03,-8189,1171,1103,15,62,40,1,7,11
4.25E+03,-8175,1172,1088,17,37,61,1,7,11
4.25E+03,-8156,1174,1087,19,36,82,1,7,11
4.25E+03,-8141,1177,1084,24,46,93,1,7,11
4.25E+03,-8133,1171,1094,32,66,95,1,7,11
4.25E+03,-8137,1173,1096,40,81,91,1,7,11
4.25E+03,-8145,1175,1108,50,84,81,1,7,11
4.25E+03,-8143,1188,1106,57,81,73,1,7,11
4.25E+03,-8137,1187,1101,55,82,68,1,7,11
4.25E+03,-8135,1191,1095,48,90,59,1,7,11
4.25E+03,-8139,1191,1103,42,101,52,1,7,11
4.25E+03,-8145,1190,1109,36,107,46,1,7,11
4.25E+03,-8144,1192,1114,33,110,48,1,7,11
4.25E+03,-8139,1186,1099,31,111,55,1,7,11
4.25E+03,-8148,1178,1113,26,124,56,1,7,11
4.25E+03,-8157,1169,1120,22,123,56,1,7,11
4.25E+03,-8157,1154,1122,27,111,56,1,7,11
4.25E+03,-8158,1157,1116,44,99,55,1,7,11
4.25E+03,-8155,1162,1112,53,97,52,1,7,11
4.25E+03,-8149,1172,1105,56,101,57,1,7,11
4.25E+03,-8147,1176,1098,58,110,62,1,7,11
4.25E+03,-8147,1182,1097,60,113,70,1,7,11
4.25E+03,-8155,1185,1101,55,112,79,1,7,11
4.25E+03,-8154,1182,1107,51,109,87,1,7,11
4.25E+03,-8156,1180,1100,50,103,88,1,7,11
4.25E+03,-8152,1183,1104,48,98,86,1,7,11
4.25E+03,-8148,1177,1110,47,99,84,1,7,11
4.25E+03,-8148,1178,1112,49,96,81,1,7,11
4.26E+03,-8145,1179,1115,54,95,80,1,7,11
4.26E+03,-8142,1176,1115,59,94,78,1,7,11
4.26E+03,-8138,1174,1114,62,98,80,1,7,11
4.26E+03,-8140,1181,1116,66,103,75,1,7,11
4.26E+03,-8140,1183,1120,67,109,75,1,7,11
4.26E+03,-8141,1186,1124,67,112,72,1,7,11
4.26E+03,-8137,1191,1129,67,116,73,1,7,11
4.26E+03,-8136,1190,1120,64,124,71,1,7,11
4.26E+03,-8141,1195,1115,59,-123,71,1,7,11
4.26E+03,-8145,1197,1110,52,-114,74,1,7,11
4.26E+03,-8145,1200,1109,49,-106,73,1,7,11
4.26E+03,-8152,1189,1114,43,-100,70,1,7,11
4.26E+03,-8153,1188,1114,46,-100,65,1,7,11
4.26E+03,-8153,1187,1109,44,-103,61,1,7,11
4.26E+03,-8155,1183,1105,40,-106,53,1,7,11
4.26E+03,-8162,1182,1110,35,-110,45,1,7,11
4.26E+03,-8178,1178,1119,22,-126,40,1,7,11
4.26E+03,-8181,1179,1126,17,104,42,1,7,11
4.26E+03,-8172,1182,1117,17,81,57,1,7,11
4.26E+03,-8155,1180,1103,23,79,72,1,7,11
4.26E+03,-8139,1177,1096,29,92,81,1,7,11
4.26E+03,-8134,1179,1100,35,111,82,1,7,11
4.26E+03,-8141,1179,1106,43,125,77,1,7,11
4.26E+03,-8148,1182,1115,56,127,71,1,7,11
4.26E+03,-8150,1192,1111,63,119,62,1,7,11
4.26E+03,-8140,1198,1101,64,119,56,1,7,11
4.26E+03,-8134,1199,1099,54,-128,50,1,7,11
4.26E+03,-8134,1196,1103,49,-114,42,1,7,11
4.26E+03,-8141,1188,1093,42,-106,37,1,7,11
4.26E+03,-8147,1190,1096,36,-104,38,1,7,11
4.26E+03,-8145,1187,1100,33,-106,45,1,7,11
4.26E+03,-8151,1184,1095,29,-103,53,1,7,11
4.26E+03,-8157,1169,1104,26,-104,58,1,7,11
4.26E+03,-8161,1157,1107,32,-111,56,1,7,11
4.26E+03,-8166,1156,1101,41,-118,53,1,7,11
4.26E+03,-8164,1155,1097,53,-126,50,1,7,11
4.26E+03,-8155,1159,1093,67,124,50,1,7,11
4.26E+03,-8152,1168,1094,75,127,54,1,7,11
4.26E+03,-8152,1167,1092,81,-123,58,1,7,11
4.26E+03,-8154,1179,1084,80,-116,67,1,7,11
4.27E+03,-8159,1185,1085,73,-114,81,1,7,11
4.27E+03,-8161,1182,1081,64,-113,90,1,7,11
4.27E+03,-8162,1183,1072,52,-114,95,1,7,11
4.27E+03,-8158,1180,1071,44,-119,96,1,7,11
4.27E+03,-8159,1180,1069,38,-123,91,1,7,11
4.27E+03,-8155,1179,1073,35,-128,88,1,7,11
4.27E+03,-8154,1179,1073,37,125,86,1,7,11
4.27E+03,-8150,1177,1081,45,119,85,1,7,11
4.27E+03,-8150,1178,1086,55,116,85,1,7,11
4.27E+03,-8150,1186,1089,63,112,83,1,7,11
4.27E+03,-8145,1190,1090,69,111,80,1,7,11
4.27E+03,-8142,1196,1092,70,112,81,1,7,11
4.27E+03,-8142,1200,1085,71,116,82,1,7,11
4.27E+03,-8143,1202,1071,67,122,85,1,7,11
4.27E+03,-8141,1203,1068,58,125,89,1,7,11
4.27E+03,-8144,1201,1060,47,-126,91,1,7,11
4.27E+03,-8145,1194,1069,39,-122,89,1,7,11
4.27E+03,-8154,1188,1082,38,-127,83,1,7,11
4.27E+03,-8154,1188,1083,42,121,77,1,7,11
4.27E+03,-8154,1184,1079,41,116,70,1,7,11
4.27E+03,-8161,1184,1082,43,109,62,1,7,11
4.27E+03,-8175,1189,1091,39,96,56,1,7,11
4.27E+03,-8179,1199,1096,36,70,56,1,7,11
4.27E+03,-8163,1197,1082,38,46,69,1,7,11
4.27E+03,-8138,1190,1083,47,36,94,1,7,11
4.27E+03,-8123,1190,1087,56,54,101,1,7,11
4.27E+03,-8117,1186,1096,63,79,100,1,7,11
4.27E+03,-8120,1194,1111,70,98,91,1,7,11
4.27E+03,-8124,1206,1108,76,106,85,1,7,11
4.27E+03,-8130,1218,1109,72,114,78,1,7,11
4.27E+03,-8121,1211,1102,59,-127,74,1,7,11
4.27E+03,-8122,1212,1095,40,-106,67,1,7,11
4.27E+03,-8130,1214,1089,20,-87,62,1,7,11
4.27E+03,-8144,1212,1093,4,-75,56,1,7,11
4.27E+03,-8152,1210,1095,-262,-72,59,1,7,11
4.27E+03,-8150,1202,1087,-270,-74,68,1,7,11
4.27E+03,-8159,1192,1090,-275,-71,68,1,7,11
4.27E+03,-8161,1184,1094,-273,-74,65,1,7,11
4.27E+03,-8164,1169,1101,0,-85,62,1,7,11
4.27E+03,-8162,1167,1099,20,-92,60,1,7,11
4.28E+03,-8157,1172,1091,42,-102,61,1,7,11
4.28E+03,-8149,1178,1077,56,-101,68,1,7,11
4.28E+03,-8145,1190,1072,66,-95,79,1,7,11
4.28E+03,-8153,1204,1061,68,-86,89,1,7,11
4.28E+03,-8150,1212,1060,65,-83,99,1,7,11
4.28E+03,-8150,1216,1051,53,-85,107,1,7,11
4.28E+03,-8152,1220,1041,39,-87,112,1,7,11
4.28E+03,-8150,1220,1050,26,-90,111,1,7,11
4.28E+03,-8150,1217,1047,17,-94,108,1,7,11
4.28E+03,-8151,1209,1053,15,-99,101,1,7,11
4.28E+03,-8152,1207,1053,19,-103,93,1,7,11
4.28E+03,-8152,1208,1045,27,-107,87,1,7,11
4.28E+03,-8156,1209,1038,34,-110,82,1,7,11
4.28E+03,-8153,1216,1047,43,-115,80,1,7,11
4.28E+03,-8151,1212,1047,51,-121,79,1,7,11
4.28E+03,-8146,1218,1042,59,-125,77,1,7,11
4.28E+03,-8142,1224,1039,61,-122,77,1,7,11
4.28E+03,-8145,1229,1034,59,-114,79,1,7,11
4.28E+03,-8148,1228,1033,53,-110,79,1,7,11
4.28E+03,-8155,1226,1036,49,-107,76,1,7,11
4.28E+03,-8162,1218,1039,45,-112,71,1,7,11
4.28E+03,-8156,1215,1040,45,-123,67,1,7,11
4.28E+03,-8155,1208,1039,40,-128,62,1,7,11
4.28E+03,-8151,1200,1045,38,120,61,1,7,11
4.28E+03,-8157,1200,1040,34,116,56,1,7,11
4.28E+03,-8177,1205,1045,28,104,55,1,7,11
4.28E+03,-8179,1214,1056,26,78,68,1,7,11
4.28E+03,-8160,1214,1054,27,59,93,1,7,11
4.28E+03,-8135,1213,1052,31,66,113,1,7,11
4.28E+03,-8123,1204,1047,37,83,116,1,7,11
4.28E+03,-8126,1200,1060,46,102,110,1,7,11
4.28E+03,-8136,1210,1065,53,117,101,1,7,11
4.28E+03,-8142,1220,1066,61,118,90,1,7,11
4.28E+03,-8141,1229,1063,64,118,81,1,7,11
4.28E+03,-8132,1229,1061,56,118,78,1,7,11
4.28E+03,-8131,1224,1057,47,123,72,1,7,11
4.28E+03,-8136,1224,1055,41,-125,63,1,7,11
4.28E+03,-8145,1230,1057,38,-119,58,1,7,11
4.28E+03,-8134,1229,1051,39,-121,64,1,7,11
4.28E+03,-8138,1226,1052,35,-109,62,1,7,11
4.29E+03,-8154,1218,1060,31,-105,61,1,7,11
4.29E+03,-8157,1215,1065,30,-114,56,1,7,11
4.29E+03,-8155,1214,1059,36,-122,53,1,7,11
4.29E+03,-8144,1217,1059,42,-127,54,1,7,11
4.29E+03,-8138,1220,1053,48,-121,57,1,7,11
4.29E+03,-8137,1222,1043,49,-113,62,1,7,11
4.29E+03,-8150,1231,1040,48,-109,64,1,7,11
4.29E+03,-8153,1231,1038,45,-113,68,1,7,11
4.29E+03,-8153,1229,1034,38,-122,68,1,7,11
4.29E+03,-8152,1224,1031,33,124,63,1,7,11
4.29E+03,-8145,1220,1031,32,117,62,1,7,11
4.29E+03,-8148,1217,1038,31,114,59,1,7,11
4.29E+03,-8143,1212,1039,35,112,58,1,7,11
4.29E+03,-8139,1211,1045,42,111,57,1,7,11
4.29E+03,-8137,1217,1041,49,115,60,1,7,11
4.29E+03,-8139,1217,1042,54,116,64,1,7,11
4.29E+03,-8133,1218,1041,55,115,67,1,7,11
4.29E+03,-8134,1224,1036,56,118,67,1,7,11
4.29E+03,-8134,1226,1027,54,124,71,1,7,11
4.29E+03,-8129,1230,767,48,-127,74,1,7,11
4.29E+03,-8133,1236,762,41,-121,76,1,7,11
4.29E+03,-8144,1229,1025,33,-117,75,1,7,11
4.29E+03,-8153,1226,1033,29,-116,71,1,7,11
4.29E+03,-8156,1226,1033,31,-124,67,1,7,11
4.29E+03,-8152,1225,1024,29,122,62,1,7,11
4.29E+03,-8151,1219,1033,29,115,56,1,7,11
4.29E+03,-8148,1213,1033,25,107,45,1,7,11
4.29E+03,-8172,1215,1047,19,99,35,1,7,11
4.29E+03,-8449,1218,1053,17,74,40,1,7,11
4.29E+03,-8179,1221,1051,16,46,57,1,7,11
4.29E+03,-8155,1213,1054,20,40,71,1,7,11
4.29E+03,-8141,1211,1050,29,48,73,1,7,11
4.29E+03,-8133,1206,1049,36,60,68,1,7,11
4.29E+03,-8142,1205,1046,46,77,60,1,7,11
4.29E+03,-8150,1209,1060,57,80,54,1,7,11
4.29E+03,-8148,1215,1062,62,82,52,1,7,11
4.29E+03,-8140,1220,1061,62,83,50,1,7,11
4.29E+03,-8133,1215,1058,55,93,46,1,7,11
4.29E+03,-8137,1221,1052,49,108,44,1,7,11
4.29E+03,-8138,1219,1052,42,117,43,1,7,11
4.30E+03,-8142,1223,1059,38,124,50,1,7,11
4.30E+03,-8132,1228,1052,35,-127,63,1,7,11
4.30E+03,-8142,1225,1052,29,-114,70,1,7,11
4.30E+03,-8150,1214,1056,19,-105,74,1,7,11
4.30E+03,-8166,1212,1069,20,-110,74,1,7,11
4.30E+03,-8163,1202,1074,27,-121,75,1,7,11
4.30E+03,-8157,1202,1065,37,125,70,1,7,11
4.30E+03,-8152,1212,1057,43,121,67,1,7,11
4.30E+03,-8147,1214,1045,48,123,71,1,7,11
4.30E+03,-8145,1220,1049,52,-126,74,1,7,11
4.30E+03,-8155,1226,1053,57,-125,80,1,7,11
4.30E+03,-8157,1231,1053,56,126,84,1,7,11
4.30E+03,-8158,1230,1039,49,112,81,1,7,11
4.30E+03,-8156,1230,1033,42,105,79,1,7,11
4.30E+03,-8156,1227,1032,37,96,74,1,7,11
4.30E+03,-8156,1225,1040,36,90,69,1,7,11
4.30E+03,-8151,1219,1042,41,86,67,1,7,11
4.30E+03,-8144,1215,1047,49,83,65,1,7,11
4.30E+03,-8139,1212,1048,60,86,66,1,7,11
4.30E+03,-8134,1213,1058,72,91,68,1,7,11
4.30E+03,-8131,1215,1061,78,96,70,1,7,11
4.30E+03,-8129,1226,1055,85,105,72,1,7,11
4.30E+03,-8134,1237,1055,84,115,75,1,7,11
4.30E+03,-8135,1238,1057,79,122,81,1,7,11
4.30E+03,-8134,1242,1052,69,-125,86,1,7,11
4.30E+03,-8140,1240,1050,58,-114,89,1,7,11
4.30E+03,-8147,1239,1056,47,-113,89,1,7,11
4.30E+03,-8151,1236,1054,44,-117,86,1,7,11
4.30E+03,-8148,1230,1055,40,-121,82,1,7,11
4.30E+03,-8147,1221,1044,38,-122,73,1,7,11
4.30E+03,-8157,1216,1050,35,126,63,1,7,11
4.30E+03,-8171,1221,1059,29,107,58,1,7,11
4.30E+03,-8183,1224,1061,28,76,60,1,7,11
4.30E+03,-8172,1226,1060,33,49,73,1,7,11
4.30E+03,-8155,1227,1053,39,47,85,1,7,11
4.30E+03,-8133,1226,1047,46,57,94,1,7,11
4.30E+03,-8126,1226,1055,52,74,96,1,7,11
4.30E+03,-8134,1226,1071,60,84,96,1,7,11
4.30E+03,-8138,1231,1074,70,80,93,1,7,11
4.30E+03,-8133,1239,1064,76,71,92,1,7,11
4.31E+03,-8125,1237,1060,75,71,89,1,7,11
4.31E+03,-8122,1236,1052,67,82,84,1,7,11
4.31E+03,-8127,1244,1061,62,96,79,1,7,11
4.31E+03,-8128,1243,1067,57,103,74,1,7,11
4.31E+03,-8133,1248,1072,57,111,76,1,7,11
4.31E+03,-8131,1247,1066,53,113,84,1,7,11
4.31E+03,-8139,1233,1075,45,120,89,1,7,11
4.31E+03,-8146,1227,1078,38,126,88,1,7,11
4.31E+03,-8161,1225,1089,38,123,80,1,7,11
4.31E+03,-8162,1226,1087,40,117,73,1,7,11
4.31E+03,-8156,1228,1091,45,110,64,1,7,11
4.31E+03,-8144,1227,1084,52,107,60,1,7,11
4.31E+03,-8142,1229,1086,58,114,54,1,7,11
4.31E+03,-8147,1236,1088,63,124,54,1,7,11
4.31E+03,-8147,1243,1080,64,-126,61,1,7,11
4.31E+03,-8150,1245,1074,62,-121,70,1,7,11
4.31E+03,-8147,1244,1075,55,-122,75,1,7,11
4.31E+03,-8145,1247,1074,46,-122,79,1,7,11
4.31E+03,-8144,1247,1075,39,-121,80,1,7,11
4.31E+03,-8147,1242,1078,33,-124,85,1,7,11
4.31E+03,-8140,1236,1079,36,-126,90,1,7,11
4.31E+03,-8137,1236,1070,40,-126,94,1,7,11
4.31E+03,-8131,1236,1061,45,-125,99,1,7,11
4.31E+03,-8139,1243,1064,53,-121,103,1,7,11
4.31E+03,-8138,1249,1057,62,-119,106,1,7,11
4.31E+03,-8131,1259,1059,70,-117,107,1,7,11
4.31E+03,-8128,1269,1048,70,-111,110,1,7,11
4.31E+03,-8131,1274,1044,65,-108,111,1,7,11
4.31E+03,-8136,1274,1039,54,-102,115,1,7,11
4.31E+03,-8137,1272,1038,43,-97,115,1,7,11
4.31E+03,-8139,1270,1041,34,-94,111,1,7,11
4.31E+03,-8147,1265,1040,29,-99,103,1,7,11
4.31E+03,-8149,1269,1033,29,-107,95,1,7,11
4.31E+03,-8150,1260,1030,22,-116,87,1,7,11
4.31E+03,-8153,1258,1034,23,-127,78,1,7,11
4.31E+03,-8165,1254,1046,19,115,68,1,7,11
4.31E+03,-8170,1252,1057,19,85,61,1,7,11
4.31E+03,-8163,1255,1063,25,56,70,1,7,11
4.31E+03,-8139,1259,1057,34,42,82,1,7,11
4.31E+03,-8126,1259,1042,47,52,90,1,7,11
4.32E+03,-8117,1260,1050,59,72,94,1,7,11
4.32E+03,-8113,1265,1055,68,95,89,1,7,11
4.32E+03,-8126,1273,1068,75,106,84,1,7,11
4.32E+03,-8125,1279,1067,76,108,78,1,7,11
4.32E+03,-8116,1538,1062,66,115,74,1,7,11
4.32E+03,-8110,1279,1053,52,-125,65,1,7,11
4.32E+03,-8115,1278,1048,38,-106,56,1,7,11
4.32E+03,-8127,1274,1047,20,-95,54,1,7,11
4.32E+03,-8136,1273,1057,8,-88,56,1,7,11
4.32E+03,-8134,1269,1057,0,-89,66,1,7,11
4.32E+03,-8137,1257,1058,-262,-89,73,1,7,11
4.32E+03,-8144,1246,1063,-262,-85,76,1,7,11
4.32E+03,-8156,1237,1073,5,-90,75,1,7,11
4.32E+03,-8153,1235,1069,22,-99,73,1,7,11
4.32E+03,-8153,1238,1064,40,-110,70,1,7,11
4.32E+03,-8141,1244,1054,59,-114,72,1,7,11
4.32E+03,-8131,1252,1046,71,-108,80,1,7,11
4.32E+03,-8132,1262,1040,78,-98,88,1,7,11
4.32E+03,-8144,1538,1035,78,-90,97,1,7,11
4.32E+03,-8144,1546,1028,72,-86,107,1,7,11
4.32E+03,-8144,1549,764,58,-84,112,1,7,11
4.32E+03,-8136,1546,763,46,-83,112,1,7,11
4.32E+03,-8134,1541,1024,34,-82,107,1,7,11
4.32E+03,-8137,1537,764,26,-84,98,1,7,11
4.32E+03,-8134,1279,1025,25,-89,92,1,7,11
4.32E+03,-8133,1278,766,30,-94,86,1,7,11
4.32E+03,-8135,1276,1024,41,-98,81,1,7,11
4.32E+03,-8129,1538,764,49,-96,76,1,7,11
4.32E+03,-8134,1543,760,59,-97,72,1,7,11
4.32E+03,-8132,1541,757,68,-99,69,1,7,11
4.32E+03,-8135,1543,758,73,-102,69,1,7,11
4.32E+03,-8126,1553,745,68,-101,67,1,7,11
4.32E+03,-8125,1554,745,60,-99,68,1,7,11
4.32E+03,-8131,1560,737,54,-95,66,1,7,11
4.32E+03,-8135,1558,732,45,-94,65,1,7,11
4.32E+03,-8136,1551,742,39,-97,59,1,7,11
4.32E+03,-8140,1543,747,39,-103,52,1,7,11
4.32E+03,-8137,1544,748,43,-114,46,1,7,11
4.32E+03,-8138,1536,759,44,-120,40,1,7,11
4.32E+03,-8132,1268,749,46,127,37,1,7,11
4.33E+03,-8148,1261,749,43,125,26,1,7,11
4.33E+03,-8170,1267,756,41,111,21,1,7,11
4.33E+03,-8171,1278,749,41,82,32,1,7,11
4.33E+03,-8148,1536,750,37,66,51,1,7,11
4.33E+03,-8128,1275,751,39,74,69,1,7,11
4.33E+03,-8116,1270,751,41,91,75,1,7,11
4.33E+03,-8112,1268,750,47,110,71,1,7,11
4.33E+03,-8120,1267,764,54,124,64,1,7,11
4.33E+03,-8133,1269,762,62,127,59,1,7,11
4.33E+03,-8140,1272,758,62,125,56,1,7,11
4.33E+03,-8133,1277,753,57,-126,55,1,7,11
4.33E+03,-8133,1277,760,51,-119,51,1,7,11
4.33E+03,-8135,1274,763,45,-114,47,1,7,11
4.33E+03,-8139,1276,755,43,-112,44,1,7,11
4.33E+03,-8136,1275,751,44,-114,48,1,7,11
4.33E+03,-8134,1272,750,39,-106,52,1,7,11
4.33E+03,-8146,1268,754,33,-96,53,1,7,11
4.33E+03,-8159,1257,762,32,-103,51,1,7,11
4.33E+03,-8162,1253,754,37,-118,49,1,7,11
4.33E+03,-8156,1256,757,41,-126,49,1,7,11
4.33E+03,-8142,1265,747,45,-127,52,1,7,11
4.33E+03,-8144,1265,744,45,-124,58,1,7,11
4.33E+03,-8143,1264,743,47,-118,64,1,7,11
4.33E+03,-8152,1267,738,46,-122,66,1,7,11
4.33E+03,-8150,1272,732,44,123,69,1,7,11
4.33E+03,-8145,1273,734,40,112,70,1,7,11
4.33E+03,-8146,1266,741,40,105,68,1,7,11
4.33E+03,-8148,1266,739,39,102,65,1,7,11
4.33E+03,-8145,1268,740,40,96,63,1,7,11
4.33E+03,-8140,1267,736,42,93,62,1,7,11
4.33E+03,-8133,1266,742,45,91,64,1,7,11
4.33E+03,-8136,1263,749,47,91,66,1,7,11
4.33E+03,-8133,1270,744,51,92,66,1,7,11
4.33E+03,-8125,1272,742,55,98,66,1,7,11
4.33E+03,-8130,1275,742,56,107,65,1,7,11
4.33E+03,-8134,1540,735,51,114,66,1,7,11
4.33E+03,-8133,1541,733,43,124,64,1,7,11
4.33E+03,-8133,1540,737,36,-123,59,1,7,11
4.33E+03,-8142,1538,735,26,-121,52,1,7,11
4.33E+03,-8144,1537,740,19,-124,46,1,7,11
4.34E+03,-8141,1276,740,10,127,40,1,7,11
4.34E+03,-8144,1273,742,3,-128,36,1,7,11
4.34E+03,-8148,1265,741,-257,125,30,1,7,11
4.34E+03,-8160,1257,750,-262,119,22,1,7,11
4.34E+03,-8177,1255,758,-261,101,22,1,7,11
4.34E+03,-8165,1259,752,-257,75,37,1,7,11
4.34E+03,-8144,1258,745,4,71,54,1,7,11
4.34E+03,-8129,1256,741,15,85,67,1,7,11
4.34E+03,-8119,1254,748,25,102,73,1,7,11
4.34E+03,-8131,1259,744,32,122,70,1,7,11
4.34E+03,-8142,1265,752,40,124,63,1,7,11
4.34E+03,-8137,1271,755,44,118,60,1,7,11
4.34E+03,-8135,1271,752,42,116,58,1,7,11
4.34E+03,-8128,1263,750,36,124,54,1,7,11
4.34E+03,-8131,1260,748,29,-124,50,1,7,11
4.34E+03,-8129,1267,748,25,-116,48,1,7,11
4.34E+03,-8132,1272,744,24,-116,51,1,7,11
4.34E+03,-8133,1264,747,23,-109,58,1,7,11
4.34E+03,-8145,1258,751,17,-97,63,1,7,11
4.34E+03,-8157,1251,751,15,-98,64,1,7,11
4.34E+03,-8157,1246,758,18,-110,61,1,7,11
4.34E+03,-8152,1240,748,26,-120,59,1,7,11
4.34E+03,-8144,1244,742,38,-127,53,1,7,11
4.34E+03,-8141,1249,744,45,-123,53,1,7,11
4.34E+03,-8137,1256,743,51,-112,56,1,7,11
4.34E+03,-8140,1264,740,57,-106,65,1,7,11
4.34E+03,-8146,1269,734,55,-105,77,1,7,11
4.34E+03,-8147,1272,727,51,-108,85,1,7,11
4.34E+03,-8143,1261,723,45,-112,86,1,7,11
4.34E+03,-8146,1262,725,39,-114,85,1,7,11
4.34E+03,-8148,1258,732,37,-119,84,1,7,11
4.34E+03,-8144,1260,732,37,-123,81,1,7,11
4.34E+03,-8142,1259,727,41,-127,79,1,7,11
4.34E+03,-8140,1254,731,42,-128,78,1,7,11
4.34E+03,-8142,1247,725,46,125,78,1,7,11
4.34E+03,-8146,1250,732,52,125,80,1,7,11
4.34E+03,-8141,1256,727,58,122,82,1,7,11
4.34E+03,-8137,1260,731,64,125,80,1,7,11
4.34E+03,-8137,1269,721,66,-127,84,1,7,11
4.34E+03,-8133,1277,720,64,-122,87,1,7,11
4.35E+03,-8137,1539,718,58,-116,90,1,7,11
4.35E+03,-8135,1277,713,52,-113,91,1,7,11
4.35E+03,-8138,1275,714,44,-109,88,1,7,11
4.35E+03,-8145,1275,718,40,-113,86,1,7,11
4.35E+03,-8143,1271,715,37,-119,80,1,7,11
4.35E+03,-8143,1264,716,32,-122,76,1,7,11
4.35E+03,-8148,1266,718,27,126,69,1,7,11
4.35E+03,-8155,1263,729,18,109,61,1,7,11
4.35E+03,-8161,1267,729,15,85,64,1,7,11
4.35E+03,-8157,1270,721,18,59,72,1,7,11
4.35E+03,-8138,1266,711,25,54,85,1,7,11
4.35E+03,-8125,1268,714,33,65,91,1,7,11
4.35E+03,-8125,1266,720,41,81,93,1,7,11
4.35E+03,-8133,1264,736,48,94,91,1,7,11
4.35E+03,-8140,1268,734,57,92,86,1,7,11
4.35E+03,-8136,1274,732,65,83,79,1,7,11
4.35E+03,-8123,1537,733,68,80,72,1,7,11
4.35E+03,-8118,1276,727,66,88,66,1,7,11
4.35E+03,-8119,1275,730,63,101,60,1,7,11
4.35E+03,-8127,1273,734,59,107,56,1,7,11
4.35E+03,-8133,1536,738,55,115,57,1,7,11
4.35E+03,-8127,1537,734,49,117,64,1,7,11
4.35E+03,-8134,1537,730,37,120,70,1,7,11
4.35E+03,-8141,1274,743,26,121,72,1,7,11
4.35E+03,-8144,1266,748,25,114,69,1,7,11
4.35E+03,-8145,1259,750,29,106,69,1,7,11
4.35E+03,-8142,1256,743,43,100,65,1,7,11
4.35E+03,-8137,1258,743,57,101,66,1,7,11
4.35E+03,-8130,1256,739,67,106,68,1,7,11
4.35E+03,-8132,1274,740,78,114,71,1,7,11
4.35E+03,-8136,1540,743,79,119,78,1,7,11
4.35E+03,-8137,1546,731,76,119,87,1,7,11
4.35E+03,-8136,1548,727,63,122,98,1,7,11
4.35E+03,-8137,1542,726,40,119,101,1,7,11
4.35E+03,-8138,1539,728,31,114,98,1,7,11
4.35E+03,-8134,1542,736,27,111,95,1,7,11
4.35E+03,-8132,1539,743,30,111,90,1,7,11
4.35E+03,-8132,1276,742,39,110,89,1,7,11
4.35E+03,-8136,1277,741,51,113,88,1,7,11
4.35E+03,-8136,1539,737,59,116,88,1,7,11
4.36E+03,-8139,1542,738,66,119,87,1,7,11
4.36E+03,-8128,1548,735,66,117,90,1,7,11
4.36E+03,-8128,1555,731,68,119,88,1,7,11
4.36E+03,-8126,1560,724,64,123,90,1,7,11
4.36E+03,-8128,1564,722,53,-127,93,1,7,11
4.36E+03,-8129,1563,724,42,-122,95,1,7,11
4.36E+03,-8135,1553,719,32,-118,95,1,7,11
4.36E+03,-8142,1551,723,28,-117,91,1,7,11
4.36E+03,-8140,1552,729,32,-122,85,1,7,11
4.36E+03,-8140,1547,731,32,127,81,1,7,11
4.36E+03,-8140,1546,737,31,121,77,1,7,11
4.36E+03,-8150,1550,736,28,109,73,1,7,11
4.36E+03,-8161,1548,745,21,84,69,1,7,11
4.36E+03,-8164,1550,747,18,53,77,1,7,11
4.36E+03,-8148,1554,743,25,30,92,1,7,11
4.36E+03,-8127,1554,735,39,30,104,1,7,11
4.36E+03,-8110,1550,738,55,44,108,1,7,11
4.36E+03,-8101,1551,745,66,66,108,1,7,11
4.36E+03,-8104,1557,756,79,84,102,1,7,11
4.36E+03,-8107,1567,766,92,95,95,1,7,11
4.36E+03,-8100,1579,758,90,101,88,1,7,11
4.36E+03,-8097,1588,752,79,119,84,1,7,11
4.36E+03,-8100,1587,744,60,-105,75,1,7,11
4.36E+03,-8110,1585,745,36,-88,70,1,7,11
4.36E+03,-8128,1590,749,8,-77,66,1,7,11
4.36E+03,-8130,1586,744,-263,-75,70,1,7,11
4.36E+03,-8135,1568,748,-273,-72,72,1,7,11
4.36E+03,-8151,1546,763,-278,-69,69,1,7,11
4.36E+03,-8156,1278,766,-268,-78,63,1,7,11
4.36E+03,-8150,1276,766,6,-89,60,1,7,11
4.36E+03,-8146,1275,763,27,-94,58,1,7,11
4.36E+03,-8138,1540,751,50,-94,59,1,7,11
4.36E+03,-8133,1546,734,65,-86,68,1,7,11
4.36E+03,-8131,1560,729,76,-78,78,1,7,11
4.36E+03,-8137,1571,729,76,-71,88,1,7,11
4.36E+03,-8142,1576,718,70,-73,98,1,7,11
4.36E+03,-8137,1579,713,57,-71,102,1,7,11
4.36E+03,-8133,1577,707,42,-73,104,1,7,11
4.36E+03,-8132,1578,706,31,-73,106,1,7,11
4.36E+03,-8128,1573,711,23,-75,102,1,7,11
4.37E+03,-8129,1571,708,23,-77,97,1,7,11
4.37E+03,-8129,1568,711,27,-78,91,1,7,11
4.37E+03,-8126,1569,705,35,-77,86,1,7,11
4.37E+03,-8129,1573,703,40,-77,84,1,7,11
4.37E+03,-8125,1571,704,46,-82,83,1,7,11
4.37E+03,-8128,1583,695,53,-84,81,1,7,11
4.37E+03,-8126,1582,690,56,-83,81,1,7,11
4.37E+03,-8126,1586,686,54,-78,82,1,7,11
4.37E+03,-8128,1590,683,46,-70,79,1,7,11
4.37E+03,-8133,1589,681,44,-65,76,1,7,11
4.37E+03,-8133,1586,680,40,-66,69,1,7,11
4.37E+03,-8136,1588,678,40,-70,63,1,7,11
4.37E+03,-8136,1590,664,38,-80,58,1,7,11
4.37E+03,-8140,1580,670,32,-83,53,1,7,11
4.37E+03,-8134,1575,672,27,-92,47,1,7,11
4.37E+03,-8150,1578,683,17,-99,41,1,7,11
4.37E+03,-8167,1581,679,10,-120,45,1,7,11
4.37E+03,-8158,1580,679,9,106,65,1,7,11
4.37E+03,-8136,1578,670,11,100,84,1,7,11
4.37E+03,-8124,1570,661,18,112,96,1,7,11
4.37E+03,-8114,1567,669,28,-126,98,1,7,11
4.37E+03,-8119,1565,671,41,-111,88,1,7,11
4.37E+03,-8127,1571,673,55,-108,76,1,7,11
4.37E+03,-8135,1584,677,64,-112,71,1,7,11
4.37E+03,-8134,1589,670,61,-116,73,1,7,11
4.37E+03,-8132,1582,670,51,-118,76,1,7,11
4.37E+03,-8132,1586,675,45,-114,73,1,7,11
4.37E+03,-8137,1583,671,39,-115,69,1,7,11
4.37E+03,-8137,1583,670,41,-114,68,1,7,11
4.37E+03,-8121,1581,661,38,-113,74,1,7,11
4.37E+03,-8132,1581,665,34,-105,71,1,7,11
4.37E+03,-8148,1574,679,31,-102,68,1,7,11
4.37E+03,-8147,1572,681,35,-117,63,1,7,11
4.37E+03,-8144,1573,671,39,-123,65,1,7,11
4.37E+03,-8136,1578,662,44,-124,66,1,7,11
4.37E+03,-8129,1581,657,45,-120,68,1,7,11
4.37E+03,-8140,1588,657,42,-116,69,1,7,11
4.37E+03,-8145,1586,653,41,-117,76,1,7,11
4.37E+03,-8140,1588,660,44,-125,79,1,7,11
4.37E+03,-8132,1589,658,46,124,81,1,7,11
4.38E+03,-8136,1590,662,44,119,79,1,7,11
4.38E+03,-8135,1586,659,36,114,78,1,7,11
4.38E+03,-8130,1581,661,36,112,74,1,7,11
4.38E+03,-8127,1580,665,37,111,75,1,7,11
4.38E+03,-8122,1581,665,38,108,74,1,7,11
4.38E+03,-8125,1588,663,44,107,75,1,7,11
4.38E+03,-8124,1593,665,45,108,81,1,7,11
4.38E+03,-8117,1592,660,49,110,81,1,7,11
4.38E+03,-8120,1598,667,55,116,82,1,7,11
4.38E+03,-8119,1602,663,56,124,83,1,7,11
4.38E+03,-8122,1601,661,53,-124,84,1,7,11
4.38E+03,-8126,1603,657,47,-115,83,1,7,11
4.38E+03,-8126,1602,659,38,-107,78,1,7,11
4.38E+03,-8132,1598,660,30,-104,70,1,7,11
4.38E+03,-8132,1603,664,26,-107,63,1,7,11
4.38E+03,-8130,1597,652,17,-107,57,1,7,11
4.38E+03,-8129,1595,646,8,-109,51,1,7,11
4.38E+03,-8131,1586,645,-257,-110,41,1,7,11
4.38E+03,-8154,1584,654,-266,-122,32,1,7,11
4.38E+03,-8162,1588,663,-267,107,38,1,7,11
4.38E+03,-8145,1583,661,-265,85,52,1,7,11
4.38E+03,-8133,1577,662,-257,87,68,1,7,11
4.38E+03,-8123,1580,655,9,99,79,1,7,11
4.38E+03,-8116,1573,653,18,114,83,1,7,11
4.38E+03,-8123,1568,664,32,124,83,1,7,11
4.38E+03,-8127,1581,669,45,122,79,1,7,11
4.38E+03,-8131,1587,667,52,116,77,1,7,11
4.38E+03,-8118,1590,663,50,115,73,1,7,11
4.38E+03,-8113,1589,662,46,122,69,1,7,11
4.38E+03,-8118,1586,655,41,-126,65,1,7,11
4.38E+03,-8124,1592,659,37,-123,64,1,7,11
4.38E+03,-8124,1596,654,35,-122,72,1,7,11
4.38E+03,-8117,1594,654,28,-116,80,1,7,11
4.38E+03,-8130,1590,660,22,-106,86,1,7,11
4.38E+03,-8143,1584,664,16,-105,89,1,7,11
4.38E+03,-8151,1573,666,20,-118,87,1,7,11
4.38E+03,-8147,1572,663,27,-125,85,1,7,11
4.38E+03,-8138,1577,653,37,122,82,1,7,11
4.38E+03,-8130,1586,648,45,124,83,1,7,11
4.38E+03,-8123,1593,647,51,-123,86,1,7,11
4.39E+03,-8132,1599,647,55,-117,91,1,7,11
4.39E+03,-8135,1602,895,56,-120,98,1,7,11
4.39E+03,-8135,1604,641,52,-127,104,1,7,11
4.39E+03,-8134,1609,895,48,124,107,1,7,11
4.39E+03,-8131,1606,643,43,118,106,1,7,11
4.39E+03,-8131,1605,640,39,115,104,1,7,11
4.39E+03,-8130,1605,649,37,108,103,1,7,11
4.39E+03,-8123,1605,645,40,103,105,1,7,11
4.39E+03,-8119,1606,651,43,103,107,1,7,11
4.39E+03,-8118,1612,656,49,105,110,1,7,11
4.39E+03,-8119,1610,652,55,108,112,1,7,11
4.39E+03,-8116,1610,654,64,111,112,1,7,11
4.39E+03,-8111,1613,644,73,117,110,1,7,11
4.39E+03,-8107,1623,640,78,125,108,1,7,11
4.39E+03,-8111,1629,640,76,-123,109,1,7,11
4.39E+03,-8118,1638,894,68,-114,112,1,7,11
4.39E+03,-8120,1642,894,57,-108,112,1,7,11
4.39E+03,-8124,1635,893,46,-101,110,1,7,11
4.39E+03,-8125,1636,895,40,-102,106,1,7,11
4.39E+03,-8123,1634,884,29,-103,102,1,7,11
4.39E+03,-8122,1629,886,21,-105,97,1,7,11
4.39E+03,-8128,1625,887,14,-108,88,1,7,11
4.39E+03,-8148,1622,644,4,115,81,1,7,11
4.39E+03,-8149,1630,642,10,85,90,1,7,11
4.39E+03,-8130,1632,892,15,74,102,1,7,11
4.39E+03,-8115,1632,888,24,84,110,1,7,11
4.39E+03,-8106,1634,889,33,101,112,1,7,11
4.39E+03,-8110,1631,888,42,116,111,1,7,11
4.39E+03,-8116,1629,646,53,120,106,1,7,11
4.39E+03,-8124,1634,651,62,113,98,1,7,11
4.39E+03,-8117,1637,651,63,106,93,1,7,11
4.39E+03,-8108,1637,641,61,109,89,1,7,11
4.39E+03,-8106,1636,883,54,117,79,1,7,11
4.39E+03,-8115,1640,888,47,127,73,1,7,11
4.39E+03,-8119,1650,641,42,-122,71,1,7,11
4.39E+03,-8118,1650,886,37,-123,80,1,7,11
4.39E+03,-8126,1643,894,27,-120,93,1,7,11
4.39E+03,-8130,1630,640,15,-122,97,1,7,11
4.39E+03,-8130,1624,654,18,125,98,1,7,11
4.39E+03,-8131,1621,654,27,115,98,1,7,11
4.40E+03,-8128,1627,647,42,105,99,1,7,11
4.40E+03,-8121,1629,894,55,104,100,1,7,11
4.40E+03,-8112,1633,643,68,107,101,1,7,11
4.40E+03,-8115,1642,640,78,112,108,1,7,11
4.40E+03,-8122,1655,892,83,115,115,1,7,11
4.40E+03,-8125,1408,893,81,114,124,1,7,11
4.40E+03,-8121,1410,895,75,113,-125,1,7,11
4.40E+03,-8120,1409,892,66,113,-122,1,7,11
4.40E+03,-8118,1663,641,57,113,-123,1,7,11
4.40E+03,-8118,1659,649,54,112,-124,1,7,11
4.40E+03,-8113,1660,658,56,112,-125,1,7,11
4.40E+03,-8107,1663,663,62,116,127,1,7,11
4.40E+03,-8104,1409,667,72,120,124,1,7,11
4.40E+03,-8103,1415,660,79,126,121,1,7,11
4.40E+03,-8102,1420,656,85,-125,119,1,7,11
4.40E+03,-8094,1425,654,90,-122,121,1,7,11
4.40E+03,-8090,1430,652,91,-114,122,1,7,11
4.40E+03,-8087,1438,651,89,-98,124,1,7,11
4.40E+03,-8083,1441,892,81,-80,125,1,7,11
4.40E+03,-8087,1443,886,70,-60,123,1,7,11
4.40E+03,-8088,1446,887,60,-41,117,1,7,11
4.40E+03,-8094,1441,882,51,-27,111,1,7,11
4.40E+03,-8095,1453,877,45,-17,104,1,7,11
4.40E+03,-8096,1451,872,32,-7,97,1,7,11
4.40E+03,-8101,1450,870,19,257,94,1,7,11
4.40E+03,-8108,1446,870,-257,259,88,1,7,11
4.40E+03,-8126,1450,866,-276,-5,78,1,7,11
4.40E+03,-8121,1448,855,-282,-27,82,1,7,11
4.40E+03,-8096,1450,851,-284,-35,89,1,7,11
4.40E+03,-8082,1442,834,-278,-22,95,1,7,11
4.40E+03,-8077,1440,833,-267,260,95,1,7,11
4.40E+03,-8091,1432,839,-259,290,92,1,7,11
4.40E+03,-8104,1436,835,10,307,86,1,7,11
4.40E+03,-8101,1446,825,19,309,82,1,7,11
4.40E+03,-8099,1451,816,18,311,78,1,7,11
4.40E+03,-8091,1451,797,12,317,73,1,7,11
4.40E+03,-8095,1452,792,0,330,69,1,7,11
4.40E+03,-8100,1446,784,-269,341,66,1,7,11
4.40E+03,-8110,1440,796,-280,348,63,1,7,11
4.40E+03,-8110,1432,773,-288,347,62,1,7,11
4.41E+03,-8115,1433,504,-294,340,53,1,7,11
4.41E+03,-8128,1427,501,-301,328,42,1,7,11
4.41E+03,-8129,1426,490,-302,314,39,1,7,11
4.41E+03,-8129,1426,487,-298,302,45,1,7,11
4.41E+03,-8134,1419,480,-290,294,54,1,7,11
4.41E+03,-8134,1423,473,-282,283,75,1,7,11
4.41E+03,-8127,1417,464,-273,275,95,1,7,11
4.41E+03,-8124,1413,461,-257,269,119,1,7,11
4.41E+03,-8126,1411,456,15,261,-114,1,7,11
4.41E+03,-8122,1423,453,33,-7,-94,1,7,11
4.41E+03,-8117,1425,444,49,-16,-79,1,7,11
4.41E+03,-8116,1436,434,62,-26,-69,1,7,11
4.41E+03,-8113,1443,430,71,-39,-65,1,7,11
4.41E+03,-8112,1461,423,77,-50,-63,1,7,11
4.41E+03,-8109,1468,407,77,-60,-62,1,7,11
4.41E+03,-8114,1478,400,74,-72,-60,1,7,11
4.41E+03,-8114,1487,405,70,-82,-59,1,7,11
4.41E+03,-8113,1490,413,66,-93,-59,1,7,11
4.41E+03,-8102,1496,408,70,-103,-58,1,7,11
4.41E+03,-8087,1501,414,77,-106,-60,1,7,11
4.41E+03,-8084,1513,404,83,-105,-65,1,7,11
4.41E+03,-8084,1517,408,81,-94,-68,1,7,11
4.41E+03,-8087,1525,405,81,-87,-76,1,7,11
4.41E+03,-8093,1524,407,79,-83,-85,1,7,11
4.41E+03,-8096,1534,407,79,-89,-97,1,7,11
4.41E+03,-8091,1795,406,75,-101,-111,1,7,11
4.41E+03,-8097,1799,415,65,-106,126,1,7,11
4.41E+03,-8095,1798,406,56,-118,107,1,7,11
4.41E+03,-8112,1801,411,40,126,85,1,7,11
4.41E+03,-8128,1810,416,31,99,73,1,7,11
4.41E+03,-8120,1810,409,25,65,73,1,7,11
4.41E+03,-8100,1811,403,24,54,76,1,7,11
4.41E+03,-8083,1811,406,30,62,72,1,7,11
4.41E+03,-8078,1805,409,38,74,62,1,7,11
4.41E+03,-8084,1802,419,47,84,41,1,7,11
4.41E+03,-8090,1806,424,57,84,18,1,7,11
4.41E+03,-8101,1804,427,57,73,-259,1,7,11
4.41E+03,-8103,1806,420,53,58,-277,1,7,11
4.41E+03,-8095,1797,418,44,50,-290,1,7,11
4.41E+03,-8094,1527,422,35,45,-307,1,7,11
4.42E+03,-8100,1518,434,25,39,-331,1,7,11
4.42E+03,-8087,1509,432,25,36,-338,1,7,11
4.42E+03,-8092,1503,437,25,33,-349,1,7,11
4.42E+03,-8103,1493,442,26,36,-358,1,7,11
4.42E+03,-8116,1482,445,22,33,-361,1,7,11
4.42E+03,-8115,1471,454,21,20,-363,1,7,11
4.42E+03,-8111,1461,459,22,7,-362,1,7,11
4.42E+03,-8103,1458,456,26,4,-358,1,7,11
4.42E+03,-8104,1458,453,30,14,-352,1,7,11
4.42E+03,-8111,1459,458,29,27,-338,1,7,11
4.42E+03,-8117,1458,451,27,34,-320,1,7,11
4.42E+03,-8120,1451,461,23,36,-304,1,7,11
4.42E+03,-8120,1445,461,17,36,-290,1,7,11
4.42E+03,-8117,1437,462,9,33,-282,1,7,11
4.42E+03,-8117,1424,468,3,30,-276,1,7,11
4.42E+03,-8116,1416,478,0,28,-271,1,7,11
4.42E+03,-8118,1412,476,0,27,-263,1,7,11
4.42E+03,-8122,1663,475,2,25,3,1,7,11
4.42E+03,-8125,1659,487,7,27,19,1,7,11
4.42E+03,-8123,1655,489,12,24,32,1,7,11
4.42E+03,-8116,1647,495,19,27,47,1,7,11
4.42E+03,-8120,1644,502,26,29,60,1,7,11
4.42E+03,-8122,1652,768,31,29,76,1,7,11
4.42E+03,-8121,1653,769,37,28,90,1,7,11
4.42E+03,-8118,1652,769,41,29,101,1,7,11
4.42E+03,-8120,1656,771,47,29,104,1,7,11
4.42E+03,-8127,1657,780,52,24,108,1,7,11
4.42E+03,-8123,1411,784,54,16,114,1,7,11
4.42E+03,-8119,1409,789,57,13,118,1,7,11
4.42E+03,-8118,1413,792,55,10,116,1,7,11
4.42E+03,-8133,1419,804,51,0,113,1,7,11
4.42E+03,-8139,1427,804,49,-280,113,1,7,11
4.42E+03,-8128,1440,797,52,-303,122,1,7,11
4.42E+03,-8113,1447,799,60,-308,-121,1,7,11
4.42E+03,-8101,1452,800,66,-299,-114,1,7,11
4.42E+03,-8091,1447,807,74,-281,-114,1,7,11
4.42E+03,-8095,1443,829,82,-264,-123,1,7,11
4.42E+03,-8105,1449,836,90,-260,118,1,7,11
4.42E+03,-8098,1461,834,100,-275,77,1,7,11
4.42E+03,-8091,1464,841,96,-265,63,1,7,11
4.43E+03,-8089,1467,842,91,5,52,1,7,11
4.43E+03,-8096,1472,846,87,18,44,1,7,11
4.43E+03,-8095,1473,840,81,26,46,1,7,11
4.43E+03,-8100,1479,848,70,36,50,1,7,11
4.43E+03,-8104,1469,863,54,45,55,1,7,11
4.43E+03,-8111,1462,873,43,48,54,1,7,11
4.43E+03,-8110,1457,887,39,45,52,1,7,11
4.43E+03,-8106,1444,890,40,42,47,1,7,11
4.43E+03,-8098,1441,889,47,46,43,1,7,11
4.43E+03,-8095,1440,895,63,63,43,1,7,11
4.43E+03,-8095,1442,889,77,76,45,1,7,11
4.43E+03,-8098,1447,880,86,87,50,1,7,11
4.43E+03,-8100,1449,883,87,97,57,1,7,11
4.43E+03,-8099,1454,877,83,104,59,1,7,11
4.43E+03,-8102,1457,873,71,109,54,1,7,11
4.43E+03,-8107,1457,882,56,110,47,1,7,11
4.43E+03,-8105,1457,880,39,114,44,1,7,11
4.43E+03,-8107,1452,885,25,119,43,1,7,11
4.43E+03,-8111,1440,882,17,123,41,1,7,11
4.43E+03,-8113,1435,885,17,126,39,1,7,11
4.43E+03,-8108,1429,887,24,-128,40,1,7,11
4.43E+03,-8108,1428,880,32,-124,39,1,7,11
4.43E+03,-8099,1426,871,44,-118,43,1,7,11
4.43E+03,-8099,1430,873,52,-110,47,1,7,11
4.43E+03,-8101,1440,854,54,-101,51,1,7,11
4.43E+03,-8110,1439,850,48,-98,54,1,7,11
4.43E+03,-8116,1443,849,42,-101,53,1,7,11
4.43E+03,-8117,1446,843,37,-109,50,1,7,11
4.43E+03,-8115,1444,842,23,-117,51,1,7,11
4.43E+03,-8119,1440,844,14,-126,49,1,7,11
4.43E+03,-8133,1437,848,1,118,44,1,7,11
4.43E+03,-8143,1433,854,-261,93,41,1,7,11
4.43E+03,-8139,1435,849,1,63,46,1,7,11
4.43E+03,-8129,1433,844,14,45,58,1,7,11
4.43E+03,-8115,1433,843,29,45,69,1,7,11
4.43E+03,-8102,1434,845,43,57,77,1,7,11
4.43E+03,-8106,1430,860,57,71,76,1,7,11
4.43E+03,-8111,1431,869,69,74,71,1,7,11
4.43E+03,-8115,1436,866,80,66,63,1,7,11
4.43E+03,-8114,1439,869,82,57,57,1,7,11
4.44E+03,-8100,1439,865,81,58,48,1,7,11
4.44E+03,-8096,1439,860,73,65,41,1,7,11
4.44E+03,-8101,1438,864,62,77,38,1,7,11
4.44E+03,-8109,1439,867,55,86,38,1,7,11
4.44E+03,-8113,1436,874,46,86,45,1,7,11
4.44E+03,-8118,1431,875,38,87,51,1,7,11
4.44E+03,-8122,1419,886,29,86,56,1,7,11
4.44E+03,-8125,1408,642,27,79,58,1,7,11
4.44E+03,-8123,1663,654,30,71,60,1,7,11
4.44E+03,-8121,1410,664,47,62,60,1,7,11
4.44E+03,-8110,1660,662,62,65,64,1,7,11
4.44E+03,-8101,1408,658,77,72,66,1,7,11
4.44E+03,-8109,1419,658,87,80,70,1,7,11
4.44E+03,-8112,1430,655,90,86,79,1,7,11
4.44E+03,-8112,1437,645,88,87,89,1,7,11
4.44E+03,-8108,1443,645,80,90,96,1,7,11
4.44E+03,-8106,1444,648,72,95,95,1,7,11
4.44E+03,-8102,1451,653,63,99,94,1,7,11
4.44E+03,-8097,1449,655,58,109,91,1,7,11
4.44E+03,-8094,1448,655,55,122,85,1,7,11
4.44E+03,-8093,1447,654,55,-122,79,1,7,11
4.44E+03,-8095,1447,646,53,-107,73,1,7,11
4.44E+03,-8096,1450,647,47,-97,68,1,7,11
4.44E+03,-8095,1450,642,41,-85,62,1,7,11
4.44E+03,-8099,1452,644,34,-75,58,1,7,11
4.44E+03,-8098,1452,895,23,-67,57,1,7,11
4.44E+03,-8096,1444,892,13,-55,56,1,7,11
4.44E+03,-8096,1436,890,5,-43,54,1,7,11
4.44E+03,-8110,1430,641,-257,-36,50,1,7,11
4.44E+03,-8118,1423,884,2,-38,48,1,7,11
4.44E+03,-8115,1426,879,4,-44,47,1,7,11
4.44E+03,-8120,1418,872,5,-46,47,1,7,11
4.44E+03,-8121,1416,866,5,-54,43,1,7,11
4.44E+03,-8139,1419,868,1,-65,42,1,7,11
4.44E+03,-8154,1421,867,-257,-92,55,1,7,11
4.44E+03,-8153,1423,855,3,-120,77,1,7,11
4.44E+03,-8127,1423,837,9,126,98,1,7,11
4.44E+03,-8111,1419,830,21,-123,106,1,7,11
4.44E+03,-8103,1417,840,33,-110,102,1,7,11
4.44E+03,-8111,1421,850,45,-101,91,1,7,11
4.45E+03,-8115,1435,853,58,-107,77,1,7,11
4.45E+03,-8124,1443,844,64,-118,69,1,7,11
4.45E+03,-8115,1448,831,62,-128,67,1,7,11
4.45E+03,-8106,1445,826,53,126,63,1,7,11
4.45E+03,-8107,1440,825,44,127,57,1,7,11
4.45E+03,-8114,1444,825,37,126,53,1,7,11
4.45E+03,-8123,1446,831,38,122,52,1,7,11
4.45E+03,-8116,1441,826,33,115,58,1,7,11
4.45E+03,-8121,1438,835,29,112,59,1,7,11
4.45E+03,-8127,1431,842,27,106,59,1,7,11
4.45E+03,-8125,1421,848,35,91,58,1,7,11
4.45E+03,-8121,1415,851,48,81,56,1,7,11
4.45E+03,-8115,1420,848,62,75,51,1,7,11
4.45E+03,-8108,1427,849,73,75,53,1,7,11
4.45E+03,-8106,1430,841,82,78,57,1,7,11
4.45E+03,-8112,1433,844,85,81,63,1,7,11
4.45E+03,-8114,1440,847,87,81,69,1,7,11
4.45E+03,-8112,1444,856,83,79,71,1,7,11
4.45E+03,-8107,1443,857,76,76,70,1,7,11
4.45E+03,-8108,1445,857,71,78,66,1,7,11
4.45E+03,-8112,1443,860,66,77,61,1,7,11
4.45E+03,-8116,1437,871,61,77,57,1,7,11
4.45E+03,-8119,1435,873,54,76,54,1,7,11
4.45E+03,-8117,1424,880,53,73,51,1,7,11
4.45E+03,-8111,1422,886,57,73,46,1,7,11
4.45E+03,-8108,1422,886,65,76,43,1,7,11
4.45E+03,-8107,1428,885,73,85,43,1,7,11
4.45E+03,-8105,1431,877,79,98,43,1,7,11
4.45E+03,-8104,1431,880,81,110,44,1,7,11
4.45E+03,-8109,1436,884,78,119,43,1,7,11
4.45E+03,-8109,1438,871,72,121,41,1,7,11
4.45E+03,-8109,1439,865,62,121,41,1,7,11
4.45E+03,-8109,1437,878,47,-128,35,1,7,11
4.45E+03,-8109,1432,879,33,-125,31,1,7,11
4.45E+03,-8124,1431,882,16,-123,22,1,7,11
4.45E+03,-8146,1428,882,5,116,25,1,7,11
4.45E+03,-8135,1428,871,1,92,36,1,7,11
4.45E+03,-8125,1421,867,-257,88,47,1,7,11
4.45E+03,-8112,1409,870,5,97,55,1,7,11
4.45E+03,-8107,1659,880,17,108,54,1,7,11
4.46E+03,-8109,1655,877,29,118,45,1,7,11
4.46E+03,-8121,1654,875,46,114,35,1,7,11
4.46E+03,-8121,1410,877,58,103,28,1,7,11
4.46E+03,-8118,1663,870,61,94,23,1,7,11
4.46E+03,-8113,1409,858,58,91,25,1,7,11
4.46E+03,-8113,1663,867,52,94,25,1,7,11
4.46E+03,-8113,1410,874,45,94,24,1,7,11
4.46E+03,-8119,1412,869,42,93,31,1,7,11
4.46E+03,-8104,1408,869,35,93,40,1,7,11
4.46E+03,-8111,1663,881,31,102,42,1,7,11
4.46E+03,-8131,1655,879,24,102,44,1,7,11
4.46E+03,-8132,1649,887,25,92,48,1,7,11
4.46E+03,-8128,1649,890,30,80,53,1,7,11
4.46E+03,-8125,1645,640,37,75,53,1,7,11
4.46E+03,-8118,1649,890,44,80,55,1,7,11
4.46E+03,-8118,1653,890,52,91,58,1,7,11
4.46E+03,-8124,1659,889,60,99,61,1,7,11
4.46E+03,-8134,1662,873,62,98,65,1,7,11
4.46E+03,-8133,1409,872,58,93,69,1,7,11
4.46E+03,-8131,1412,870,49,87,69,1,7,11
4.46E+03,-8131,1413,870,38,82,67,1,7,11
4.46E+03,-8130,1413,874,28,76,63,1,7,11
4.46E+03,-8132,1410,878,22,69,61,1,7,11
4.46E+03,-8127,1662,877,21,61,61,1,7,11
4.46E+03,-8122,1658,883,23,49,64,1,7,11
4.46E+03,-8113,1657,880,34,43,68,1,7,11
4.46E+03,-8113,1655,881,46,41,72,1,7,11
4.46E+03,-8110,1662,880,56,38,81,1,7,11
4.46E+03,-8109,1414,883,64,39,88,1,7,11
4.46E+03,-8111,1422,885,67,39,92,1,7,11
4.46E+03,-8119,1422,892,67,37,94,1,7,11
4.46E+03,-8119,1423,883,67,31,97,1,7,11
4.46E+03,-8114,1423,893,60,26,101,1,7,11
4.46E+03,-8110,1418,643,52,23,100,1,7,11
4.46E+03,-8118,1421,655,34,22,95,1,7,11
4.46E+03,-8130,1417,673,24,2,90,1,7,11
4.46E+03,-8128,1420,678,25,-281,98,1,7,11
4.46E+03,-8110,1409,686,33,-292,109,1,7,11
4.46E+03,-8102,1663,686,42,-283,116,1,7,11
4.46E+03,-8096,1409,696,55,-267,119,1,7,11
4.47E+03,-8097,1411,707,70,9,115,1,7,11
4.47E+03,-8104,1420,713,84,22,104,1,7,11
4.47E+03,-8106,1417,717,94,24,93,1,7,11
4.47E+03,-8107,1421,719,97,19,82,1,7,11
4.47E+03,-8105,1424,722,95,19,70,1,7,11
4.47E+03,-8102,1426,719,87,24,60,1,7,11
4.47E+03,-8106,1427,724,79,29,51,1,7,11
4.47E+03,-8109,1428,719,72,36,47,1,7,11
4.47E+03,-8112,1429,720,63,41,53,1,7,11
4.47E+03,-8113,1427,728,55,48,59,1,7,11
4.47E+03,-8112,1420,742,44,55,64,1,7,11
4.47E+03,-8117,1414,751,42,55,68,1,7,11
4.47E+03,-8115,1412,753,47,52,71,1,7,11
4.47E+03,-8114,1413,752,56,52,71,1,7,11
4.47E+03,-8108,1414,740,67,53,76,1,7,11
4.47E+03,-8109,1426,751,75,60,78,1,7,11
4.47E+03,-8108,1433,746,82,69,84,1,7,11
4.47E+03,-8105,1438,735,86,78,90,1,7,11
4.47E+03,-8103,1444,728,88,83,94,1,7,11
4.47E+03,-8105,1449,733,84,86,91,1,7,11
4.47E+03,-8104,1451,733,77,90,86,1,7,11
4.47E+03,-8102,1450,734,68,96,81,1,7,11
4.47E+03,-8102,1449,741,62,97,75,1,7,11
4.47E+03,-8101,1447,734,51,103,66,1,7,11
4.47E+03,-8102,1440,740,49,106,59,1,7,11
4.47E+03,-8098,1432,741,51,109,58,1,7,11
4.47E+03,-8094,1430,744,59,118,54,1,7,11
4.47E+03,-8094,1433,742,65,-127,52,1,7,11
4.47E+03,-8098,1436,732,68,-115,51,1,7,11
4.47E+03,-8103,1440,735,67,-103,49,1,7,11
4.47E+03,-8108,1439,732,63,-94,48,1,7,11
4.47E+03,-8109,1436,727,59,-88,45,1,7,11
4.47E+03,-8113,1438,720,53,-86,46,1,7,11
4.47E+03,-8115,1435,720,39,-84,46,1,7,11
4.47E+03,-8117,1427,724,27,-88,48,1,7,11
4.47E+03,-8129,1429,720,10,-95,47,1,7,11
4.47E+03,-8142,1419,732,-258,-114,49,1,7,11
4.47E+03,-8139,1419,732,-259,115,58,1,7,11
4.47E+03,-8128,1421,722,4,102,76,1,7,11
4.47E+03,-8111,1421,709,14,104,91,1,7,11
4.48E+03,-8100,1419,716,24,114,97,1,7,11
4.48E+03,-8102,1415,713,37,127,100,1,7,11
4.48E+03,-8109,1418,721,55,-126,93,1,7,11
4.48E+03,-8116,1428,719,68,121,85,1,7,11
4.48E+03,-8111,1437,727,73,113,77,1,7,11
4.48E+03,-8096,1441,718,69,117,69,1,7,11
4.48E+03,-8096,1442,721,57,125,66,1,7,11
4.48E+03,-8097,1445,718,43,-121,65,1,7,11
4.48E+03,-8103,1448,716,34,-111,71,1,7,11
4.48E+03,-8101,1441,721,27,-106,79,1,7,11
4.48E+03,-8105,1438,719,26,-103,84,1,7,11
4.48E+03,-8105,1429,722,23,-98,84,1,7,11
4.48E+03,-8108,1425,714,28,-94,82,1,7,11
4.48E+03,-8110,1427,717,35,-95,82,1,7,11
4.48E+03,-8106,1433,714,45,-95,82,1,7,11
4.48E+03,-8105,1436,711,52,-94,83,1,7,11
4.48E+03,-8103,1447,708,52,-88,85,1,7,11
4.48E+03,-8111,1447,708,52,-81,86,1,7,11
4.48E+03,-8119,1451,703,48,-73,86,1,7,11
4.48E+03,-8119,1463,705,43,-72,89,1,7,11
4.48E+03,-8108,1455,700,35,-76,88,1,7,11
4.48E+03,-8110,1457,704,28,-78,85,1,7,11
4.48E+03,-8112,1453,701,26,-78,79,1,7,11
4.48E+03,-8111,1449,704,24,-82,73,1,7,11
4.48E+03,-8108,1440,697,25,-87,71,1,7,11
4.48E+03,-8111,1439,696,27,-90,69,1,7,11
4.48E+03,-8107,1436,700,32,-92,70,1,7,11
4.48E+03,-8107,1436,700,41,-95,73,1,7,11
4.48E+03,-8102,1445,688,50,-93,78,1,7,11
4.48E+03,-8103,1452,682,56,-87,79,1,7,11
4.48E+03,-8100,1456,671,58,-80,83,1,7,11
4.48E+03,-8103,1461,667,56,-74,80,1,7,11
4.48E+03,-8105,1462,673,48,-72,78,1,7,11
4.48E+03,-8109,1467,664,45,-75,75,1,7,11
4.48E+03,-8109,1463,657,38,-78,72,1,7,11
4.48E+03,-8105,1461,655,25,-79,62,1,7,11
4.48E+03,-8112,1457,656,14,-82,54,1,7,11
4.48E+03,-8134,1455,663,3,-90,46,1,7,11
4.48E+03,-8143,1456,666,-257,-116,51,1,7,11
4.48E+03,-8125,1460,649,-257,117,64,1,7,11
4.49E+03,-8101,1451,655,5,116,72,1,7,11
4.49E+03,-8088,1445,654,18,-128,73,1,7,11
4.49E+03,-8084,1439,658,34,-111,65,1,7,11
4.49E+03,-8101,1440,663,51,-102,52,1,7,11
4.49E+03,-8115,1445,667,70,-104,41,1,7,11
4.49E+03,-8116,1454,662,76,-111,36,1,7,11
4.49E+03,-8104,1448,646,70,-119,31,1,7,11
4.49E+03,-8107,1447,648,61,-119,25,1,7,11
4.49E+03,-8112,1443,641,51,-121,24,1,7,11
4.49E+03,-8117,1449,895,41,-122,25,1,7,11
4.49E+03,-8114,1435,645,33,-126,32,1,7,11
4.49E+03,-8120,1421,652,26,-124,33,1,7,11
4.49E+03,-8127,1410,666,19,-126,33,1,7,11
4.49E+03,-8121,1657,663,26,113,31,1,7,11
4.49E+03,-8119,1659,661,42,106,34,1,7,11
4.49E+03,-8119,1411,666,56,100,41,1,7,11
4.49E+03,-8112,1422,659,69,101,53,1,7,11
4.49E+03,-8110,1426,650,75,109,66,1,7,11
4.49E+03,-8115,1435,654,76,119,74,1,7,11
4.49E+03,-8114,1441,648,74,121,80,1,7,11
4.49E+03,-8117,1442,648,67,117,81,1,7,11
4.49E+03,-8120,1445,649,55,111,79,1,7,11
4.49E+03,-8115,1443,655,40,106,77,1,7,11
