timestamp,ax,ay,az,gx,gy,gz,Label1,Label2,Label3
9.50E+02,-6370,-3168,4227,380,169,-69,1,7,11
9.50E+02,-6382,-3123,4472,277,209,-60,1,7,11
9.50E+02,-6681,-3133,4473,-114,250,-21,1,7,11
9.50E+02,-6375,-3149,4230,-346,517,310,1,7,11
9.50E+02,-6663,-3180,4275,-591,559,249,1,7,11
9.50E+02,-6399,-3003,4619,-805,570,-86,1,7,11
9.50E+02,-6718,-3011,4643,-825,592,116,1,7,11
9.50E+02,-6768,-3034,4670,-439,400,-306,1,7,11
9.50E+02,-6536,-3056,4661,-238,421,-351,1,7,11
9.50E+02,-6574,-3368,4654,6,498,-223,1,7,11
9.50E+02,-6560,-3418,4627,97,496,-530,1,7,11
9.50E+02,-6576,-3431,4289,553,454,-579,1,7,11
9.50E+02,-6543,-3391,4228,617,422,-610,1,7,11
9.50E+02,-6594,-3375,4479,391,442,-401,1,7,11
9.50E+02,-6615,-3379,4456,472,443,-629,1,7,11
9.50E+02,-6587,-3374,4442,502,424,-584,1,7,11
9.50E+02,-6565,-3385,4427,777,413,-566,1,7,11
9.50E+02,-6554,-3371,4385,786,404,-540,1,7,11
9.50E+02,-6548,-3365,4373,452,386,-256,1,7,11
9.50E+02,-6557,-3368,4377,576,569,-248,1,7,11
9.51E+02,-6555,-3363,4377,191,210,-243,1,7,11
9.51E+02,-6552,-3371,4408,312,359,-232,1,7,11
9.51E+02,-6569,-3364,4424,-13,287,-196,1,7,11
9.51E+02,-6570,-3352,4423,-76,-54,-370,1,7,11
9.50E+02,-6755,-3364,4462,92,100,-285,1,7,11
9.49E+02,-6723,-3368,4238,56,62,-261,1,7,11
9.48E+02,-6716,-3348,4264,23,26,-260,1,7,11
9.47E+02,-6736,-3332,4292,-286,16,-271,1,7,11
9.46E+02,-6544,-3330,4309,-345,15,-280,1,7,11
9.47E+02,-6582,-3064,4311,-160,-269,28,1,7,11
9.50E+02,-6619,-3055,4321,-255,-272,102,1,7,11
9.55E+02,-6923,-3060,4619,-617,-284,-70,1,7,11
9.58E+02,-6944,-3067,4644,-412,-305,273,1,7,11
9.56E+02,-6957,-3069,4675,-421,-292,329,1,7,11
9.44E+02,-6996,-3064,4668,-636,22,354,1,7,11
9.20E+02,-7025,-3057,4668,-576,97,364,1,7,11
8.87E+02,-6823,-3043,4627,-174,-22,343,1,7,11
8.48E+02,-7183,-3191,4248,-257,132,331,1,7,11
8.07E+02,-7183,-3189,4246,-275,228,354,1,7,11
7.67E+02,-7209,-3141,4368,46,550,352,1,7,11
7.30E+02,-7176,-3093,4049,-300,543,320,1,7,11
7.00E+02,-6905,-3094,4064,-367,570,-47,1,7,11
6.73E+02,-7183,-3129,4045,-154,226,117,1,7,11
6.48E+02,-6893,-3141,4019,-147,324,24,1,7,11
6.25E+02,-7184,-3129,3996,-156,-37,-335,1,7,11
6.03E+02,-6902,-2950,4079,-332,-107,-355,1,7,11
5.90E+02,-7283,-3102,4138,26,114,-303,1,7,11
5.90E+02,-6899,-3010,4017,-523,-309,42,1,7,11
6.07E+02,-6859,-3061,4065,-623,-384,-292,1,7,11
6.33E+02,-6895,-3369,4373,-442,-176,-129,1,7,11
6.55E+02,-6900,-3375,4367,-463,-207,-130,1,7,11
6.72E+02,-6861,-3381,4083,-512,-206,-324,1,7,11
6.93E+02,-6831,-3409,4066,-795,-148,-272,1,7,11
7.22E+02,-6793,-3407,4019,-492,-314,35,1,7,11
7.50E+02,-7034,-3394,3978,-449,72,69,1,7,11
7.67E+02,-6788,-3372,4187,-423,-52,101,1,7,11
7.75E+02,-6790,-3349,4144,-418,290,-121,1,7,11
7.76E+02,-6797,-3347,4118,-433,352,-109,1,7,11
7.75E+02,-6821,-3354,3837,-438,382,-106,1,7,11
7.72E+02,-6837,-3358,3833,-447,130,-115,1,7,11
7.72E+02,-6846,-3367,3818,-448,365,126,1,7,11
7.74E+02,-6852,-3391,3815,-445,332,100,1,7,11
7.76E+02,-6844,-3406,3816,-408,284,85,1,7,11
7.74E+02,-6833,-3415,3837,-632,-39,60,1,7,11
7.67E+02,-6835,-3433,4135,-620,-94,28,1,7,11
7.55E+02,-6839,-3436,4174,-529,97,2,1,7,11
7.39E+02,-6852,-3425,4185,-192,9,10,1,7,11
7.20E+02,-6787,-3437,3970,-379,-331,43,1,7,11
7.06E+02,-6795,-3429,3980,-324,-356,52,1,7,11
7.01E+02,-7034,-3420,3972,-304,-132,92,1,7,11
7.03E+02,-7030,-3424,3968,-346,-380,-97,1,7,11
7.05E+02,-7022,-3425,3979,-193,-367,272,1,7,11
6.98E+02,-6965,-3451,4053,-602,-355,146,1,7,11
6.84E+02,-6646,-3219,4379,-450,-296,226,1,7,11
6.68E+02,-6576,-3453,4394,-504,33,225,1,7,11
6.55E+02,-6534,-3428,4376,-790,-53,171,1,7,11
6.47E+02,-6570,-3429,4372,-803,149,371,1,7,11
6.46E+02,-6961,-3221,4479,-553,395,323,1,7,11
6.51E+02,-6960,-3216,4460,38,416,283,1,7,11
6.59E+02,-7009,-3435,4415,360,463,-39,1,7,11
6.67E+02,-6822,-3430,4403,384,508,-110,1,7,11
6.71E+02,-6901,-3412,4382,675,789,98,1,7,11
6.69E+02,-7244,-3371,4088,923,784,95,1,7,11
6.59E+02,-7045,-3335,4027,1337,465,122,1,7,11
6.48E+02,-7053,-2999,4217,1372,637,-81,1,7,11
6.41E+02,-7284,-3187,4136,1285,570,-23,1,7,11
6.40E+02,-7253,-3092,4131,1144,543,277,1,7,11
6.45E+02,-7250,-2811,4129,758,555,328,1,7,11
6.56E+02,-7217,-2735,4110,684,589,140,1,7,11
6.68E+02,-7265,-2924,3785,888,399,221,1,7,11
6.75E+02,-7248,-2843,3955,387,633,558,1,7,11
6.74E+02,-7206,-2820,3940,343,395,601,1,7,11
6.67E+02,-7228,-2826,3945,83,452,561,1,7,11
6.55E+02,-7130,-2532,3934,-151,774,207,1,7,11
6.41E+02,-7486,-2545,3966,-385,489,176,1,7,11
6.31E+02,-7532,-2822,3717,-793,448,175,1,7,11
6.29E+02,-7545,-2828,3957,-857,401,180,1,7,11
6.33E+02,-7505,-2817,3943,-866,613,167,1,7,11
6.39E+02,-7464,-2555,3940,-835,599,365,1,7,11
6.44E+02,-7460,-2826,3944,-476,534,-69,1,7,11
6.39E+02,-7165,-2817,3924,-389,157,50,1,7,11
6.23E+02,-7089,-2831,3918,-576,286,-341,1,7,11
6.06E+02,-7251,-2848,3923,-210,-83,-218,1,7,11
6.02E+02,-6900,-2869,3930,-315,104,-622,1,7,11
6.09E+02,-6855,-2886,3932,99,82,-781,1,7,11
6.13E+02,-6800,-2934,3713,-8,78,-648,1,7,11
6.06E+02,-6802,-2731,3712,356,82,-754,1,7,11
5.95E+02,-6999,-2800,3752,155,35,-1066,1,7,11
5.93E+02,-7015,-3111,3790,223,51,-901,1,7,11
5.97E+02,-6835,-3168,3835,534,46,-954,1,7,11
6.01E+02,-6857,-2974,4141,594,5,-951,1,7,11
6.02E+02,-6908,-3021,4194,395,-259,-933,1,7,11
6.03E+02,-7234,-3331,4008,450,-276,-1113,1,7,11
6.09E+02,-7248,-3369,4045,789,-293,-741,1,7,11
6.14E+02,-7279,-3363,4045,853,-266,-858,1,7,11
6.11E+02,-7287,-3364,4074,840,18,-419,1,7,11
6.00E+02,-7277,-3352,4090,805,66,-232,1,7,11
5.94E+02,-7270,-3060,4359,776,-127,-301,1,7,11
6.00E+02,-7253,-3022,4080,481,-63,-126,1,7,11
6.11E+02,-7264,-2962,4040,393,264,268,1,7,11
6.20E+02,-7264,-3157,4014,515,322,129,1,7,11
6.26E+02,-7190,-3096,4034,354,182,144,1,7,11
6.34E+02,-7197,-2766,3997,-6,332,339,1,7,11
6.48E+02,-6882,-2926,4131,-51,365,583,1,7,11
6.63E+02,-7253,-2908,4137,-65,153,518,1,7,11
6.77E+02,-6871,-2864,4100,-166,290,535,1,7,11
6.85E+02,-6792,-2823,3795,-545,256,226,1,7,11
6.90E+02,-7010,-2555,3802,-395,-33,153,1,7,11
6.91E+02,-7034,-2543,3786,-450,-36,332,1,7,11
6.92E+02,-6862,-2557,3801,-778,-24,266,1,7,11
6.99E+02,-7230,-2843,3825,-829,-40,-25,1,7,11
7.16E+02,-7273,-2858,4096,-866,-115,-2,1,7,11
7.37E+02,-7065,-2879,4120,-647,100,267,1,7,11
7.55E+02,-7140,-2915,4149,-683,68,276,1,7,11
7.63E+02,-7451,-2701,4169,-711,38,289,1,7,11
7.64E+02,-7524,-2755,4189,-742,24,289,1,7,11
7.63E+02,-7322,-2815,3986,-1027,4,292,1,7,11
7.67E+02,-7372,-3129,4019,-762,-261,294,1,7,11
7.73E+02,-7395,-3173,4049,-733,-261,308,1,7,11
7.77E+02,-7380,-2950,4048,-667,33,330,1,7,11
7.75E+02,-7330,-2947,3991,-841,101,363,1,7,11
7.66E+02,-7503,-3182,4191,-797,-46,133,1,7,11
7.53E+02,-7164,-3177,4148,-791,338,140,1,7,11
7.39E+02,-7280,-3186,4115,-776,184,377,1,7,11
7.27E+02,-7175,-3184,3792,-770,533,304,1,7,11
7.24E+02,-6836,-3188,3733,-799,589,-50,1,7,11
7.33E+02,-7019,-3200,3954,-844,611,101,1,7,11
7.48E+02,-7015,-2957,3911,-842,390,4,1,7,11
7.57E+02,-7026,-2968,3896,-820,390,-301,1,7,11
7.51E+02,-7032,-2996,3895,-796,610,-308,1,7,11
7.36E+02,-6799,-3028,3869,-499,521,-301,1,7,11
7.28E+02,-6794,-3027,3542,-488,131,-265,1,7,11
7.42E+02,-7011,-3041,3526,-782,272,24,1,7,11
7.67E+02,-7031,-3067,3522,-800,-34,24,1,7,11
7.86E+02,-7036,-3069,3935,-512,-110,57,1,7,11
7.84E+02,-6909,-3339,3508,-168,264,126,1,7,11
7.65E+02,-6880,-3363,3469,-215,101,288,1,7,11
7.45E+02,-6834,-3350,3691,-564,-261,376,1,7,11
7.40E+02,-6813,-3352,3467,-468,-340,141,1,7,11
7.52E+02,-6808,-3350,3489,-819,-152,153,1,7,11
7.73E+02,-6799,-3341,3524,-662,-198,172,1,7,11
7.95E+02,-7033,-3378,3563,-749,-242,210,1,7,11
8.15E+02,-7008,-3378,3571,-765,-546,236,1,7,11
8.30E+02,-6989,-3360,3572,-751,-600,234,1,7,11
8.38E+02,-6952,-3350,3579,-760,-416,234,1,7,11
8.39E+02,-6926,-3334,3563,-758,-444,231,1,7,11
8.34E+02,-6935,-3060,3545,-751,-444,234,1,7,11
8.25E+02,-6969,-3055,3542,-747,-428,237,1,7,11
8.13E+02,-7037,-3332,3564,-777,-422,222,1,7,11
8.03E+02,-6842,-3365,3856,-1055,-456,190,1,7,11
8.03E+02,-6895,-3385,3866,-1053,-512,140,1,7,11
8.15E+02,-6892,-3388,3863,-1056,-827,349,1,7,11
8.38E+02,-6892,-3402,3840,-1083,-844,282,1,7,11
8.60E+02,-7189,-3389,3465,-1129,-841,-46,1,7,11
8.74E+02,-6886,-3388,3473,-1398,-659,-91,1,7,11
8.74E+02,-6857,-3255,3850,-1225,-805,-117,1,7,11
8.63E+02,-7172,-3307,3860,-1388,-486,87,1,7,11
8.47E+02,-7183,-3325,3896,-1393,-800,74,1,7,11
8.30E+02,-6862,-3670,3763,-1162,-849,47,1,7,11
8.16E+02,-6804,-3467,3811,-1353,-878,-271,1,7,11
8.08E+02,-7029,-3501,4101,-998,-851,-368,1,7,11
8.09E+02,-6803,-3524,4130,-1110,-500,-193,1,7,11
8.17E+02,-6888,-3528,4124,-715,-404,-179,1,7,11
8.29E+02,-7211,-3535,4127,-650,-599,-319,1,7,11
8.41E+02,-7217,-3543,4130,-872,-573,114,1,7,11
8.50E+02,-7169,-3532,4104,-854,-538,288,1,7,11
8.56E+02,-6879,-3494,3805,-866,-195,162,1,7,11
8.58E+02,-6857,-3707,3755,-654,-315,512,1,7,11
8.58E+02,-6896,-3621,3944,-689,-81,603,1,7,11
8.56E+02,-6911,-3597,3924,-699,-5,625,1,7,11
8.53E+02,-7242,-3290,3873,-685,381,399,1,7,11
8.52E+02,-7238,-3244,3548,-643,169,437,1,7,11
8.55E+02,-7255,-3435,3478,-847,221,415,1,7,11
8.64E+02,-7044,-3401,3677,-806,230,627,1,7,11
8.81E+02,-7273,-3382,3625,-509,183,578,1,7,11
9.07E+02,-7289,-3379,3599,-466,149,233,1,7,11
9.36E+02,-7044,-3375,3315,-393,355,140,1,7,11
9.60E+02,-7063,-3347,3277,-578,300,311,1,7,11
9.71E+02,-7082,-3341,3269,-540,-4,-14,1,7,11
9.62E+02,-7092,-3349,3280,-227,-48,-75,1,7,11
9.39E+02,-7103,-3356,3295,-174,-111,126,1,7,11
9.08E+02,-7084,-3374,3292,-384,64,74,1,7,11
8.76E+02,-7065,-3381,3318,-372,-267,24,1,7,11
8.48E+02,-7063,-3425,3632,-382,-310,-281,1,7,11
8.27E+02,-7261,-3444,3701,-138,-371,-300,1,7,11
8.17E+02,-7270,-3243,3484,-139,-148,-362,1,7,11
8.19E+02,-7238,-3274,3553,-155,-220,-166,1,7,11
8.28E+02,-7225,-3298,3858,-384,-225,-205,1,7,11
8.37E+02,-7085,-3586,3930,-352,-155,-527,1,7,11
8.44E+02,-7276,-3603,3965,-297,-233,-250,1,7,11
8.44E+02,-7243,-3301,3955,9,-206,-516,1,7,11
8.38E+02,-7214,-3284,3726,22,-180,-247,1,7,11
8.25E+02,-7181,-3221,3712,-35,-298,-164,1,7,11
8.11E+02,-7192,-3395,3929,-74,21,-298,1,7,11
8.07E+02,-6907,-3401,3727,89,68,72,1,7,11
8.25E+02,-6882,-3367,3750,26,65,126,1,7,11
8.69E+02,-6795,-3341,3762,-288,31,-93,1,7,11
9.27E+02,-6941,-3014,3768,-357,18,-85,1,7,11
9.84E+02,-6638,-2988,3777,-160,10,-100,1,7,11
1.02E+03,-6595,-2968,3781,-198,0,-122,1,7,11
1.04E+03,-6559,-2974,3801,-248,-271,109,1,7,11
1.04E+03,-6540,-3006,3823,-535,-277,56,1,7,11
1.02E+03,-6558,-3046,4113,-549,-286,-293,1,7,11
9.86E+02,-6608,-3357,4142,-540,-306,-146,1,7,11
9.54E+02,-6936,-3432,4185,-530,-338,-522,1,7,11
9.25E+02,-6997,-3258,3968,-253,-384,-631,1,7,11
9.03E+02,-6814,-3587,3975,-219,-169,-465,1,7,11
8.93E+02,-6912,-3629,4210,-224,-205,-776,1,7,11
8.94E+02,-7229,-3705,3983,-210,-182,-477,1,7,11
9.03E+02,-7056,-3528,4055,-181,-382,-611,1,7,11
9.13E+02,-7089,-3560,4354,-345,-373,-187,1,7,11
9.21E+02,-7062,-3540,4076,29,-382,-273,1,7,11
9.27E+02,-7265,-3474,4016,101,-367,-110,1,7,11
9.33E+02,-7196,-3643,3970,84,-320,288,1,7,11
9.40E+02,-6894,-3292,4176,37,9,153,1,7,11
9.50E+02,-6829,-3400,4126,-282,50,580,1,7,11
9.58E+02,-7030,-3062,4118,-357,38,419,1,7,11
9.62E+02,-6972,-2995,4126,-207,-258,468,1,7,11
9.60E+02,-6926,-2946,4145,-253,-300,461,1,7,11
9.50E+02,-6656,-3165,4168,-529,-335,407,1,7,11
9.39E+02,-6913,-3144,4201,-539,-377,595,1,7,11
9.33E+02,-6941,-3133,3987,-532,-157,253,1,7,11
9.38E+02,-6990,-3121,3999,-530,-204,172,1,7,11
9.53E+02,-7025,-3111,4003,-582,-519,373,1,7,11
9.72E+02,-6794,-3132,4028,-424,-550,332,1,7,11
9.90E+02,-6810,-3164,4072,-777,-557,299,1,7,11
1.00E+03,-6803,-2960,4407,-794,-519,280,1,7,11
1.00E+03,-6820,-2994,4473,-417,-182,-12,1,7,11
9.99E+02,-6852,-3006,4248,-239,-373,-43,1,7,11
9.87E+02,-6842,-3010,4250,-349,-355,-47,1,7,11
9.70E+02,-6829,-3001,4241,9,-340,-68,1,7,11
9.51E+02,-6822,-2955,4437,54,-350,-96,1,7,11
9.37E+02,-6800,-3170,4379,-276,-369,-115,1,7,11
9.32E+02,-6811,-3116,4092,-383,-341,-122,1,7,11
9.41E+02,-6823,-3088,4093,-245,-306,-104,1,7,11
9.60E+02,-6803,-3100,4400,-579,-305,-53,1,7,11
9.83E+02,-7019,-3100,4420,-576,-316,-41,1,7,11
1.01E+03,-7005,-3126,4227,-533,-322,-56,1,7,11
1.02E+03,-6979,-3149,4269,-351,-308,-79,1,7,11
1.03E+03,-6975,-3159,4314,-122,-275,-119,1,7,11
1.03E+03,-6982,-3157,4339,151,27,86,1,7,11
1.03E+03,-7011,-3151,4311,586,34,31,1,7,11
1.02E+03,-6988,-3149,4263,628,3,6,1,7,11
1.01E+03,-6971,-3134,4247,590,25,-292,1,7,11
1.00E+03,-6990,-3134,4251,534,88,-324,1,7,11
9.85E+02,-7030,-3125,4270,231,123,-335,1,7,11
9.69E+02,-7014,-3136,4266,176,108,-322,1,7,11
9.55E+02,-7030,-3126,4263,171,-122,-331,1,7,11
9.43E+02,-7022,-3130,4268,154,-113,-330,1,7,11
9.37E+02,-7032,-3105,4234,136,-97,-325,1,7,11
9.38E+02,-7023,-3096,4474,340,-107,-308,1,7,11
9.44E+02,-7020,-3081,4467,287,-100,-306,1,7,11
9.56E+02,-7015,-3068,4440,264,-75,-299,1,7,11
9.70E+02,-7027,-3081,4446,-38,-65,-290,1,7,11
9.87E+02,-7029,-3075,4430,-117,-116,-293,1,7,11
1.00E+03,-7029,-3075,4429,39,95,-297,1,7,11
1.01E+03,-7015,-3096,4428,-301,52,-301,1,7,11
1.01E+03,-7006,-3119,4427,-134,11,-318,1,7,11
1.00E+03,-7005,-3138,4429,-240,-288,-349,1,7,11
9.89E+02,-6999,-3149,4435,-588,-335,-381,1,7,11
9.78E+02,-7024,-3151,4453,-403,-357,-153,1,7,11
9.75E+02,-7034,-3174,4467,-447,-369,-142,1,7,11
9.81E+02,-7025,-2951,4236,-455,-356,-371,1,7,11
9.93E+02,-7020,-2993,4268,-406,-327,-365,1,7,11
1.01E+03,-6994,-3021,4275,-568,-306,-131,1,7,11
1.02E+03,-6979,-3026,4254,-219,-268,-171,1,7,11
1.02E+03,-6979,-3021,4468,-167,26,-208,1,7,11
1.02E+03,-6978,-3033,4449,-176,54,-217,1,7,11
1.02E+03,-6987,-3047,4430,-205,78,-213,1,7,11
1.02E+03,-6987,-3066,4436,-252,82,-193,1,7,11
1.02E+03,-6987,-3329,4422,-594,79,-182,1,7,11
1.02E+03,-6980,-3338,4419,-398,64,-165,1,7,11
1.02E+03,-6967,-3349,4417,-458,42,-147,1,7,11
1.02E+03,-6964,-3355,4411,-480,16,-132,1,7,11
1.02E+03,-6959,-3355,4410,-790,0,-367,1,7,11
1.02E+03,-6954,-3376,4424,-821,-258,-349,1,7,11
1.01E+03,-6931,-3392,4429,-829,0,-334,1,7,11
1.01E+03,-6914,-3421,4458,-829,17,-338,1,7,11
1.01E+03,-6648,-3454,4479,-788,36,-353,1,7,11
1.01E+03,-6638,-3239,4241,-464,79,-375,1,7,11
1.01E+03,-6915,-3275,4478,-633,-124,-135,1,7,11
1.02E+03,-6633,-3281,4445,-546,-68,-132,1,7,11
1.01E+03,-6940,-3276,4435,-249,301,-141,1,7,11
1.01E+03,-6959,-3316,4459,-211,352,-365,1,7,11
1.00E+03,-6988,-3585,4424,-375,132,-321,1,7,11
9.92E+02,-7000,-3317,4084,-341,380,-268,1,7,11
9.75E+02,-6989,-3587,4049,-145,381,21,1,7,11
9.58E+02,-6989,-3324,4010,-192,149,39,1,7,11
9.45E+02,-7025,-3585,3999,-551,149,59,1,7,11
9.42E+02,-6792,-3316,3972,-606,379,104,1,7,11
9.51E+02,-6855,-3302,4179,-395,365,-95,1,7,11
9.68E+02,-6891,-3287,4128,-467,316,262,1,7,11
9.89E+02,-6837,-3296,3984,-465,300,151,1,7,11
1.01E+03,-7073,-3212,3734,-256,143,601,1,7,11
1.03E+03,-7272,-3225,3952,-486,-61,657,1,7,11
1.04E+03,-7243,-3201,3935,-765,41,1112,1,7,11
1.05E+03,-7252,-3448,3952,-1017,-373,997,1,7,11
1.05E+03,-7262,-3420,3942,-1196,-567,1388,1,7,11
1.04E+03,-7239,-3381,3931,-1625,-492,1271,1,7,11
1.02E+03,-7241,-3373,3955,-1815,-654,1643,1,7,11
9.99E+02,-7222,-3352,3967,-1699,-1077,1507,1,7,11
9.75E+02,-6905,-3337,3750,-2075,-969,1849,1,7,11
9.52E+02,-6893,-3331,3768,-2155,-1310,1871,1,7,11
9.31E+02,-6867,-3050,3820,-1953,-1404,1887,1,7,11
9.14E+02,-6832,-3024,4118,-2005,-1225,1864,1,7,11
9.06E+02,-6809,-3010,4172,-2047,-1278,1820,1,7,11
9.05E+02,-7018,-2997,3978,-2321,-1583,1439,1,7,11
9.05E+02,-6996,-2984,4045,-2310,-1582,1588,1,7,11
9.01E+02,-6965,-2968,4370,-2020,-1554,1221,1,7,11
8.90E+02,-6941,-2967,4441,-1976,-1249,1348,1,7,11
8.75E+02,-6914,-2965,4247,-2156,-1190,956,1,7,11
8.60E+02,-6628,-2970,4302,-2053,-1382,1063,1,7,11
8.51E+02,-6597,-2977,4625,-1668,-1316,650,1,7,11
8.50E+02,-6567,-2973,4672,-1504,-993,474,1,7,11
8.54E+02,-6535,-2976,4705,-1593,-918,534,1,7,11
8.62E+02,-6777,-2977,4719,-1155,-1081,331,1,7,11
8.71E+02,-6766,-2987,4731,-968,-731,-115,1,7,11
8.83E+02,-6765,-3007,4487,-735,-856,-278,1,7,11
8.97E+02,-6552,-2947,4685,-447,-421,-154,1,7,11
9.14E+02,-6581,-2988,4726,-590,-541,-222,1,7,11
9.33E+02,-6600,-3005,4688,-165,-186,-254,1,7,11
9.53E+02,-6583,-3041,4657,-288,-349,-537,1,7,11
9.73E+02,-6624,-3055,4622,113,36,-556,1,7,11
9.91E+02,-6922,-3337,4307,-54,102,-251,1,7,11
1.01E+03,-6614,-3380,4624,-64,102,-199,1,7,11
1.01E+03,-6941,-3347,4327,288,-115,-230,1,7,11
1.01E+03,-6982,-3054,4253,282,115,-206,1,7,11
1.00E+03,-7012,-3023,4437,-56,102,-134,1,7,11
9.79E+02,-7030,-3018,4401,18,62,-275,1,7,11
9.58E+02,-6971,-3046,4254,-211,-272,114,1,7,11
9.45E+02,-6988,-3054,4285,-594,-319,116,1,7,11
9.47E+02,-6984,-3017,4258,-612,-373,-120,1,7,11
9.61E+02,-6978,-2998,4261,-421,-147,-85,1,7,11
9.79E+02,-6963,-2993,4294,-508,-175,-33,1,7,11
9.90E+02,-6913,-3018,4610,-795,-180,-9,1,7,11
9.86E+02,-6624,-3027,4638,-474,-162,-31,1,7,11
9.67E+02,-6627,-3012,4634,-392,-131,-70,1,7,11
9.41E+02,-6606,-3002,4646,-617,-377,-97,1,7,11
9.13E+02,-6613,-3000,4657,-599,-340,119,1,7,11
8.89E+02,-6635,-3012,4685,-570,-316,84,1,7,11
8.69E+02,-6620,-3028,4708,-513,-317,62,1,7,11
8.54E+02,-6612,-3034,4722,-172,-297,29,1,7,11
8.43E+02,-6600,-3031,4721,-374,-284,-274,1,7,11
8.34E+02,-6610,-3032,4711,-341,-278,-335,1,7,11
8.26E+02,-6634,-3031,4709,-338,3,-133,1,7,11
8.19E+02,-6649,-3067,4722,-344,29,-143,1,7,11
8.11E+02,-6651,-3071,4722,-323,77,-138,1,7,11
7.99E+02,-6649,-3353,4492,-345,83,-379,1,7,11
7.84E+02,-6624,-3366,4502,-336,85,-371,1,7,11
7.66E+02,-6624,-3378,4530,-295,115,-138,1,7,11
7.47E+02,-6609,-3390,4547,34,116,-144,1,7,11
7.32E+02,-6601,-3396,4530,-120,110,-150,1,7,11
7.20E+02,-6597,-3392,4557,285,126,-136,1,7,11
7.13E+02,-6922,-3041,4711,577,277,-365,1,7,11
7.10E+02,-6583,-3041,4482,224,-86,62,1,7,11
7.13E+02,-6556,-3028,4516,135,68,70,1,7,11
7.21E+02,-6777,-3013,4534,295,3,58,1,7,11
7.36E+02,-6760,-2986,4551,-53,-279,26,1,7,11
7.56E+02,-6764,-2978,4602,-128,-278,4,1,7,11
7.82E+02,-6767,-2978,4898,73,-271,3,1,7,11
8.12E+02,-6752,-2988,4933,45,-262,15,1,7,11
8.44E+02,-6733,-2991,4952,43,27,24,1,7,11
8.73E+02,-6723,-2990,4974,37,82,14,1,7,11
8.94E+02,-6731,-3007,4746,52,-109,-258,1,7,11
9.04E+02,-6735,-3012,4753,105,-68,-266,1,7,11
9.08E+02,-6736,-3011,4987,-95,-36,-273,1,7,11
9.10E+02,-6723,-3018,4975,-56,-9,-295,1,7,11
9.15E+02,-6718,-3012,4947,-27,274,-340,1,7,11
9.24E+02,-6724,-3014,4935,-4,302,-134,1,7,11
9.36E+02,-6758,-3019,4917,267,323,-172,1,7,11
9.48E+02,-6756,-3019,4887,288,296,-168,1,7,11
9.59E+02,-6765,-3003,4605,285,284,-159,1,7,11
9.66E+02,-6781,-2991,4603,-3,-2,-136,1,7,11
9.69E+02,-6541,-2980,4598,-46,-37,-364,1,7,11
9.65E+02,-6544,-2970,4865,-102,-80,-328,1,7,11
9.54E+02,-6542,-2958,4604,91,-123,-278,1,7,11
9.37E+02,-6540,-3200,4604,14,98,19,1,7,11
9.19E+02,-6780,-2946,4867,-322,63,49,1,7,11
9.03E+02,-6779,-3188,4601,-135,32,67,1,7,11
8.90E+02,-6532,-3172,4576,-250,-279,80,1,7,11
8.78E+02,-6766,-3196,4889,-402,-359,108,1,7,11
8.60E+02,-6741,-3192,4931,-444,-371,118,1,7,11
8.35E+02,-6755,-2951,4945,-412,-374,96,1,7,11
8.04E+02,-6755,-3188,4899,-581,-142,93,1,7,11
7.75E+02,-6735,-3191,4602,-572,-202,106,1,7,11
7.54E+02,-6709,-3196,4577,-407,-251,116,1,7,11
7.41E+02,-6393,-2971,4903,-676,-532,78,1,7,11
7.37E+02,-6390,-3000,4968,-723,-228,-269,1,7,11
7.39E+02,-6397,-3035,4758,-659,-178,-347,1,7,11
7.46E+02,-6666,-3068,4777,-800,-136,-133,1,7,11
7.53E+02,-6679,-3353,4755,-468,-375,-129,1,7,11
7.59E+02,-6395,-3394,4769,-477,-136,-347,1,7,11
7.63E+02,-6372,-3432,4803,-478,-357,-326,1,7,11
7.66E+02,-6367,-3223,4836,-446,-316,-315,1,7,11
7.66E+02,-6359,-3243,4827,-638,-281,-292,1,7,11
7.71E+02,-6383,-3248,4817,-591,20,-268,1,7,11
7.89E+02,-6388,-3247,4818,-561,40,39,1,7,11
8.25E+02,-6382,-3249,4809,-528,71,95,1,7,11
8.78E+02,-6376,-3245,4807,-238,106,-111,1,7,11
9.35E+02,-6367,-3243,4809,-203,-115,-76,1,7,11
9.89E+02,-6379,-3242,4807,-164,-79,-57,1,7,11
1.03E+03,-6390,-3228,4799,-371,-59,-30,1,7,11
1.05E+03,-6662,-3205,4762,-355,-48,-5,1,7,11
1.06E+03,-6677,-3436,4991,-381,-55,295,1,7,11
1.07E+03,-6658,-3414,4974,-182,-53,329,1,7,11
1.06E+03,-6681,-3414,4986,-240,-49,347,1,7,11
1.05E+03,-6674,-3391,4975,-524,-51,362,1,7,11
1.04E+03,-6698,-3380,4971,-561,-44,365,1,7,11
1.03E+03,-6696,-3361,4969,-575,-46,376,1,7,11
1.02E+03,-6704,-3349,4961,-582,-30,372,1,7,11
1.02E+03,-6717,-3337,4949,-575,-16,365,1,7,11
1.02E+03,-6720,-3055,4920,-561,261,356,1,7,11
1.03E+03,-6729,-3053,4908,-548,294,326,1,7,11
1.03E+03,-6719,-3044,4877,-519,308,289,1,7,11
1.04E+03,-6717,-3036,4604,-208,334,-22,1,7,11
1.04E+03,-6730,-3042,4570,-174,363,-85,1,7,11
1.03E+03,-6747,-3050,4543,-148,382,111,1,7,11
1.01E+03,-6762,-3071,4534,-137,146,43,1,7,11
9.86E+02,-6772,-3348,4523,-363,143,-266,1,7,11
9.55E+02,-6775,-3369,4502,-330,136,-318,1,7,11
9.28E+02,-6537,-3390,4495,-298,372,-367,1,7,11
9.14E+02,-6545,-3403,4724,-264,349,-145,1,7,11
9.14E+02,-6556,-3415,4718,11,323,-161,1,7,11
9.21E+02,-6564,-3430,4710,21,300,-165,1,7,11
9.26E+02,-6565,-3452,4708,24,273,-161,1,7,11
9.25E+02,-6561,-3212,4723,27,-13,-147,1,7,11
9.16E+02,-6557,-3225,4723,37,-34,-383,1,7,11
9.05E+02,-6554,-3226,4708,52,-42,-358,1,7,11
8.95E+02,-6555,-3231,4692,61,-43,-326,1,7,11
8.89E+02,-6551,-3233,4689,64,-40,-288,1,7,11
8.84E+02,-6549,-3231,4680,58,-24,2,1,7,11
8.77E+02,-6544,-3225,4680,54,-7,27,1,7,11
8.64E+02,-6552,-3216,4683,47,262,40,1,7,11
8.48E+02,-6548,-3207,4679,42,258,53,1,7,11
8.34E+02,-6550,-3202,4690,30,-17,52,1,7,11
8.27E+02,-6555,-3201,4693,15,-36,49,1,7,11
8.28E+02,-6544,-3203,4708,13,-59,49,1,7,11
8.36E+02,-6537,-3209,4709,10,-73,48,1,7,11
8.46E+02,-6534,-3210,4726,8,-80,51,1,7,11
8.57E+02,-6782,-3213,4735,19,-79,57,1,7,11
8.65E+02,-6783,-3211,4486,39,-67,65,1,7,11
8.70E+02,-6531,-3451,4481,60,-51,79,1,7,11
8.69E+02,-6532,-3438,4482,80,-33,97,1,7,11
8.64E+02,-6530,-3424,4486,101,-15,114,1,7,11
8.60E+02,-6781,-3411,4486,127,262,122,1,7,11
8.61E+02,-6772,-3396,4494,-110,286,120,1,7,11
8.70E+02,-6763,-3386,4499,-91,310,109,1,7,11
8.85E+02,-6777,-3380,4506,-70,340,83,1,7,11
9.01E+02,-6778,-3379,4505,-40,355,64,1,7,11
9.15E+02,-6777,-3375,4495,-11,129,39,1,7,11
9.26E+02,-6773,-3374,4497,263,169,10,1,7,11
9.32E+02,-6774,-3382,4507,272,214,-276,1,7,11
9.35E+02,-6784,-3388,4502,282,516,-329,1,7,11
9.33E+02,-6784,-3399,4499,302,548,-345,1,7,11
9.29E+02,-6537,-3413,4499,321,576,-371,1,7,11
9.26E+02,-6548,-3422,4490,335,603,-158,1,7,11
9.26E+02,-6559,-3428,4727,354,620,-175,1,7,11
9.31E+02,-6557,-3432,4697,143,635,-189,1,7,11
9.40E+02,-6573,-3423,4695,156,406,-196,1,7,11
9.52E+02,-6600,-3415,4690,167,416,-184,1,7,11
9.65E+02,-6607,-3416,4676,182,411,-153,1,7,11
9.78E+02,-6621,-3412,4656,201,416,-379,1,7,11
9.84E+02,-6632,-3407,4645,224,418,-348,1,7,11
9.78E+02,-6639,-3404,4634,250,412,-316,1,7,11
9.55E+02,-6645,-3389,4613,536,401,-288,1,7,11
9.14E+02,-6921,-3370,4336,554,397,-260,1,7,11
8.65E+02,-6930,-3354,4322,558,385,26,1,7,11
8.16E+02,-6939,-3334,4300,559,633,53,1,7,11
7.76E+02,-6953,-3053,4286,552,633,83,1,7,11
7.46E+02,-6959,-3039,4274,540,628,108,1,7,11
7.27E+02,-6970,-3026,4259,520,624,126,1,7,11
7.17E+02,-6973,-3015,4246,234,616,-122,1,7,11
7.16E+02,-6969,-3008,4243,183,605,-119,1,7,11
7.20E+02,-6974,-3014,4251,128,594,-121,1,7,11
7.29E+02,-6975,-3011,4257,339,576,127,1,7,11
7.41E+02,-6976,-3012,4262,307,553,123,1,7,11
7.53E+02,-6977,-3008,4249,275,535,126,1,7,11
7.63E+02,-6979,-3003,4246,-13,533,-115,1,7,11
7.70E+02,-6990,-2996,4237,-53,544,-95,1,7,11
7.73E+02,-7004,-2994,4238,-90,550,-64,1,7,11
7.71E+02,-7004,-2992,4240,-106,546,-28,1,7,11
7.70E+02,-7010,-2979,4230,-115,556,262,1,7,11
7.75E+02,-7016,-2971,4227,123,565,295,1,7,11
7.90E+02,-7020,-2961,4235,116,571,322,1,7,11
8.13E+02,-7030,-3192,4228,-126,584,347,1,7,11
8.39E+02,-6786,-3172,4469,-109,594,375,1,7,11
8.64E+02,-6793,-3156,4469,-103,597,140,1,7,11
8.87E+02,-6804,-3147,4479,-84,600,146,1,7,11
9.06E+02,-6809,-3138,4227,-68,579,141,1,7,11
9.20E+02,-6813,-3115,4226,-13,560,381,1,7,11
9.31E+02,-6819,-3093,4470,267,540,363,1,7,11
9.37E+02,-6827,-2814,4464,292,524,346,1,7,11
9.41E+02,-6826,-2783,4439,322,523,336,1,7,11
9.45E+02,-6853,-2737,4420,298,385,361,1,7,11
9.47E+02,-6866,-2728,4416,293,414,368,1,7,11
9.49E+02,-6880,-2720,4405,286,433,380,1,7,11
9.50E+02,-6887,-2696,4380,275,449,128,1,7,11
9.50E+02,-6899,-2929,4355,263,465,128,1,7,11
9.49E+02,-7181,-2897,4057,-17,491,380,1,7,11
9.47E+02,-7191,-2879,4030,-54,492,378,1,7,11
9.42E+02,-7210,-2846,3982,-81,500,363,1,7,11
9.35E+02,-7237,-2832,4214,115,497,345,1,7,11
9.28E+02,-7239,-2824,4181,73,467,333,1,7,11
9.23E+02,-7256,-2553,4156,22,455,309,1,7,11
9.21E+02,-7266,-2560,4147,-297,418,290,1,7,11
9.24E+02,-7274,-2818,4133,-343,630,267,1,7,11
9.27E+02,-7041,-2823,4127,-376,579,-14,1,7,11
9.28E+02,-7041,-2559,4099,-133,525,-20,1,7,11
9.23E+02,-7292,-2828,3826,-179,242,-24,1,7,11
9.14E+02,-7047,-2851,4097,-224,236,-19,1,7,11
9.08E+02,-7058,-2864,4104,-253,237,265,1,7,11
9.12E+02,-7060,-2893,4157,-520,245,306,1,7,11
9.29E+02,-7062,-2938,4188,-514,255,342,1,7,11
9.54E+02,-7053,-2941,4191,-221,253,135,1,7,11
9.79E+02,-7064,-2938,4200,-171,253,150,1,7,11
9.97E+02,-7059,-2924,4178,-347,239,160,1,7,11
1.00E+03,-7055,-2910,4161,-314,244,161,1,7,11
9.94E+02,-7059,-2884,4133,-293,524,164,1,7,11
9.80E+02,-7064,-2875,4131,-260,560,158,1,7,11
9.63E+02,-7074,-2846,4104,54,597,148,1,7,11
9.46E+02,-7106,-2559,3820,86,389,141,1,7,11
9.30E+02,-7100,-2543,3791,108,417,156,1,7,11
9.15E+02,-7103,-2521,3763,116,459,155,1,7,11
9.00E+02,-7130,-2501,3751,109,488,137,1,7,11
8.87E+02,-7141,-2483,3727,101,480,375,1,7,11
8.74E+02,-7155,-2462,3712,91,469,359,1,7,11
8.64E+02,-7441,-2448,3950,86,457,356,1,7,11
8.55E+02,-7438,-2682,3915,86,444,367,1,7,11
8.50E+02,-7445,-2671,3891,73,451,381,1,7,11
8.50E+02,-7447,-2667,3869,65,461,134,1,7,11
8.56E+02,-7451,-2651,3857,61,480,136,1,7,11
8.68E+02,-7474,-2630,3567,47,506,382,1,7,11
8.87E+02,-7500,-2623,3549,21,777,376,1,7,11
9.14E+02,-7522,-2616,3528,12,772,128,1,7,11
9.49E+02,-7552,-2606,3499,-257,497,138,1,7,11
9.86E+02,-7302,-2597,3470,-266,444,158,1,7,11
1.02E+03,-7310,-2585,3697,-278,399,169,1,7,11
1.04E+03,-7321,-2580,3679,-302,604,180,1,7,11
1.04E+03,-7315,-2576,3668,-314,547,186,1,7,11
1.03E+03,-7314,-2561,3648,-307,239,180,1,7,11
1.01E+03,-7318,-2282,3636,-315,190,162,1,7,11
9.89E+02,-7320,-2269,3630,-331,139,141,1,7,11
9.75E+02,-7325,-2251,3620,-339,345,373,1,7,11
9.70E+02,-7330,-2235,3616,-361,304,348,1,7,11
9.73E+02,-7331,-2227,3608,-380,260,327,1,7,11
9.85E+02,-7317,-2238,3637,-152,-27,303,1,7,11
1.01E+03,-7318,-2250,3659,-175,-47,268,1,7,11
1.03E+03,-7318,-2258,3679,-164,-72,-23,1,7,11
1.06E+03,-7323,-2256,3692,-145,-103,-65,1,7,11
1.08E+03,-7335,-2244,3692,-363,-107,-82,1,7,11
1.10E+03,-7341,-2231,3700,-354,-104,-73,1,7,11
1.11E+03,-7337,-2233,3701,-348,-89,-52,1,7,11
1.10E+03,-7329,-2223,3705,-339,-68,-35,1,7,11
1.09E+03,-7320,-2216,3693,-342,-42,-26,1,7,11
1.08E+03,-7317,-2209,3681,-358,-9,-31,1,7,11
1.06E+03,-7313,-2209,3689,-372,275,-40,1,7,11
1.05E+03,-7338,-2209,3686,-369,291,-48,1,7,11
1.03E+03,-7327,-2210,3673,-363,279,-46,1,7,11
1.03E+03,-7337,-2193,3646,-364,296,-69,1,7,11
1.03E+03,-7358,-2185,3630,-379,296,-95,1,7,11
1.04E+03,-7378,-2432,3624,-130,275,-116,1,7,11
1.04E+03,-7391,-2423,3617,-144,-24,127,1,7,11
1.05E+03,-7380,-2411,3603,-158,-82,124,1,7,11
1.05E+03,-7377,-2401,3592,-181,-107,111,1,7,11
1.05E+03,-7371,-2401,3595,-202,-127,104,1,7,11
1.04E+03,-7367,-2392,3601,-213,121,99,1,7,11
1.03E+03,-7367,-2392,3602,-236,118,97,1,7,11
1.02E+03,-7368,-2395,3613,-250,115,91,1,7,11
1.01E+03,-7367,-2390,3634,-515,108,90,1,7,11
9.98E+02,-7360,-2405,3645,-534,101,92,1,7,11
9.90E+02,-7348,-2421,3647,-527,96,92,1,7,11
9.82E+02,-7351,-2421,3636,-516,106,79,1,7,11
9.76E+02,-7347,-2422,3643,-255,116,63,1,7,11
9.71E+02,-7355,-2414,3647,-247,-128,55,1,7,11
9.67E+02,-7364,-2419,3656,-240,-120,54,1,7,11
9.66E+02,-7359,-2422,3650,-229,-118,54,1,7,11
9.65E+02,-7348,-2427,3654,-219,-116,43,1,7,11
9.64E+02,-7357,-2431,3650,-209,-110,26,1,7,11
9.60E+02,-7355,-2184,3649,-203,-117,14,1,7,11
9.53E+02,-7350,-2432,3645,-178,-118,0,1,7,11
9.44E+02,-7355,-2431,3633,-175,-114,-264,1,7,11
9.35E+02,-7342,-2194,3640,-187,-117,-275,1,7,11
9.27E+02,-7352,-2211,3648,-173,-113,-299,1,7,11
9.21E+02,-7356,-2215,3646,-153,-121,-318,1,7,11
9.19E+02,-7345,-2244,3652,-131,115,-323,1,7,11
9.20E+02,-7346,-2250,3658,-371,104,-330,1,7,11
9.26E+02,-7348,-2261,3665,-345,88,-336,1,7,11
9.35E+02,-7349,-2268,3665,-315,69,-335,1,7,11
9.44E+02,-7341,-2278,3661,-289,60,-324,1,7,11
9.51E+02,-7347,-2289,3666,-264,65,-314,1,7,11
9.53E+02,-7351,-2287,3667,33,74,-300,1,7,11
9.51E+02,-7355,-2281,3676,63,75,-285,1,7,11
9.43E+02,-7340,-2274,3662,93,63,-265,1,7,11
9.30E+02,-7335,-2245,3638,109,74,4,1,7,11
9.14E+02,-7337,-2231,3630,65,97,28,1,7,11
8.99E+02,-7308,-2233,3624,18,121,47,1,7,11
8.91E+02,-7322,-2231,3627,-282,-93,46,1,7,11
8.93E+02,-7331,-2253,3650,-332,-77,59,1,7,11
9.05E+02,-7348,-2270,3662,-356,-71,72,1,7,11
9.22E+02,-7348,-2284,3683,-372,-81,99,1,7,11
9.39E+02,-7330,-2281,3679,-365,-86,121,1,7,11
9.52E+02,-7329,-2268,3659,-339,-72,125,1,7,11
9.59E+02,-7323,-2259,3648,-324,-63,-127,1,7,11
9.62E+02,-7320,-2244,3629,-313,-58,-128,1,7,11
9.63E+02,-7331,-2248,3624,-352,-48,125,1,7,11
9.63E+02,-7328,-2252,3628,-144,-55,-122,1,7,11
9.60E+02,-7334,-2244,3641,-189,-41,-114,1,7,11
9.53E+02,-7338,-2252,3647,-222,-36,-105,1,7,11
9.42E+02,-7336,-2241,3632,-516,-57,-99,1,7,11
9.26E+02,-7351,-2241,3618,-582,-74,-107,1,7,11
9.12E+02,-7350,-2249,3632,-426,-112,-104,1,7,11
9.05E+02,-7338,-2252,3668,-489,-122,-111,1,7,11
9.09E+02,-7336,-2254,3666,-482,-112,-124,1,7,11
9.23E+02,-7353,-2253,3654,-460,-81,119,1,7,11
9.42E+02,-7322,-2262,3654,-421,-56,116,1,7,11
9.57E+02,-7333,-2259,3640,-621,-2,90,1,7,11
9.65E+02,-7362,-2239,3595,-552,290,69,1,7,11
9.62E+02,-7360,-2240,3586,-525,290,58,1,7,11
9.50E+02,-7366,-2220,3303,-214,300,43,1,7,11
9.30E+02,-7357,-2216,3290,-171,300,21,1,7,11
9.02E+02,-7376,-2232,3269,-135,307,-264,1,7,11
8.72E+02,-7390,-2233,3274,-343,294,-283,1,7,11
8.44E+02,-7377,-2243,3275,-291,270,-291,1,7,11
8.21E+02,-7372,-2266,3308,18,-13,-321,1,7,11
8.05E+02,-7352,-2277,3605,110,-47,-358,1,7,11
7.92E+02,-7333,-2296,3655,334,-45,-203,1,7,11
7.80E+02,-7348,-2569,3660,251,-52,-520,1,7,11
7.68E+02,-7341,-2576,3634,637,-74,-544,1,7,11
7.57E+02,-7340,-2566,3603,442,-92,-547,1,7,11
7.45E+02,-7345,-2291,3324,420,-109,-549,1,7,11
7.33E+02,-7338,-2298,3596,609,-125,-535,1,7,11
7.21E+02,-7347,-2566,3615,570,-124,-535,1,7,11
7.10E+02,-7351,-2583,3639,254,79,-543,1,7,11
7.00E+02,-7317,-2584,3618,205,-338,-554,1,7,11
6.91E+02,-7541,-2573,3607,164,-161,-591,1,7,11
6.82E+02,-7541,-2579,3632,310,-218,-388,1,7,11
6.75E+02,-7535,-2581,3644,268,-520,-431,1,7,11
6.69E+02,-7544,-2592,3659,-44,-542,-452,1,7,11
6.65E+02,-7537,-2619,3690,-110,-566,-441,1,7,11
6.62E+02,-7518,-2634,3488,84,-573,-411,1,7,11
6.61E+02,-7494,-2667,3540,79,-521,-393,1,7,11
6.62E+02,-7474,-2682,3846,103,-185,-617,1,7,11
6.64E+02,-7466,-2454,3896,-86,-331,-587,1,7,11
6.70E+02,-7441,-2473,3909,261,23,-560,1,7,11
6.77E+02,-7432,-2477,3903,329,-127,-539,1,7,11
6.88E+02,-7165,-2484,3889,356,-30,-524,1,7,11
7.00E+02,-7157,-2486,3867,373,324,-520,1,7,11
7.15E+02,-7167,-2482,3582,380,165,-541,1,7,11
7.32E+02,-7436,-2476,3555,362,233,-556,1,7,11
7.51E+02,-7447,-2479,3521,330,524,-572,1,7,11
7.71E+02,-7465,-2485,3507,290,534,-587,1,7,11
7.91E+02,-7475,-2492,3519,305,549,-602,1,7,11
8.11E+02,-7488,-2501,3516,369,559,-623,1,7,11
8.30E+02,-7469,-2507,3483,213,539,-638,1,7,11
8.50E+02,-7474,-2499,3706,533,529,-413,1,7,11
8.73E+02,-7468,-2507,3696,553,252,-438,1,7,11
8.97E+02,-7470,-2516,3704,579,227,-475,1,7,11
9.20E+02,-7455,-2527,3468,636,218,-779,1,7,11
9.38E+02,-7439,-2555,3498,461,219,-835,1,7,11
9.46E+02,-7435,-2836,3485,849,515,-652,1,7,11
9.43E+02,-7489,-2845,3469,655,526,-692,1,7,11
9.33E+02,-7443,-2887,3481,679,222,-658,1,7,11
9.21E+02,-7154,-2891,3706,704,221,-654,1,7,11
9.12E+02,-7109,-2711,3470,887,187,-660,1,7,11
9.08E+02,-7129,-2691,3669,874,376,-721,1,7,11
9.06E+02,-7148,-2763,3472,825,342,-748,1,7,11
9.06E+02,-7547,-2908,3619,1052,244,-734,1,7,11
9.05E+02,-7505,-2720,3680,859,370,-857,1,7,11
9.04E+02,-7466,-2732,3683,496,282,-830,1,7,11
9.01E+02,-7451,-2755,3711,614,-48,-817,1,7,11
8.95E+02,-7150,-2766,3469,532,-126,-810,1,7,11
8.86E+02,-7117,-2778,3488,132,122,-827,1,7,11
8.77E+02,-7138,-2766,3491,333,-117,-875,1,7,11
8.70E+02,-7115,-2776,3494,277,-118,-891,1,7,11
8.66E+02,-7122,-2783,3493,-21,-97,-668,1,7,11
8.64E+02,-7128,-2802,3518,-56,-100,-676,1,7,11
8.61E+02,-7133,-3083,3515,-35,-122,-679,1,7,11
8.56E+02,-7066,-3102,3482,278,77,-657,1,7,11
8.50E+02,-7043,-3129,3493,300,88,-691,1,7,11
8.47E+02,-7077,-3167,3532,355,63,-754,1,7,11
8.55E+02,-7071,-3186,3519,203,-273,-1050,1,7,11
8.77E+02,-7065,-2949,3479,551,-318,-1079,1,7,11
9.06E+02,-7291,-2966,3469,605,-339,-1082,1,7,11
9.35E+02,-7291,-2981,3482,392,-333,-1107,1,7,11
9.56E+02,-7062,-2985,3502,431,-339,-1132,1,7,11
9.63E+02,-7088,-2990,3507,447,-363,-1136,1,7,11
9.61E+02,-7055,-2984,3506,437,-135,-1096,1,7,11
9.56E+02,-7051,-3007,3524,614,-136,-1067,1,7,11
9.52E+02,-7277,-3029,3564,539,-144,-1025,1,7,11
9.50E+02,-7263,-3048,3855,206,-130,-736,1,7,11
9.45E+02,-7257,-3334,3891,140,-363,-701,1,7,11
9.29E+02,-7242,-3366,3926,353,-350,-891,1,7,11
8.99E+02,-7206,-3386,3955,331,-335,-819,1,7,11
8.60E+02,-6902,-3389,3715,325,-314,-510,1,7,11
8.22E+02,-6886,-3425,3755,313,-267,-489,1,7,11
7.97E+02,-6880,-3423,3750,376,31,-444,1,7,11
7.88E+02,-6853,-3421,3733,144,53,-392,1,7,11
7.87E+02,-6850,-3414,3949,138,71,-578,1,7,11
7.88E+02,-6860,-3408,3907,338,55,-527,1,7,11
7.86E+02,-6847,-3424,3913,96,-265,-192,1,7,11
7.82E+02,-6815,-3445,3739,-130,-328,-144,1,7,11
7.77E+02,-6796,-3228,3820,-534,-358,-143,1,7,11
7.74E+02,-6798,-3233,3839,-605,-377,-174,1,7,11
7.75E+02,-6799,-3264,4122,-414,-145,-200,1,7,11
7.84E+02,-7032,-3301,4162,-444,-157,-206,1,7,11
8.02E+02,-7004,-3597,4213,-409,-146,-232,1,7,11
8.23E+02,-7010,-3634,3995,-566,-140,-535,1,7,11
8.36E+02,-7007,-3644,3990,-163,-162,-563,1,7,11
8.35E+02,-6991,-3639,4223,-306,-180,-564,1,7,11
8.24E+02,-6981,-3637,4214,0,-183,-532,1,7,11
8.11E+02,-6962,-3641,3971,12,-184,-224,1,7,11
8.06E+02,-6943,-3653,3978,2,-174,-167,1,7,11
8.13E+02,-6926,-3667,3987,-268,-170,-358,1,7,11
8.33E+02,-6950,-3634,4212,-299,-149,-284,1,7,11
8.66E+02,-6651,-3630,4182,-136,-133,64,1,7,11
9.09E+02,-6925,-3625,4188,-241,-339,118,1,7,11
9.56E+02,-6944,-3618,4186,-578,-311,-80,1,7,11
9.97E+02,-6961,-3627,4222,-626,-263,-44,1,7,11
1.02E+03,-6983,-3631,4220,-592,61,-28,1,7,11
1.03E+03,-7021,-3626,4211,-553,106,-28,1,7,11
1.02E+03,-7036,-3628,4177,-535,-121,-27,1,7,11
1.00E+03,-6829,-3616,4135,-571,-103,-27,1,7,11
9.86E+02,-6858,-3605,4120,-430,125,-5,1,7,11
9.79E+02,-6857,-3592,4126,-817,95,258,1,7,11
9.80E+02,-6843,-3585,4139,-642,77,-2,1,7,11
9.86E+02,-6856,-3317,4139,-682,77,-29,1,7,11
9.94E+02,-6869,-3315,4150,-676,59,-40,1,7,11
1.00E+03,-6861,-3308,4161,-860,24,-29,1,7,11
1.01E+03,-6823,-3271,4171,-389,-271,-18,1,7,11
1.02E+03,-6804,-3254,4175,-217,-268,-29,1,7,11
1.02E+03,-7010,-3228,4189,18,14,-56,1,7,11
1.03E+03,-6797,-3201,4204,-59,77,-113,1,7,11
1.03E+03,-7035,-3219,3975,275,37,-95,1,7,11
1.03E+03,-6993,-3204,4213,316,-282,-96,1,7,11
1.02E+03,-6993,-3437,3970,283,-302,121,1,7,11
1.01E+03,-6977,-3440,4012,-8,-318,111,1,7,11
9.88E+02,-6973,-3437,4014,-25,-311,98,1,7,11
9.72E+02,-6952,-3435,4048,-87,-324,85,1,7,11
9.62E+02,-6937,-3445,4073,123,-329,66,1,7,11
9.62E+02,-6929,-3203,4354,87,-335,46,1,7,11
9.67E+02,-6654,-3202,4087,42,-360,27,1,7,11
9.72E+02,-6614,-3211,4360,-292,-133,6,1,7,11
9.69E+02,-6611,-3219,4390,-336,-367,-289,1,7,11
9.57E+02,-6626,-3225,4411,-344,-348,-295,1,7,11
9.38E+02,-6614,-3232,4422,-349,-340,-265,1,7,11
9.17E+02,-6622,-3221,4440,-147,-344,26,1,7,11
8.98E+02,-6575,-3256,4478,-236,-366,49,1,7,11
8.84E+02,-6562,-3270,4244,-534,-347,20,1,7,11
8.72E+02,-6559,-3272,4244,-539,-321,-271,1,7,11
8.62E+02,-6578,-3276,4250,-565,-279,-292,1,7,11
8.53E+02,-6587,-3290,4256,-607,24,-276,1,7,11
8.46E+02,-6591,-3301,4262,-387,81,17,1,7,11
8.39E+02,-6577,-3320,4270,-421,99,58,1,7,11
8.35E+02,-6551,-3594,4284,-455,119,79,1,7,11
8.33E+02,-6553,-3590,4284,-447,-106,83,1,7,11
8.35E+02,-6547,-3592,4281,-442,-99,92,1,7,11
8.42E+02,-6537,-3587,4269,-432,-82,92,1,7,11
8.53E+02,-6544,-3587,4260,-427,-59,77,1,7,11
8.64E+02,-6538,-3327,4254,-413,-49,63,1,7,11
8.70E+02,-6548,-3323,4244,-636,-32,37,1,7,11
8.66E+02,-6546,-3585,4236,-599,-19,19,1,7,11
8.57E+02,-6548,-3592,4472,-556,256,-257,1,7,11
8.50E+02,-6541,-3601,4454,-522,269,-282,1,7,11
8.50E+02,-6534,-3609,4429,-229,291,-312,1,7,11
8.61E+02,-6534,-3623,4418,-178,328,-339,1,7,11
8.80E+02,-6544,-3640,4425,-377,374,-364,1,7,11
9.05E+02,-6562,-3659,4424,-312,149,-380,1,7,11
9.33E+02,-6563,-3669,4406,20,153,-134,1,7,11
9.62E+02,-6554,-3677,4399,91,150,-146,1,7,11
9.88E+02,-6553,-3682,4390,-79,186,-156,1,7,11
1.01E+03,-6576,-3694,4381,-14,206,-155,1,7,11
1.02E+03,-6596,-3704,4354,295,196,-150,1,7,11
1.03E+03,-6584,-3707,4067,311,160,-144,1,7,11
1.03E+03,-6576,-3712,4059,319,152,-148,1,7,11
1.02E+03,-6604,-3463,4064,336,156,-165,1,7,11
1.01E+03,-6602,-3470,4054,350,379,-172,1,7,11
9.95E+02,-6568,-3467,4429,374,364,-198,1,7,11
9.77E+02,-6920,-3468,4045,428,532,-199,1,7,11
9.58E+02,-6914,-3680,3986,436,176,-377,1,7,11
9.42E+02,-6604,-3680,3986,392,163,-338,1,7,11
9.26E+02,-6631,-3665,3990,629,173,-348,1,7,11
9.12E+02,-6636,-3631,4211,615,165,-328,1,7,11
8.98E+02,-6620,-3634,4219,550,158,-317,1,7,11
8.85E+02,-6620,-3636,4223,513,157,-324,1,7,11
8.73E+02,-6618,-3635,3981,247,151,-335,1,7,11
8.65E+02,-6620,-3653,3995,250,137,-345,1,7,11
8.61E+02,-6618,-3669,3994,534,380,-347,1,7,11
8.63E+02,-6618,-3672,3995,570,367,-366,1,7,11
8.67E+02,-6624,-3652,3969,634,353,-132,1,7,11
8.75E+02,-6917,-3653,3982,401,338,-143,1,7,11
8.85E+02,-6927,-3643,3972,436,292,-383,1,7,11
8.97E+02,-6940,-3636,4223,463,-2,-369,1,7,11
9.10E+02,-6932,-3624,4216,479,-40,-351,1,7,11
9.24E+02,-6936,-3622,3974,476,-71,-350,1,7,11
9.39E+02,-6944,-3609,3973,481,-100,-353,1,7,11
9.53E+02,-6964,-3599,3973,455,124,-344,1,7,11
9.68E+02,-6965,-3589,3974,423,87,-317,1,7,11
9.81E+02,-6970,-3319,3976,390,55,-286,1,7,11
9.92E+02,-7014,-3297,4112,572,-260,11,1,7,11
1.00E+03,-6956,-3251,4195,266,-164,63,1,7,11
1.01E+03,-6968,-3305,4035,-56,-354,124,1,7,11
1.01E+03,-6979,-3323,4372,-8,-360,-63,1,7,11
1.01E+03,-6963,-3308,4405,353,-374,-14,1,7,11
1.00E+03,-6975,-3282,4394,156,-138,257,1,7,11
9.92E+02,-6923,-3287,4410,151,-153,265,1,7,11
9.77E+02,-6928,-3258,4393,136,-380,-19,1,7,11
9.57E+02,-6925,-3261,4426,328,-351,-43,1,7,11
9.36E+02,-6935,-3261,4475,302,-311,-67,1,7,11
9.17E+02,-6937,-3251,4247,328,-282,-89,1,7,11
9.02E+02,-6949,-3240,4243,372,20,-103,1,7,11
8.94E+02,-6969,-3213,4228,134,46,-99,1,7,11
8.90E+02,-6958,-3454,4463,350,57,-69,1,7,11
8.86E+02,-6947,-3455,4228,288,85,-52,1,7,11
8.80E+02,-6943,-3434,4240,-1,106,-42,1,7,11
8.72E+02,-6949,-3401,4228,-16,-120,-33,1,7,11
8.67E+02,-6958,-3377,4227,-44,-102,-18,1,7,11
8.66E+02,-6966,-3359,4233,-80,-82,261,1,7,11
8.71E+02,-6964,-3345,4240,124,-59,294,1,7,11
8.82E+02,-6956,-3072,4248,94,-48,309,1,7,11
8.98E+02,-6953,-3056,4234,76,-29,307,1,7,11
9.15E+02,-6958,-3034,4228,50,-10,298,1,7,11
9.34E+02,-6968,-3005,4463,31,256,296,1,7,11
9.50E+02,-6979,-2976,4460,-279,262,289,1,7,11
9.62E+02,-6963,-2968,4461,-352,-17,290,1,7,11
9.68E+02,-6959,-2965,4464,-165,-37,250,1,7,11
9.67E+02,-6968,-2964,4467,-226,-46,-40,1,7,11
9.64E+02,-6964,-2974,4229,-534,-39,-59,1,7,11
9.60E+02,-6941,-3007,4256,-561,-34,-55,1,7,11
9.57E+02,-6933,-3024,4256,-515,266,-79,1,7,11
9.56E+02,-6962,-3034,4269,-219,296,-112,1,7,11
9.55E+02,-6971,-3035,4233,-184,298,-105,1,7,11
9.55E+02,-6974,-3017,4434,-188,313,-99,1,7,11
9.54E+02,-6983,-3009,4423,-533,309,-85,1,7,11
9.52E+02,-6987,-3023,4423,-599,322,-74,1,7,11
9.46E+02,-6985,-3012,4402,-387,321,-70,1,7,11
9.35E+02,-6938,-3029,4254,-602,364,-67,1,7,11
9.19E+02,-6889,-2996,4072,-378,526,-43,1,7,11
9.01E+02,-6798,-3002,4056,-256,129,362,1,7,11
8.82E+02,-6998,-3028,4064,-630,383,371,1,7,11
8.64E+02,-7040,-3030,4070,-427,371,320,1,7,11
8.49E+02,-7038,-3026,4053,-458,335,288,1,7,11
8.37E+02,-6796,-3036,4061,-501,319,256,1,7,11
8.28E+02,-6801,-3052,4088,-774,284,-16,1,7,11
8.23E+02,-6789,-3065,4087,-500,-5,-36,1,7,11
8.21E+02,-7019,-3072,4085,-478,-29,-69,1,7,11
8.23E+02,-7027,-3340,4090,-454,-30,-104,1,7,11
8.29E+02,-7012,-3349,4086,-419,-32,-117,1,7,11
8.37E+02,-6999,-3356,4076,-395,-16,115,1,7,11
8.47E+02,-7006,-3369,4081,-628,259,95,1,7,11
8.60E+02,-7007,-3379,4076,-599,272,86,1,7,11
8.74E+02,-7010,-3386,4070,-571,285,80,1,7,11
8.90E+02,-7008,-3391,4062,-547,295,72,1,7,11
9.08E+02,-7004,-3392,4049,-529,310,66,1,7,11
9.25E+02,-7006,-3401,4035,-519,325,61,1,7,11
9.41E+02,-7009,-3402,4028,-251,339,59,1,7,11
9.54E+02,-7016,-3408,4026,-242,349,59,1,7,11
9.62E+02,-7024,-3414,4015,-229,351,61,1,7,11
9.67E+02,-7026,-3422,4012,-215,350,62,1,7,11
9.70E+02,-7032,-3426,3986,-203,334,67,1,7,11
9.73E+02,-6798,-3418,4149,-234,291,72,1,7,11
9.77E+02,-7039,-3415,4177,-600,-18,84,1,7,11
9.80E+02,-6815,-3422,4211,-618,-2,115,1,7,11
9.82E+02,-6801,-3427,3981,-596,-30,-75,1,7,11
9.81E+02,-6791,-3412,3987,-551,-37,-71,1,7,11
9.77E+02,-6797,-3395,4219,-252,262,-77,1,7,11
9.71E+02,-6789,-3387,4208,-251,310,-79,1,7,11
9.63E+02,-6808,-3389,4214,-531,133,-82,1,7,11
9.55E+02,-6824,-3399,3987,-524,194,-72,1,7,11
9.47E+02,-6819,-3411,3996,-225,243,-56,1,7,11
9.42E+02,-6812,-3412,3988,-151,549,-56,1,7,11
9.42E+02,-6803,-3403,4218,-337,596,-68,1,7,11
9.49E+02,-6807,-3396,4191,-279,388,-84,1,7,11
9.61E+02,-6815,-3388,4173,34,426,-99,1,7,11
9.75E+02,-6822,-3371,4142,79,452,-119,1,7,11
9.88E+02,-6831,-3363,4113,112,459,112,1,7,11
9.97E+02,-6830,-3360,3823,-114,459,81,1,7,11
1.00E+03,-6840,-3357,3787,-96,450,49,1,7,11
1.00E+03,-6860,-3348,3773,-67,451,12,1,7,11
1.00E+03,-6886,-3340,3755,-36,448,-264,1,7,11
1.00E+03,-6902,-3335,3729,259,459,-267,1,7,11
9.99E+02,-6887,-3358,3712,266,450,5,1,7,11
9.93E+02,-6878,-3376,3953,283,451,-262,1,7,11
9.85E+02,-6889,-3375,3934,289,447,-288,1,7,11
9.73E+02,-7169,-3364,3919,281,431,-315,1,7,11
9.59E+02,-7188,-3352,3897,-10,398,-327,1,7,11
9.47E+02,-7197,-3353,3876,-63,609,-327,1,7,11
9.40E+02,-7201,-3352,3860,-126,566,-317,1,7,11
9.40E+02,-7207,-3357,3853,55,535,-306,1,7,11
9.44E+02,-7218,-3368,3846,-273,248,-284,1,7,11
9.49E+02,-7232,-3370,3846,-338,226,-257,1,7,11
9.51E+02,-7238,-3386,3580,-136,201,37,1,7,11
9.49E+02,-7250,-3397,3571,-164,187,72,1,7,11
9.42E+02,-7246,-3405,3563,-182,178,105,1,7,11
9.30E+02,-7246,-3409,3559,-194,178,-124,1,7,11
9.14E+02,-7248,-3402,3546,-194,175,-102,1,7,11
8.95E+02,-7257,-3403,3538,-190,173,-86,1,7,11
8.77E+02,-7258,-3386,3516,-174,164,-70,1,7,11
8.65E+02,-7257,-3375,3498,-169,152,-56,1,7,11
8.61E+02,-7261,-3370,3492,-173,143,-44,1,7,11
8.62E+02,-7260,-3366,3479,-182,138,-29,1,7,11
8.65E+02,-7253,-3364,3473,-191,381,-17,1,7,11
8.68E+02,-7256,-3357,3459,-195,381,-11,1,7,11
8.69E+02,-7241,-3358,3707,-195,129,-4,1,7,11
8.68E+02,-7248,-3357,3702,-191,141,-4,1,7,11
8.68E+02,-7266,-3336,3705,-182,151,-3,1,7,11
8.66E+02,-7272,-3072,3692,-182,145,258,1,7,11
8.63E+02,-7260,-3068,3679,-183,137,-4,1,7,11
8.56E+02,-7262,-3064,3684,-197,133,-27,1,7,11
8.44E+02,-7265,-3060,3680,-197,379,-52,1,7,11
8.32E+02,-7260,-3063,3679,-196,372,-76,1,7,11
8.24E+02,-7263,-3067,3670,-188,362,-98,1,7,11
8.28E+02,-7270,-3067,3674,-175,355,-118,1,7,11
8.44E+02,-7282,-3069,3667,-159,354,116,1,7,11
8.68E+02,-7296,-3067,3669,-132,346,103,1,7,11
8.96E+02,-7051,-3057,3644,-364,338,97,1,7,11
9.22E+02,-7054,-3062,3636,-352,330,98,1,7,11
9.43E+02,-7064,-3071,3634,-343,328,94,1,7,11
9.55E+02,-7073,-3072,3635,-344,317,93,1,7,11
9.54E+02,-7088,-3072,3624,-337,303,94,1,7,11
9.40E+02,-7117,-3061,3607,-328,281,107,1,7,11
9.19E+02,-7109,-3059,3590,-337,-16,-113,1,7,11
9.03E+02,-7124,-3057,3309,-356,-39,-82,1,7,11
9.01E+02,-7144,-3064,3316,-129,-74,-45,1,7,11
9.13E+02,-7151,-3069,3584,-138,-126,260,1,7,11
9.31E+02,-7139,-3063,3595,-134,82,309,1,7,11
9.43E+02,-7130,-3054,3618,-382,36,356,1,7,11
9.42E+02,-7114,-3037,3627,-344,-257,150,1,7,11
9.25E+02,-7097,-3005,3627,-335,-283,193,1,7,11
9.01E+02,-7075,-2977,3632,-357,-308,221,1,7,11
8.75E+02,-7295,-2962,3665,-145,-316,227,1,7,11
8.52E+02,-7279,-2953,3690,-174,-302,201,1,7,11
8.35E+02,-7268,-2945,3457,-170,-278,157,1,7,11
8.25E+02,-7259,-3198,3473,-159,7,360,1,7,11
8.23E+02,-7261,-3196,3472,-151,48,294,1,7,11
8.25E+02,-7254,-3200,3489,-139,90,-24,1,7,11
8.25E+02,-7259,-3199,3503,-335,-108,-90,1,7,11
8.17E+02,-7285,-2955,3492,47,-24,79,1,7,11
8.02E+02,-7057,-3193,3711,110,260,44,1,7,11
7.85E+02,-7087,-3183,3684,114,259,36,1,7,11
7.72E+02,-7107,-3174,3633,78,-16,53,1,7,11
7.65E+02,-7124,-3153,3590,-292,-53,94,1,7,11
7.61E+02,-7141,-3150,3292,-208,-104,-101,1,7,11
7.60E+02,-7145,-3131,3268,-431,85,-26,1,7,11
7.58E+02,-7126,-3141,3611,-892,58,285,1,7,11
7.57E+02,-7128,-3157,3679,-679,54,308,1,7,11
7.56E+02,-7088,-3171,3693,-857,49,294,1,7,11
7.56E+02,-7092,-3161,3672,-506,70,-34,1,7,11
7.56E+02,-7111,-3159,3681,-448,90,-110,1,7,11
7.55E+02,-7125,-3152,3681,-626,92,109,1,7,11
7.56E+02,-7113,-3147,3651,-551,86,109,1,7,11
7.56E+02,-7110,-3133,3662,-534,105,103,1,7,11
7.58E+02,-7100,-3162,3690,-533,114,96,1,7,11
7.60E+02,-7092,-3177,3467,-227,121,80,1,7,11
7.65E+02,-7095,-3187,3487,-361,-126,64,1,7,11
7.75E+02,-7087,-3194,3528,96,-113,53,1,7,11
7.88E+02,-7084,-3192,3543,259,-92,28,1,7,11
8.03E+02,-7086,-2949,3554,376,-77,16,1,7,11
8.16E+02,-7083,-3181,3510,178,-74,20,1,7,11
8.26E+02,-7065,-3166,3478,141,-79,38,1,7,11
8.35E+02,-7049,-3151,3476,334,-62,49,1,7,11
8.43E+02,-7070,-3147,3489,290,-31,61,1,7,11
8.53E+02,-7092,-3130,3476,-10,-29,88,1,7,11
8.64E+02,-7108,-3114,3702,-115,-62,-121,1,7,11
8.77E+02,-7071,-3116,3710,1,-94,-78,1,7,11
8.92E+02,-7071,-3120,3462,-336,-84,-71,1,7,11
9.10E+02,-7091,-3118,3461,-355,-76,-69,1,7,11
9.27E+02,-7107,-3113,3465,-371,-79,-62,1,7,11
9.44E+02,-7124,-3111,3459,-139,-107,-48,1,7,11
9.59E+02,-7120,-3097,3463,-157,112,-32,1,7,11
9.72E+02,-7115,-3095,3466,-142,99,-31,1,7,11
9.82E+02,-7106,-3093,3468,-344,96,-41,1,7,11
9.90E+02,-7098,-3091,3480,-275,101,-63,1,7,11
9.96E+02,-7115,-3083,3484,73,115,-95,1,7,11
1.00E+03,-7109,-3074,3481,-108,106,-110,1,7,11
1.00E+03,-7113,-2804,3492,-41,112,121,1,7,11
1.00E+03,-7126,-2799,3496,280,118,108,1,7,11
1.00E+03,-7114,-2795,3483,319,112,112,1,7,11
9.96E+02,-7121,-2788,3492,290,114,127,1,7,11
9.91E+02,-7107,-2801,3512,-36,92,-112,1,7,11
9.87E+02,-7086,-2802,3543,-78,98,-105,1,7,11
9.85E+02,-7083,-2804,3561,-116,125,-110,1,7,11
9.85E+02,-7088,-2801,3578,-111,-99,-113,1,7,11
9.84E+02,-7076,-2798,3572,-84,-71,-112,1,7,11
9.81E+02,-7084,-2773,3539,-73,-37,-126,1,7,11
9.72E+02,-7094,-2757,3516,-115,-18,126,1,7,11
9.61E+02,-7083,-2753,3503,76,-5,120,1,7,11
9.49E+02,-7094,-2749,3493,-265,262,85,1,7,11
9.39E+02,-7102,-2759,3496,-336,258,53,1,7,11
9.35E+02,-7111,-2765,3480,-136,-12,35,1,7,11
9.35E+02,-7124,-2774,3460,-196,-23,24,1,7,11
9.38E+02,-7127,-2792,3706,-530,-47,28,1,7,11
9.41E+02,-7145,-2801,3697,-603,-71,36,1,7,11
9.44E+02,-7150,-2805,3693,-413,-97,57,1,7,11
9.45E+02,-7168,-2787,3678,-449,-103,70,1,7,11
9.43E+02,-7444,-2777,3671,-505,-108,83,1,7,11
9.38E+02,-7450,-2769,3628,-852,114,126,1,7,11
9.29E+02,-7163,-2770,3626,-701,78,-103,1,7,11
9.17E+02,-7164,-2774,3643,-1039,74,-91,1,7,11
9.04E+02,-7164,-2791,3671,-1063,74,-71,1,7,11
8.91E+02,-7130,-2811,3690,-761,91,-60,1,7,11
8.77E+02,-7142,-3074,3688,-687,-127,-81,1,7,11
8.66E+02,-7140,-3090,3694,-866,-116,-91,1,7,11
8.57E+02,-7129,-3097,3688,-510,-103,-114,1,7,11
8.51E+02,-7125,-3106,3667,-430,-99,110,1,7,11
8.47E+02,-7132,-3104,3648,-615,-99,77,1,7,11
8.46E+02,-7135,-3100,3628,-552,-108,44,1,7,11
8.47E+02,-7134,-3101,3601,-245,-126,24,1,7,11
8.50E+02,-7136,-3103,3325,-217,121,13,1,7,11
8.53E+02,-7139,-3111,3304,-206,109,9,1,7,11
8.56E+02,-7127,-3120,3297,-209,95,11,1,7,11
8.58E+02,-7138,-3125,3301,-226,87,2,1,7,11
8.58E+02,-7143,-3131,3305,-246,66,7,1,7,11
8.56E+02,-7142,-3132,3311,-516,49,25,1,7,11
8.52E+02,-7164,-3123,3311,-547,45,46,1,7,11
8.50E+02,-7121,-3136,3592,-600,28,84,1,7,11
8.53E+02,-7158,-3142,3615,-640,61,91,1,7,11
8.65E+02,-7131,-3140,3606,-636,50,-125,1,7,11
8.84E+02,-7142,-3150,3628,-626,81,-94,1,7,11
9.03E+02,-7145,-3157,3644,-603,116,-87,1,7,11
9.18E+02,-7154,-3153,3655,-548,-125,-88,1,7,11
9.25E+02,-7153,-3142,3650,-206,-122,-86,1,7,11
9.26E+02,-7144,-3128,3652,-158,-121,-91,1,7,11
9.24E+02,-7144,-3120,3651,-368,-121,-109,1,7,11
9.23E+02,-7142,-3113,3650,-329,127,-125,1,7,11
9.23E+02,-7128,-3108,3639,-306,120,115,1,7,11
9.22E+02,-7131,-3111,3634,-302,-128,86,1,7,11
9.17E+02,-7136,-3119,3644,-306,126,67,1,7,11
9.06E+02,-7128,-3128,3659,-302,113,60,1,7,11
8.90E+02,-7123,-3137,3668,-293,104,57,1,7,11
8.75E+02,-7109,-3144,3675,-292,98,56,1,7,11
8.65E+02,-7104,-3148,3679,-279,97,56,1,7,11
8.65E+02,-7110,-3144,3678,-260,107,61,1,7,11
8.72E+02,-7115,-3134,3672,3,117,80,1,7,11
8.86E+02,-7112,-3127,3662,-258,127,106,1,7,11
9.04E+02,-7106,-3117,3657,-275,-121,-126,1,7,11
9.24E+02,-7088,-3113,3656,-300,-108,-112,1,7,11
9.42E+02,-7087,-3112,3678,-332,-91,-112,1,7,11
9.53E+02,-7094,-3114,3680,-343,-77,-116,1,7,11
9.56E+02,-7092,-3116,3673,-343,-76,-110,1,7,11
9.51E+02,-7085,-3116,3662,-343,-59,-112,1,7,11
9.41E+02,-7105,-3119,3664,-343,-31,-127,1,7,11
9.29E+02,-7112,-3122,3674,-326,-17,123,1,7,11
9.18E+02,-7117,-3129,3670,-301,261,113,1,7,11
9.09E+02,-7126,-3137,3667,-284,275,104,1,7,11
9.02E+02,-7143,-3142,3668,-259,279,99,1,7,11
8.99E+02,-7137,-3137,3656,25,275,107,1,7,11
9.00E+02,-7140,-3123,3634,51,294,120,1,7,11
9.03E+02,-7147,-3117,3614,46,320,-120,1,7,11
9.06E+02,-7159,-3117,3606,14,336,-100,1,7,11
9.08E+02,-7166,-3112,3604,-267,347,-72,1,7,11
9.11E+02,-7168,-3109,3597,-287,345,-39,1,7,11
9.14E+02,-7429,-3099,3587,-300,341,-15,1,7,11
9.19E+02,-7432,-3097,3590,-320,333,264,1,7,11
9.26E+02,-7427,-3094,3588,-322,318,288,1,7,11
9.32E+02,-7433,-3081,3323,-320,311,300,1,7,11
9.33E+02,-7439,-2814,3314,-315,295,313,1,7,11
9.27E+02,-7444,-2806,3318,-317,281,320,1,7,11
9.14E+02,-7447,-2797,3326,-316,260,326,1,7,11
9.01E+02,-7444,-2796,3593,-316,-14,325,1,7,11
8.93E+02,-7450,-2783,3597,-300,-39,321,1,7,11
8.96E+02,-7449,-2763,3584,-287,-53,321,1,7,11
9.07E+02,-7458,-2743,3321,-283,-57,315,1,7,11
9.21E+02,-7470,-2728,3306,-277,-59,313,1,7,11
9.33E+02,-7469,-2702,3285,-280,-75,326,1,7,11
9.39E+02,-7461,-2690,3273,-312,-78,339,1,7,11
9.41E+02,-7451,-2937,3280,-353,-63,341,1,7,11
9.39E+02,-7461,-2935,3283,-380,-35,344,1,7,11
9.34E+02,-7452,-2693,3305,-149,-15,357,1,7,11
9.27E+02,-7451,-2713,3321,-145,266,357,1,7,11
9.19E+02,-7459,-2704,3327,-363,283,347,1,7,11
9.12E+02,-7471,-2944,3324,-329,301,338,1,7,11
9.07E+02,-7488,-2911,3317,-301,305,345,1,7,11
9.05E+02,-7488,-2912,3316,-298,294,348,1,7,11
9.06E+02,-7468,-2890,3301,-280,269,343,1,7,11
9.10E+02,-7473,-2885,3295,-273,260,304,1,7,11
9.17E+02,-7456,-2875,3296,-270,-20,238,1,7,11
9.24E+02,-7473,-2850,3285,3,-35,-76,1,7,11
9.29E+02,-7508,-2840,3273,38,-48,-115,1,7,11
9.32E+02,-7492,-2824,3250,78,-77,-128,1,7,11
9.30E+02,-7509,-2556,3232,96,-72,101,1,7,11
9.25E+02,-7518,-2551,3243,101,-78,80,1,7,11
9.19E+02,-7523,-2542,3246,101,-84,48,1,7,11
9.13E+02,-7552,-2552,3284,75,-100,17,1,7,11
9.08E+02,-7546,-2824,3303,68,116,14,1,7,11
9.05E+02,-7524,-2836,3305,58,101,10,1,7,11
9.03E+02,-7515,-2847,3318,35,112,1,1,7,11
9.05E+02,-7511,-2862,3322,12,-126,-265,1,7,11
9.09E+02,-7512,-2871,3322,2,-107,-274,1,7,11
9.15E+02,-7519,-2885,3587,-263,-91,-277,1,7,11
9.23E+02,-7528,-2894,3605,-261,-83,-266,1,7,11
9.32E+02,-7528,-2901,3617,6,-86,9,1,7,11
9.37E+02,-7516,-2896,3612,27,-89,24,1,7,11
9.35E+02,-7502,-2889,3597,51,-89,33,1,7,11
9.24E+02,-7489,-2878,3589,73,-71,30,1,7,11
9.06E+02,-7494,-2855,3321,90,-39,20,1,7,11
8.88E+02,-7506,-2841,3303,101,-2,14,1,7,11
8.74E+02,-7511,-2833,3291,93,277,22,1,7,11
8.68E+02,-7509,-2838,3284,74,308,31,1,7,11
8.69E+02,-7511,-2844,3276,59,332,38,1,7,11
8.73E+02,-7497,-2850,3268,46,354,35,1,7,11
8.78E+02,-7504,-2859,3269,31,380,16,1,7,11
8.82E+02,-7536,-2860,3263,18,142,-260,1,7,11
8.85E+02,-7299,-2856,3248,2,128,2,1,7,11
8.84E+02,-7297,-2867,3249,-282,365,29,1,7,11
8.80E+02,-7551,-2881,3247,-295,342,58,1,7,11
8.74E+02,-7540,-2893,3238,-292,317,81,1,7,11
8.68E+02,-7536,-2889,3231,-291,293,95,1,7,11
8.65E+02,-7534,-2890,3219,-293,271,102,1,7,11
8.66E+02,-7528,-2877,3223,-289,-11,105,1,7,11
8.72E+02,-7524,-2861,3227,-290,-34,113,1,7,11
8.83E+02,-7512,-2856,3234,-292,-46,119,1,7,11
9.00E+02,-7508,-2850,3241,-288,-39,114,1,7,11
9.20E+02,-7511,-2845,3241,-297,-14,107,1,7,11
9.42E+02,-7517,-2842,3228,-308,256,101,1,7,11
9.63E+02,-7531,-2832,3225,-313,269,91,1,7,11
9.82E+02,-7538,-2838,3203,-307,272,94,1,7,11
9.94E+02,-7533,-2832,3437,-315,289,101,1,7,11
9.98E+02,-7300,-2837,3429,-342,317,97,1,7,11
9.91E+02,-7328,-2843,3423,-354,325,99,1,7,11
9.75E+02,-7349,-2849,3426,-360,311,115,1,7,11
9.55E+02,-7355,-2854,3412,-352,289,-115,1,7,11
9.39E+02,-7342,-2851,3391,-355,269,-83,1,7,11
9.33E+02,-7334,-2844,3382,-376,259,-65,1,7,11
9.36E+02,-7336,-2836,3376,-155,-2,-52,1,7,11
9.43E+02,-7337,-2834,3374,-190,-13,-44,1,7,11
9.51E+02,-7332,-2836,3383,-212,-34,-35,1,7,11
9.53E+02,-7324,-2844,3392,-227,-55,-24,1,7,11
9.52E+02,-7306,-2844,3409,-229,-69,-16,1,7,11
9.45E+02,-7298,-2847,3413,-229,-69,-18,1,7,11
9.36E+02,-7545,-2848,3414,-226,-64,-16,1,7,11
9.23E+02,-7549,-2846,3417,-217,-50,-24,1,7,11
9.10E+02,-7545,-2839,3422,-197,-52,-26,1,7,11
8.98E+02,-7540,-2830,3409,-178,-49,-43,1,7,11
8.89E+02,-7552,-2825,3411,-169,-45,-54,1,7,11
8.84E+02,-7297,-2826,3406,-160,-59,-74,1,7,11
8.82E+02,-7552,-2823,3394,-151,-89,-119,1,7,11
8.82E+02,-7306,-2817,3389,-147,-127,106,1,7,11
8.83E+02,-7326,-2554,3386,-145,106,86,1,7,11
8.84E+02,-7327,-2556,3380,-145,82,86,1,7,11
8.84E+02,-7323,-2555,3386,-130,69,103,1,7,11
8.81E+02,-7326,-2546,3395,-351,60,114,1,7,11
8.76E+02,-7307,-2546,3390,-328,38,119,1,7,11
8.70E+02,-7308,-2545,3388,-305,40,95,1,7,11
8.62E+02,-7311,-2532,3382,-285,42,74,1,7,11
8.55E+02,-7309,-2534,3372,-292,55,60,1,7,11
8.50E+02,-7311,-2542,3393,-306,76,66,1,7,11
8.48E+02,-7302,-2820,3436,-314,94,82,1,7,11
8.50E+02,-7552,-2839,3205,-283,127,85,1,7,11
8.58E+02,-7551,-2832,3448,20,-111,87,1,7,11
8.71E+02,-7547,-2542,3424,62,-96,91,1,7,11
8.89E+02,-7547,-2527,3420,64,-75,95,1,7,11
9.10E+02,-7300,-2523,3419,48,-40,96,1,7,11
9.30E+02,-7301,-2533,3413,38,-11,99,1,7,11
9.45E+02,-7302,-2530,3413,20,-7,95,1,7,11
9.50E+02,-7321,-2527,3409,25,-7,95,1,7,11
9.43E+02,-7308,-2535,3404,31,-2,97,1,7,11
9.30E+02,-7337,-2529,3402,49,283,94,1,7,11
9.18E+02,-7367,-2539,3404,53,285,112,1,7,11
9.12E+02,-7368,-2539,3380,58,261,-118,1,7,11
9.13E+02,-7379,-2525,3360,12,-23,-97,1,7,11
9.19E+02,-7385,-2517,3341,-335,-62,-60,1,7,11
9.26E+02,-7393,-2510,3061,-215,-102,-4,1,7,11
9.33E+02,-7372,-2510,3331,-638,113,317,1,7,11
9.39E+02,-7352,-2504,3365,-512,83,357,1,7,11
9.45E+02,-7336,-2495,3393,-824,85,362,1,7,11
9.51E+02,-7345,-2483,3387,-818,101,343,1,7,11
9.57E+02,-7350,-2464,3376,-781,117,322,1,7,11
9.60E+02,-7347,-2450,3347,-495,-126,307,1,7,11
9.57E+02,-7342,-2452,3336,-488,-119,294,1,7,11
9.46E+02,-7349,-2442,3070,-449,-102,264,1,7,11
9.26E+02,-7345,-2444,3330,-395,-109,-15,1,7,11
9.05E+02,-7363,-2443,3340,-572,-99,-52,1,7,11
8.89E+02,-7373,-2445,3349,-230,-117,-74,1,7,11
8.85E+02,-7365,-2438,3348,-137,116,-91,1,7,11
8.91E+02,-7350,-2451,3364,-327,104,-120,1,7,11
9.03E+02,-7364,-2451,3382,8,105,94,1,7,11
9.15E+02,-7347,-2450,3403,84,103,66,1,7,11
9.24E+02,-7337,-2450,3410,-98,112,26,1,7,11
9.30E+02,-7330,-2452,3419,-17,107,-278,1,7,11
9.33E+02,-7325,-2460,3422,316,106,-330,1,7,11
9.33E+02,-7338,-2437,3394,143,112,-367,1,7,11
9.31E+02,-7345,-2687,3382,141,119,-133,1,7,11
9.29E+02,-7364,-2440,3392,129,-118,-138,1,7,11
9.27E+02,-7378,-2447,3393,345,-126,-367,1,7,11
9.27E+02,-7348,-2458,3392,294,90,-325,1,7,11
9.27E+02,-7338,-2462,3390,-25,67,-309,1,7,11
9.27E+02,-7337,-2456,3402,-93,44,-301,1,7,11
9.26E+02,-7344,-2438,3407,111,16,-296,1,7,11
9.23E+02,-7339,-2442,3434,-261,-271,-287,1,7,11
9.20E+02,-7324,-2442,3449,-317,-297,-285,1,7,11
9.16E+02,-7323,-2440,3447,-359,-310,-292,1,7,11
9.15E+02,-7332,-2437,3447,-188,-328,-295,1,7,11
9.15E+02,-7314,-2447,3232,-536,-347,-280,1,7,11
9.15E+02,-7318,-2455,3270,-547,-308,-286,1,7,11
9.13E+02,-7540,-2469,3299,-241,-279,-267,1,7,11
9.05E+02,-7529,-2493,3604,-157,75,-281,1,7,11
8.93E+02,-7550,-2514,3620,-281,-83,-307,1,7,11
8.83E+02,-7299,-2529,3626,103,-5,-312,1,7,11
8.78E+02,-7301,-2540,3607,-22,318,-304,1,7,11
8.81E+02,-7298,-2530,3589,331,370,-288,1,7,11
8.87E+02,-7546,-2519,3311,151,162,-272,1,7,11
8.93E+02,-7538,-2496,3281,205,220,-267,1,7,11
8.95E+02,-7547,-2481,3248,230,529,-269,1,7,11
8.94E+02,-7300,-2470,3218,210,569,-274,1,7,11
8.95E+02,-7302,-2471,3209,155,571,-282,1,7,11
9.04E+02,-7307,-2465,3445,362,542,-297,1,7,11
9.24E+02,-7319,-2463,3447,339,249,-328,1,7,11
9.47E+02,-7326,-2465,3431,355,213,-355,1,7,11
9.65E+02,-7324,-2470,3403,380,174,-373,1,7,11
9.66E+02,-7338,-2458,3382,136,149,-145,1,7,11
9.47E+02,-7343,-2453,3381,128,369,-157,1,7,11
9.17E+02,-7347,-2451,3386,380,338,-167,1,7,11
8.91E+02,-7356,-2448,3385,379,322,-185,1,7,11
8.80E+02,-7347,-2462,3398,128,317,-195,1,7,11
8.86E+02,-7345,-2480,3406,139,325,-209,1,7,11
9.01E+02,-7369,-2486,3428,178,345,-253,1,7,11
9.18E+02,-7378,-2502,3433,212,367,-239,1,7,11
9.28E+02,-7360,-2491,3390,518,370,-218,1,7,11
9.31E+02,-7330,-2490,3339,159,356,-196,1,7,11
9.27E+02,-7326,-2496,3340,-31,343,-206,1,7,11
9.19E+02,-7539,-2512,3375,65,314,-254,1,7,11
9.06E+02,-7528,-2502,3386,7,308,-630,1,7,11
8.91E+02,-7514,-2513,3430,74,341,-772,1,7,11
8.77E+02,-7501,-2551,3213,268,366,-667,1,7,11
8.66E+02,-7521,-2830,3204,547,382,-1091,1,7,11
8.61E+02,-7471,-2901,3220,804,314,-959,1,7,11
8.60E+02,-7432,-2704,3203,1090,-4,-1371,1,7,11
8.65E+02,-7156,-2750,3455,1327,-110,-1268,1,7,11
8.75E+02,-7429,-2753,3430,1268,55,-1413,1,7,11
8.87E+02,-7444,-2753,3417,1643,-297,-1507,1,7,11
8.96E+02,-7476,-2768,3398,1418,-342,-1521,1,7,11
9.00E+02,-7493,-2791,3398,1607,-381,-1462,1,7,11
8.99E+02,-7435,-3152,3204,1182,-174,-1611,1,7,11
8.94E+02,-7430,-3193,3271,1007,-183,-1276,1,7,11
8.87E+02,-7425,-2974,3585,1069,-210,-1404,1,7,11
8.81E+02,-7163,-3008,3607,666,-230,-1285,1,7,11
8.77E+02,-7108,-3046,3638,770,-232,-1134,1,7,11
8.77E+02,-7089,-3059,3695,555,-162,-752,1,7,11
8.85E+02,-7079,-3342,3493,244,-330,-642,1,7,11
8.97E+02,-7042,-3348,3518,519,-270,-801,1,7,11
9.12E+02,-7249,-3352,3519,524,53,-491,1,7,11
9.26E+02,-7215,-3355,3522,537,126,-499,1,7,11
9.37E+02,-7202,-3338,3492,562,-59,-784,1,7,11
9.44E+02,-7191,-3334,3487,546,272,-817,1,7,11
9.48E+02,-7204,-3346,3496,540,340,-850,1,7,11
9.50E+02,-7218,-3370,3509,572,130,-871,1,7,11
9.52E+02,-7234,-3382,3513,613,165,-880,1,7,11
9.51E+02,-7252,-3404,3497,390,200,-876,1,7,11
9.47E+02,-7267,-3425,3487,397,233,-867,1,7,11
9.39E+02,-7284,-3453,3500,387,517,-854,1,7,11
9.28E+02,-7289,-3221,3520,402,524,-831,1,7,11
9.18E+02,-7294,-3235,3542,463,530,-805,1,7,11
9.13E+02,-7287,-3229,3544,840,543,-781,1,7,11
9.17E+02,-7284,-3219,3519,735,585,-510,1,7,11
9.28E+02,-7047,-3440,3484,1079,620,-503,1,7,11
9.43E+02,-7050,-3444,3482,1109,390,-487,1,7,11
9.55E+02,-7070,-3414,3668,903,389,-461,1,7,11
9.61E+02,-7046,-3408,3627,1085,607,-413,1,7,11
9.61E+02,-7282,-3423,3640,699,569,-625,1,7,11
9.57E+02,-7292,-3436,3607,837,206,-602,1,7,11
9.50E+02,-7041,-3405,3628,492,383,-587,1,7,11
9.41E+02,-7070,-3244,3682,685,179,-229,1,7,11
9.30E+02,-7126,-3024,3206,728,306,-313,1,7,11
9.17E+02,-7217,-3415,3649,418,-116,99,1,7,11
9.01E+02,-7209,-3416,3456,390,42,32,1,7,11
8.83E+02,-7173,-3437,3525,603,-139,-313,1,7,11
8.65E+02,-7186,-3413,3551,415,-226,-137,1,7,11
8.49E+02,-7181,-3398,3567,492,-568,-180,1,7,11
8.38E+02,-7035,-3418,3842,780,-412,-210,1,7,11
8.29E+02,-7021,-3435,3878,817,-636,-607,1,7,11
8.21E+02,-7031,-3420,3903,882,-630,-494,1,7,11
8.13E+02,-6794,-3400,3926,893,-611,-864,1,7,11
8.04E+02,-6792,-3408,3945,887,-610,-681,1,7,11
7.92E+02,-6812,-3390,3931,895,-569,-734,1,7,11
7.79E+02,-6836,-3391,3933,860,-235,-740,1,7,11
7.64E+02,-6868,-3396,3942,801,-367,-691,1,7,11
7.50E+02,-6846,-3426,3725,462,2,-856,1,7,11
7.41E+02,-6829,-3211,3770,395,111,-783,1,7,11
7.38E+02,-6818,-3223,3787,634,-53,-458,1,7,11
7.40E+02,-6814,-3248,3817,596,287,-389,1,7,11
7.48E+02,-6807,-3264,4097,556,340,-577,1,7,11
7.60E+02,-6806,-3261,4139,515,380,-533,1,7,11
7.76E+02,-6827,-3279,4191,235,136,-224,1,7,11
7.96E+02,-7036,-3278,3978,248,352,-148,1,7,11
8.18E+02,-6806,-3244,4220,250,320,-357,1,7,11
8.38E+02,-7012,-3249,4204,166,-28,-265,1,7,11
8.54E+02,-6934,-3212,4168,358,-47,86,1,7,11
8.64E+02,-6634,-3451,4177,-32,279,118,1,7,11
8.72E+02,-6608,-3442,4197,127,377,104,1,7,11
8.82E+02,-6663,-3412,4195,57,516,39,1,7,11
8.97E+02,-6974,-3394,4222,-267,414,-282,1,7,11
9.19E+02,-6990,-3427,4055,-302,847,-276,1,7,11
9.43E+02,-7024,-3455,4057,-57,690,-292,1,7,11
9.68E+02,-6829,-3431,4012,227,748,-318,1,7,11
9.90E+02,-6882,-3397,3972,442,1032,-318,1,7,11
1.01E+03,-7179,-3382,4213,825,1039,-301,1,7,11
1.02E+03,-7200,-3363,4218,682,761,-282,1,7,11
1.03E+03,-7199,-3354,4209,1061,728,-276,1,7,11
1.04E+03,-7201,-3336,4198,912,704,-294,1,7,11
1.04E+03,-7201,-3054,4211,1002,674,-338,1,7,11
1.03E+03,-7239,-3010,4208,1332,890,-143,1,7,11
1.02E+03,-7250,-3191,4172,1375,825,-169,1,7,11
9.96E+02,-7258,-3139,4140,1339,789,-188,1,7,11
9.70E+02,-7269,-3108,4111,992,486,-188,1,7,11
9.44E+02,-7268,-2806,3822,1094,432,-177,1,7,11
9.24E+02,-7259,-2795,3802,874,391,-178,1,7,11
9.14E+02,-7293,-2801,3804,622,581,-162,1,7,11
9.14E+02,-7243,-3086,4118,142,241,-369,1,7,11
9.19E+02,-7236,-3129,4164,280,219,-365,1,7,11
9.25E+02,-7250,-3163,4211,271,188,-370,1,7,11
9.27E+02,-7238,-3172,4200,320,158,-378,1,7,11
9.25E+02,-7218,-3198,4202,345,128,-129,1,7,11
9.19E+02,-7222,-2959,4196,365,354,-151,1,7,11
9.10E+02,-7227,-2958,4174,359,313,-169,1,7,11
8.98E+02,-7223,-2963,4172,316,246,-159,1,7,11
8.86E+02,-6909,-3023,4201,-88,-101,-143,1,7,11
8.77E+02,-6880,-3032,4212,-80,-120,-165,1,7,11
8.71E+02,-6873,-3038,4217,-56,-107,-198,1,7,11
8.69E+02,-6862,-3056,3981,-12,-99,-217,1,7,11
8.67E+02,-6859,-3048,3980,332,-67,-222,1,7,11
8.64E+02,-6840,-3036,4219,174,-16,-196,1,7,11
8.59E+02,-6801,-3026,4187,229,299,-168,1,7,11
8.55E+02,-6792,-3011,4143,255,142,-156,1,7,11
8.56E+02,-7031,-3017,4114,245,245,-153,1,7,11
8.63E+02,-7019,-3013,3809,210,597,-166,1,7,11
8.72E+02,-7039,-3000,3750,383,439,-216,1,7,11
8.81E+02,-6815,-2995,3956,276,502,-515,1,7,11
8.86E+02,-6841,-2987,3892,-109,794,-555,1,7,11
8.86E+02,-6848,-3032,3858,-292,782,-586,1,7,11
8.85E+02,-6864,-3058,3539,-196,473,-631,1,7,11
8.86E+02,-6879,-3353,3507,-386,387,-422,1,7,11
8.93E+02,-7187,-3394,3483,-782,569,-462,1,7,11
9.03E+02,-7232,-3445,3458,-868,225,-463,1,7,11
9.13E+02,-7261,-3212,3685,-652,377,-418,1,7,11
9.20E+02,-7277,-3238,3675,-686,280,-594,1,7,11
9.21E+02,-7248,-3288,3692,-1025,-93,-193,1,7,11
9.18E+02,-7225,-3592,3699,-1098,47,-132,1,7,11
9.13E+02,-7194,-3622,3711,-899,-355,-358,1,7,11
9.07E+02,-7173,-3638,3483,-947,-169,-332,1,7,11
9.00E+02,-6912,-3640,3505,-966,-215,-299,1,7,11
8.90E+02,-7173,-3646,3542,-987,-255,-266,1,7,11
8.74E+02,-7174,-3636,3846,-983,-549,27,1,7,11
8.52E+02,-6910,-3624,3874,-964,-583,66,1,7,11
8.28E+02,-6877,-3603,3887,-943,-603,108,1,7,11
8.04E+02,-6832,-3324,3892,-911,-585,-124,1,7,11
7.85E+02,-6808,-3292,3895,-1116,-530,127,1,7,11
7.72E+02,-6788,-3260,3885,-1042,-190,99,1,7,11
7.67E+02,-7038,-3239,3869,-711,-355,56,1,7,11
7.70E+02,-7020,-3228,3860,-889,-264,-265,1,7,11
7.81E+02,-7014,-3221,3569,-815,78,-350,1,7,11
7.94E+02,-7017,-3230,3546,-490,-110,-198,1,7,11
8.06E+02,-7031,-3273,3506,-412,-76,-550,1,7,11
8.15E+02,-7008,-3602,3465,-593,-92,-620,1,7,11
8.20E+02,-6968,-3690,3668,-528,126,-438,1,7,11
8.20E+02,-6958,-3536,3631,-226,71,-782,1,7,11
8.16E+02,-6983,-3901,3601,-193,-274,-865,1,7,11
8.13E+02,-7018,-3750,3597,-186,-168,-668,1,7,11
8.18E+02,-7040,-4107,3605,-159,-639,-693,1,7,11
8.34E+02,-7029,-4005,3659,-384,-1141,-641,1,7,11
8.57E+02,-6972,-4071,3473,-137,-1379,-827,1,7,11
8.84E+02,-6921,-4365,3570,-142,-1560,-488,1,7,11
9.08E+02,-6598,-4409,3912,-376,-1435,-388,1,7,11
9.28E+02,-6533,-4405,3956,-320,-1516,-535,1,7,11
9.45E+02,-6729,-4388,3752,-303,-1802,-161,1,7,11
9.60E+02,-6663,-4366,3828,-311,-1534,-313,1,7,11
9.73E+02,-6344,-4075,4171,-301,-1495,11,1,7,11
9.85E+02,-6318,-4033,3989,-271,-1421,44,1,7,11
9.96E+02,-6280,-3995,4038,19,-1634,64,1,7,11
1.01E+03,-6511,-4215,4073,41,-1591,36,1,7,11
1.01E+03,-6460,-4211,4452,-102,-1259,-282,1,7,11
1.02E+03,-6309,-4136,4377,204,-1369,-329,1,7,11
1.03E+03,-6314,-3807,4047,528,-1154,-335,1,7,11
1.03E+03,-6323,-3754,4026,161,-1228,-141,1,7,11
1.03E+03,-6292,-3759,4091,-1,-1570,-206,1,7,11
1.02E+03,-6294,-3776,4439,-107,-1615,-545,1,7,11
1.02E+03,-6292,-3800,4327,90,-1641,-595,1,7,11
1.01E+03,-6289,-3815,4634,57,-1656,-617,1,7,11
9.99E+02,-6513,-3826,4497,60,-1426,-612,1,7,11
9.85E+02,-6484,-3823,4556,73,-1423,-606,1,7,11
9.68E+02,-6476,-3827,4597,69,-1651,-599,1,7,11
9.50E+02,-6469,-3817,4922,80,-1628,-576,1,7,11
9.33E+02,-6428,-3793,4744,89,-1608,-525,1,7,11
9.20E+02,-6132,-3748,4774,93,-1576,-225,1,7,11
9.11E+02,-6094,-3966,4817,92,-1545,-198,1,7,11
9.05E+02,-6051,-3922,4852,89,-1257,-185,1,7,11
9.00E+02,-6022,-3893,5162,93,-1224,-186,1,7,11
8.96E+02,-6215,-3890,5232,76,-1182,-187,1,7,11
8.95E+02,-6150,-3868,5244,118,-1382,-210,1,7,11
8.98E+02,-5840,-3583,5237,-47,-1283,-520,1,7,11
9.06E+02,-5813,-3563,5230,-4,-910,-601,1,7,11
9.17E+02,-5781,-3543,5210,271,-1072,-450,1,7,11
9.27E+02,-6010,-3536,5165,270,-731,-839,1,7,11
9.29E+02,-5983,-3534,5153,-18,-883,-727,1,7,11
9.18E+02,-5958,-3845,5209,-110,-501,-1123,1,7,11
8.97E+02,-5948,-3934,5038,62,-631,-994,1,7,11
8.74E+02,-5932,-3774,5118,15,-545,-1352,1,7,11
8.58E+02,-5900,-4119,5399,6,-226,-1175,1,7,11
8.51E+02,-5890,-4186,5384,-269,-174,-1230,1,7,11
8.51E+02,-5894,-3990,5115,-332,-379,-1254,1,7,11
8.54E+02,-5906,-4044,5100,-174,-343,-1232,1,7,11
8.56E+02,-5913,-4371,5111,-538,-325,-1166,1,7,11
8.57E+02,-5895,-4449,5377,-612,-313,-1317,1,7,11
8.60E+02,-5598,-4252,5109,-397,-289,-945,1,7,11
8.69E+02,-5583,-4296,5084,-438,23,-1094,1,7,11
8.82E+02,-5584,-4336,5056,-491,67,-726,1,7,11
8.96E+02,-5574,-4632,5028,-781,99,-852,1,7,11
9.07E+02,-5567,-4636,5210,-817,127,-466,1,7,11
9.12E+02,-5550,-4651,5197,-666,-107,-600,1,7,11
9.10E+02,-5542,-4685,5203,-755,-87,-243,1,7,11
9.04E+02,-5523,-4719,5221,-1038,-91,-166,1,7,11
8.98E+02,-5510,-4732,5190,-766,-109,-374,1,7,11
8.94E+02,-5505,-4485,5124,-1028,93,-336,1,7,11
8.94E+02,-5760,-4506,4860,-1074,-270,-321,1,7,11
9.02E+02,-5523,-4524,5141,-1136,-166,-324,1,7,11
9.19E+02,-5532,-4865,5220,-972,-588,-268,1,7,11
9.45E+02,-5740,-4955,5030,-988,-488,35,1,7,11
9.71E+02,-5719,-4766,5041,-1144,-877,-87,1,7,11
9.92E+02,-5672,-4802,5010,-748,-676,-37,1,7,11
1.00E+03,-5339,-4810,5002,-644,-1053,326,1,7,11
9.96E+02,-5281,-4810,5041,-841,-912,349,1,7,11
9.83E+02,-5459,-4806,5113,-779,-961,356,1,7,11
9.67E+02,-5408,-4765,5413,-615,-964,344,1,7,11
9.50E+02,-5119,-4968,5452,-250,-940,324,1,7,11
9.37E+02,-5100,-4891,5464,-156,-1140,298,1,7,11
9.29E+02,-5089,-4577,5487,-367,-1068,267,1,7,11
9.26E+02,-5101,-4536,5285,-357,-713,-28,1,7,11
9.31E+02,-5106,-4498,5342,-335,-873,-55,1,7,11
9.39E+02,-5103,-4714,5356,-297,-507,-79,1,7,11
9.49E+02,-5383,-4674,5346,-272,-629,-111,1,7,11
9.55E+02,-5429,-4347,5280,-260,-237,127,1,7,11
9.55E+02,-5481,-4309,5265,-382,-152,125,1,7,11
9.52E+02,-5496,-4307,5503,-238,-132,-95,1,7,11
9.45E+02,-5497,-4259,5422,-595,-374,-64,1,7,11
9.38E+02,-5264,-4247,5395,-512,-362,-41,1,7,11
9.30E+02,-5258,-4290,5409,-696,-131,258,1,7,11
9.20E+02,-5467,-4643,5460,-1070,-171,289,1,7,11
9.08E+02,-5417,-4483,5266,-1088,-195,275,1,7,11
8.92E+02,-5115,-4585,5334,-1048,-216,-26,1,7,11
8.76E+02,-5061,-4951,5662,-885,-224,-109,1,7,11
8.64E+02,-5037,-4765,5707,-493,-208,98,1,7,11
8.62E+02,-5022,-4808,5740,-563,-148,71,1,7,11
8.70E+02,-5029,-4812,5727,-328,-295,59,1,7,11
8.85E+02,-5078,-4989,5657,-123,97,73,1,7,11
8.99E+02,-5396,-4921,5359,-49,-33,-127,1,7,11
9.08E+02,-5413,-4878,5326,-26,292,-36,1,7,11
9.12E+02,-5404,-4575,5264,-24,331,293,1,7,11
9.13E+02,-5425,-4502,5444,-76,360,327,1,7,11
9.15E+02,-5473,-4716,5415,64,378,361,1,7,11
9.19E+02,-5265,-4693,5386,-307,380,165,1,7,11
9.23E+02,-5281,-4698,5396,-154,364,237,1,7,11
9.25E+02,-5283,-4709,5435,-216,348,554,1,7,11
9.21E+02,-5260,-4720,5488,-206,324,577,1,7,11
9.11E+02,-5250,-4721,5274,-370,307,547,1,7,11
9.01E+02,-5484,-4684,5251,46,276,229,1,7,11
8.95E+02,-5488,-4631,5459,-81,-7,133,1,7,11
8.96E+02,-5261,-4327,5432,-41,-47,272,1,7,11
9.03E+02,-5290,-4300,5400,-50,123,-87,1,7,11
9.15E+02,-5307,-4282,5377,-96,13,81,1,7,11
9.26E+02,-5338,-4269,5108,78,-335,20,1,7,11
9.34E+02,-5364,-4278,5119,-295,-139,5,1,7,11
9.39E+02,-5637,-4300,5438,-144,-173,39,1,7,11
9.40E+02,-5638,-4337,5489,-232,-181,101,1,7,11
9.36E+02,-5362,-4618,5285,-551,-169,-77,1,7,11
9.28E+02,-5335,-4636,5314,-573,-145,-9,1,7,11
9.19E+02,-5311,-4639,5328,-563,-337,315,1,7,11
9.11E+02,-5294,-4632,5333,-255,-277,338,1,7,11
9.09E+02,-5290,-4622,5318,-222,34,346,1,7,11
9.10E+02,-5311,-4326,5248,-187,88,349,1,7,11
9.13E+02,-5358,-4259,5417,-238,-121,355,1,7,11
9.15E+02,-5649,-4281,5440,-402,-115,380,1,7,11
9.14E+02,-5642,-4304,5472,-463,127,168,1,7,11
9.11E+02,-5636,-4313,5484,-477,118,188,1,7,11
9.08E+02,-5368,-4314,5498,-449,112,200,1,7,11
9.08E+02,-5633,-4311,5497,-407,121,198,1,7,11
9.10E+02,-5375,-4309,5487,-610,127,199,1,7,11
9.12E+02,-5639,-4288,5471,-567,-109,203,1,7,11
9.10E+02,-5643,-4280,5464,-545,-88,213,1,7,11
9.01E+02,-5376,-4285,5459,-545,-75,219,1,7,11
8.90E+02,-5633,-4286,5444,-555,-59,210,1,7,11
8.80E+02,-5638,-4294,5445,-569,-34,200,1,7,11
8.79E+02,-5645,-4318,5463,-581,259,195,1,7,11
8.88E+02,-5656,-4338,5481,-567,298,203,1,7,11
9.03E+02,-5660,-4338,5464,-248,333,203,1,7,11
9.18E+02,-5683,-4316,5422,-187,374,186,1,7,11
9.28E+02,-5705,-4316,5407,-165,146,172,1,7,11
9.32E+02,-5716,-4331,5401,-382,149,160,1,7,11
9.31E+02,-5710,-4329,5385,-310,128,134,1,7,11
9.27E+02,-5707,-4332,5377,21,364,344,1,7,11
9.19E+02,-5694,-4342,5119,108,340,281,1,7,11
9.10E+02,-5697,-4339,5387,-31,330,-54,1,7,11
9.00E+02,-5742,-4312,5388,370,337,118,1,7,11
8.91E+02,-5505,-4291,5115,234,300,67,1,7,11
8.84E+02,-5527,-4255,5063,563,265,29,1,7,11
8.80E+02,-5568,-4474,5038,578,-28,10,1,7,11
8.79E+02,-5597,-4426,5039,546,-62,39,1,7,11
8.84E+02,-5617,-4423,5067,204,-83,114,1,7,11
8.92E+02,-5892,-4424,5109,379,-70,-50,1,7,11
9.01E+02,-5613,-4453,5415,293,-67,139,1,7,11
9.10E+02,-5605,-4430,5406,256,-57,243,1,7,11
9.15E+02,-5621,-4380,5395,-33,-34,576,1,7,11
9.16E+02,-5894,-4362,5426,110,-38,405,1,7,11
9.10E+02,-5889,-4078,5439,13,-32,495,1,7,11
8.95E+02,-5619,-4062,5446,-278,-10,811,1,7,11
8.76E+02,-5607,-4044,5450,-277,279,841,1,7,11
8.58E+02,-5585,-4014,5436,-264,316,826,1,7,11
8.49E+02,-5563,-3992,5437,28,361,768,1,7,11
8.53E+02,-5560,-4222,5425,84,137,415,1,7,11
8.65E+02,-5561,-4195,5400,-125,145,562,1,7,11
8.79E+02,-5565,-4180,5390,-81,148,186,1,7,11
8.88E+02,-5590,-4164,5380,-30,155,314,1,7,11
8.91E+02,-5618,-4150,5113,273,144,-47,1,7,11
8.91E+02,-5904,-4137,5105,313,128,124,1,7,11
8.89E+02,-5935,-4133,5092,359,371,70,1,7,11
8.89E+02,-5969,-4123,5058,135,368,39,1,7,11
8.88E+02,-5983,-4123,5030,134,362,33,1,7,11
8.83E+02,-5990,-4138,5026,354,367,26,1,7,11
8.73E+02,-5996,-4162,5002,330,136,13,1,7,11
8.59E+02,-6013,-4182,5220,321,198,-269,1,7,11
8.47E+02,-5789,-4182,5192,327,554,-290,1,7,11
8.43E+02,-5849,-4111,5194,354,421,-284,1,7,11
8.50E+02,-6212,-3962,5210,360,505,45,1,7,11
8.62E+02,-6243,-3871,5001,-5,420,-30,1,7,11
8.73E+02,-5881,-3896,5097,61,214,160,1,7,11
8.78E+02,-5766,-3957,5454,-296,-3,232,1,7,11
8.75E+02,-5916,-3778,5255,-340,57,197,1,7,11
8.69E+02,-5546,-4121,5296,-375,-316,337,1,7,11
8.62E+02,-5747,-4198,5314,-364,-327,-84,1,7,11
8.59E+02,-5670,-4043,5325,-318,42,-309,1,7,11
8.57E+02,-5675,-4394,5351,-294,-73,-199,1,7,11
8.56E+02,-5698,-4241,5368,70,322,-578,1,7,11
8.56E+02,-5733,-4310,5307,-8,231,-415,1,7,11
8.57E+02,-5532,-4613,5480,160,416,-466,1,7,11
8.57E+02,-5890,-4325,5383,546,862,-474,1,7,11
8.58E+02,-5767,-4259,5058,593,725,-409,1,7,11
8.60E+02,-5872,-4397,5244,593,743,-520,1,7,11
8.61E+02,-6208,-3992,5168,517,679,-306,1,7,11
8.63E+02,-6258,-4098,4861,351,808,-50,1,7,11
8.64E+02,-6020,-3745,5144,86,602,216,1,7,11
8.65E+02,-6222,-3729,5191,-162,356,455,1,7,11
8.66E+02,-6191,-3966,5011,-568,-78,859,1,7,11
8.67E+02,-6185,-3956,5101,-633,35,678,1,7,11
8.69E+02,-6190,-3932,5449,-605,-348,695,1,7,11
8.73E+02,-6202,-3902,5493,-230,-221,663,1,7,11
8.80E+02,-6186,-3849,5253,-311,-601,844,1,7,11
8.91E+02,-6180,-3536,5495,116,-435,468,1,7,11
9.06E+02,-6160,-3501,5489,-14,-506,577,1,7,11
9.24E+02,-5846,-3498,5258,337,-820,139,1,7,11
9.43E+02,-5764,-3529,5300,196,-842,-78,1,7,11
9.63E+02,-5938,-3544,5358,621,-809,-341,1,7,11
9.78E+02,-5908,-3567,5655,850,-778,-636,1,7,11
9.86E+02,-5597,-3851,5673,1133,-797,-1128,1,7,11
9.80E+02,-5585,-3846,5678,1187,-869,-1246,1,7,11
9.61E+02,-5890,-3575,5684,1481,-672,-1835,1,7,11
9.38E+02,-5962,-3578,5687,1789,-733,-2061,1,7,11
9.18E+02,-6000,-3849,5693,2173,-1033,-2135,1,7,11
9.11E+02,-5990,-3858,5697,1961,-1044,-2083,1,7,11
9.14E+02,-5992,-3550,5683,1920,-726,-1695,1,7,11
9.18E+02,-5963,-3510,5713,1728,-679,-1472,1,7,11
9.10E+02,-5895,-3463,5745,1473,-873,-1196,1,7,11
8.82E+02,-5582,-3686,5544,1407,-819,-912,1,7,11
8.42E+02,-5753,-3663,5601,1069,-799,-894,1,7,11
8.02E+02,-5672,-3643,5907,457,-772,-425,1,7,11
7.73E+02,-5356,-3637,5974,349,-486,-519,1,7,11
7.57E+02,-5309,-3646,5780,8,-460,-149,1,7,11
7.50E+02,-5267,-3676,5866,-542,-441,-330,1,7,11
7.48E+02,-5482,-3466,6204,-502,-427,-288,1,7,11
7.49E+02,-5435,-3522,6022,-885,-415,-276,1,7,11
7.46E+02,-5394,-3842,6088,-679,-396,-292,1,7,11
7.37E+02,-5086,-3904,6135,-653,-637,-323,1,7,11
7.24E+02,-5042,-3959,6401,-825,-603,-378,1,7,11
7.10E+02,-5041,-3750,6414,-476,-553,-184,1,7,11
6.99E+02,-5043,-3776,6406,-617,-248,-219,1,7,11
6.95E+02,-5065,-3795,6116,-530,-195,-235,1,7,11
6.97E+02,-5078,-3819,6081,-225,-150,-217,1,7,11
7.06E+02,-5080,-4099,6047,-207,-372,-184,1,7,11
7.12E+02,-5092,-4110,6034,-197,-340,-152,1,7,11
7.10E+02,-5379,-4123,6016,-203,-317,-379,1,7,11
6.95E+02,-5392,-4129,6245,-214,-316,-328,1,7,11
6.78E+02,-5398,-4140,6226,-248,-309,-268,1,7,11
6.69E+02,-5417,-4147,6210,-542,-294,47,1,7,11
6.69E+02,-5430,-4152,6204,-570,-286,117,1,7,11
6.70E+02,-5455,-4154,6191,-586,-278,-68,1,7,11
6.69E+02,-5468,-4144,6171,-600,-287,258,1,7,11
6.64E+02,-5500,-4126,6152,-626,-302,317,1,7,11
6.58E+02,-5254,-4114,6149,-640,-343,369,1,7,11
6.53E+02,-5494,-4104,6151,-385,-134,141,1,7,11
6.50E+02,-5502,-3830,5889,-609,-174,143,1,7,11
6.50E+02,-5495,-3816,5887,-546,-227,374,1,7,11
6.52E+02,-5497,-3813,6158,-243,-244,348,1,7,11
6.51E+02,-5495,-3815,6168,-166,-520,325,1,7,11
6.47E+02,-5250,-3809,6175,-332,-534,305,1,7,11
6.38E+02,-5257,-3782,6157,5,-560,309,1,7,11
6.26E+02,-5504,-3746,5868,48,-583,329,1,7,11
6.15E+02,-5496,-3714,5854,45,-592,357,1,7,11
6.10E+02,-5482,-3936,5863,4,-597,132,1,7,11
6.16E+02,-5462,-3915,5881,-331,-623,166,1,7,11
6.24E+02,-5424,-3905,6167,-160,-403,192,1,7,11
6.24E+02,-5386,-3905,6209,-234,-438,199,1,7,11
6.15E+02,-5080,-3914,6247,-543,-470,188,1,7,11
6.05E+02,-5020,-3939,6029,-580,-494,157,1,7,11
5.96E+02,-5224,-3957,6065,-594,-493,361,1,7,11
5.92E+02,-5176,-3733,6093,-606,-486,295,1,7,11
5.94E+02,-5135,-3766,6137,-611,-469,-42,1,7,11
6.01E+02,-5123,-3794,6442,-590,-438,122,1,7,11
6.11E+02,-4856,-3834,6485,-545,-429,41,1,7,11
6.24E+02,-4838,-4112,6507,-219,-423,-287,1,7,11
6.41E+02,-4841,-4125,6272,-150,-403,-349,1,7,11
6.60E+02,-4847,-4149,6304,-345,-632,-381,1,7,11
6.81E+02,-4833,-4168,6327,-276,-588,-381,1,7,11
7.01E+02,-4823,-4171,6336,62,-521,-361,1,7,11
7.17E+02,-4797,-4157,6329,-116,-177,-331,1,7,11
7.35E+02,-4784,-4137,6319,-75,-327,-304,1,7,11
7.60E+02,-4768,-4115,6309,-61,36,-284,1,7,11
7.99E+02,-4757,-3835,6523,-60,-109,-279,1,7,11
8.42E+02,-4762,-3796,6495,-93,258,-290,1,7,11
8.83E+02,-4771,-3792,6472,101,352,-306,1,7,11
9.10E+02,-4784,-3782,6448,8,210,-347,1,7,11
9.21E+02,-4811,-3771,6417,-312,537,-378,1,7,11
9.24E+02,-4822,-3781,6126,-129,575,-139,1,7,11
9.24E+02,-4837,-3777,6081,-201,611,-169,1,7,11
9.30E+02,-4857,-3774,6047,-547,628,-201,1,7,11
9.40E+02,-5141,-3778,6270,-387,639,-241,1,7,11
9.51E+02,-5184,-3786,6231,-486,634,-530,1,7,11
9.57E+02,-5202,-3835,6230,-845,603,-544,1,7,11
9.55E+02,-5198,-4143,6240,-671,572,-560,1,7,11
9.48E+02,-5188,-4198,6257,-725,548,-610,1,7,11
9.43E+02,-5176,-3990,6017,-731,543,-407,1,7,11
9.47E+02,-5167,-4040,6029,-644,557,-472,1,7,11
9.63E+02,-5148,-4093,6031,-798,591,-801,1,7,11
9.86E+02,-5128,-4403,6038,-405,390,-888,1,7,11
1.01E+03,-4863,-4430,6027,-236,474,-731,1,7,11
1.02E+03,-5128,-4451,6271,-316,832,-1087,1,7,11
1.02E+03,-5144,-4455,6254,118,682,-919,1,7,11
1.00E+03,-5155,-4448,6212,287,1035,-993,1,7,11
9.86E+02,-5156,-4425,6161,169,1130,-1314,1,7,11
9.73E+02,-5159,-4401,5860,521,971,-1380,1,7,11
9.71E+02,-5185,-4391,6004,602,1396,-1234,1,7,11
9.77E+02,-5207,-4392,5949,582,1210,-1265,1,7,11
9.89E+02,-5219,-4405,5906,518,1259,-1279,1,7,11
1.00E+03,-5001,-4431,5618,188,1569,-1547,1,7,11
1.02E+03,-5039,-4454,5599,131,1572,-1539,1,7,11
1.03E+03,-5085,-4477,5586,355,1567,-1262,1,7,11
1.04E+03,-5109,-4242,5572,327,1267,-1209,1,7,11
1.04E+03,-5110,-4291,5536,323,1220,-1394,1,7,11
1.04E+03,-5099,-4329,5747,306,1173,-1331,1,7,11
1.03E+03,-5112,-4610,5740,-1,1404,-1292,1,7,11
1.02E+03,-5119,-4645,5732,-42,1340,-1001,1,7,11
1.02E+03,-5396,-4666,5686,-78,1013,-966,1,7,11
1.02E+03,-5402,-4703,5667,104,900,-913,1,7,11
1.03E+03,-5403,-4489,5688,54,1060,-1100,1,7,11
1.04E+03,-5465,-4722,5313,-115,1041,-688,1,7,11
1.05E+03,-5102,-4559,5328,-192,784,-490,1,7,11
1.06E+03,-5095,-4878,5341,-254,480,-455,1,7,11
1.05E+03,-5059,-4928,5343,-529,433,-430,1,7,11
1.04E+03,-5061,-4977,5355,-525,414,-429,1,7,11
1.03E+03,-5074,-4756,5344,-211,398,-410,1,7,11
1.01E+03,-5055,-4791,5333,-146,627,-386,1,7,11
1.00E+03,-5037,-4824,5306,-311,618,-630,1,7,11
9.95E+02,-5026,-4844,5273,55,630,-387,1,7,11
9.95E+02,-5055,-4864,5501,-102,408,-419,1,7,11
1.00E+03,-5099,-5149,5478,-10,427,-460,1,7,11
1.02E+03,-5417,-5179,5446,335,432,-776,1,7,11
1.04E+03,-5466,-5206,5417,166,413,-837,1,7,11
1.06E+03,-5497,-5222,5393,247,635,-643,1,7,11
1.07E+03,-5486,-5224,5110,581,591,-702,1,7,11
1.07E+03,-5478,-5234,5084,622,568,-1032,1,7,11
1.06E+03,-5258,-5015,5041,626,546,-1119,1,7,11
1.04E+03,-5306,-5010,5019,242,190,-954,1,7,11
1.02E+03,-5501,-5116,5440,162,380,-971,1,7,11
9.98E+02,-5495,-5104,5468,604,369,-962,1,7,11
9.80E+02,-5443,-5029,5106,792,342,-1129,1,7,11
9.70E+02,-5067,-5200,5108,807,323,-710,1,7,11
9.74E+02,-5201,-5156,5446,836,200,-849,1,7,11
9.92E+02,-4851,-4802,5468,652,571,-820,1,7,11
1.02E+03,-4819,-4981,5478,682,409,-839,1,7,11
1.03E+03,-5127,-4948,5294,869,454,-890,1,7,11
1.04E+03,-5200,-4947,5369,821,420,-673,1,7,11
1.02E+03,-5231,-4945,5705,803,609,-700,1,7,11
9.94E+02,-5209,-4928,5524,812,518,-703,1,7,11
9.56E+02,-5141,-4898,5587,832,207,-699,1,7,11
9.20E+02,-4837,-4866,5906,843,184,-701,1,7,11
8.89E+02,-4794,-4589,5967,868,180,-684,1,7,11
8.64E+02,-4766,-4564,5785,664,196,-661,1,7,11
8.47E+02,-4991,-4546,5856,1025,217,-872,1,7,11
8.38E+02,-4919,-4506,5878,905,249,-819,1,7,11
8.37E+02,-4877,-4707,5884,1011,583,-788,1,7,11
8.42E+02,-4581,-4648,6145,1349,425,-501,1,7,11
8.53E+02,-4563,-4347,6151,1170,794,-477,1,7,11
8.68E+02,-4560,-4288,6152,1244,641,-468,1,7,11
8.87E+02,-4598,-4227,5878,1586,734,-478,1,7,11
9.09E+02,-4907,-4434,5858,1632,1049,-491,1,7,11
9.34E+02,-4981,-4393,5863,1643,1080,-511,1,7,11
9.61E+02,-4812,-4358,5877,1414,1096,-799,1,7,11
9.90E+02,-5161,-4052,5859,1443,1062,-809,1,7,11
1.02E+03,-5157,-4045,5876,1429,753,-798,1,7,11
1.05E+03,-5201,-4023,5886,1409,735,-802,1,7,11
1.08E+03,-5186,-4030,6169,1620,687,-793,1,7,11
1.10E+03,-5214,-4002,6200,1597,663,-821,1,7,11
1.12E+03,-5241,-4019,6022,1588,888,-844,1,7,11
1.14E+03,-5243,-4021,6046,1427,852,-840,1,7,11
1.15E+03,-4994,-4005,6267,1500,793,-833,1,7,11
1.16E+03,-5241,-4046,6046,1702,837,-788,1,7,11
1.17E+03,-5050,-4143,5847,2053,779,-464,1,7,11
1.17E+03,-5173,-4132,5844,1817,406,-622,1,7,11
1.18E+03,-5139,-4132,5871,1633,402,-387,1,7,11
1.18E+03,-5133,-4124,6163,1276,394,-418,1,7,11
1.18E+03,-5164,-4099,6180,1215,639,-457,1,7,11
1.17E+03,-5183,-3820,6181,1169,598,-462,1,7,11
1.16E+03,-5204,-3809,6207,1368,553,-454,1,7,11
1.15E+03,-5219,-3795,6243,1316,247,-441,1,7,11
1.13E+03,-5226,-3797,6024,990,187,-418,1,7,11
1.11E+03,-5229,-3792,6046,932,128,-385,1,7,11
1.09E+03,-5227,-3781,6071,1125,336,-571,1,7,11
1.08E+03,-5217,-3776,6101,1050,263,-528,1,7,11
1.07E+03,-5220,-3778,6123,648,-51,-235,1,7,11
1.06E+03,-5211,-3781,6418,811,-122,-198,1,7,11
1.06E+03,-5168,-3782,6442,466,66,-164,1,7,11
1.06E+03,-5123,-3778,6462,639,27,-152,1,7,11
1.06E+03,-4842,-3776,6493,577,9,-146,1,7,11
1.06E+03,-4791,-3775,6505,525,-268,-132,1,7,11
1.06E+03,-4764,-3786,6273,220,5,-140,1,7,11
1.05E+03,-4751,-3797,6304,202,27,-155,1,7,11
1.03E+03,-4749,-3808,6309,204,50,-180,1,7,11
1.01E+03,-4750,-3808,6296,204,71,-189,1,7,11
9.90E+02,-4755,-3796,6299,196,88,-200,1,7,11
9.78E+02,-4750,-3799,6290,175,85,-207,1,7,11
9.79E+02,-4737,-3796,6282,143,77,-225,1,7,11
9.91E+02,-4754,-3791,6526,356,68,-247,1,7,11
1.01E+03,-4769,-3786,6514,305,36,-249,1,7,11
1.03E+03,-4762,-3782,6504,-7,-260,-236,1,7,11
1.04E+03,-4988,-3769,6503,-72,-290,-204,1,7,11
1.04E+03,-4981,-3758,6517,109,-292,-178,1,7,11
1.04E+03,-4991,-3754,6287,23,-292,-143,1,7,11
1.04E+03,-4983,-3760,6334,-325,-313,-359,1,7,11
1.04E+03,-4976,-3783,6370,-381,-346,-312,1,7,11
1.04E+03,-4960,-3782,6394,-156,-371,-266,1,7,11
1.04E+03,-4954,-3786,6673,-191,-371,23,1,7,11
1.04E+03,-4933,-3798,6697,-205,-366,66,1,7,11
1.03E+03,-4907,-3788,6708,-214,-337,100,1,7,11
1.03E+03,-4917,-3805,6723,-229,-296,122,1,7,11
1.03E+03,-4902,-3815,6715,-221,-272,-104,1,7,11
1.03E+03,-4897,-3815,6714,-219,29,-87,1,7,11
1.03E+03,-4916,-3810,6700,-210,80,-66,1,7,11
1.03E+03,-4947,-3795,6673,-199,125,-37,1,7,11
1.04E+03,-4965,-3784,6668,-200,-117,259,1,7,11
1.04E+03,-4963,-3771,6679,-206,-124,298,1,7,11
1.04E+03,-4950,-3764,6697,-197,100,321,1,7,11
1.05E+03,-4915,-3769,6717,-186,66,336,1,7,11
1.05E+03,-4608,-3783,6748,-168,20,318,1,7,11
1.04E+03,-4571,-3796,6773,-129,-300,271,1,7,11
1.04E+03,-4555,-3801,6541,-342,-333,-47,1,7,11
1.02E+03,-4571,-3805,6542,-280,-339,-110,1,7,11
1.00E+03,-4868,-3795,6779,-265,-326,127,1,7,11
9.82E+02,-4890,-3785,6772,-299,-307,-105,1,7,11
9.61E+02,-4940,-3758,6747,-321,2,-51,1,7,11
9.44E+02,-4929,-3745,6744,-133,32,304,1,7,11
9.34E+02,-4924,-3739,6758,-217,93,132,1,7,11
9.35E+02,-4910,-3742,6759,-538,-106,207,1,7,11
9.49E+02,-4911,-3751,6763,-578,-32,249,1,7,11
9.77E+02,-4929,-3765,6756,-585,287,531,1,7,11
1.01E+03,-4947,-3764,6762,-582,341,546,1,7,11
1.05E+03,-4989,-3748,6729,-551,136,561,1,7,11
1.08E+03,-4759,-3720,6649,-553,182,600,1,7,11
1.10E+03,-4797,-3946,6371,-606,249,398,1,7,11
1.10E+03,-4839,-3927,6332,-444,555,464,1,7,11
1.10E+03,-5133,-3927,6310,-822,579,793,1,7,11
1.09E+03,-5172,-3934,6278,-682,587,855,1,7,11
1.07E+03,-5198,-3947,6505,-1046,589,656,1,7,11
1.06E+03,-5223,-3946,6463,-1132,597,704,1,7,11
1.04E+03,-5246,-3948,6422,-967,605,753,1,7,11
1.03E+03,-5019,-3957,6134,-1315,615,1054,1,7,11
1.01E+03,-5060,-3967,6126,-1389,619,1091,1,7,11
1.01E+03,-5096,-3715,6115,-1166,605,1131,1,7,11
9.99E+02,-5381,-3730,6112,-1167,559,929,1,7,11
9.96E+02,-5386,-3737,6092,-1388,249,982,1,7,11
9.97E+02,-5387,-3749,6076,-1344,199,1020,1,7,11
1.00E+03,-5115,-3754,6038,-1319,142,1295,1,7,11
1.01E+03,-5111,-3753,6026,-1345,356,1287,1,7,11
1.02E+03,-5119,-3766,6017,-1357,340,1008,1,7,11
1.02E+03,-5380,-3758,6255,-1347,335,983,1,7,11
1.03E+03,-5381,-3745,6229,-1328,347,965,1,7,11
1.03E+03,-5389,-3732,6216,-1320,129,940,1,7,11
1.03E+03,-5415,-3726,6219,-1301,165,917,1,7,11
1.03E+03,-5432,-3720,6196,-1015,203,898,1,7,11
1.03E+03,-5454,-3714,6177,-1005,235,1137,1,7,11
1.02E+03,-5479,-3962,5877,-1000,523,1121,1,7,11
1.01E+03,-5499,-3958,5849,-1005,561,1105,1,7,11
1.01E+03,-5277,-3959,5809,-1016,606,1096,1,7,11
1.00E+03,-5351,-3949,5771,-1015,406,1092,1,7,11
9.94E+02,-5662,-3935,5990,-1283,459,1103,1,7,11
9.90E+02,-5724,-3920,5949,-1298,497,1148,1,7,11
9.87E+02,-5509,-3903,5907,-1348,508,938,1,7,11
9.87E+02,-5561,-3881,5593,-1384,497,981,1,7,11
9.89E+02,-5584,-3869,5552,-1167,467,1299,1,7,11
9.93E+02,-5611,-3864,5535,-1213,429,1328,1,7,11
9.99E+02,-5889,-3857,5528,-1253,611,1349,1,7,11
1.00E+03,-5906,-3848,5756,-1280,568,1357,1,7,11
1.01E+03,-5932,-3844,5748,-1543,545,1361,1,7,11
1.02E+03,-5950,-3584,5734,-1272,533,1366,1,7,11
1.02E+03,-5975,-3575,5697,-1238,541,1369,1,7,11
1.02E+03,-5999,-3563,5665,-1197,553,1384,1,7,11
1.02E+03,-5777,-3545,5373,-1154,576,1402,1,7,11
1.01E+03,-5829,-3531,5330,-1383,601,1169,1,7,11
1.00E+03,-5863,-3516,5302,-1370,601,1207,1,7,11
9.85E+02,-5885,-3494,5256,-1360,596,1244,1,7,11
9.69E+02,-6171,-3469,5470,-1370,599,1271,1,7,11
9.56E+02,-6191,-3701,5427,-1401,590,1555,1,7,11
9.53E+02,-6210,-3673,5388,-1181,574,1578,1,7,11
9.59E+02,-6223,-3640,5086,-1224,561,1599,1,7,11
9.72E+02,-6228,-3619,5031,-1543,557,1611,1,7,11
9.87E+02,-6246,-3607,4995,-1615,565,1605,1,7,11
1.00E+03,-6018,-3602,5230,-1425,568,1585,1,7,11
1.01E+03,-6050,-3602,5204,-1491,563,1560,1,7,11
1.02E+03,-6090,-3616,5183,-1805,550,1276,1,7,11
1.02E+03,-6125,-3633,5160,-1828,532,1255,1,7,11
1.02E+03,-6432,-3644,5122,-1841,529,1238,1,7,11
1.01E+03,-6481,-3648,4835,-1846,527,1238,1,7,11
9.99E+02,-6279,-3648,4807,-1836,523,1251,1,7,11
9.82E+02,-6334,-3647,4754,-1810,517,1277,1,7,11
9.59E+02,-6389,-3636,4744,-1506,514,1566,1,7,11
9.33E+02,-6706,-3611,4976,-1435,521,1609,1,7,11
9.10E+02,-6749,-3585,4956,-1602,530,1410,1,7,11
8.99E+02,-6776,-3302,4890,-1240,548,1462,1,7,11
9.05E+02,-6532,-3262,4599,-1406,557,1508,1,7,11
9.23E+02,-6541,-3225,4546,-1315,576,1532,1,7,11
9.49E+02,-6550,-3437,4497,-970,598,1794,1,7,11
9.74E+02,-6592,-3380,4723,-898,626,1511,1,7,11
9.92E+02,-6624,-3337,4697,-1088,625,1489,1,7,11
1.00E+03,-6655,-3035,4673,-1043,592,1452,1,7,11
1.00E+03,-6928,-2982,4643,-748,539,1659,1,7,11
9.96E+02,-6941,-3185,4611,-718,224,1596,1,7,11
9.78E+02,-6947,-3137,4341,-693,164,1267,1,7,11
9.52E+02,-6955,-3098,4330,-661,369,1185,1,7,11
9.25E+02,-6953,-2816,4317,-885,312,1362,1,7,11
9.01E+02,-6956,-2789,4307,-872,268,1018,1,7,11
8.83E+02,-6963,-2771,4307,-872,-35,936,1,7,11
8.73E+02,-6962,-2752,4303,-877,-73,1112,1,7,11
8.72E+02,-6960,-2753,4303,-891,-111,1034,1,7,11
8.81E+02,-6936,-2748,4319,-644,103,704,1,7,11
8.97E+02,-6922,-2742,4322,-657,72,879,1,7,11
9.12E+02,-6926,-2741,4347,-671,38,801,1,7,11
9.22E+02,-6915,-2724,4336,-665,12,478,1,7,11
9.22E+02,-6920,-2722,4338,-675,-259,419,1,7,11
9.16E+02,-6637,-2724,4341,-689,-286,635,1,7,11
9.10E+02,-6612,-2732,4339,-702,-292,578,1,7,11
9.06E+02,-6604,-2741,4344,-707,-286,515,1,7,11
9.06E+02,-6593,-2759,4346,-699,-284,200,1,7,11
9.06E+02,-6589,-2779,4617,-687,-277,142,1,7,11
9.04E+02,-6584,-2806,4630,-658,-276,347,1,7,11
8.98E+02,-6578,-3084,4628,-865,-266,292,1,7,11
8.91E+02,-6589,-3097,4627,-803,8,-25,1,7,11
8.91E+02,-6614,-3101,4347,-491,22,-80,1,7,11
9.04E+02,-6626,-3117,4339,-449,31,-128,1,7,11
9.29E+02,-6920,-3118,4338,-416,41,76,1,7,11
9.59E+02,-6986,-3123,4339,-390,30,34,1,7,11
9.86E+02,-7023,-3115,4333,-619,-259,-5,1,7,11
1.00E+03,-6788,-3126,4340,-613,-323,-265,1,7,11
1.00E+03,-6785,-3127,4331,-617,-350,-267,1,7,11
9.97E+02,-6813,-3127,4333,-405,-352,-278,1,7,11
9.85E+02,-6828,-3141,4346,-456,-370,-270,1,7,11
9.75E+02,-6844,-3158,4611,-504,-379,8,1,7,11
9.68E+02,-6858,-3164,4614,-805,-380,51,1,7,11
9.63E+02,-6859,-3174,4624,-852,-376,109,1,7,11
9.59E+02,-6863,-3177,4612,-891,-363,-82,1,7,11
9.56E+02,-6863,-3167,4333,-680,-338,-12,1,7,11
9.52E+02,-6857,-3162,4312,-732,-305,320,1,7,11
9.50E+02,-6850,-3147,4296,-1033,-267,137,1,7,11
9.51E+02,-6854,-3135,4278,-1076,37,202,1,7,11
9.56E+02,-6858,-3126,4258,-1116,86,524,1,7,11
9.63E+02,-6853,-3122,4241,-901,124,592,1,7,11
9.70E+02,-6829,-3122,4227,-929,-104,387,1,7,11
9.72E+02,-6826,-3127,4472,-957,-74,402,1,7,11
9.68E+02,-6833,-3119,4461,-969,-58,397,1,7,11
9.58E+02,-6863,-3116,4470,-995,-53,389,1,7,11
9.45E+02,-6883,-3115,4460,-1007,-62,386,1,7,11
9.29E+02,-6891,-3119,4451,-1007,-65,399,1,7,11
9.13E+02,-6893,-3116,4439,-1015,-47,424,1,7,11
9.00E+02,-6884,-3120,4428,-1289,-24,456,1,7,11
8.92E+02,-6875,-3111,4408,-1301,261,478,1,7,11
8.93E+02,-6881,-3093,4382,-1316,301,495,1,7,11
9.02E+02,-6879,-3082,4364,-1331,329,779,1,7,11
9.14E+02,-6859,-2815,4091,-1354,353,801,1,7,11
9.26E+02,-6846,-2802,4071,-1336,359,800,1,7,11
9.35E+02,-6835,-2791,4055,-1321,362,794,1,7,11
9.42E+02,-6826,-2792,4045,-1295,364,778,1,7,11
9.50E+02,-6822,-2789,4016,-997,364,503,1,7,11
9.62E+02,-6832,-2778,3982,-940,371,479,1,7,11
9.78E+02,-6869,-2752,4183,-1129,149,460,1,7,11
9.93E+02,-6899,-2752,4166,-1113,179,473,1,7,11
1.00E+03,-7193,-2761,4171,-1088,204,486,1,7,11
9.96E+02,-7221,-2776,4183,-1057,198,499,1,7,11
9.74E+02,-7233,-2779,4199,-763,182,501,1,7,11
9.45E+02,-7247,-2778,3975,-713,143,483,1,7,11
9.19E+02,-7272,-2761,3997,-887,356,449,1,7,11
9.08E+02,-7284,-2730,3972,-802,302,423,1,7,11
9.12E+02,-7274,-2716,4223,-496,264,405,1,7,11
9.23E+02,-7282,-2698,3981,-454,256,636,1,7,11
9.35E+02,-7282,-2933,3998,-418,-16,619,1,7,11
9.37E+02,-7287,-2906,4006,-627,-18,596,1,7,11
9.31E+02,-7280,-2871,3980,-579,-7,567,1,7,11
9.18E+02,-7275,-2821,4186,-544,284,526,1,7,11
9.02E+02,-7280,-2538,4146,-555,330,237,1,7,11
8.85E+02,-7293,-2532,4123,-585,129,201,1,7,11
8.69E+02,-7065,-2529,4112,-602,178,181,1,7,11
8.54E+02,-7087,-2527,4096,-618,216,171,1,7,11
8.39E+02,-7107,-2528,3816,-620,236,171,1,7,11
8.26E+02,-7122,-2514,3778,-621,240,178,1,7,11
8.17E+02,-7135,-2493,3716,-385,238,178,1,7,11
8.11E+02,-7140,-2480,3945,-417,227,177,1,7,11
8.10E+02,-7147,-2468,3942,-463,212,174,1,7,11
8.13E+02,-7162,-2468,3951,-777,190,170,1,7,11
8.18E+02,-7167,-2475,3715,-808,154,172,1,7,11
8.25E+02,-7149,-2494,3733,-825,374,172,1,7,11
8.32E+02,-7128,-2499,3733,-801,349,145,1,7,11
8.39E+02,-7140,-2487,3730,-497,361,373,1,7,11
8.44E+02,-7153,-2465,3958,-453,138,362,1,7,11
8.48E+02,-7168,-2455,3946,-432,162,364,1,7,11
8.53E+02,-7431,-2453,3948,-439,177,377,1,7,11
8.59E+02,-7449,-2443,3936,-426,196,377,1,7,11
8.69E+02,-7471,-2688,3923,-402,208,377,1,7,11
8.80E+02,-7468,-2680,3900,-633,213,134,1,7,11
8.93E+02,-7486,-2677,3895,-623,232,145,1,7,11
9.07E+02,-7511,-2682,3873,-610,231,164,1,7,11
9.20E+02,-7474,-2688,3889,-635,201,188,1,7,11
9.29E+02,-7477,-2679,3868,-601,198,173,1,7,11
9.31E+02,-7473,-2662,3565,-580,181,152,1,7,11
9.25E+02,-7474,-2655,3531,-583,172,383,1,7,11
9.13E+02,-7488,-2640,3511,-587,161,358,1,7,11
9.02E+02,-7500,-2618,3493,-596,147,333,1,7,11
8.95E+02,-7517,-2617,3490,-613,382,313,1,7,11
8.94E+02,-7523,-2607,3490,-619,358,298,1,7,11
8.97E+02,-7543,-2605,3484,-624,334,287,1,7,11
9.03E+02,-7546,-2594,3490,-618,314,291,1,7,11
9.09E+02,-7316,-2590,3489,-590,309,303,1,7,11
9.16E+02,-7543,-2586,3467,-556,295,332,1,7,11
9.22E+02,-7537,-2574,3701,-532,326,333,1,7,11
9.28E+02,-7546,-2573,3695,-533,348,319,1,7,11
9.31E+02,-7551,-2576,3462,-526,354,303,1,7,11
9.30E+02,-7301,-2578,3475,-249,349,280,1,7,11
9.23E+02,-7306,-2577,3473,-215,342,258,1,7,11
9.10E+02,-7310,-2298,3705,-166,344,-18,1,7,11
8.90E+02,-7322,-2298,3689,-145,368,-34,1,7,11
8.71E+02,-7324,-2290,3683,-142,375,-36,1,7,11
8.57E+02,-7310,-2287,3671,-153,377,-50,1,7,11
8.53E+02,-7314,-2287,3664,-164,377,-74,1,7,11
8.55E+02,-7314,-2283,3650,-154,360,-96,1,7,11
8.58E+02,-7319,-2280,3629,-136,365,-124,1,7,11
8.59E+02,-7323,-2280,3629,-136,364,110,1,7,11
8.56E+02,-7325,-2285,3621,-380,364,85,1,7,11
8.52E+02,-7328,-2284,3613,-366,359,70,1,7,11
8.49E+02,-7339,-2291,3609,-357,358,59,1,7,11
8.47E+02,-7342,-2296,3606,-338,354,53,1,7,11
8.42E+02,-7358,-2302,3603,-333,347,59,1,7,11
8.31E+02,-7351,-2562,3602,-318,328,84,1,7,11
8.11E+02,-7352,-2295,3326,-302,321,98,1,7,11
7.91E+02,-7347,-2290,3316,-297,296,107,1,7,11
7.79E+02,-7347,-2275,3304,-290,276,100,1,7,11
7.85E+02,-7350,-2261,3296,-290,256,94,1,7,11
8.01E+02,-7348,-2258,3282,-306,-15,92,1,7,11
8.15E+02,-7342,-2260,3286,-330,-30,91,1,7,11
8.12E+02,-7349,-2267,3306,-349,-30,88,1,7,11
7.93E+02,-7355,-2294,3327,-357,-38,93,1,7,11
7.73E+02,-7342,-2301,3597,-335,-54,99,1,7,11
7.65E+02,-7328,-2302,3598,-307,-71,97,1,7,11
7.71E+02,-7327,-2297,3600,-283,-88,86,1,7,11
7.85E+02,-7330,-2277,3316,-259,-99,77,1,7,11
7.97E+02,-7334,-2269,3309,-261,-95,75,1,7,11
8.02E+02,-7338,-2276,3319,-275,-82,79,1,7,11
8.04E+02,-7341,-2287,3589,-289,-82,84,1,7,11
8.04E+02,-7338,-2297,3617,-289,-91,83,1,7,11
8.05E+02,-7319,-2301,3609,-284,-94,87,1,7,11
8.06E+02,-7319,-2563,3611,-293,-75,87,1,7,11
8.07E+02,-7330,-2300,3625,-286,-49,92,1,7,11
8.07E+02,-7348,-2565,3612,0,-29,107,1,7,11
8.06E+02,-7339,-2564,3597,43,-6,125,1,7,11
8.05E+02,-7347,-2294,3590,64,287,123,1,7,11
8.04E+02,-7360,-2292,3584,82,295,122,1,7,11
8.03E+02,-7366,-2278,3313,96,291,118,1,7,11
7.97E+02,-7376,-2260,3290,99,286,109,1,7,11
7.86E+02,-7382,-2252,3274,88,282,104,1,7,11
7.69E+02,-7396,-2250,3270,67,289,105,1,7,11
7.53E+02,-7396,-2256,3283,50,294,118,1,7,11
7.41E+02,-7402,-2265,3288,47,304,-125,1,7,11
7.36E+02,-7401,-2268,3283,61,315,-113,1,7,11
7.34E+02,-7401,-2262,3285,77,325,-112,1,7,11
7.33E+02,-7406,-2249,3267,92,326,-115,1,7,11
7.30E+02,-7410,-2230,3253,86,321,-123,1,7,11
7.26E+02,-7412,-2214,3238,74,318,-128,1,7,11
7.17E+02,-7431,-2210,3241,52,321,123,1,7,11
7.06E+02,-7417,-2213,3234,29,314,-123,1,7,11
6.90E+02,-7414,-2221,3237,15,308,-121,1,7,11
6.72E+02,-7413,-2219,3244,3,313,-125,1,7,11
6.60E+02,-7420,-2217,3253,-257,311,125,1,7,11
6.61E+02,-7405,-2209,3254,3,292,123,1,7,11
6.78E+02,-7407,-2194,3232,6,278,114,1,7,11
6.94E+02,-7402,-2189,3223,-263,261,105,1,7,11
6.92E+02,-7399,-2184,3220,-281,-11,100,1,7,11
6.72E+02,-7411,-2179,3226,-292,-12,96,1,7,11
6.49E+02,-7398,-2187,3227,-301,-26,99,1,7,11
6.39E+02,-7371,-2189,3228,-313,-50,85,1,7,11
6.44E+02,-7376,-2193,3218,-326,-53,52,1,7,11
6.63E+02,-7379,-2199,3220,-349,-61,37,1,7,11
6.92E+02,-7386,-2205,3207,-368,-68,45,1,7,11
7.18E+02,-7382,-2217,3200,-155,-64,73,1,7,11
7.30E+02,-7383,-2239,3208,-224,-53,104,1,7,11
7.26E+02,-7395,-2250,3203,-556,-65,-122,1,7,11
7.16E+02,-7411,-2251,3451,-417,-90,-96,1,7,11
7.09E+02,-7404,-2261,3219,-862,-122,-36,1,7,11
7.10E+02,-7392,-2274,3247,-675,-107,-16,1,7,11
7.15E+02,-7390,-2275,3252,-680,-90,-15,1,7,11
7.19E+02,-7387,-2271,3252,-888,-57,-43,1,7,11
7.23E+02,-7408,-2265,3243,-833,-31,-76,1,7,11
7.29E+02,-7416,-2255,3228,-773,-13,-104,1,7,11
7.38E+02,-7417,-2254,3443,-446,-5,124,1,7,11
7.49E+02,-7684,-2239,3410,-631,282,82,1,7,11
7.62E+02,-7706,-2226,3386,-557,301,45,1,7,11
7.72E+02,-7719,-2212,3353,-218,303,16,1,7,11
7.80E+02,-7724,-2206,3070,-138,298,-258,1,7,11
7.84E+02,-7719,-2205,3044,-317,287,-276,1,7,11
7.83E+02,-7736,-2206,3036,3,276,-302,1,7,11
7.77E+02,-7738,-2208,3039,69,-20,-313,1,7,11
7.71E+02,-7719,-2220,3054,-119,-55,-324,1,7,11
7.68E+02,-7726,-2231,3065,-40,-88,-350,1,7,11
7.68E+02,-7713,-2242,3334,287,118,-375,1,7,11
7.72E+02,-7700,-2243,3353,344,72,-147,1,7,11
7.79E+02,-7710,-2234,3351,140,53,-186,1,7,11
7.87E+02,-7699,-2231,3366,152,14,-203,1,7,11
7.97E+02,-7692,-2220,3363,167,-259,-218,1,7,11
8.08E+02,-7418,-2215,3377,151,-277,-229,1,7,11
8.19E+02,-7416,-2226,3378,164,-270,-250,1,7,11
8.28E+02,-7417,-2222,3375,128,-311,-523,1,7,11
8.34E+02,-7682,-2236,3392,322,-345,-516,1,7,11
8.35E+02,-7415,-2267,3429,-9,-137,-238,1,7,11
8.32E+02,-7401,-2292,3203,-51,-182,-220,1,7,11
8.27E+02,-7387,-2304,3222,-80,-221,-207,1,7,11
8.22E+02,-7371,-2566,3238,-101,-239,-193,1,7,11
8.20E+02,-7367,-2571,3273,115,-252,-172,1,7,11
8.23E+02,-7369,-2582,3294,85,-521,-142,1,7,11
8.37E+02,-7352,-2578,3318,57,-554,-355,1,7,11
8.61E+02,-7316,-2583,3637,29,-555,-326,1,7,11
8.91E+02,-7304,-2594,3678,66,-252,-332,1,7,11
9.20E+02,-7548,-2581,3694,-124,-191,-335,1,7,11
9.43E+02,-7314,-2575,3706,-55,-354,-334,1,7,11
9.56E+02,-7301,-2573,3458,-12,-289,-297,1,7,11
9.60E+02,-7526,-2567,3458,265,27,-277,1,7,11
9.59E+02,-7498,-2295,3699,273,99,-276,1,7,11
9.52E+02,-7503,-2287,3688,259,-53,-281,1,7,11
9.43E+02,-7508,-2269,3683,-17,295,-287,1,7,11
9.32E+02,-7507,-2269,3681,-44,374,-291,1,7,11
9.21E+02,-7520,-2282,3686,-73,169,-313,1,7,11
9.10E+02,-7526,-2299,3688,-69,181,-348,1,7,11
9.02E+02,-7534,-2567,3670,-47,161,-140,1,7,11
8.98E+02,-7300,-2304,3650,-21,375,-197,1,7,11
9.00E+02,-7315,-2564,3641,-11,308,-249,1,7,11
9.10E+02,-7343,-2302,3628,261,-23,-534,1,7,11
9.25E+02,-7366,-2303,3590,269,-106,-531,1,7,11
9.41E+02,-7340,-2564,3308,-16,60,-250,1,7,11
9.55E+02,-7356,-2301,3316,-86,7,-251,1,7,11
9.66E+02,-7360,-2302,3606,101,-320,-243,1,7,11
9.72E+02,-7340,-2566,3629,53,-150,-220,1,7,11
9.74E+02,-7318,-2583,3670,36,-173,-205,1,7,11
9.73E+02,-7330,-2594,3676,20,-182,-188,1,7,11
9.70E+02,-7303,-2618,3669,-293,-209,-131,1,7,11
9.64E+02,-7538,-2625,3677,-182,-218,-333,1,7,11
9.56E+02,-7512,-2650,3709,-604,-205,-306,1,7,11
9.46E+02,-7511,-2645,3697,-499,-190,-306,1,7,11
9.35E+02,-7494,-2665,3498,-661,-182,-314,1,7,11
9.22E+02,-7472,-2676,3497,-893,-372,-345,1,7,11
9.09E+02,-7503,-2435,3515,-812,-278,-144,1,7,11
8.95E+02,-7500,-2487,3562,-445,46,-186,1,7,11
8.80E+02,-7455,-2511,3574,-214,106,-221,1,7,11
8.66E+02,-7466,-2549,3857,103,-24,-564,1,7,11
8.53E+02,-7430,-2853,3879,147,323,-386,1,7,11
8.42E+02,-7442,-2893,3872,472,149,-439,1,7,11
8.32E+02,-7451,-2896,3561,760,145,-448,1,7,11
8.24E+02,-7426,-2858,3456,974,368,-450,1,7,11
8.18E+02,-7163,-2850,3617,942,328,-451,1,7,11
8.12E+02,-7163,-2547,3304,746,275,-455,1,7,11
8.08E+02,-7466,-2536,3310,487,-25,-441,1,7,11
8.05E+02,-7478,-2825,3592,237,108,-626,1,7,11
8.02E+02,-7164,-2854,3611,312,-278,-555,1,7,11
7.99E+02,-7127,-2875,3608,-70,-351,-532,1,7,11
7.98E+02,-7115,-2900,3650,83,-382,-532,1,7,11
8.00E+02,-7429,-2927,3699,49,-376,-550,1,7,11
8.08E+02,-7461,-2700,3492,79,-163,-523,1,7,11
8.20E+02,-7483,-2714,3494,124,-224,-232,1,7,11
8.30E+02,-7522,-2715,3477,68,-580,-206,1,7,11
8.33E+02,-7297,-2731,3492,-362,-454,-178,1,7,11
8.28E+02,-7548,-2771,3541,-589,-862,-149,1,7,11
8.18E+02,-7518,-2805,3844,-784,-743,-378,1,7,11
8.09E+02,-7427,-3084,3954,-648,-1063,-375,1,7,11
8.06E+02,-7101,-3124,3817,-839,-729,-164,1,7,11
8.09E+02,-7433,-2815,3742,-394,-843,-175,1,7,11
8.21E+02,-7156,-2779,3955,-433,-790,-305,1,7,11
8.42E+02,-7098,-2779,3952,-833,-444,120,1,7,11
8.70E+02,-7045,-2771,3959,-757,-619,277,1,7,11
9.00E+02,-7224,-2773,3723,-932,-559,152,1,7,11
9.27E+02,-6891,-2766,3772,-1297,-194,221,1,7,11
9.47E+02,-6868,-2750,3739,-1024,-302,221,1,7,11
9.59E+02,-6859,-2731,3958,-1281,69,204,1,7,11
9.59E+02,-6871,-2742,3928,-995,-79,162,1,7,11
9.47E+02,-6892,-2765,3910,-923,-4,339,1,7,11
9.22E+02,-7172,-2784,3864,-1054,283,-35,1,7,11
8.88E+02,-7188,-2812,3842,-663,309,44,1,7,11
8.51E+02,-7243,-3108,3528,-782,284,-157,1,7,11
8.15E+02,-7273,-3123,3698,-399,-47,-615,1,7,11
7.88E+02,-7099,-3182,3651,-599,117,-799,1,7,11
7.78E+02,-7109,-3016,3656,-399,-360,-659,1,7,11
7.93E+02,-7094,-3054,3645,-468,-632,-900,1,7,11
8.22E+02,-7263,-3358,3904,-471,-774,-1325,1,7,11
8.44E+02,-7550,-2978,3215,-344,-1128,-1388,1,7,11
8.40E+02,-7450,-3218,3705,-623,-1633,-1401,1,7,11
8.06E+02,-7450,-3290,3534,-630,-1725,-1245,1,7,11
7.65E+02,-7547,-3605,3888,-400,-2019,-1592,1,7,11
7.38E+02,-7476,-3667,3744,-429,-2572,-1234,1,7,11
7.33E+02,-7110,-3667,3816,-494,-2444,-1368,1,7,11
7.35E+02,-7252,-3458,4216,-655,-2494,-991,1,7,11
7.30E+02,-6850,-3501,4364,-756,-2485,-1125,1,7,11
7.15E+02,-6964,-3534,4455,-1027,-2683,-753,1,7,11
7.00E+02,-6764,-3549,4262,-757,-2570,-890,1,7,11
6.99E+02,-6368,-3550,4324,-734,-2356,-822,1,7,11
7.12E+02,-6506,-3560,4651,-700,-2131,-502,1,7,11
7.34E+02,-6424,-3551,4697,-656,-1894,-451,1,7,11
7.60E+02,-6407,-3584,4521,-650,-1650,-402,1,7,11
7.85E+02,-6408,-3899,4606,-869,-1200,-616,1,7,11
8.03E+02,-6414,-3943,4937,-789,-1309,-589,1,7,11
8.10E+02,-6443,-3717,4740,-448,-926,-580,1,7,11
8.06E+02,-6477,-3752,4783,-619,-1086,-580,1,7,11
7.96E+02,-6498,-3759,4809,-527,-743,-576,1,7,11
7.84E+02,-6497,-3764,4833,-198,-661,-577,1,7,11
7.75E+02,-6492,-3758,5122,-376,-839,-578,1,7,11
7.74E+02,-6482,-3724,4843,-283,-510,-559,1,7,11
7.82E+02,-6406,-3738,5149,16,-462,-237,1,7,11
8.00E+02,-6095,-3955,4840,125,-613,-193,1,7,11
8.23E+02,-6019,-3920,4769,-63,-592,-372,1,7,11
8.43E+02,-6030,-3863,4929,-73,-538,-317,1,7,11
8.55E+02,-6051,-3569,4605,70,-521,-262,1,7,11
8.58E+02,-6241,-3563,4885,-175,-589,-71,1,7,11
8.55E+02,-5826,-3513,4932,-444,-399,142,1,7,11
8.47E+02,-5781,-3709,4985,-880,-585,310,1,7,11
8.37E+02,-5823,-3679,4803,-883,-293,-47,1,7,11
8.23E+02,-6148,-3641,4808,-483,101,-97,1,7,11
8.05E+02,-6182,-3595,4811,74,108,-110,1,7,11
7.82E+02,-6168,-3295,4822,311,51,117,1,7,11
7.57E+02,-6158,-3276,5131,212,-282,45,1,7,11
7.33E+02,-6154,-3242,5190,613,-360,-304,1,7,11
7.13E+02,-6145,-3206,5000,477,-185,-384,1,7,11
6.96E+02,-6158,-3436,5091,831,-254,-195,1,7,11
6.85E+02,-6180,-3417,5455,667,-588,-222,1,7,11
6.81E+02,-6177,-3400,5296,759,-425,-212,1,7,11
6.82E+02,-6167,-3373,5646,1059,-480,-207,1,7,11
6.89E+02,-6199,-3353,5510,1047,-498,-205,1,7,11
7.02E+02,-6195,-3069,5608,759,-769,-167,1,7,11
7.20E+02,-6231,-3051,5977,658,-473,-369,1,7,11
7.43E+02,-6177,-3031,5825,855,-395,-274,1,7,11
7.69E+02,-6186,-3018,6144,797,-208,40,1,7,11
7.95E+02,-6238,-3005,6201,815,-123,91,1,7,11
8.19E+02,-6264,-2980,6236,872,337,112,1,7,11
8.41E+02,-6023,-3187,6223,705,235,107,1,7,11
8.60E+02,-6033,-3109,6193,1038,595,93,1,7,11
8.78E+02,-6262,-2797,6165,1078,639,91,1,7,11
8.95E+02,-6211,-2741,5871,1116,408,58,1,7,11
9.13E+02,-6160,-2938,5812,1123,436,-259,1,7,11
9.32E+02,-5851,-2884,5994,1083,467,-345,1,7,11
9.53E+02,-5799,-2862,5934,697,500,-191,1,7,11
9.73E+02,-5771,-2883,5616,802,788,-561,1,7,11
9.87E+02,-5764,-2921,5559,625,796,-439,1,7,11
9.88E+02,-5825,-2697,5752,183,827,-846,1,7,11
9.70E+02,-6201,-2723,5697,-9,867,-699,1,7,11
9.36E+02,-6033,-2776,5672,70,892,-714,1,7,11
8.99E+02,-6077,-3114,5670,-300,660,-679,1,7,11
8.78E+02,-6103,-3184,5654,-302,712,-887,1,7,11
8.84E+02,-6088,-3013,5362,5,1046,-836,1,7,11
9.12E+02,-6089,-3339,5291,83,911,-815,1,7,11
9.49E+02,-6100,-3385,5441,90,1299,-806,1,7,11
9.80E+02,-6059,-3202,5103,50,1195,-795,1,7,11
9.94E+02,-6018,-3290,5018,58,1418,-842,1,7,11
9.94E+02,-6264,-3624,5174,-127,1891,-685,1,7,11
9.87E+02,-6032,-3695,5161,-39,1789,-1094,1,7,11
9.79E+02,-6050,-3501,4848,148,2146,-997,1,7,11
9.75E+02,-6081,-3521,4747,589,1947,-1162,1,7,11
9.75E+02,-6089,-3536,4911,470,1999,-1578,1,7,11
9.75E+02,-6439,-3550,4542,823,2334,-1480,1,7,11
9.73E+02,-6315,-3847,4679,855,2384,-1826,1,7,11
9.65E+02,-6686,-3905,4340,851,2375,-1827,1,7,11
9.54E+02,-6633,-3939,4245,825,2359,-1513,1,7,11
9.40E+02,-6964,-3713,4476,456,2308,-1649,1,7,11
9.27E+02,-6790,-3759,4360,592,2172,-1205,1,7,11
9.13E+02,-6816,-3801,4010,198,1744,-983,1,7,11
9.01E+02,-6796,-3827,4201,283,1833,-762,1,7,11
8.89E+02,-7010,-3836,4132,-120,1447,-828,1,7,11
8.79E+02,-7003,-3809,3801,32,1604,-417,1,7,11
8.70E+02,-6970,-3789,3784,-349,1240,-239,1,7,11
8.64E+02,-6917,-3782,3763,-218,1270,-177,1,7,11
8.60E+02,-6604,-3769,3767,-558,1096,-170,1,7,11
8.59E+02,-6778,-3779,3756,-625,650,-197,1,7,11
8.62E+02,-6700,-3793,3755,-635,482,-514,1,7,11
8.69E+02,-6667,-3823,3786,-628,596,-582,1,7,11
8.81E+02,-6382,-4117,3831,-566,201,-639,1,7,11
8.98E+02,-6368,-4150,4131,-227,342,-428,1,7,11
9.18E+02,-6377,-4175,4186,-134,-8,-441,1,7,11
9.37E+02,-6393,-4192,3982,-291,-82,-421,1,7,11
9.52E+02,-6667,-4212,4041,61,99,-625,1,7,11
9.58E+02,-6659,-4215,4094,-98,30,-551,1,7,11
9.55E+02,-6661,-4202,4394,-24,-271,-222,1,7,11
9.45E+02,-6661,-4178,4443,267,-301,-150,1,7,11
9.28E+02,-6663,-4160,4229,274,-323,-342,1,7,11
9.07E+02,-6399,-4127,4276,300,-330,-278,1,7,11
8.84E+02,-6666,-3827,4303,341,-311,30,1,7,11
8.63E+02,-6666,-3786,4325,147,-286,89,1,7,11
8.48E+02,-6666,-3740,4330,197,-259,-115,1,7,11
8.39E+02,-6393,-3943,4332,207,20,-81,1,7,11
8.37E+02,-6359,-3908,4337,179,24,-69,1,7,11
8.41E+02,-6313,-3882,4324,189,44,-96,1,7,11
8.51E+02,-6297,-3582,4305,226,108,94,1,7,11
8.64E+02,-6316,-3540,4277,247,-72,31,1,7,11
8.77E+02,-6348,-3531,4260,227,-10,-271,1,7,11
8.87E+02,-6292,-3547,4261,242,265,-300,1,7,11
8.93E+02,-6312,-3528,4252,538,353,-132,1,7,11
8.96E+02,-6352,-3556,4260,551,140,-204,1,7,11
8.95E+02,-6362,-3572,4240,594,167,-239,1,7,11
8.92E+02,-6388,-3866,4298,783,604,-547,1,7,11
8.86E+02,-6748,-3887,4279,667,402,-240,1,7,11
8.77E+02,-6688,-3866,4262,724,600,-374,1,7,11
8.68E+02,-6699,-3897,4231,720,401,-339,1,7,11
8.64E+02,-6774,-3852,4083,857,621,-272,1,7,11
8.67E+02,-6705,-3869,4386,212,233,29,1,7,11
8.74E+02,-6701,-3907,4451,-47,170,30,1,7,11
8.82E+02,-6699,-3914,4473,75,343,26,1,7,11
8.91E+02,-6683,-3919,4477,-276,263,30,1,7,11
9.03E+02,-6669,-3921,4226,-344,-52,27,1,7,11
9.17E+02,-6400,-3919,4478,-129,-97,21,1,7,11
9.33E+02,-6384,-3931,4229,-168,109,14,1,7,11
9.47E+02,-6360,-3937,4233,-174,61,-260,1,7,11
9.54E+02,-6330,-3958,4242,-180,12,-294,1,7,11
9.53E+02,-6300,-3720,4236,-181,-284,-348,1,7,11
9.43E+02,-6278,-3728,4239,-170,-318,-157,1,7,11
9.27E+02,-6277,-3742,4235,-161,-341,-260,1,7,11
9.08E+02,-6519,-3760,4231,-166,-367,-558,1,7,11
8.89E+02,-6517,-3798,4250,-191,-381,-601,1,7,11
8.69E+02,-6276,-3840,4249,-238,-380,-628,1,7,11
8.46E+02,-6327,-4100,4361,-577,-173,-630,1,7,11
8.18E+02,-6347,-3826,4364,-716,-597,-591,1,7,11
7.89E+02,-6475,-4007,4617,-910,-562,-221,1,7,11
7.64E+02,-6296,-4029,4629,-657,-162,-174,1,7,11
7.47E+02,-6309,-4022,4341,-473,-189,-323,1,7,11
7.39E+02,-6484,-4050,4634,-392,-214,34,1,7,11
7.36E+02,-6471,-4060,4618,-536,-173,50,1,7,11
7.34E+02,-6499,-4038,4294,-229,-148,37,1,7,11
7.36E+02,-6273,-4025,4274,-246,-149,58,1,7,11
7.50E+02,-6277,-4011,4270,-529,-166,120,1,7,11
7.80E+02,-6303,-3984,4248,-538,-179,-66,1,7,11
8.23E+02,-6284,-3975,4235,-577,-229,288,1,7,11
8.66E+02,-6504,-4206,4226,-608,-247,365,1,7,11
8.98E+02,-6483,-4188,4252,-638,-239,157,1,7,11
9.10E+02,-6454,-4171,4284,-404,-226,194,1,7,11
9.05E+02,-6438,-4160,4307,-400,-204,200,1,7,11
8.83E+02,-6412,-4155,4334,-631,-180,181,1,7,11
8.49E+02,-6404,-4144,4609,-589,-154,137,1,7,11
8.12E+02,-6134,-4132,4616,-544,-380,331,1,7,11
7.84E+02,-6142,-4111,4620,-247,-334,257,1,7,11
7.68E+02,-6423,-3834,4636,-208,-289,-78,1,7,11
7.59E+02,-6445,-3814,4613,-157,3,104,1,7,11
7.53E+02,-6472,-3793,4608,-376,26,44,1,7,11
7.46E+02,-6491,-3782,4350,-350,31,-263,1,7,11
7.37E+02,-6490,-3782,4346,-328,17,-318,1,7,11
7.28E+02,-6511,-3782,4331,-302,11,-381,1,7,11
7.24E+02,-6273,-3779,4345,-287,-262,-161,1,7,11
7.24E+02,-6274,-3808,4348,-293,-276,-171,1,7,11
7.25E+02,-6276,-3836,4627,-307,-292,-176,1,7,11
7.23E+02,-6313,-4111,4636,-331,-298,-173,1,7,11
7.17E+02,-6482,-4151,4685,-351,-330,-348,1,7,11
7.14E+02,-6454,-4169,4716,-362,-290,-330,1,7,11
7.19E+02,-6465,-4170,4728,-340,13,-324,1,7,11
7.30E+02,-6445,-4187,4498,-353,40,-289,1,7,11
7.45E+02,-6438,-4176,4501,-327,98,7,1,7,11
7.60E+02,-6430,-4191,4533,-321,-96,39,1,7,11
7.72E+02,-6442,-4189,4501,0,-48,79,1,7,11
7.79E+02,-6419,-4176,4725,26,-22,110,1,7,11
7.80E+02,-6416,-4191,4509,-104,341,126,1,7,11
7.79E+02,-6487,-4141,4709,297,153,-71,1,7,11
7.80E+02,-6462,-4110,4661,310,133,280,1,7,11
7.91E+02,-6454,-3832,4640,-43,342,289,1,7,11
8.12E+02,-6416,-3826,4643,-110,282,272,1,7,11
8.40E+02,-6426,-3810,4639,87,-6,-33,1,7,11
8.72E+02,-6431,-3797,4652,31,-63,-74,1,7,11
9.05E+02,-6426,-3792,4662,-281,122,-116,1,7,11
9.37E+02,-6422,-3791,4683,-322,53,93,1,7,11
9.66E+02,-6412,-3793,4689,-350,1,51,1,7,11
9.89E+02,-6409,-3799,4704,-130,-281,13,1,7,11
1.01E+03,-6407,-3822,4711,-161,-286,-258,1,7,11
1.02E+03,-6407,-4098,4717,-174,-273,-258,1,7,11
1.02E+03,-6410,-4122,4731,-184,15,1,1,7,11
1.02E+03,-6417,-4141,4496,-176,64,14,1,7,11
1.02E+03,-6435,-4163,4499,-150,-127,39,1,7,11
1.01E+03,-6448,-4178,4500,-377,-50,85,1,7,11
1.00E+03,-6454,-4183,4502,-348,325,-87,1,7,11
9.86E+02,-6471,-4175,4508,-284,135,-52,1,7,11
9.69E+02,-6488,-4158,4496,30,188,-25,1,7,11
9.53E+02,-6502,-4131,4724,83,214,259,1,7,11
9.39E+02,-6506,-3834,4694,111,224,282,1,7,11
9.31E+02,-6523,-3799,4659,123,225,292,1,7,11
9.28E+02,-6281,-3744,4340,120,211,298,1,7,11
9.27E+02,-6288,-3722,4321,80,184,301,1,7,11
9.23E+02,-6292,-3965,4327,5,135,284,1,7,11
9.13E+02,-6300,-3949,4321,-294,353,-6,1,7,11
8.96E+02,-6295,-3938,4316,-362,303,-58,1,7,11
8.78E+02,-6306,-3945,4335,-170,265,120,1,7,11
8.60E+02,-6312,-3947,4608,-195,-42,66,1,7,11
8.46E+02,-6283,-3948,4334,-204,-114,23,1,7,11
8.36E+02,-6276,-3939,4322,-237,70,-299,1,7,11
8.28E+02,-6514,-3952,4326,-522,-261,-363,1,7,11
8.24E+02,-6512,-3962,4327,-516,-309,-160,1,7,11
8.22E+02,-6507,-3723,4319,-517,-342,-189,1,7,11
8.25E+02,-6505,-3747,4330,-531,-342,-185,1,7,11
8.33E+02,-6506,-3790,4608,-543,-305,-154,1,7,11
8.45E+02,-6499,-3840,4628,-554,-263,-357,1,7,11
8.56E+02,-6497,-4136,4642,-555,33,-307,1,7,11
8.64E+02,-6505,-4167,4651,-556,62,6,1,7,11
8.64E+02,-6480,-4196,4680,-552,90,69,1,7,11
8.60E+02,-6471,-4208,4695,-230,-103,123,1,7,11
8.53E+02,-6473,-4220,4681,-179,-50,-108,1,7,11
8.46E+02,-6453,-4220,4666,-135,-21,-84,1,7,11
8.42E+02,-6486,-4200,4641,-354,289,-76,1,7,11
8.43E+02,-6490,-4190,4629,-346,289,-43,1,7,11
8.52E+02,-6482,-4182,4617,-350,298,-20,1,7,11
8.70E+02,-6490,-4172,4619,-129,285,-4,1,7,11
8.97E+02,-6497,-4176,4614,-153,257,-12,1,7,11
9.25E+02,-6497,-4158,4346,-160,-30,-14,1,7,11
9.48E+02,-6503,-4135,4340,-165,-50,-1,1,7,11
9.61E+02,-6497,-4128,4322,-174,-50,276,1,7,11
9.63E+02,-6482,-4121,4314,-181,-41,304,1,7,11
9.58E+02,-6474,-4114,4308,-189,-11,322,1,7,11
9.47E+02,-6471,-4111,4301,-197,281,326,1,7,11
9.36E+02,-6471,-4104,4296,-202,319,324,1,7,11
9.26E+02,-6474,-4116,4299,-213,348,313,1,7,11
9.22E+02,-6481,-4123,4306,-202,377,296,1,7,11
9.26E+02,-6502,-4129,4305,-175,142,272,1,7,11
9.42E+02,-6274,-4121,4288,-145,142,-6,1,7,11
9.64E+02,-6314,-4116,4256,-130,383,-8,1,7,11
9.82E+02,-6328,-4102,4241,-132,346,279,1,7,11
9.87E+02,-6313,-4097,4231,-140,321,315,1,7,11
9.73E+02,-6344,-3829,4478,-151,306,333,1,7,11
9.44E+02,-6336,-3816,4475,-161,279,352,1,7,11
9.08E+02,-6371,-3800,4233,-151,286,358,1,7,11
8.75E+02,-6400,-3779,4471,-382,270,383,1,7,11
8.50E+02,-6673,-3748,4450,-129,-5,165,1,7,11
8.35E+02,-6688,-3963,4432,-163,-29,211,1,7,11
8.29E+02,-6698,-3949,4441,-218,-54,525,1,7,11
8.33E+02,-6676,-3939,4446,-526,-65,570,1,7,11
8.41E+02,-6693,-3921,4444,-536,-52,592,1,7,11
8.48E+02,-6690,-3896,4428,-550,-55,604,1,7,11
8.47E+02,-6708,-3889,4440,-617,-55,601,1,7,11
8.42E+02,-6748,-3884,4457,-640,-55,599,1,7,11
8.41E+02,-6762,-3874,4451,-409,-86,616,1,7,11
8.53E+02,-6775,-3858,4431,-430,-101,389,1,7,11
8.79E+02,-6538,-3841,4410,-457,-89,423,1,7,11
9.11E+02,-6583,-3567,4385,-494,-65,474,1,7,11
9.35E+02,-6619,-3557,4361,-806,-51,809,1,7,11
9.42E+02,-6636,-3553,4071,-859,-49,650,1,7,11
9.28E+02,-6622,-3546,4038,-661,-59,746,1,7,11
9.00E+02,-6607,-3545,4017,-717,-64,1065,1,7,11
8.67E+02,-6594,-3544,4005,-761,-83,1099,1,7,11
8.33E+02,-6584,-3538,3981,-1049,-118,1104,1,7,11
8.04E+02,-6595,-3530,3973,-1062,93,1084,1,7,11
7.80E+02,-6616,-3519,4208,-1053,33,1067,1,7,11
7.65E+02,-6618,-3501,4209,-1034,-296,1059,1,7,11
7.56E+02,-6613,-3489,4210,-741,-357,1046,1,7,11
7.49E+02,-6623,-3485,3979,-694,-156,766,1,7,11
7.43E+02,-6634,-3471,3985,-886,-210,750,1,7,11
7.37E+02,-6631,-3693,3983,-803,-237,744,1,7,11
7.34E+02,-6645,-3624,4204,-465,-232,754,1,7,11
7.35E+02,-6928,-3292,4157,-450,-192,1055,1,7,11
7.37E+02,-6950,-3232,4137,-802,-169,1107,1,7,11
7.38E+02,-6955,-3216,4151,-701,-174,901,1,7,11
7.37E+02,-6946,-3208,4187,-1123,-194,929,1,7,11
7.37E+02,-6922,-3231,3986,-1017,-209,945,1,7,11
7.46E+02,-6650,-3253,4045,-1374,-206,935,1,7,11
7.65E+02,-6914,-3265,4375,-1170,-192,912,1,7,11
7.86E+02,-6923,-3279,4439,-1161,-194,1146,1,7,11
7.96E+02,-6923,-3278,4473,-1351,-197,1125,1,7,11
7.85E+02,-6915,-3280,4235,-1005,-197,1102,1,7,11
7.63E+02,-6646,-3258,4229,-1133,-178,1068,1,7,11
7.46E+02,-6649,-3237,4231,-751,-140,763,1,7,11
7.49E+02,-6924,-3217,4225,-879,-338,686,1,7,11
7.66E+02,-6943,-3442,4451,-495,-249,650,1,7,11
7.89E+02,-6958,-3402,4409,-395,62,880,1,7,11
8.07E+02,-6986,-3361,4400,-599,123,846,1,7,11
8.17E+02,-7003,-3062,4390,-546,-83,818,1,7,11
8.24E+02,-7010,-3030,4381,-519,-35,786,1,7,11
8.30E+02,-7028,-3004,4374,-224,279,488,1,7,11
8.36E+02,-6793,-2980,4373,-189,328,448,1,7,11
8.43E+02,-6801,-2963,4363,-142,369,412,1,7,11
8.50E+02,-6795,-3188,4085,-350,155,633,1,7,11
8.59E+02,-6797,-3166,4084,-316,221,589,1,7,11
8.68E+02,-6818,-3152,4091,-267,566,537,1,7,11
8.79E+02,-6854,-3143,4086,47,386,251,1,7,11
8.89E+02,-6864,-3135,4065,117,449,244,1,7,11
8.99E+02,-6878,-3118,4033,-84,793,242,1,7,11
9.08E+02,-6890,-3108,3993,-34,881,247,1,7,11
9.13E+02,-6911,-3082,4192,261,720,251,1,7,11
9.13E+02,-7209,-2806,4132,256,1055,516,1,7,11
9.07E+02,-7254,-2788,4100,-30,1102,535,1,7,11
9.02E+02,-7295,-2765,3792,-68,1120,567,1,7,11
9.04E+02,-7072,-2744,3756,127,1121,607,1,7,11
9.17E+02,-7102,-2718,3720,63,1107,402,1,7,11
9.36E+02,-7119,-2689,3935,-257,1096,466,1,7,11
9.54E+02,-7142,-2925,3924,-340,1096,787,1,7,11
9.59E+02,-7145,-2915,3922,-177,1082,847,1,7,11
9.43E+02,-7151,-2908,3931,-517,1057,882,1,7,11
9.14E+02,-7142,-2905,3939,-572,756,647,1,7,11
8.86E+02,-7123,-2869,3902,-570,736,652,1,7,11
8.70E+02,-7130,-2836,3874,-586,752,644,1,7,11
8.71E+02,-7143,-2547,3571,-607,1046,893,1,7,11
8.79E+02,-7438,-2509,3526,-394,1087,894,1,7,11
8.84E+02,-7450,-2479,3497,-451,1109,654,1,7,11
8.76E+02,-7461,-2456,3472,-467,1103,647,1,7,11
8.55E+02,-7465,-2686,3688,-458,1098,888,1,7,11
8.28E+02,-7467,-2675,3653,-456,1098,868,1,7,11
8.00E+02,-7470,-2682,3621,-431,1107,833,1,7,11
7.73E+02,-7472,-2684,3327,-639,1130,786,1,7,11
7.49E+02,-7482,-2687,3301,-592,906,466,1,7,11
7.30E+02,-7518,-2685,3280,-538,928,384,1,7,11
7.15E+02,-7546,-2684,3249,-215,914,573,1,7,11
7.05E+02,-7303,-2433,3215,-148,1134,251,1,7,11
6.99E+02,-7313,-2678,3414,-325,1104,178,1,7,11
6.96E+02,-7343,-2661,3357,-260,1072,364,1,7,11
6.99E+02,-7378,-2633,3015,57,1036,311,1,7,11
7.06E+02,-7423,-2604,2963,94,751,285,1,7,11
7.16E+02,-7731,-2592,3196,113,712,293,1,7,11
7.25E+02,-7785,-2562,3163,-121,644,331,1,7,11
7.30E+02,-7794,-2287,3141,-108,828,156,1,7,11
7.32E+02,-7788,-2280,3122,-113,783,201,1,7,11
7.36E+02,-7779,-2288,3113,113,486,238,1,7,11
7.41E+02,-7778,-2286,3120,64,464,255,1,7,11
7.51E+02,-7761,-2275,3113,47,430,516,1,7,11
7.67E+02,-7744,-2260,3108,32,412,241,1,7,11
7.88E+02,-7740,-2259,3108,20,417,205,1,7,11
8.12E+02,-7737,-2249,3108,28,447,160,1,7,11
8.36E+02,-7751,-2235,3113,43,480,369,1,7,11
8.55E+02,-7745,-2208,3091,77,488,339,1,7,11
8.70E+02,-7741,-2428,2797,86,782,305,1,7,11
8.82E+02,-7763,-2394,2769,70,848,271,1,7,11
8.90E+02,-7802,-2372,2762,54,659,260,1,7,11
8.98E+02,-7573,-2346,2734,60,702,286,1,7,11
9.04E+02,-7590,-2358,2746,36,715,325,1,7,11
9.10E+02,-7584,-2383,2756,34,695,370,1,7,11
9.15E+02,-7565,-2397,2744,70,671,135,1,7,11
9.18E+02,-7569,-2386,2712,125,669,130,1,7,11
9.21E+02,-7601,-2373,2928,-73,672,130,1,7,11
9.24E+02,-7616,-2353,2875,-27,649,145,1,7,11
9.25E+02,-7633,-2322,2837,-22,874,168,1,7,11
9.27E+02,-7651,-2046,2551,-30,843,190,1,7,11
9.28E+02,-7668,-2018,2519,-42,803,202,1,7,11
9.29E+02,-7675,-1991,2486,-67,501,214,1,7,11
9.28E+02,-7940,-1956,2441,-98,461,222,1,7,11
9.24E+02,-7944,-1926,2678,118,410,226,1,7,11
9.17E+02,-7938,-2152,2674,88,608,218,1,7,11
9.03E+02,-7945,-2117,2662,55,553,196,1,7,11
8.79E+02,-7954,-2085,2650,13,241,175,1,7,11
8.48E+02,-7960,-2056,2636,-286,197,148,1,7,11
8.15E+02,-7977,-1762,2643,-340,166,131,1,7,11
7.90E+02,-7975,-1747,2636,-131,142,377,1,7,11
7.76E+02,-7983,-1732,2648,-152,365,357,1,7,11
7.71E+02,-7982,-1727,2656,-163,325,338,1,7,11
7.71E+02,-7977,-1720,2643,-162,288,315,1,7,11
7.69E+02,-7965,-1721,2638,-163,258,281,1,7,11
7.68E+02,-7963,-1725,2625,-169,-15,-13,1,7,11
7.67E+02,-7977,-1731,2610,-175,-22,-59,1,7,11
7.67E+02,-7973,-1740,2594,-181,-37,-92,1,7,11
7.69E+02,-7975,-1742,2583,-190,-40,-116,1,7,11
7.71E+02,-7983,-1755,2571,-211,-34,124,1,7,11
7.74E+02,-7985,-1778,2300,-237,-28,119,1,7,11
7.78E+02,-7998,-1780,2296,-255,-29,114,1,7,11
7.82E+02,-8022,-1784,2285,-539,-43,123,1,7,11
7.86E+02,-8012,-1788,2278,-590,-92,-119,1,7,11
7.91E+02,-8000,-2058,2286,-634,-108,-111,1,7,11
7.96E+02,-7997,-2084,2560,-399,-119,-103,1,7,11
8.02E+02,-7986,-2095,2574,-393,-128,-97,1,7,11
8.08E+02,-7967,-2097,2571,-628,107,-87,1,7,11
8.14E+02,-7952,-2106,2571,-622,94,-86,1,7,11
8.20E+02,-7945,-2109,2571,-614,81,-101,1,7,11
8.25E+02,-7680,-2114,2577,-606,73,-126,1,7,11
8.30E+02,-7679,-2115,2573,-575,73,100,1,7,11
8.34E+02,-7938,-2124,2582,-545,77,77,1,7,11
8.38E+02,-7679,-2141,2601,-518,68,60,1,7,11
8.41E+02,-7942,-2149,2604,-220,61,40,1,7,11
8.43E+02,-7954,-2149,2618,-177,58,22,1,7,11
8.44E+02,-7970,-2148,2622,-132,46,13,1,7,11
8.43E+02,-7942,-2148,2614,-343,25,17,1,7,11
8.41E+02,-7947,-2137,2609,-327,45,4,1,7,11
8.38E+02,-7960,-2137,2617,-324,66,4,1,7,11
8.34E+02,-7973,-2136,2636,-313,92,14,1,7,11
8.29E+02,-7976,-2137,2652,-295,111,35,1,7,11
8.23E+02,-7978,-2137,2666,-272,-126,51,1,7,11
8.16E+02,-7982,-2130,2652,13,-110,70,1,7,11
8.07E+02,-7976,-2115,2635,30,-89,92,1,7,11
7.97E+02,-7974,-2108,2630,38,-59,106,1,7,11
7.87E+02,-7976,-2099,2632,34,-43,119,1,7,11
7.77E+02,-7967,-2088,2619,40,-53,123,1,7,11
7.69E+02,-7971,-2070,2616,50,-64,111,1,7,11
7.58E+02,-7978,-1787,2593,62,-72,96,1,7,11
7.42E+02,-7989,-1767,2287,26,-81,103,1,7,11
7.22E+02,-7997,-1761,2282,-354,-96,127,1,7,11
7.03E+02,-7992,-1778,2574,-601,94,-70,1,7,11
6.90E+02,-7960,-1792,2619,-456,74,-53,1,7,11
6.84E+02,-7954,-2059,2645,-490,69,-74,1,7,11
6.84E+02,-7941,-2065,2660,-481,60,-103,1,7,11
6.89E+02,-7680,-2064,2676,-468,56,118,1,7,11
6.93E+02,-7667,-2062,2665,-423,52,77,1,7,11
6.90E+02,-7655,-2057,2644,-616,59,32,1,7,11
6.78E+02,-7664,-2053,2624,-556,86,-279,1,7,11
6.66E+02,-7682,-2054,2603,-230,109,-331,1,7,11
6.65E+02,-7976,-2068,2601,-163,-118,-148,1,7,11
6.75E+02,-7970,-2085,2596,-351,124,-164,1,7,11
6.91E+02,-7983,-2085,2574,-262,95,-232,1,7,11
7.04E+02,-7998,-2084,2561,60,43,-516,1,7,11
7.13E+02,-8009,-2085,2566,91,17,-531,1,7,11
7.17E+02,-8014,-2106,2598,115,-263,-533,1,7,11
7.17E+02,-7997,-2130,2639,-109,-306,-534,1,7,11
7.17E+02,-7972,-2144,2672,-42,-349,-579,1,7,11
7.20E+02,-7965,-2147,2679,290,-144,-629,1,7,11
7.31E+02,-7961,-2151,2685,354,-176,-409,1,7,11
7.44E+02,-7970,-2153,2680,164,-192,-418,1,7,11
