timestamp,ax,ay,az,gx,gy,gz,Label1,Label2,Label3
9.50E+02,-6961,-4523,3103,1770,1968,-428,1,7,11
9.50E+02,-6889,-4734,2783,2074,2356,-555,1,7,11
9.50E+02,-7274,-4675,2696,2112,2405,-315,1,7,11
9.50E+02,-7043,-4310,2843,2101,2347,-28,1,7,11
9.50E+02,-7066,-4421,2461,1768,2040,223,1,7,11
9.50E+02,-7089,-4022,2604,1868,1956,440,1,7,11
9.50E+02,-7078,-4122,2253,1424,2095,895,1,7,11
9.50E+02,-7076,-3939,2408,1212,1701,1075,1,7,11
9.50E+02,-7219,-3862,2199,1141,1803,1010,1,7,11
9.50E+02,-7448,-3592,2017,1074,1496,1390,1,7,11
9.50E+02,-7077,-3669,2394,457,1662,1604,1,7,11
9.50E+02,-7156,-3252,2351,610,1661,1442,1,7,11
9.50E+02,-7432,-3579,2500,573,1415,1785,1,7,11
9.50E+02,-7156,-3051,2205,1779,2342,3124,1,7,11
9.50E+02,-7716,-2636,1904,523,738,1905,1,7,11
9.50E+02,-7461,-3047,2436,-1157,-90,1204,1,7,11
9.50E+02,-7545,-3031,2831,-1373,-266,992,1,7,11
9.50E+02,-7491,-3353,2710,-1181,-639,1060,1,7,11
9.50E+02,-7504,-3034,2782,-947,-802,1084,1,7,11
9.50E+02,-7509,-2968,2789,-1121,-1078,1135,1,7,11
9.51E+02,-7515,-2975,3094,-1143,-1290,931,1,7,11
9.51E+02,-7179,-3013,2734,-1133,-987,1007,1,7,11
9.51E+02,-7486,-3155,2712,-1145,373,919,1,7,11
9.51E+02,-7994,-3139,2806,-1247,-283,1151,1,7,11
9.50E+02,-7801,-3144,3072,-1628,-980,1167,1,7,11
9.49E+02,-7511,-3155,2815,-1560,-1561,1242,1,7,11
9.48E+02,-7136,-3126,2802,-1220,-901,1572,1,7,11
9.47E+02,-7345,-3092,3086,-1222,-815,1422,1,7,11
9.46E+02,-7515,-3180,3161,-1217,-794,1909,1,7,11
9.47E+02,-7529,-3195,3162,-1282,-616,2110,1,7,11
9.50E+02,-7513,-2995,3161,-1126,-556,2328,1,7,11
9.55E+02,-7477,-3053,3191,-667,-520,2256,1,7,11
9.58E+02,-7161,-3338,2971,-393,-533,2640,1,7,11
9.56E+02,-7128,-3024,2981,-321,-559,2441,1,7,11
9.44E+02,-7157,-3184,3026,-18,-560,2677,1,7,11
9.20E+02,-7509,-2808,3003,614,-399,2648,1,7,11
8.87E+02,-7548,-2894,3189,640,-504,2643,1,7,11
8.48E+02,-7315,-2506,3144,1081,-815,2620,1,7,11
8.07E+02,-7503,-2603,2765,933,-788,2297,1,7,11
7.67E+02,-7441,-2249,2695,1011,-557,2378,1,7,11
7.30E+02,-7311,-1746,2708,980,-299,1934,1,7,11
7.00E+02,-7654,-1835,2800,992,57,1737,1,7,11
6.73E+02,-7647,-1251,2892,1387,-179,1882,1,7,11
6.48E+02,-7565,-1316,2857,411,-88,1669,1,7,11
6.25E+02,-7845,-1404,3165,301,338,1499,1,7,11
6.03E+02,-7646,-1004,3098,379,-291,1631,1,7,11
5.90E+02,-7845,-1570,3600,537,-459,1110,1,7,11
5.90E+02,-7607,-922,3036,1563,-1276,799,1,7,11
6.07E+02,-7587,-1322,3237,1226,-1500,268,1,7,11
6.33E+02,-7619,-1322,3669,1755,-1759,-517,1,7,11
6.55E+02,-7614,-719,3395,1926,-1964,-488,1,7,11
6.72E+02,-7785,-723,3229,1610,-2151,-870,1,7,11
6.93E+02,-7775,-718,3589,896,-1773,-754,1,7,11
7.22E+02,-7748,-741,3692,470,-1919,-1152,1,7,11
7.50E+02,-7737,-1087,3850,363,-1847,-1288,1,7,11
7.67E+02,-7399,-966,3748,-90,-1812,-1189,1,7,11
7.75E+02,-7351,-1309,3815,76,-1429,-1586,1,7,11
7.76E+02,-7518,-1389,3831,-292,-1275,-1660,1,7,11
7.75E+02,-7461,-1223,4099,-200,-1305,-1452,1,7,11
7.72E+02,-7474,-1596,4145,-632,-1028,-1472,1,7,11
7.72E+02,-7498,-1465,4178,-505,-794,-1439,1,7,11
7.74E+02,-7462,-1830,4201,-833,-633,-1628,1,7,11
7.76E+02,-7164,-1910,4204,-847,-240,-1580,1,7,11
7.74E+02,-7439,-1699,4181,-827,-367,-1555,1,7,11
7.67E+02,-7468,-1752,4153,-835,-295,-1250,1,7,11
7.55E+02,-7489,-1790,4149,-834,-274,-1193,1,7,11
7.39E+02,-7531,-2079,4159,-809,-288,-1399,1,7,11
7.20E+02,-7528,-2098,4166,-500,-352,-1345,1,7,11
7.06E+02,-7512,-2115,4163,-434,-159,-1309,1,7,11
7.01E+02,-7529,-2139,4180,-640,-208,-1295,1,7,11
7.03E+02,-7522,-2172,4215,-596,-556,-1020,1,7,11
7.05E+02,-7476,-1955,3991,-546,-639,-1013,1,7,11
6.98E+02,-7448,-2024,4069,-526,-439,-1298,1,7,11
6.84E+02,-7457,-2350,4402,-524,-443,-1312,1,7,11
6.68E+02,-7472,-2421,4476,-236,-448,-1297,1,7,11
6.55E+02,-7436,-2222,4262,-164,-444,-978,1,7,11
6.47E+02,-7121,-2254,4281,-339,-632,-906,1,7,11
6.46E+02,-7104,-2272,4290,-274,-255,-1091,1,7,11
6.51E+02,-7098,-2290,4281,29,-384,-739,1,7,11
6.59E+02,-7108,-2296,4273,61,-258,-880,1,7,11
6.67E+02,-7100,-2299,4269,80,87,-487,1,7,11
6.71E+02,-7084,-2294,4240,92,-102,-609,1,7,11
6.69E+02,-7074,-2293,4467,94,-71,-240,1,7,11
6.59E+02,-7043,-2301,4466,82,-72,-158,1,7,11
6.48E+02,-7255,-2567,4446,67,-100,-373,1,7,11
6.41E+02,-7215,-2291,4412,59,123,-375,1,7,11
6.40E+02,-7231,-2260,4377,39,107,-148,1,7,11
6.45E+02,-7256,-2222,4092,-269,79,-166,1,7,11
6.56E+02,-7293,-2201,4088,-370,47,-157,1,7,11
6.68E+02,-7065,-2195,4363,-248,-29,-384,1,7,11
6.75E+02,-7073,-2179,4366,-612,-360,-340,1,7,11
6.74E+02,-7079,-2178,4391,-525,-163,-288,1,7,11
6.67E+02,-7096,-2205,4423,-668,-218,25,1,7,11
6.55E+02,-7073,-2230,4439,-731,-277,93,1,7,11
6.41E+02,-7043,-2270,4459,-1097,-563,-107,1,7,11
6.31E+02,-7251,-2564,4460,-949,-563,-54,1,7,11
6.29E+02,-7203,-2593,4451,-1004,-521,-20,1,7,11
6.33E+02,-7182,-2631,4443,-1309,-198,-10,1,7,11
6.39E+02,-6907,-2675,4426,-1343,-152,-22,1,7,11
6.44E+02,-6904,-2464,4418,-1377,-379,-68,1,7,11
6.39E+02,-7173,-2505,4402,-1162,-375,-124,1,7,11
6.23E+02,-6888,-2820,4365,-1205,-134,92,1,7,11
6.06E+02,-6892,-2870,4058,-1278,-362,35,1,7,11
6.02E+02,-7184,-2937,4031,-1650,-333,5,1,7,11
6.09E+02,-7209,-2757,4032,-1530,-322,9,1,7,11
6.13E+02,-7256,-3074,4037,-1908,-306,34,1,7,11
6.06E+02,-7282,-3132,4024,-1752,-302,127,1,7,11
5.95E+02,-7278,-3186,3999,-2083,-268,267,1,7,11
5.93E+02,-7044,-2964,3984,-2152,72,165,1,7,11
5.97E+02,-7073,-2982,3978,-1937,-104,596,1,7,11
6.01E+02,-7051,-2988,4176,-1931,-27,772,1,7,11
6.02E+02,-7293,-2980,4142,-2164,325,673,1,7,11
6.03E+02,-7237,-2963,3826,-2116,165,1072,1,7,11
6.09E+02,-7204,-2945,3779,-2061,554,903,1,7,11
6.14E+02,-7240,-3196,3754,-1776,449,938,1,7,11
6.11E+02,-7281,-3180,3735,-1738,860,952,1,7,11
6.00E+02,-7280,-3180,3967,-1679,888,962,1,7,11
5.94E+02,-7060,-3183,3943,-1894,702,966,1,7,11
6.00E+02,-7068,-3184,3915,-1867,744,974,1,7,11
6.11E+02,-7043,-3189,3890,-1843,749,984,1,7,11
6.20E+02,-7258,-2951,3872,-1846,779,986,1,7,11
6.26E+02,-7247,-2968,3876,-1839,1116,978,1,7,11
6.34E+02,-7234,-2972,3878,-1795,968,986,1,7,11
6.48E+02,-7252,-2947,3863,-1437,1381,990,1,7,11
6.63E+02,-7295,-3170,3566,-1559,1558,1284,1,7,11
6.77E+02,-7075,-3142,3520,-1155,1507,1349,1,7,11
6.85E+02,-7124,-3115,3478,-1013,1715,1174,1,7,11
6.90E+02,-7168,-3076,3682,-1131,2149,1252,1,7,11
6.91E+02,-7477,-2768,3604,-718,2022,1565,1,7,11
6.92E+02,-7520,-2698,3245,-812,2359,1595,1,7,11
6.99E+02,-7347,-2871,3356,-403,2428,1594,1,7,11
7.16E+02,-7686,-2511,2972,-543,2210,1598,1,7,11
7.37E+02,-7794,-2614,2791,-240,2235,1616,1,7,11
7.55E+02,-7596,-2274,2935,-236,2226,1627,1,7,11
7.63E+02,-7621,-2212,2845,-529,2369,1625,1,7,11
7.64E+02,-7619,-2403,2519,-580,2020,1593,1,7,11
7.63E+02,-7577,-2336,2672,-568,1924,1548,1,7,11
7.67E+02,-7570,-1995,2298,-550,2131,1212,1,7,11
7.73E+02,-7628,-2170,2220,-584,2118,1384,1,7,11
7.77E+02,-7646,-2105,2407,-608,2072,1348,1,7,11
7.75E+02,-7636,-1791,2332,-621,2051,1314,1,7,11
7.66E+02,-7678,-1727,1972,-606,2073,1008,1,7,11
7.53E+02,-7951,-1667,2123,-607,2093,995,1,7,11
7.39E+02,-7974,-1866,1773,-387,2134,988,1,7,11
7.27E+02,-7994,-1829,1683,-457,1924,991,1,7,11
7.24E+02,-8015,-1536,1865,-799,1979,991,1,7,11
7.33E+02,-8049,-1502,1802,-643,2040,995,1,7,11
7.48E+02,-7815,-1467,1447,-709,2335,1014,1,7,11
7.57E+02,-7813,-1417,1593,-1032,2411,1298,1,7,11
7.51E+02,-7880,-1628,1244,-1139,2280,1315,1,7,11
7.36E+02,-7926,-1601,1178,-1017,2608,1378,1,7,11
7.28E+02,-7931,-1567,1346,-1377,2433,1203,1,7,11
7.42E+02,-7930,-1543,1018,-1222,2818,1542,1,7,11
7.67E+02,-8205,-1231,903,-1567,2712,1622,1,7,11
7.86E+02,-8211,-1209,1104,-1437,3082,1469,1,7,11
7.84E+02,-8242,-1164,747,-1502,3199,1519,1,7,11
7.65E+02,-8241,-1380,891,-1524,3094,1845,1,7,11
7.45E+02,-8266,-1344,778,-1802,3224,1913,1,7,11
7.40E+02,-8266,-1315,390,-1523,3316,1745,1,7,11
7.52E+02,-8217,-1004,228,-1496,3692,2079,1,7,11
7.73E+02,-7931,-938,340,-1422,3849,2123,1,7,11
7.95E+02,-8213,-1122,-60,-1416,3758,2158,1,7,11
8.15E+02,-8233,-1062,56,-1416,4133,1964,1,7,11
8.30E+02,-8242,-741,-354,-1647,3971,2040,1,7,11
8.38E+02,-8257,-661,-233,-1626,4040,2400,1,7,11
8.39E+02,-8250,-821,-607,-1595,4064,2273,1,7,11
8.34E+02,-7908,-504,-460,-1279,4031,2438,1,7,11
8.25E+02,-7832,-416,-877,-1393,4008,2557,1,7,11
8.13E+02,-7967,-581,-756,-1287,4200,2930,1,7,11
8.03E+02,-7631,-218,-904,-914,4205,2737,1,7,11
8.03E+02,-7622,-356,-1281,-1049,3980,2786,1,7,11
8.15E+02,-7612,17,-1407,-670,3985,3107,1,7,11
8.38E+02,-7622,126,-1268,-499,4027,3157,1,7,11
8.60E+02,-7974,270,-1658,-555,4086,3155,1,7,11
8.74E+02,-8031,128,-1530,-159,4045,3173,1,7,11
8.74E+02,-7809,225,-1913,-282,4191,3162,1,7,11
8.63E+02,-7858,595,-1789,91,3762,3128,1,7,11
8.47E+02,-7849,432,-1931,-118,3473,3095,1,7,11
8.30E+02,-8031,774,-2032,126,3331,2783,1,7,11
8.16E+02,-7611,867,-2418,98,2901,2702,1,7,11
8.08E+02,-7685,708,-2276,50,2297,2836,1,7,11
8.09E+02,-7519,1101,-2660,22,2317,2442,1,7,11
8.17E+02,-7111,991,-2481,-287,1936,2578,1,7,11
8.29E+02,-7248,1368,-2540,-336,2157,2225,1,7,11
8.41E+02,-6872,1171,-2552,-159,2159,2406,1,7,11
8.50E+02,-7036,1217,-2860,-179,1941,2032,1,7,11
8.56E+02,-7032,1538,-2905,-173,1995,2119,1,7,11
8.58E+02,-6815,1431,-2703,-158,1985,1684,1,7,11
8.58E+02,-6813,1483,-2734,-154,2158,1816,1,7,11
8.56E+02,-6985,1512,-2745,-347,1708,1441,1,7,11
8.53E+02,-6967,1819,-2804,41,1880,1560,1,7,11
8.52E+02,-7008,1902,-3146,-84,1808,1166,1,7,11
8.55E+02,-6786,1722,-2979,-11,1433,1317,1,7,11
8.64E+02,-7030,2050,-3368,266,1549,968,1,7,11
8.81E+02,-6790,2089,-3420,-53,1152,1112,1,7,11
9.07E+02,-7033,2105,-3449,100,980,755,1,7,11
9.36E+02,-7011,2111,-3425,-264,1097,646,1,7,11
9.60E+02,-6953,2121,-3406,-324,746,823,1,7,11
9.71E+02,-6632,2113,-3377,-368,732,776,1,7,11
9.62E+02,-6598,2099,-3339,-373,1029,480,1,7,11
9.39E+02,-6575,2099,-3070,-332,1076,443,1,7,11
9.08E+02,-6573,2108,-3329,-277,1106,416,1,7,11
8.76E+02,-6562,2126,-3379,60,1115,390,1,7,11
8.48E+02,-6531,2136,-3436,-116,1093,612,1,7,11
8.27E+02,-6744,2162,-3272,-61,1054,561,1,7,11
8.17E+02,-6720,1927,-3609,-55,764,512,1,7,11
8.19E+02,-6691,1930,-3677,-81,730,216,1,7,11
8.28E+02,-6663,1921,-3476,124,707,175,1,7,11
8.37E+02,-6384,2168,-3464,62,692,138,1,7,11
8.44E+02,-6387,1920,-3480,22,669,348,1,7,11
8.44E+02,-6659,2167,-3459,-293,640,328,1,7,11
8.38E+02,-6385,2162,-3467,-336,846,308,1,7,11
8.25E+02,-6669,2155,-3712,-138,800,270,1,7,11
8.11E+02,-6398,2160,-3693,-187,480,-14,1,7,11
8.07E+02,-6382,2162,-3695,-215,449,-51,1,7,11
8.25E+02,-6390,2172,-3703,-222,437,-81,1,7,11
8.69E+02,-6371,2170,-3469,-231,405,-106,1,7,11
9.27E+02,-6321,2148,-3496,-253,396,-123,1,7,11
9.84E+02,-6316,2141,-3502,-513,440,92,1,7,11
1.02E+03,-6316,2134,-3484,-256,463,58,1,7,11
1.04E+03,-6332,2138,-3501,-220,456,30,1,7,11
1.04E+03,-6319,2129,-3526,-196,398,32,1,7,11
1.02E+03,-6300,2124,-3559,-159,585,15,1,7,11
9.86E+02,-6305,2120,-3848,-371,229,-268,1,7,11
9.54E+02,-6304,2122,-3895,-349,364,-289,1,7,11
9.25E+02,-6516,2114,-3941,-333,-27,-302,1,7,11
9.03E+02,-6506,2093,-3967,-322,111,-339,1,7,11
8.93E+02,-6273,2064,-3963,-302,-258,-378,1,7,11
8.94E+02,-6316,1781,-3963,-276,-377,-132,1,7,11
9.03E+02,-6320,1734,-3929,-260,-242,-380,1,7,11
9.13E+02,-6342,1702,-3895,40,-590,-140,1,7,11
9.21E+02,-6380,1705,-3893,88,-432,-154,1,7,11
9.27E+02,-6398,1708,-3893,94,-787,-139,1,7,11
9.33E+02,-6398,1714,-3876,68,-874,-366,1,7,11
9.40E+02,-6658,1711,-3842,11,-737,-343,1,7,11
9.50E+02,-6675,1714,-3558,-263,-1072,-353,1,7,11
9.58E+02,-6704,1725,-3524,-271,-904,-381,1,7,11
9.62E+02,-6711,1725,-3482,-262,-1013,-159,1,7,11
9.60E+02,-6740,1715,-3670,16,-1379,-225,1,7,11
9.50E+02,-6768,1703,-3613,61,-1262,-554,1,7,11
9.39E+02,-6577,1713,-3326,112,-1409,-397,1,7,11
9.33E+02,-6601,1680,-3289,-118,-1851,-449,1,7,11
9.38E+02,-6596,1912,-3275,-58,-1757,-778,1,7,11
9.53E+02,-6649,1901,-3255,262,-2117,-865,1,7,11
9.72E+02,-6971,1880,-3217,350,-1961,-663,1,7,11
9.90E+02,-7010,1839,-3426,195,-2317,-709,1,7,11
1.00E+03,-6829,1826,-3414,544,-2390,-736,1,7,11
1.00E+03,-6822,1796,-3340,549,-2219,-680,1,7,11
9.99E+02,-6816,1502,-2951,578,-2256,-674,1,7,11
9.87E+02,-6862,1465,-3083,585,-2267,-692,1,7,11
9.70E+02,-7261,1430,-2762,621,-2596,-741,1,7,11
9.51E+02,-7058,1652,-2690,398,-2518,-1101,1,7,11
9.37E+02,-7061,1631,-2918,433,-2731,-1146,1,7,11
9.32E+02,-7073,1616,-2860,467,-3177,-991,1,7,11
9.41E+02,-7117,1590,-2542,466,-3404,-1405,1,7,11
9.60E+02,-7437,1571,-2467,460,-3269,-1244,1,7,11
9.83E+02,-7462,1540,-2603,436,-3616,-1547,1,7,11
1.01E+03,-7437,1210,-2422,431,-3658,-1540,1,7,11
1.02E+03,-7432,1359,-1990,482,-3617,-1587,1,7,11
1.03E+03,-7499,1014,-2074,819,-3316,-1446,1,7,11
1.03E+03,-7344,949,-1892,642,-3300,-1829,1,7,11
1.03E+03,-7722,901,-1471,730,-3626,-1692,1,7,11
1.02E+03,-7773,1091,-1614,1071,-3536,-2089,1,7,11
1.01E+03,-7776,743,-1280,1137,-3747,-1975,1,7,11
1.00E+03,-7758,889,-1205,1151,-4174,-2367,1,7,11
9.85E+02,-7788,819,-1371,898,-4001,-2272,1,7,11
9.69E+02,-7599,484,-945,1115,-4061,-2686,1,7,11
9.55E+02,-7609,560,-727,1085,-4448,-2831,1,7,11
9.43E+02,-7661,178,-830,935,-4317,-3082,1,7,11
9.37E+02,-8001,315,-433,1290,-4687,-3070,1,7,11
9.38E+02,-7871,-48,-225,1332,-4551,-3284,1,7,11
9.44E+02,-8209,93,35,1350,-4758,-3460,1,7,11
9.56E+02,-8256,12,-11,1376,-5233,-3546,1,7,11
9.70E+02,-8204,-344,355,1368,-5388,-3479,1,7,11
9.87E+02,-7902,-228,241,1015,-5073,-3651,1,7,11
1.00E+03,-8198,-621,431,1115,-5135,-3312,1,7,11
1.01E+03,-8208,-511,659,887,-4910,-3443,1,7,11
1.01E+03,-8268,-892,912,392,-4700,-3340,1,7,11
1.00E+03,-8315,-753,1204,193,-4340,-2947,1,7,11
9.89E+02,-7818,-959,1659,-11,-4310,-2874,1,7,11
9.78E+02,-7940,-1341,1458,-37,-4386,-2533,1,7,11
9.75E+02,-7984,-1395,1826,-6,-3837,-2509,1,7,11
9.81E+02,-8043,-1237,1743,-5,-3571,-2631,1,7,11
9.93E+02,-8034,-1603,2159,314,-3608,-2188,1,7,11
1.01E+03,-8064,-1475,2324,366,-3367,-2043,1,7,11
1.02E+03,-7899,-1838,2248,191,-3147,-1944,1,7,11
1.02E+03,-8258,-1873,2676,538,-2730,-2105,1,7,11
1.02E+03,-8127,-1881,2821,615,-2892,-1736,1,7,11
1.02E+03,-8156,-1891,2936,398,-2871,-1799,1,7,11
1.02E+03,-8115,-1918,2792,385,-2842,-1582,1,7,11
1.02E+03,-8285,-1694,3115,614,-2539,-1365,1,7,11
1.02E+03,-7843,-1744,3183,574,-2472,-934,1,7,11
1.02E+03,-7974,-2060,3043,521,-2285,-903,1,7,11
1.02E+03,-7584,-2118,3414,525,-2349,-929,1,7,11
1.02E+03,-7733,-2146,3234,553,-2075,-992,1,7,11
1.02E+03,-7705,-2122,3268,581,-1491,-1305,1,7,11
1.01E+03,-7692,-1930,3599,528,-1164,-1296,1,7,11
1.01E+03,-7356,-2014,3614,235,-1141,-958,1,7,11
1.01E+03,-7341,-2322,3614,190,-837,-928,1,7,11
1.01E+03,-7393,-2305,3620,135,-588,-1132,1,7,11
1.01E+03,-7372,-2022,3323,312,-166,-724,1,7,11
1.02E+03,-7322,-2026,3268,-31,-267,-816,1,7,11
1.01E+03,-7549,-2029,3219,-115,-119,-426,1,7,11
1.01E+03,-7548,-2042,3443,76,-2,-584,1,7,11
1.00E+03,-7322,-2308,3431,24,316,-515,1,7,11
9.92E+02,-7402,-2310,3415,-257,333,-222,1,7,11
9.75E+02,-7712,-2327,3408,-267,274,-176,1,7,11
9.58E+02,-7796,-2321,3398,64,-43,-176,1,7,11
9.45E+02,-7581,-2027,3370,-106,115,-156,1,7,11
9.42E+02,-7572,-2005,3356,-57,41,-370,1,7,11
9.51E+02,-7553,-2000,3384,-110,-257,-303,1,7,11
9.68E+02,-7560,-2016,3453,94,-270,-285,1,7,11
9.89E+02,-7788,-2047,3262,86,-336,-288,1,7,11
1.01E+03,-7795,-2047,3292,-115,-376,-362,1,7,11
1.03E+03,-7564,-2031,3317,-24,-170,-210,1,7,11
1.04E+03,-7592,-1971,3296,368,-226,-565,1,7,11
1.05E+03,-7797,-2161,3269,180,-579,-582,1,7,11
1.05E+03,-7726,-2146,3234,205,-615,-592,1,7,11
1.04E+03,-7714,-2167,3224,214,-599,-388,1,7,11
1.02E+03,-7756,-1936,3212,532,-556,-466,1,7,11
9.99E+02,-7766,-1943,3450,618,-561,-775,1,7,11
9.75E+02,-7348,-1940,3432,470,-615,-781,1,7,11
9.52E+02,-7139,-2173,3390,851,-610,-834,1,7,11
9.31E+02,-7289,-2139,3351,712,-529,-671,1,7,11
9.14E+02,-7189,-2146,3352,1059,-221,-732,1,7,11
9.06E+02,-6910,-1925,3381,903,-169,-1081,1,7,11
9.05E+02,-6912,-1958,3423,1021,-174,-917,1,7,11
9.05E+02,-6849,-1975,3205,1157,-513,-980,1,7,11
9.01E+02,-7019,-1998,3254,1540,-587,-1322,1,7,11
8.90E+02,-7010,-2311,3592,1625,-389,-1248,1,7,11
8.75E+02,-6878,-2381,3701,1444,-430,-1463,1,7,11
8.60E+02,-7461,-2216,3844,1830,-632,-1739,1,7,11
8.51E+02,-7634,-2564,3959,1734,-605,-1955,1,7,11
8.50E+02,-7908,-2625,3773,2155,-418,-2025,1,7,11
8.54E+02,-7869,-2642,3775,2040,-812,-1968,1,7,11
8.62E+02,-7582,-2651,3715,2355,-813,-2138,1,7,11
8.71E+02,-7420,-2669,3888,2332,-522,-2148,1,7,11
8.83E+02,-7735,-2669,3547,1984,-94,-2159,1,7,11
8.97E+02,-7588,-2678,3494,2087,547,-2081,1,7,11
9.14E+02,-7951,-2658,3466,1917,829,-1673,1,7,11
9.33E+02,-7990,-2631,3688,1489,695,-1439,1,7,11
9.53E+02,-7646,-2617,3659,1566,665,-1165,1,7,11
9.73E+02,-7801,-2624,3649,1369,849,-959,1,7,11
9.91E+02,-7718,-2670,3703,944,453,-1087,1,7,11
1.01E+03,-7691,-2686,3491,1102,535,-1040,1,7,11
1.01E+03,-7717,-2441,3528,757,361,-1045,1,7,11
1.01E+03,-7765,-2680,3559,681,-47,-1034,1,7,11
1.00E+03,-7807,-2647,3533,869,100,-693,1,7,11
9.79E+02,-7751,-2610,3501,462,46,-780,1,7,11
9.58E+02,-7410,-2599,3515,255,102,-613,1,7,11
9.45E+02,-7318,-2616,3523,307,-37,-234,1,7,11
9.47E+02,-7464,-2628,3519,-102,357,-178,1,7,11
9.61E+02,-7121,-2634,3506,69,527,-190,1,7,11
9.79E+02,-7223,-2652,3640,39,845,-433,1,7,11
9.90E+02,-7217,-2632,3290,63,750,-835,1,7,11
9.86E+02,-7196,-2641,3213,57,1055,-722,1,7,11
9.67E+02,-7211,-2660,3394,14,1083,-1127,1,7,11
9.41E+02,-7209,-2449,3336,0,1063,-996,1,7,11
9.13E+02,-7224,-2521,3033,9,765,-1374,1,7,11
8.89E+02,-7243,-2879,3028,11,681,-1241,1,7,11
8.69E+02,-7283,-2764,3044,-79,651,-1608,1,7,11
8.54E+02,-7111,-2780,3136,381,844,-1645,1,7,11
8.43E+02,-7145,-3190,3175,317,471,-1663,1,7,11
8.34E+02,-7455,-3023,3189,335,619,-1471,1,7,11
8.26E+02,-7482,-3413,2962,312,237,-1493,1,7,11
8.19E+02,-7322,-3230,2953,344,175,-1488,1,7,11
8.11E+02,-7342,-3314,2985,304,349,-1644,1,7,11
7.99E+02,-7366,-3648,2992,297,317,-1538,1,7,11
7.84E+02,-7683,-3678,2988,339,307,-1408,1,7,11
7.66E+02,-7690,-3696,2993,362,304,-963,1,7,11
7.47E+02,-7692,-3695,2986,380,332,-758,1,7,11
7.32E+02,-7399,-3671,2959,145,358,-799,1,7,11
7.20E+02,-7357,-3627,3155,167,163,-610,1,7,11
7.13E+02,-7320,-3298,3103,141,237,-160,1,7,11
7.10E+02,-7523,-3233,3106,308,558,-269,1,7,11
7.13E+02,-7533,-3440,3135,-79,579,70,1,7,11
7.21E+02,-7512,-3380,3134,42,517,-110,1,7,11
7.36E+02,-7472,-3345,3140,-129,169,-61,1,7,11
7.56E+02,-7141,-3345,2960,-565,326,-26,1,7,11
7.82E+02,-7112,-3356,3052,-584,327,-29,1,7,11
8.12E+02,-7136,-3334,3328,-513,312,-37,1,7,11
8.44E+02,-7120,-3055,3345,-202,280,-6,1,7,11
8.73E+02,-7088,-3035,3369,-134,283,262,1,7,11
8.94E+02,-7079,-3024,3347,-309,301,-1,1,7,11
9.04E+02,-7061,-3007,3337,-277,305,-12,1,7,11
9.08E+02,-7063,-2983,3067,0,341,-57,1,7,11
9.10E+02,-7078,-2988,3065,8,368,-126,1,7,11
9.15E+02,-7068,-2992,3340,7,368,32,1,7,11
9.24E+02,-7130,-2988,3062,51,160,-382,1,7,11
9.36E+02,-7461,-2988,3045,15,159,-526,1,7,11
9.48E+02,-7513,-2989,3038,-300,383,-618,1,7,11
9.59E+02,-7514,-2981,3016,-341,358,-404,1,7,11
9.66E+02,-7490,-2998,3000,-329,370,-414,1,7,11
9.69E+02,-7476,-2992,2961,-260,163,-414,1,7,11
9.65E+02,-7486,-2982,3197,43,212,-385,1,7,11
9.54E+02,-7498,-2988,3197,49,224,-582,1,7,11
9.37E+02,-7498,-3018,2961,47,199,-514,1,7,11
9.19E+02,-7494,-3048,2974,52,373,-190,1,7,11
9.03E+02,-7489,-3069,2981,74,302,-173,1,7,11
8.90E+02,-7441,-3058,2969,121,-28,-158,1,7,11
8.78E+02,-7156,-3031,3192,-122,-57,-156,1,7,11
8.60E+02,-7132,-3010,3188,106,-65,-139,1,7,11
8.35E+02,-7121,-2998,3190,78,-56,-369,1,7,11
8.04E+02,-7123,-2992,2946,77,-35,-334,1,7,11
7.75E+02,-7123,-2984,3175,108,276,-288,1,7,11
7.54E+02,-7126,-2984,3144,109,352,21,1,7,11
7.41E+02,-7106,-2998,3111,116,216,59,1,7,11
7.37E+02,-7135,-3018,2795,126,389,60,1,7,11
7.39E+02,-7488,-3018,2710,-115,859,62,1,7,11
7.46E+02,-7323,-3022,2871,-112,1095,37,1,7,11
7.53E+02,-7806,-3045,2557,-107,1372,-269,1,7,11
7.59E+02,-7630,-3034,2476,-58,1241,40,1,7,11
7.63E+02,-7614,-3010,2650,-20,1598,-120,1,7,11
7.66E+02,-7575,-2985,2564,-1,1445,-8,1,7,11
7.66E+02,-7572,-2970,2233,-10,1806,364,1,7,11
7.71E+02,-7737,-2960,2199,-33,1818,540,1,7,11
7.89E+02,-7352,-2954,2200,-48,1796,453,1,7,11
8.25E+02,-7521,-2974,2256,-78,1449,812,1,7,11
8.78E+02,-7428,-3032,2599,-106,1253,873,1,7,11
9.35E+02,-7437,-3401,2436,119,1285,847,1,7,11
9.89E+02,-7450,-3308,2543,112,716,807,1,7,11
1.03E+03,-7152,-3467,2873,-106,634,478,1,7,11
1.05E+03,-7439,-3846,2927,-53,371,591,1,7,11
1.06E+03,-7519,-3912,2933,263,-83,207,1,7,11
1.07E+03,-7353,-3927,2915,282,53,156,1,7,11
1.06E+03,-7410,-3923,2917,-8,16,223,1,7,11
1.05E+03,-7683,-3894,2941,-56,47,611,1,7,11
1.04E+03,-7732,-3548,2741,-5,-76,840,1,7,11
1.03E+03,-7762,-3704,2746,274,-6,1044,1,7,11
1.02E+03,-7751,-3627,2780,-60,262,1296,1,7,11
1.02E+03,-7751,-3298,3074,71,-5,1259,1,7,11
1.02E+03,-7763,-3246,3163,-311,-67,1444,1,7,11
1.03E+03,-7723,-3438,2977,-331,66,1852,1,7,11
1.03E+03,-7358,-3369,2998,-292,-310,1700,1,7,11
1.04E+03,-7306,-3053,3028,10,-355,1694,1,7,11
1.04E+03,-7552,-3015,3344,60,-129,1866,1,7,11
1.03E+03,-7552,-2984,3412,-103,-147,1459,1,7,11
1.01E+03,-7365,-3198,3220,284,-379,1234,1,7,11
9.86E+02,-7412,-3157,3273,195,-133,1012,1,7,11
9.55E+02,-7406,-3107,3296,626,-163,1072,1,7,11
9.28E+02,-7394,-2797,3321,781,-183,870,1,7,11
9.14E+02,-7366,-2734,3609,668,-232,416,1,7,11
9.14E+02,-7312,-2917,3658,1066,-567,242,1,7,11
9.21E+02,-7464,-2831,3687,973,-408,358,1,7,11
9.26E+02,-7130,-2463,3693,1167,-471,-19,1,7,11
9.25E+02,-7043,-2593,3661,1585,-785,-54,1,7,11
9.16E+02,-7209,-2227,3651,1409,-786,-9,1,7,11
9.05E+02,-6855,-2387,3652,1650,-502,359,1,7,11
8.95E+02,-6998,-2031,3666,1558,-465,513,1,7,11
8.89E+02,-6651,-1930,3684,1165,-390,395,1,7,11
8.84E+02,-6629,-2083,3709,990,-540,506,1,7,11
8.77E+02,-6916,-1740,3502,1029,-182,842,1,7,11
8.64E+02,-6818,-1893,3559,816,-336,871,1,7,11
8.48E+02,-7257,-1805,3892,608,-291,645,1,7,11
8.34E+02,-7165,-1461,3713,196,-308,672,1,7,11
8.27E+02,-7301,-1612,3753,340,-372,676,1,7,11
8.28E+02,-7399,-1250,3762,-23,-192,663,1,7,11
8.36E+02,-7782,-1153,3754,94,-237,857,1,7,11
8.46E+02,-7608,-1338,3735,-313,-539,791,1,7,11
8.57E+02,-7668,-1014,3938,-210,-541,428,1,7,11
8.65E+02,-7987,-955,3850,-624,-245,552,1,7,11
8.70E+02,-8011,-1121,3538,-807,-206,196,1,7,11
8.69E+02,-7969,-1126,3525,-964,-180,376,1,7,11
8.64E+02,-7609,-929,3558,-1278,-242,328,1,7,11
8.60E+02,-7737,-1021,3880,-1823,-592,-21,1,7,11
8.61E+02,-7346,-1380,3939,-2067,-463,104,1,7,11
8.70E+02,-7475,-1226,3722,-2004,-840,-309,1,7,11
8.85E+02,-7157,-1575,3745,-2421,-664,-211,1,7,11
9.01E+02,-7093,-1410,3747,-2583,-732,-560,1,7,11
9.15E+02,-7096,-1510,3769,-2521,-735,-609,1,7,11
9.26E+02,-7136,-1885,3823,-2724,-722,-600,1,7,11
9.32E+02,-7504,-1743,4128,-3156,-681,-554,1,7,11
9.35E+02,-7682,-2117,4174,-3043,-644,-220,1,7,11
9.33E+02,-7573,-1977,4204,-3380,-650,-349,1,7,11
9.29E+02,-7627,-2048,4182,-3368,-679,88,1,7,11
9.26E+02,-7623,-2346,4120,-3336,-663,262,1,7,11
9.26E+02,-7632,-2390,3770,-3070,-850,133,1,7,11
9.31E+02,-7632,-2178,3943,-3070,-778,221,1,7,11
9.40E+02,-7598,-2192,3583,-3032,-440,523,1,7,11
9.52E+02,-7798,-2223,3485,-2993,-607,549,1,7,11
9.65E+02,-7716,-2268,3634,-2947,-525,541,1,7,11
9.78E+02,-7356,-2562,3258,-3165,-212,248,1,7,11
9.84E+02,-7490,-2645,3445,-3181,-162,184,1,7,11
9.78E+02,-7436,-2464,3360,-3156,-355,347,1,7,11
9.55E+02,-7154,-2526,3016,-3165,-323,272,1,7,11
9.14E+02,-7144,-2854,2993,-2965,-330,-19,1,7,11
8.65E+02,-7113,-2897,2948,-2969,-130,274,1,7,11
8.16E+02,-7251,-2733,3138,-3330,-543,157,1,7,11
7.76E+02,-7215,-2801,3135,-3425,-639,223,1,7,11
7.46E+02,-7224,-3131,3149,-3230,-461,543,1,7,11
7.27E+02,-7251,-3196,3188,-3249,-794,633,1,7,11
7.17E+02,-7276,-2991,3030,-3209,-856,503,1,7,11
7.16E+02,-7118,-2967,2953,-3138,-488,677,1,7,11
7.20E+02,-7097,-2964,2975,-3190,-859,919,1,7,11
7.29E+02,-7089,-3011,3053,-2959,-650,1327,1,7,11
7.41E+02,-7150,-2998,3358,-3141,-706,1352,1,7,11
7.53E+02,-7487,-2965,3391,-2774,-746,1353,1,7,11
7.63E+02,-7322,-3173,3409,-2921,-766,1349,1,7,11
7.70E+02,-7367,-3123,3390,-2545,-762,1355,1,7,11
7.73E+02,-7401,-2787,3349,-2664,-697,1344,1,7,11
7.71E+02,-7409,-2693,3020,-2255,-841,1326,1,7,11
7.70E+02,-7408,-2850,2947,-2374,-599,1312,1,7,11
7.75E+02,-7386,-2489,3110,-1990,-178,1308,1,7,11
7.90E+02,-7325,-2665,2769,-2075,-278,1290,1,7,11
8.13E+02,-7526,-2610,2712,-1777,52,949,1,7,11
8.39E+02,-7506,-2592,2693,-1707,-51,1038,1,7,11
8.64E+02,-7297,-2583,2707,-1845,-38,797,1,7,11
8.87E+02,-7363,-2598,2744,-1508,124,512,1,7,11
9.06E+02,-7700,-2628,2773,-1426,-309,-51,1,7,11
9.20E+02,-7780,-2654,2793,-1591,-552,-351,1,7,11
9.31E+02,-7803,-2662,2779,-1235,-809,-600,1,7,11
9.37E+02,-7557,-2665,2754,-1176,-759,-796,1,7,11
9.41E+02,-7787,-2439,2729,-1174,-897,-672,1,7,11
9.45E+02,-7753,-2478,2701,-1229,-974,-755,1,7,11
9.47E+02,-7700,-2549,2749,-1657,-1310,-1072,1,7,11
9.49E+02,-7419,-2909,3147,-1525,-1306,-1137,1,7,11
9.50E+02,-7705,-2735,3011,-1511,-1293,-919,1,7,11
9.50E+02,-7700,-2764,3039,-1417,-1322,-1116,1,7,11
9.49E+02,-7324,-2798,3342,-1422,-1342,-762,1,7,11
9.47E+02,-7482,-2810,3329,-1410,-963,-736,1,7,11
9.42E+02,-7435,-2808,3033,-1660,-1035,-747,1,7,11
9.35E+02,-7121,-3085,2999,-1414,-802,-724,1,7,11
9.28E+02,-7100,-3141,2983,-1438,-536,-689,1,7,11
9.23E+02,-7069,-3003,3011,-1439,-282,-669,1,7,11
9.21E+02,-7100,-3400,3029,-1603,-46,-704,1,7,11
9.24E+02,-7121,-3266,2997,-1401,131,-751,1,7,11
9.27E+02,-7154,-3627,2973,-1143,555,-1072,1,7,11
9.28E+02,-7490,-3470,3122,-870,466,-1141,1,7,11
9.23E+02,-7528,-3523,2798,-630,858,-911,1,7,11
9.14E+02,-7548,-3564,2722,-154,721,-1133,1,7,11
9.08E+02,-7539,-3847,2903,-121,1107,-1064,1,7,11
9.12E+02,-7533,-3856,2832,286,944,-725,1,7,11
9.29E+02,-7533,-3860,2529,343,1022,-888,1,7,11
9.54E+02,-7511,-3866,2482,208,1320,-780,1,7,11
9.79E+02,-7481,-3859,2683,520,1327,-421,1,7,11
9.97E+02,-7168,-3584,2633,545,1314,-582,1,7,11
1.00E+03,-7137,-3555,2600,554,1323,-524,1,7,11
9.94E+02,-7165,-3510,2567,517,1326,-204,1,7,11
9.80E+02,-7136,-3488,2568,188,1016,-338,1,7,11
9.63E+02,-7133,-3693,2303,136,985,36,1,7,11
9.46E+02,-7055,-3683,2300,345,935,-73,1,7,11
9.30E+02,-7056,-3688,2571,323,963,278,1,7,11
9.15E+02,-7294,-3669,2586,364,964,362,1,7,11
9.00E+02,-7281,-3638,2575,178,985,171,1,7,11
8.87E+02,-7291,-3595,2280,245,1020,219,1,7,11
8.74E+02,-7069,-3298,2248,555,1334,237,1,7,11
8.64E+02,-7165,-3279,2217,596,1167,210,1,7,11
8.55E+02,-7301,-3271,2191,622,1244,155,1,7,11
8.50E+02,-7701,-3257,2408,638,1559,334,1,7,11
8.50E+02,-7774,-3229,2349,390,1561,279,1,7,11
8.56E+02,-7724,-3440,2316,395,1543,-1,1,7,11
8.68E+02,-7773,-3426,2002,620,1637,-75,1,7,11
8.87E+02,-7623,-3213,1996,582,1465,124,1,7,11
9.14E+02,-7616,-3216,1992,604,1489,125,1,7,11
9.49E+02,-7597,-3222,2004,632,1512,-127,1,7,11
9.86E+02,-7568,-3222,2311,388,1500,-123,1,7,11
1.02E+03,-7808,-3202,2336,426,1619,-109,1,7,11
1.04E+03,-7808,-3450,2382,472,1539,-71,1,7,11
1.04E+03,-7576,-3443,2180,794,1337,-29,1,7,11
1.03E+03,-7631,-3437,2240,883,950,278,1,7,11
1.01E+03,-7636,-3412,2281,749,604,360,1,7,11
9.89E+02,-7598,-3366,2282,945,267,192,1,7,11
9.75E+02,-7562,-3029,2265,1295,-276,251,1,7,11
9.70E+02,-7777,-2950,2564,1304,-526,558,1,7,11
9.73E+02,-7739,-3139,2625,1285,-464,587,1,7,11
9.85E+02,-7727,-2800,2438,999,-876,607,1,7,11
1.01E+03,-7726,-2725,2519,961,-729,634,1,7,11
1.03E+03,-7742,-2903,2849,927,-1058,425,1,7,11
1.06E+03,-7734,-2848,2928,1138,-1102,499,1,7,11
1.08E+03,-7697,-2532,2770,1105,-1101,835,1,7,11
1.10E+03,-7416,-2455,3092,1110,-1033,648,1,7,11
1.11E+03,-7359,-2648,2944,915,-663,712,1,7,11
1.10E+03,-7358,-2292,3195,1307,-504,1026,1,7,11
1.09E+03,-7325,-2228,2988,1303,-426,1079,1,7,11
1.08E+03,-7546,-2425,3054,1287,-386,1055,1,7,11
1.06E+03,-7533,-2370,3344,1010,-386,726,1,7,11
1.05E+03,-7512,-2317,3389,967,-411,882,1,7,11
1.03E+03,-7514,-2024,3438,925,-422,489,1,7,11
1.03E+03,-7521,-1984,3222,902,-441,598,1,7,11
1.03E+03,-7529,-1940,3243,1147,-460,193,1,7,11
1.04E+03,-7524,-2150,3261,1127,-471,307,1,7,11
1.04E+03,-7526,-2114,3262,1092,-461,-88,1,7,11
1.05E+03,-7535,-2083,3272,1040,-431,40,1,7,11
1.05E+03,-7542,-2054,3282,697,-391,-327,1,7,11
1.05E+03,-7299,-1791,3302,848,-606,-159,1,7,11
1.04E+03,-7314,-2054,3311,482,-575,-226,1,7,11
1.03E+03,-7306,-2071,3323,611,-553,-529,1,7,11
1.02E+03,-7546,-2090,3326,222,-529,-570,1,7,11
1.01E+03,-7531,-2109,3588,334,-247,-608,1,7,11
9.98E+02,-7543,-2135,3601,-83,-223,-385,1,7,11
9.90E+02,-7539,-2176,3604,19,-229,-402,1,7,11
9.82E+02,-7537,-1953,3602,-380,-237,-414,1,7,11
9.76E+02,-7538,-2034,3604,-537,-250,-420,1,7,11
9.71E+02,-7535,-2319,3612,-427,-526,-421,1,7,11
9.67E+02,-7540,-2366,3630,-814,-552,-421,1,7,11
9.66E+02,-7303,-2409,3672,-681,-589,-406,1,7,11
9.65E+02,-7344,-2208,3664,-747,-603,-611,1,7,11
9.64E+02,-7346,-2232,3676,-1047,-621,-256,1,7,11
9.60E+02,-7344,-2292,3665,-1107,-390,-381,1,7,11
9.53E+02,-7333,-2601,3635,-918,-430,-273,1,7,11
9.44E+02,-7304,-2662,3593,-1002,-468,67,1,7,11
9.35E+02,-7522,-2676,3291,-1371,-484,121,1,7,11
9.27E+02,-7482,-2441,3291,-1269,-488,-73,1,7,11
9.21E+02,-7465,-2475,3312,-1449,-434,-87,1,7,11
9.19E+02,-7484,-2502,3316,-1478,-626,116,1,7,11
9.20E+02,-7511,-2524,3297,-1441,-573,70,1,7,11
9.26E+02,-7529,-2529,3240,-1627,-524,46,1,7,11
9.35E+02,-7528,-2530,3435,-1563,-214,32,1,7,11
9.44E+02,-7519,-2536,3359,-1256,-165,30,1,7,11
9.51E+02,-7502,-2536,3023,-1227,-368,33,1,7,11
9.53E+02,-7525,-2541,2968,-1239,-305,32,1,7,11
9.51E+02,-7302,-2553,2945,-1540,-275,43,1,7,11
9.43E+02,-7339,-2832,3192,-1588,-285,61,1,7,11
9.30E+02,-7377,-2855,3182,-1632,-341,86,1,7,11
9.14E+02,-7371,-2875,3166,-1663,-175,123,1,7,11
8.99E+02,-7372,-2894,3143,-1452,-248,-113,1,7,11
8.91E+02,-7380,-2917,3133,-1518,-577,-92,1,7,11
8.93E+02,-7380,-2941,3131,-1833,-387,-62,1,7,11
9.05E+02,-7385,-2712,3141,-1893,-448,-34,1,7,11
9.22E+02,-7382,-2745,3162,-1682,-500,257,1,7,11
9.39E+02,-7358,-2786,3163,-1705,-799,285,1,7,11
9.52E+02,-7352,-3089,3173,-1715,-803,301,1,7,11
9.59E+02,-7366,-3143,3195,-1725,-789,305,1,7,11
9.62E+02,-7379,-3182,2976,-1711,-771,319,1,7,11
9.63E+02,-7396,-2986,2997,-1673,-492,343,1,7,11
9.63E+02,-7395,-3011,2993,-1873,-467,382,1,7,11
9.60E+02,-7396,-3025,3005,-1529,-390,187,1,7,11
9.53E+02,-7420,-3014,3002,-1448,-584,235,1,7,11
9.42E+02,-7420,-3006,2997,-1638,-544,561,1,7,11
9.26E+02,-7693,-2974,3005,-1604,-251,619,1,7,11
9.12E+02,-7695,-3185,3028,-1591,-517,434,1,7,11
9.05E+02,-7416,-3130,3054,-1615,-572,773,1,7,11
9.09E+02,-7386,-3085,3344,-1659,-393,834,1,7,11
9.23E+02,-7366,-2787,3369,-1434,-479,870,1,7,11
9.42E+02,-7337,-2753,3398,-1463,-812,650,1,7,11
9.57E+02,-7537,-2739,3450,-1491,-888,681,1,7,11
9.65E+02,-7501,-2723,3227,-1514,-692,698,1,7,11
9.62E+02,-7473,-2716,3268,-1863,-744,685,1,7,11
9.50E+02,-7433,-2704,3297,-1903,-755,667,1,7,11
9.30E+02,-7140,-2922,3292,-1899,-693,892,1,7,11
9.02E+02,-7121,-2893,3308,-1917,-842,859,1,7,11
8.72E+02,-7071,-2900,3606,-1844,-576,471,1,7,11
8.44E+02,-7094,-2896,3616,-1492,-166,619,1,7,11
8.21E+02,-7130,-2894,3632,-1621,-268,250,1,7,11
8.05E+02,-7162,-2910,3619,-1201,-128,154,1,7,11
7.92E+02,-7153,-2938,3316,-1019,257,340,1,7,11
7.80E+02,-7137,-2705,3273,-1094,157,258,1,7,11
7.68E+02,-7432,-2718,3203,-649,582,-101,1,7,11
7.57E+02,-7490,-2721,3399,-495,471,78,1,7,11
7.45E+02,-7535,-2747,3329,-621,826,41,1,7,11
7.33E+02,-7539,-2779,3025,-514,892,17,1,7,11
7.21E+02,-7308,-2799,2973,-142,704,-273,1,7,11
7.10E+02,-7327,-3081,3181,-295,752,-303,1,7,11
7.00E+02,-7345,-3088,3117,80,1042,-318,1,7,11
6.91E+02,-7372,-2803,2766,-87,1071,-313,1,7,11
6.82E+02,-7402,-2780,2696,-51,1102,-284,1,7,11
6.75E+02,-7683,-2757,2913,-57,1111,26,1,7,11
6.69E+02,-7714,-2744,2864,-53,1110,79,1,7,11
6.65E+02,-7767,-2725,2558,-49,1085,-118,1,7,11
6.62E+02,-7776,-2723,2490,-70,1029,-48,1,7,11
6.61E+02,-7757,-2716,2687,-99,720,-4,1,7,11
6.62E+02,-7765,-2707,2644,88,683,257,1,7,11
6.64E+02,-7786,-2696,2629,9,874,-3,1,7,11
6.70E+02,-7806,-2942,2610,-304,782,263,1,7,11
6.77E+02,-7786,-2939,2587,-351,421,296,1,7,11
6.88E+02,-7775,-2930,2565,-134,600,335,1,7,11
7.00E+02,-7779,-2919,2561,-149,550,363,1,7,11
7.15E+02,-7783,-2913,2577,-155,243,136,1,7,11
7.32E+02,-7769,-2914,2598,-381,193,157,1,7,11
7.51E+02,-7756,-2911,2605,-326,138,167,1,7,11
7.71E+02,-7748,-2893,2623,-267,339,170,1,7,11
7.91E+02,-7739,-2882,2656,42,279,172,1,7,11
8.11E+02,-7570,-2845,2452,308,97,381,1,7,11
8.30E+02,-7574,-2843,2478,317,78,344,1,7,11
8.50E+02,-7569,-2847,2518,319,49,304,1,7,11
8.73E+02,-7569,-2837,2546,341,19,-3,1,7,11
8.97E+02,-7554,-2550,2816,130,-269,-50,1,7,11
9.20E+02,-7577,-2463,2556,180,-262,-84,1,7,11
9.38E+02,-7572,-2671,2823,180,-260,-51,1,7,11
9.46E+02,-7802,-2630,2858,154,-268,256,1,7,11
9.43E+02,-7780,-2601,2910,141,-271,296,1,7,11
9.33E+02,-7744,-2572,2704,151,-291,336,1,7,11
9.21E+02,-7718,-2300,2749,153,-288,351,1,7,11
9.12E+02,-7689,-2564,2808,159,-276,354,1,7,11
9.08E+02,-7386,-2302,3109,231,22,334,1,7,11
9.06E+02,-7374,-2283,3146,568,105,290,1,7,11
9.06E+02,-7366,-2278,3180,395,-56,-8,1,7,11
9.05E+02,-7376,-2236,3184,483,330,-36,1,7,11
9.04E+02,-7382,-2199,2954,475,178,-41,1,7,11
9.01E+02,-7421,-2384,2951,446,523,-42,1,7,11
8.95E+02,-7701,-2318,3191,586,562,-5,1,7,11
8.86E+02,-7681,-2016,3173,158,594,319,1,7,11
8.77E+02,-7395,-1966,3124,-49,423,373,1,7,11
8.70E+02,-7404,-1935,3106,-309,797,145,1,7,11
8.66E+02,-7421,-1966,3138,-591,673,168,1,7,11
8.64E+02,-7701,-1996,3167,-820,1046,198,1,7,11
8.61E+02,-7730,-2015,3176,-703,1139,214,1,7,11
8.56E+02,-7742,-2324,3167,-1034,937,201,1,7,11
8.50E+02,-7767,-2356,3153,-752,1006,191,1,7,11
8.47E+02,-7799,-2404,3142,-669,1301,195,1,7,11
8.55E+02,-7572,-2428,3101,-855,1311,221,1,7,11
8.77E+02,-7598,-2192,2809,-769,1319,254,1,7,11
9.06E+02,-7637,-2430,2770,-445,1303,553,1,7,11
9.35E+02,-7661,-2409,2731,-406,996,623,1,7,11
9.56E+02,-7656,-2380,2932,-412,912,454,1,7,11
9.63E+02,-7635,-2381,2921,-469,1069,778,1,7,11
9.61E+02,-7649,-2326,2855,-474,735,809,1,7,11
9.56E+02,-7604,-2307,2844,-778,668,862,1,7,11
9.52E+02,-7569,-2030,2831,-772,643,861,1,7,11
9.50E+02,-7577,-1989,2558,-465,643,835,1,7,11
9.45E+02,-7585,-1943,2528,-388,646,822,1,7,11
9.29E+02,-7614,-2129,2464,-574,681,814,1,7,11
8.99E+02,-7608,-2084,2662,-536,739,835,1,7,11
8.60E+02,-7629,-1781,2607,-254,1100,843,1,7,11
8.22E+02,-7657,-1756,2572,-248,934,856,1,7,11
7.97E+02,-7665,-1725,2232,-219,1013,862,1,7,11
7.88E+02,-7661,-1693,2425,-210,1348,851,1,7,11
7.87E+02,-7669,-1919,2353,-190,1174,826,1,7,11
7.88E+02,-7964,-1879,2000,-160,1245,808,1,7,11
7.86E+02,-7989,-1863,2168,-173,1547,820,1,7,11
7.82E+02,-8015,-1853,2113,-198,1584,819,1,7,11
7.77E+02,-7996,-1841,1763,-213,1587,810,1,7,11
7.74E+02,-7976,-1837,1681,-526,1604,504,1,7,11
7.75E+02,-8031,-1820,1853,-589,1645,423,1,7,11
7.84E+02,-7809,-1795,1530,-411,1647,390,1,7,11
8.02E+02,-7824,-1533,1454,-478,1660,635,1,7,11
8.23E+02,-7828,-1530,1640,-818,1420,634,1,7,11
8.36E+02,-7842,-1794,1553,-654,1435,639,1,7,11
8.35E+02,-7854,-1794,1264,-721,1448,630,1,7,11
8.24E+02,-7882,-1526,1172,-1034,1455,620,1,7,11
8.11E+02,-7914,-1500,1322,-1103,1481,629,1,7,11
8.06E+02,-7935,-1476,969,-923,1525,408,1,7,11
8.13E+02,-8208,-1454,1100,-1016,1837,468,1,7,11
8.33E+02,-8204,-1435,1070,-1374,1898,799,1,7,11
8.66E+02,-7926,-1434,1046,-1216,1691,860,1,7,11
9.09E+02,-8247,-1629,686,-1172,1769,849,1,7,11
9.56E+02,-8274,-1563,839,-1376,2088,884,1,7,11
9.97E+02,-8257,-1274,477,-1369,2128,674,1,7,11
1.02E+03,-7934,-1218,608,-1369,1934,745,1,7,11
1.03E+03,-7905,-1173,246,-1402,2033,1053,1,7,11
1.02E+03,-7906,-1375,133,-1204,2420,1065,1,7,11
1.00E+03,-7920,-1332,279,-1267,2290,1063,1,7,11
9.86E+02,-7897,-1318,-62,-1618,2624,1104,1,7,11
9.79E+02,-7888,-994,58,-1662,2459,1112,1,7,11
9.80E+02,-7832,-954,-309,-1521,2503,896,1,7,11
9.86E+02,-7820,-953,-367,-1841,2542,1145,1,7,11
9.94E+02,-7893,-948,-159,-1712,2879,1092,1,7,11
1.00E+03,-8217,-925,-236,-2054,2851,1066,1,7,11
1.01E+03,-8249,-903,-553,-2135,2549,1083,1,7,11
1.02E+03,-8269,-1103,-398,-2149,2522,1137,1,7,11
1.02E+03,-8281,-1050,-488,-1960,2546,980,1,7,11
1.03E+03,-8302,-763,-775,-2343,2860,1367,1,7,11
1.03E+03,-8288,-736,-770,-2204,2937,1264,1,7,11
1.03E+03,-8301,-722,-493,-2261,2765,1640,1,7,11
1.02E+03,-8299,-703,-506,-2241,2807,1503,1,7,11
1.01E+03,-8276,-658,-836,-2177,2803,1874,1,7,11
9.88E+02,-8214,-828,-710,-2332,2776,1721,1,7,11
9.72E+02,-7876,-456,-1149,-1923,2786,2056,1,7,11
9.62E+02,-8055,-577,-1352,-1772,3102,2114,1,7,11
9.62E+02,-7984,-202,-1264,-1917,3184,2162,1,7,11
9.67E+02,-7670,-346,-1426,-1841,3019,1944,1,7,11
9.72E+02,-7612,20,-1822,-1516,3382,1966,1,7,11
9.69E+02,-7598,124,-1682,-1452,3223,1958,1,7,11
9.57E+02,-7563,-33,-1819,-1656,3283,1941,1,7,11
9.38E+02,-7772,302,-2109,-1633,3294,1921,1,7,11
9.17E+02,-7680,359,-2150,-1565,3270,2117,1,7,11
8.98E+02,-7378,169,-1944,-1207,3203,1689,1,7,11
8.84E+02,-7367,232,-1985,-1347,3434,1883,1,7,11
8.72E+02,-7368,548,-2027,-951,3371,1499,1,7,11
8.62E+02,-7353,602,-2355,-1070,3192,1578,1,7,11
8.53E+02,-7345,385,-2180,-663,3123,1261,1,7,11
8.46E+02,-7533,445,-2300,-783,2708,1396,1,7,11
8.39E+02,-7521,781,-2688,-393,2821,1321,1,7,11
8.35E+02,-7437,850,-2830,-580,2452,1329,1,7,11
8.33E+02,-7126,661,-2693,-542,2660,1341,1,7,11
8.35E+02,-7085,702,-2770,-560,2604,1378,1,7,11
8.42E+02,-7291,748,-3101,-576,2289,1155,1,7,11
8.53E+02,-7259,1047,-3182,-587,2230,1187,1,7,11
8.64E+02,-7212,1080,-2999,-611,2384,1226,1,7,11
8.70E+02,-6880,1114,-3072,-606,2013,1236,1,7,11
8.66E+02,-6806,1148,-3374,-578,2147,1220,1,7,11
8.57E+02,-7028,934,-3432,-253,1766,1187,1,7,11
8.50E+02,-7014,978,-3210,-138,1821,1387,1,7,11
8.50E+02,-6968,1007,-3262,-302,1419,1369,1,7,11
8.61E+02,-6940,1312,-3328,58,1547,1334,1,7,11
8.80E+02,-6643,1371,-3668,-111,1165,1313,1,7,11
9.05E+02,-6594,1172,-3495,-61,1324,1297,1,7,11
9.33E+02,-6579,1227,-3546,-58,996,1021,1,7,11
9.62E+02,-6531,1256,-3567,-73,905,1023,1,7,11
9.88E+02,-6727,1543,-3850,-77,1086,1006,1,7,11
1.01E+03,-6694,1583,-3876,-75,1038,960,1,7,11
1.02E+03,-6683,1626,-3890,-86,743,901,1,7,11
1.03E+03,-6663,1633,-3877,-118,687,1098,1,7,11
1.03E+03,-6392,1662,-3888,-118,885,764,1,7,11
1.02E+03,-6396,1437,-3899,125,838,705,1,7,11
1.01E+03,-6400,1456,-3905,109,810,663,1,7,11
9.95E+02,-6658,1464,-3877,100,782,644,1,7,11
9.77E+02,-6386,1461,-3582,120,493,889,1,7,11
9.58E+02,-6366,1470,-3581,-88,456,881,1,7,11
9.42E+02,-6318,1491,-3845,-39,424,874,1,7,11
9.26E+02,-6280,1503,-3868,269,422,858,1,7,11
9.12E+02,-6493,1518,-3908,314,424,836,1,7,11
8.98E+02,-6486,1802,-3713,345,430,783,1,7,11
8.85E+02,-6481,1832,-3789,341,404,465,1,7,11
8.73E+02,-6458,1848,-3837,299,605,392,1,7,11
8.65E+02,-6445,1865,-4142,-15,555,549,1,7,11
8.61E+02,-6450,1878,-4174,-119,515,204,1,7,11
8.63E+02,-6441,1879,-4165,17,214,129,1,7,11
8.67E+02,-6417,1874,-4151,-346,161,331,1,7,11
8.75E+02,-6118,1847,-4140,-165,382,288,1,7,11
8.85E+02,-6124,1847,-4146,-201,129,-19,1,7,11
8.97E+02,-6403,1845,-4135,-240,128,-52,1,7,11
9.10E+02,-6424,1836,-4123,-521,364,-77,1,7,11
9.24E+02,-6432,1840,-4115,-523,324,-98,1,7,11
9.39E+02,-6434,1830,-3840,-256,282,-118,1,7,11
9.53E+02,-6426,1822,-3812,-238,-11,124,1,7,11
9.68E+02,-6438,1827,-3798,-207,-40,95,1,7,11
9.81E+02,-6447,1825,-3791,-167,-66,88,1,7,11
9.92E+02,-6434,1821,-3792,-384,-106,85,1,7,11
1.00E+03,-6426,1833,-3801,-336,-103,76,1,7,11
1.01E+03,-6434,1841,-3807,-283,-83,73,1,7,11
1.01E+03,-6425,1845,-3823,-271,-70,86,1,7,11
1.01E+03,-6422,1857,-4112,-265,-47,85,1,7,11
1.00E+03,-6438,1864,-4134,-278,-33,86,1,7,11
9.92E+02,-6432,1857,-4130,-300,-40,89,1,7,11
9.77E+02,-6414,1856,-4125,-318,-54,86,1,7,11
9.57E+02,-6418,1866,-4139,-323,-58,75,1,7,11
9.36E+02,-6419,1862,-4131,-348,-70,83,1,7,11
9.17E+02,-6412,1869,-4124,-355,-76,84,1,7,11
9.02E+02,-6403,1875,-4122,-359,-86,82,1,7,11
8.94E+02,-6421,1887,-4118,-357,-71,81,1,7,11
8.90E+02,-6429,1877,-4098,-355,-58,88,1,7,11
8.86E+02,-6439,1881,-3828,-330,-46,89,1,7,11
8.80E+02,-6404,1874,-3817,-311,-53,106,1,7,11
8.72E+02,-6130,1881,-4097,-275,-32,100,1,7,11
8.67E+02,-6125,1892,-4117,4,-10,97,1,7,11
8.66E+02,-6134,1899,-4130,21,265,90,1,7,11
8.71E+02,-6142,1900,-4156,31,272,89,1,7,11
8.82E+02,-6122,1912,-4201,13,268,97,1,7,11
8.98E+02,-6133,1913,-4217,1,272,93,1,7,11
9.15E+02,-6129,1919,-4212,-284,259,95,1,7,11
9.34E+02,-6124,1915,-4199,-325,-13,98,1,7,11
9.50E+02,-6132,1672,-4211,-346,-21,96,1,7,11
9.62E+02,-6404,1682,-4193,-364,-37,99,1,7,11
9.68E+02,-6131,1681,-4186,-372,-74,110,1,7,11
9.67E+02,-6104,1680,-4174,-366,-93,110,1,7,11
9.64E+02,-6112,1677,-4160,-356,-85,95,1,7,11
9.60E+02,-6126,1680,-4135,-337,-79,86,1,7,11
9.57E+02,-6122,1678,-4111,-306,-91,92,1,7,11
9.56E+02,-6108,1682,-4105,-260,-88,92,1,7,11
9.55E+02,-6093,1676,-4104,38,-79,98,1,7,11
9.55E+02,-6095,1675,-3840,80,-50,96,1,7,11
9.54E+02,-6095,1678,-4102,127,-34,99,1,7,11
9.52E+02,-6092,1677,-4118,-81,-19,100,1,7,11
9.46E+02,-6100,1673,-4145,-41,-5,91,1,7,11
9.35E+02,-6084,1918,-4166,-24,-2,83,1,7,11
9.19E+02,-6102,1918,-4203,-12,-4,64,1,7,11
9.01E+02,-6113,1918,-3972,-34,-15,59,1,7,11
8.82E+02,-6113,1913,-3974,-64,-26,58,1,7,11
8.64E+02,-6113,1908,-3991,-98,-37,57,1,7,11
8.49E+02,-6114,1909,-3984,118,-44,59,1,7,11
8.37E+02,-6111,1893,-4221,77,-56,67,1,7,11
8.28E+02,-6107,1877,-4199,58,-66,68,1,7,11
8.23E+02,-6107,1874,-4205,53,-72,59,1,7,11
8.21E+02,-6132,1882,-4196,69,-58,53,1,7,11
8.23E+02,-6125,1876,-4171,68,-63,62,1,7,11
8.29E+02,-6110,1873,-4158,89,-67,73,1,7,11
8.37E+02,-6108,1877,-4172,112,-56,83,1,7,11
8.47E+02,-6112,1875,-4183,116,-36,99,1,7,11
8.60E+02,-6126,1882,-4210,101,-14,95,1,7,11
8.74E+02,-6407,1895,-4221,37,-5,90,1,7,11
8.90E+02,-6407,1891,-4218,-299,-22,95,1,7,11
9.08E+02,-6134,1890,-4198,-370,-23,99,1,7,11
9.25E+02,-6095,1881,-4169,-160,-18,102,1,7,11
9.41E+02,-6055,1878,-4159,-164,268,104,1,7,11
9.54E+02,-6050,1883,-4164,-149,326,109,1,7,11
9.62E+02,-6060,1889,-4170,-374,372,125,1,7,11
9.67E+02,-6054,1892,-4190,-319,379,-109,1,7,11
9.70E+02,-6029,1896,-3973,-269,343,-106,1,7,11
9.73E+02,-6017,1666,-4032,25,297,-127,1,7,11
9.77E+02,-6022,1685,-4071,24,-19,109,1,7,11
9.80E+02,-6018,1692,-4069,10,-112,95,1,7,11
9.82E+02,-6269,1703,-4092,9,46,67,1,7,11
9.81E+02,-6256,1698,-4057,-270,-298,48,1,7,11
9.77E+02,-6042,1704,-4023,-284,-344,6,1,7,11
9.71E+02,-6071,1710,-3994,-301,-133,-290,1,7,11
9.63E+02,-6075,1709,-4224,-314,-183,-306,1,7,11
9.55E+02,-6071,1706,-4197,-338,-215,-326,1,7,11
9.47E+02,-6078,1708,-4190,-348,-214,-349,1,7,11
9.42E+02,-6088,1712,-4195,-367,-199,-367,1,7,11
9.42E+02,-6096,1719,-4192,-152,-179,-375,1,7,11
9.49E+02,-6106,1716,-4183,-193,-164,-131,1,7,11
9.61E+02,-6127,1716,-4162,-234,-161,-142,1,7,11
9.75E+02,-6137,1713,-4139,-520,-170,-153,1,7,11
9.88E+02,-6139,1701,-4131,-543,-183,-166,1,7,11
9.97E+02,-6403,1688,-4126,-556,-197,-184,1,7,11
1.00E+03,-6407,1678,-4112,-555,-229,-207,1,7,11
1.00E+03,-6406,1670,-4121,-550,-526,-223,1,7,11
1.00E+03,-6407,1674,-4132,-537,-559,-249,1,7,11
1.00E+03,-6410,1671,-4121,-537,-585,-524,1,7,11
9.99E+02,-6420,1918,-4111,-531,-621,-550,1,7,11
9.93E+02,-6440,1918,-4117,-530,-404,-578,1,7,11
9.85E+02,-6455,1914,-4114,-539,-446,-600,1,7,11
9.73E+02,-6490,1917,-4112,-554,-498,-635,1,7,11
9.59E+02,-6281,1903,-3824,-564,-841,-424,1,7,11
9.47E+02,-6310,1886,-3791,-555,-720,-467,1,7,11
9.40E+02,-6330,1874,-3771,-529,-1111,-496,1,7,11
9.40E+02,-6337,1851,-3713,-221,-992,-782,1,7,11
9.44E+02,-6337,1814,-3915,-142,-1389,-836,1,7,11
9.49E+02,-6349,1527,-3578,-302,-1259,-670,1,7,11
9.51E+02,-6375,1492,-3486,78,-1631,-1041,1,7,11
9.49E+02,-6387,1440,-3651,-34,-1496,-933,1,7,11
9.42E+02,-6706,1426,-3585,186,-1857,-1381,1,7,11
9.30E+02,-6780,1419,-3293,630,-1722,-1544,1,7,11
9.14E+02,-6589,1638,-3234,499,-2118,-1658,1,7,11
8.95E+02,-6645,1590,-3445,858,-2009,-1497,1,7,11
8.77E+02,-6953,1246,-3064,678,-2402,-1835,1,7,11
8.65E+02,-7022,1206,-3005,767,-2271,-1682,1,7,11
8.61E+02,-6862,1380,-3163,1151,-2681,-2050,1,7,11
8.62E+02,-7189,1297,-3077,1011,-2879,-2150,1,7,11
8.65E+02,-7230,951,-2897,1376,-3080,-1996,1,7,11
8.68E+02,-7277,1096,-2507,1538,-2984,-2380,1,7,11
8.69E+02,-7097,741,-2598,1447,-3365,-2260,1,7,11
8.68E+02,-7340,669,-2199,1675,-3220,-2434,1,7,11
8.68E+02,-7733,802,-2022,2158,-3654,-2851,1,7,11
8.66E+02,-7574,421,-2117,2409,-3908,-2825,1,7,11
8.63E+02,-7557,235,-1714,2552,-4387,-2960,1,7,11
8.56E+02,-7786,321,-1917,3149,-4645,-3420,1,7,11
8.44E+02,-7673,-73,-1865,3215,-4561,-3659,1,7,11
8.32E+02,-8001,6,-1524,3682,-4778,-3487,1,7,11
8.24E+02,-7994,-227,-1657,3582,-5210,-3524,1,7,11
8.28E+02,-8015,-461,-1541,3745,-5048,-3564,1,7,11
8.44E+02,-7572,-694,-1207,4127,-5393,-3507,1,7,11
8.68E+02,-7744,-1127,-1389,4018,-5237,-3563,1,7,11
8.96E+02,-7616,-973,-1318,4394,-4933,-3885,1,7,11
9.22E+02,-8015,-1326,-948,4395,-4689,-3584,1,7,11
9.43E+02,-7811,-1192,-1077,4364,-4264,-3480,1,7,11
9.55E+02,-7814,-1580,-701,4049,-4078,-3629,1,7,11
9.54E+02,-8047,-1464,-827,4210,-4135,-3304,1,7,11
9.40E+02,-8033,-1854,-416,4109,-3926,-3296,1,7,11
9.19E+02,-8064,-1699,-524,3753,-3457,-3319,1,7,11
9.03E+02,-7873,-1760,-148,3885,-3272,-3322,1,7,11
9.01E+02,-8218,-2062,-273,3684,-3385,-3236,1,7,11
9.13E+02,-8249,-2136,-115,3455,-3040,-3037,1,7,11
9.31E+02,-8300,-2175,272,2949,-2950,-2799,1,7,11
9.43E+02,-8312,-1986,175,2907,-3168,-2497,1,7,11
9.42E+02,-8274,-2327,605,2612,-3135,-2432,1,7,11
9.25E+02,-8204,-2393,488,2377,-3083,-2100,1,7,11
9.01E+02,-7812,-2231,870,2117,-2794,-1794,1,7,11
8.75E+02,-7660,-2584,729,1875,-2728,-1600,1,7,11
8.52E+02,-7607,-2674,1129,1434,-2850,-1277,1,7,11
8.35E+02,-7601,-2471,982,1547,-2480,-1227,1,7,11
8.25E+02,-7583,-2535,1364,1385,-2656,-1169,1,7,11
8.23E+02,-7560,-2909,1554,974,-2582,-1299,1,7,11
8.25E+02,-7805,-2731,1437,1097,-2246,-960,1,7,11
8.25E+02,-7798,-2778,1807,712,-2197,-1116,1,7,11
8.17E+02,-7570,-2808,1676,885,-2403,-750,1,7,11
8.02E+02,-7762,-3143,2133,409,-2372,-773,1,7,11
7.85E+02,-7740,-3156,1937,597,-2355,-453,1,7,11
7.72E+02,-7723,-3184,2351,213,-2312,-579,1,7,11
7.65E+02,-7728,-3187,2235,157,-2015,-193,1,7,11
7.61E+02,-7748,-3154,2575,139,-1993,-299,1,7,11
7.60E+02,-7711,-3116,2634,349,-1981,-122,1,7,11
7.58E+02,-7398,-3082,2456,-2,-1935,291,1,7,11
7.57E+02,-7394,-2775,2543,-106,-2104,138,1,7,11
7.56E+02,-7403,-2728,2890,0,-2055,225,1,7,11
7.56E+02,-7337,-2943,2715,-163,-1774,560,1,7,11
7.56E+02,-7552,-2904,3074,-552,-1730,552,1,7,11
7.55E+02,-7496,-2885,3186,-405,-1735,249,1,7,11
7.56E+02,-7425,-2874,3017,-474,-1751,152,1,7,11
7.56E+02,-7108,-2863,3329,-511,-1770,-6,1,7,11
7.58E+02,-7097,-2845,3357,-819,-1762,72,1,7,11
7.60E+02,-7106,-2846,3401,-645,-1730,-321,1,7,11
7.65E+02,-7121,-2867,3210,-747,-1919,-136,1,7,11
7.75E+02,-7120,-2903,3283,-1094,-1798,-160,1,7,11
7.88E+02,-7149,-2927,3320,-1146,-1608,-165,1,7,11
8.03E+02,-7164,-2931,3591,-957,-1403,-136,1,7,11
8.16E+02,-7441,-2700,3620,-1022,-937,-358,1,7,11
8.26E+02,-7457,-2704,3611,-1323,-737,-318,1,7,11
8.35E+02,-7468,-2730,3618,-1383,-812,-265,1,7,11
8.43E+02,-7464,-2723,3600,-1179,-395,48,1,7,11
8.53E+02,-7451,-2734,3606,-1218,-240,87,1,7,11
8.64E+02,-7432,-2774,3610,-1208,-349,94,1,7,11
8.77E+02,-7449,-2785,3585,-1359,54,79,1,7,11
8.92E+02,-7452,-2803,3595,-990,-98,68,1,7,11
9.10E+02,-7468,-3096,3621,-1127,-7,61,1,7,11
9.27E+02,-7442,-3117,3621,-675,329,77,1,7,11
9.44E+02,-7435,-3122,3601,-453,374,46,1,7,11
9.59E+02,-7440,-3132,3327,-253,149,-261,1,7,11
9.72E+02,-7168,-3142,3321,-282,159,-316,1,7,11
9.82E+02,-7428,-3149,3321,-128,176,-134,1,7,11
9.90E+02,-7443,-3150,3325,308,191,-213,1,7,11
9.96E+02,-7457,-3121,3310,238,206,-515,1,7,11
1.00E+03,-7460,-3096,3282,615,218,-542,1,7,11
1.00E+03,-7443,-3078,3277,418,219,-570,1,7,11
1.00E+03,-7426,-3074,3274,468,225,-611,1,7,11
1.00E+03,-7432,-2797,3265,787,229,-404,1,7,11
9.96E+02,-7429,-2764,3229,819,237,-445,1,7,11
9.91E+02,-7441,-2747,3206,784,238,-469,1,7,11
9.87E+02,-7118,-2739,3434,502,221,-450,1,7,11
9.85E+02,-7081,-2741,3424,438,539,-501,1,7,11
9.85E+02,-7081,-2755,3446,397,583,-807,1,7,11
9.84E+02,-7064,-2764,3447,393,608,-870,1,7,11
9.81E+02,-7294,-2782,3430,408,605,-693,1,7,11
9.72E+02,-7247,-2791,3411,432,584,-1054,1,7,11
9.61E+02,-7245,-2809,3396,440,569,-956,1,7,11
9.49E+02,-7255,-3092,3379,453,525,-1377,1,7,11
9.39E+02,-7271,-3117,3361,476,206,-1547,1,7,11
9.35E+02,-7284,-3172,3348,486,130,-1442,1,7,11
9.35E+02,-7287,-2998,3345,476,309,-1828,1,7,11
9.38E+02,-7284,-3360,3358,450,-16,-1673,1,7,11
9.41E+02,-7042,-3207,3373,430,-54,-1731,1,7,11
9.44E+02,-7064,-3307,3370,396,-79,-1718,1,7,11
9.45E+02,-7043,-3665,3376,597,-94,-1894,1,7,11
9.43E+02,-7054,-3507,3402,520,-80,-1529,1,7,11
9.38E+02,-7044,-3845,3425,192,-83,-1635,1,7,11
9.29E+02,-7246,-3915,3435,128,-80,-1214,1,7,11
9.17E+02,-7192,-3955,3444,356,-58,-1331,1,7,11
9.04E+02,-6910,-3722,3443,323,-27,-965,1,7,11
8.91E+02,-6875,-3744,3441,307,-16,-1118,1,7,11
8.77E+02,-6832,-3749,3442,298,-11,-1036,1,7,11
8.66E+02,-7034,-3764,3422,292,-3,-720,1,7,11
8.57E+02,-6984,-3796,3431,264,274,-689,1,7,11
8.51E+02,-6978,-3819,3431,258,307,-672,1,7,11
8.47E+02,-6950,-4108,3425,312,347,-654,1,7,11
8.46E+02,-6944,-4125,3426,376,134,-657,1,7,11
8.47E+02,-6955,-4147,3432,158,169,-670,1,7,11
8.50E+02,-6962,-4161,3397,205,194,-660,1,7,11
8.53E+02,-6963,-4180,3385,241,214,-651,1,7,11
8.56E+02,-6962,-4201,3359,255,232,-887,1,7,11
8.58E+02,-6947,-3972,3346,243,243,-863,1,7,11
8.58E+02,-6950,-4008,3347,241,527,-847,1,7,11
8.56E+02,-6974,-4031,3342,247,556,-826,1,7,11
8.52E+02,-7019,-4044,3329,247,580,-785,1,7,11
8.50E+02,-6787,-4065,3060,216,564,-453,1,7,11
8.53E+02,-6806,-4074,3033,180,547,-615,1,7,11
8.65E+02,-6823,-4076,3003,378,532,-247,1,7,11
8.84E+02,-6842,-4077,2970,344,549,-129,1,7,11
9.03E+02,-6868,-4055,2950,311,580,-258,1,7,11
9.18E+02,-6883,-4011,3177,331,615,123,1,7,11
9.25E+02,-7181,-3969,3154,365,390,-24,1,7,11
9.26E+02,-7208,-4153,3140,160,393,333,1,7,11
9.24E+02,-7226,-3837,3145,217,387,138,1,7,11
9.23E+02,-7263,-3776,3174,526,592,170,1,7,11
9.23E+02,-7232,-3735,2948,577,222,183,1,7,11
9.22E+02,-7199,-3713,3000,612,359,146,1,7,11
9.17E+02,-6892,-3954,3065,464,-97,289,1,7,11
9.06E+02,-6845,-3951,3359,803,51,-62,1,7,11
8.90E+02,-6817,-3930,3384,883,-283,88,1,7,11
8.75E+02,-6799,-3929,3426,677,-352,-272,1,7,11
8.65E+02,-7027,-3923,3452,732,-156,-365,1,7,11
8.65E+02,-7003,-3928,3211,1032,-197,-180,1,7,11
8.72E+02,-6964,-3941,3212,1032,-217,-229,1,7,11
8.86E+02,-6923,-3945,3444,753,-193,-526,1,7,11
9.04E+02,-6638,-3951,3433,672,-369,-573,1,7,11
9.24E+02,-6654,-3964,3416,836,17,-620,1,7,11
9.42E+02,-6927,-3734,3414,465,-112,-632,1,7,11
9.53E+02,-6934,-3747,3395,612,269,-612,1,7,11
9.56E+02,-6939,-3780,3400,218,378,-568,1,7,11
9.51E+02,-6958,-3812,3406,352,202,-525,1,7,11
9.41E+02,-7001,-3837,3414,-1,245,-221,1,7,11
9.29E+02,-7033,-4102,3397,-79,248,-156,1,7,11
9.18E+02,-6802,-3828,3377,102,226,-334,1,7,11
9.09E+02,-6838,-3798,3370,15,166,5,1,7,11
9.02E+02,-6840,-3759,3354,-341,331,101,1,7,11
8.99E+02,-6798,-3733,3068,-179,-22,-67,1,7,11
9.00E+02,-7040,-3957,3033,-527,-78,-28,1,7,11
9.03E+02,-6802,-3926,2987,-637,-117,-4,1,7,11
9.06E+02,-6805,-3919,2962,-486,122,276,1,7,11
9.08E+02,-6790,-3924,3182,-851,127,292,1,7,11
9.11E+02,-7040,-3939,3143,-697,-94,281,1,7,11
9.14E+02,-6796,-3961,3113,-1063,-40,-32,1,7,11
9.19E+02,-6833,-3725,3098,-897,318,-96,1,7,11
9.26E+02,-6870,-3762,3085,-1283,362,117,1,7,11
9.32E+02,-6887,-3802,2807,-1354,137,96,1,7,11
9.33E+02,-7179,-3829,2797,-1162,174,62,1,7,11
9.27E+02,-7217,-4109,2793,-1222,180,55,1,7,11
9.14E+02,-7215,-4128,2797,-1537,144,72,1,7,11
9.01E+02,-7220,-4140,2788,-1578,351,92,1,7,11
8.93E+02,-7217,-4152,2803,-1619,270,-123,1,7,11
8.96E+02,-7204,-4149,2787,-1636,-82,-81,1,7,11
9.07E+02,-7193,-4131,2765,-1648,98,-27,1,7,11
9.21E+02,-7205,-4108,2764,-1415,30,301,1,7,11
9.33E+02,-7171,-4109,2768,-1437,-332,134,1,7,11
9.39E+02,-6908,-4126,2776,-1451,-163,192,1,7,11
9.41E+02,-6901,-4137,2788,-1435,-253,233,1,7,11
9.39E+02,-7171,-4148,2812,-1410,-584,512,1,7,11
9.34E+02,-7183,-4164,3095,-1641,-403,545,1,7,11
9.27E+02,-7173,-4189,3119,-1605,-474,573,1,7,11
9.19E+02,-7185,-4212,3161,-1549,-775,577,1,7,11
9.12E+02,-7209,-4213,2953,-1200,-819,586,1,7,11
9.07E+02,-7214,-4210,2978,-1371,-865,619,1,7,11
9.05E+02,-7190,-4193,2997,-1018,-890,386,1,7,11
9.06E+02,-6909,-4165,3014,-932,-892,397,1,7,11
9.10E+02,-6873,-4138,3033,-1110,-885,400,1,7,11
9.17E+02,-6828,-4103,3035,-1036,-851,385,1,7,11
9.24E+02,-6812,-3816,3022,-710,-797,609,1,7,11
9.29E+02,-6793,-3770,3012,-650,-487,578,1,7,11
9.32E+02,-7031,-3960,2999,-860,-385,551,1,7,11
9.30E+02,-7020,-3933,2986,-821,-573,528,1,7,11
9.25E+02,-7018,-3912,2980,-809,-246,236,1,7,11
9.19E+02,-7018,-3891,2988,-792,-178,184,1,7,11
9.13E+02,-7025,-3878,3000,-776,-381,371,1,7,11
9.08E+02,-6791,-3874,3011,-506,-342,301,1,7,11
9.05E+02,-6823,-3878,3037,-497,-308,-16,1,7,11
9.03E+02,-6856,-3890,3059,-494,-285,-51,1,7,11
9.05E+02,-7172,-3896,3336,-494,-257,-68,1,7,11
9.09E+02,-7219,-3924,3382,-779,5,-39,1,7,11
9.15E+02,-7250,-3952,3430,-807,11,287,1,7,11
9.23E+02,-7270,-3968,3200,-823,54,147,1,7,11
9.32E+02,-7284,-3730,3224,-864,-101,575,1,7,11
9.37E+02,-7271,-3737,3249,-658,291,796,1,7,11
9.35E+02,-7253,-3964,3250,-697,204,764,1,7,11
9.24E+02,-7229,-3916,3234,-737,630,974,1,7,11
9.06E+02,-7207,-3846,3452,-761,787,1390,1,7,11
8.88E+02,-7192,-3494,3384,-763,659,1236,1,7,11
8.74E+02,-7187,-3655,3054,-768,757,1544,1,7,11
8.68E+02,-7183,-3312,2976,-1042,1078,1549,1,7,11
8.69E+02,-7186,-3243,3153,-1054,1099,1235,1,7,11
8.73E+02,-7190,-3427,3095,-1049,1080,1375,1,7,11
8.78E+02,-7226,-3362,2770,-1026,1046,950,1,7,11
8.82E+02,-7259,-3069,2729,-757,713,764,1,7,11
8.85E+02,-7274,-3058,2719,-743,859,825,1,7,11
8.84E+02,-7066,-3061,2728,-704,473,602,1,7,11
8.80E+02,-7132,-3066,2753,-884,565,380,1,7,11
8.74E+02,-7446,-3071,2758,-775,132,-53,1,7,11
8.68E+02,-7468,-3341,2750,-416,-43,96,1,7,11
8.65E+02,-7466,-3357,2744,-580,77,32,1,7,11
8.66E+02,-7448,-3375,2754,-249,-267,3,1,7,11
8.72E+02,-7433,-3400,2778,-175,-307,-257,1,7,11
8.83E+02,-7427,-3407,2793,-344,-304,10,1,7,11
9.00E+02,-7159,-3427,2811,-272,-267,36,1,7,11
9.20E+02,-7149,-3441,3072,46,40,65,1,7,11
9.42E+02,-7128,-3435,3081,104,96,95,1,7,11
9.63E+02,-7108,-3428,3080,-106,-97,107,1,7,11
9.82E+02,-7100,-3421,3072,-49,258,99,1,7,11
9.94E+02,-7091,-3417,3082,-25,311,82,1,7,11
9.98E+02,-7096,-3401,3072,262,360,41,1,7,11
9.91E+02,-7108,-3395,2806,283,128,0,1,7,11
9.75E+02,-7096,-3389,2798,306,136,-299,1,7,11
9.55E+02,-7093,-3388,2805,334,382,-365,1,7,11
9.39E+02,-7112,-3384,2809,383,356,-198,1,7,11
9.33E+02,-7128,-3388,2806,196,299,-583,1,7,11
9.36E+02,-7135,-3384,2800,542,-76,-426,1,7,11
9.43E+02,-7132,-3384,2779,447,73,-782,1,7,11
9.51E+02,-7088,-3377,2750,544,-300,-878,1,7,11
9.53E+02,-7067,-3396,2753,865,-130,-739,1,7,11
9.52E+02,-7067,-3441,2770,663,-202,-1098,1,7,11
9.45E+02,-7070,-3242,2792,728,-513,-919,1,7,11
9.36E+02,-7068,-3301,3072,1035,-543,-947,1,7,11
9.23E+02,-7066,-3635,3114,1074,-535,-946,1,7,11
9.10E+02,-7067,-3695,3149,1106,-250,-915,1,7,11
8.98E+02,-7062,-3490,3176,1142,-209,-1107,1,7,11
8.89E+02,-7076,-3513,3195,902,-157,-760,1,7,11
8.84E+02,-7051,-3533,2952,1133,-132,-890,1,7,11
8.82E+02,-7263,-3568,2979,1081,-366,-781,1,7,11
8.82E+02,-7232,-3572,2988,1048,-345,-446,1,7,11
8.83E+02,-7216,-3577,2987,747,-322,-398,1,7,11
8.84E+02,-7205,-3841,2987,694,-298,-614,1,7,11
8.84E+02,-7173,-3865,2986,871,-290,-569,1,7,11
8.81E+02,-6891,-3888,2986,803,12,-549,1,7,11
8.76E+02,-6880,-3907,3004,506,82,-553,1,7,11
8.70E+02,-6882,-3913,3006,770,-89,-570,1,7,11
8.62E+02,-6897,-3916,3000,772,-10,-574,1,7,11
8.55E+02,-7182,-3919,2991,771,315,-572,1,7,11
8.50E+02,-7217,-3920,2965,770,376,-564,1,7,11
8.48E+02,-7244,-3918,3190,510,162,-531,1,7,11
8.50E+02,-7254,-3905,3155,489,196,-231,1,7,11
8.58E+02,-7273,-3887,3120,455,241,-196,1,7,11
8.71E+02,-7048,-3868,3089,397,529,-143,1,7,11
8.89E+02,-7056,-3850,3072,590,538,-330,1,7,11
9.10E+02,-7063,-3581,2807,520,538,-275,1,7,11
9.30E+02,-7070,-3563,2818,198,523,28,1,7,11
9.45E+02,-7084,-3560,3084,383,235,54,1,7,11
9.50E+02,-7081,-3554,3102,338,181,68,1,7,11
9.43E+02,-7077,-3551,3111,318,377,70,1,7,11
9.30E+02,-7068,-3547,3122,308,319,79,1,7,11
9.18E+02,-7047,-3537,3139,295,270,95,1,7,11
9.12E+02,-7286,-3535,3155,276,-17,110,1,7,11
9.13E+02,-7257,-3527,3177,262,-36,113,1,7,11
9.19E+02,-7235,-3518,3196,261,-35,106,1,7,11
9.26E+02,-7237,-3495,3195,281,-12,96,1,7,11
9.33E+02,-7222,-3485,3191,309,259,94,1,7,11
9.39E+02,-7196,-3471,3179,317,279,83,1,7,11
9.45E+02,-7204,-3708,3165,313,307,45,1,7,11
9.51E+02,-7218,-3703,3173,301,313,5,1,7,11
9.57E+02,-7216,-3681,3162,285,300,-280,1,7,11
9.60E+02,-7217,-3671,3142,-18,280,-297,1,7,11
9.57E+02,-7213,-3684,3126,-91,-2,-300,1,7,11
9.46E+02,-7223,-3693,3120,97,-30,-311,1,7,11
9.26E+02,-7242,-3702,3124,32,-57,-323,1,7,11
9.05E+02,-7265,-3712,3122,-283,-78,-324,1,7,11
8.89E+02,-7277,-3466,3121,-358,-122,-304,1,7,11
8.85E+02,-7279,-3483,3120,-177,91,-281,1,7,11
8.91E+02,-7284,-3506,3133,-253,45,-259,1,7,11
9.03E+02,-7296,-3526,3148,-551,18,14,1,7,11
9.15E+02,-7057,-3529,3155,-583,-267,49,1,7,11
9.24E+02,-7296,-3536,3151,-640,-301,101,1,7,11
9.30E+02,-7294,-3535,3162,-447,-321,-114,1,7,11
9.33E+02,-7295,-3539,3168,-496,-336,-68,1,7,11
9.33E+02,-7278,-3543,3171,-797,-357,-24,1,7,11
9.31E+02,-7264,-3542,3169,-849,-373,269,1,7,11
9.29E+02,-7257,-3543,3185,-647,-131,304,1,7,11
9.27E+02,-7246,-3540,2945,-696,-150,329,1,7,11
9.27E+02,-7231,-3540,3198,-728,-173,338,1,7,11
9.27E+02,-7220,-3530,2945,-750,-198,338,1,7,11
9.27E+02,-7220,-3516,3191,-768,-215,328,1,7,11
9.26E+02,-7233,-3510,3197,-1059,-230,322,1,7,11
9.23E+02,-7232,-3509,3199,-1100,-247,332,1,7,11
9.20E+02,-7228,-3519,2950,-1145,-513,360,1,7,11
9.16E+02,-7226,-3529,2959,-928,-515,378,1,7,11
9.15E+02,-7225,-3533,2965,-962,-246,135,1,7,11
9.15E+02,-7228,-3539,2972,-964,-229,144,1,7,11
9.15E+02,-7230,-3543,2974,-964,-205,150,1,7,11
9.13E+02,-7234,-3544,2966,-960,-178,160,1,7,11
9.05E+02,-7228,-3544,2970,-947,-155,167,1,7,11
8.93E+02,-7224,-3540,2968,-932,-135,170,1,7,11
8.83E+02,-7225,-3537,2959,-916,-376,169,1,7,11
8.78E+02,-7223,-3526,2950,-1151,-366,159,1,7,11
8.81E+02,-7225,-3519,3193,-1135,-361,142,1,7,11
8.87E+02,-7215,-3512,3179,-1124,-366,129,1,7,11
8.93E+02,-7203,-3498,3166,-1116,-368,350,1,7,11
8.95E+02,-7202,-3490,3166,-1117,-377,298,1,7,11
8.94E+02,-7202,-3491,3172,-1112,-147,-20,1,7,11
8.95E+02,-7191,-3485,3187,-1097,-191,-82,1,7,11
9.04E+02,-7171,-3481,3183,-1067,-242,121,1,7,11
9.24E+02,-6900,-3476,3184,-1042,-534,75,1,7,11
9.47E+02,-6892,-3492,3185,-760,-548,44,1,7,11
9.65E+02,-6899,-3523,2948,-746,-539,37,1,7,11
9.66E+02,-7171,-3556,2971,-739,-256,41,1,7,11
9.47E+02,-7178,-3854,3002,-727,-233,44,1,7,11
9.17E+02,-7198,-3880,3032,-701,-192,40,1,7,11
8.91E+02,-7208,-3891,3034,-670,-170,42,1,7,11
8.80E+02,-7222,-3899,3035,-885,-133,51,1,7,11
8.86E+02,-7224,-3909,3020,-880,-348,79,1,7,11
9.01E+02,-7217,-3925,3017,-882,-300,107,1,7,11
9.18E+02,-7220,-3941,3033,-644,8,114,1,7,11
9.28E+02,-7227,-3955,3044,-891,53,114,1,7,11
9.31E+02,-7224,-3956,3042,-871,83,119,1,7,11
9.27E+02,-7220,-3949,3035,-849,100,126,1,7,11
9.19E+02,-7213,-3943,3019,-825,99,-113,1,7,11
9.06E+02,-7196,-3926,2996,-794,97,-93,1,7,11
8.91E+02,-7191,-3910,2972,-506,119,-77,1,7,11
8.77E+02,-7189,-3889,2952,-484,-115,-57,1,7,11
8.66E+02,-7185,-3867,3181,-470,-104,-37,1,7,11
8.61E+02,-7181,-3852,3163,-471,-82,-20,1,7,11
8.60E+02,-7178,-3574,3144,-481,-68,-5,1,7,11
8.65E+02,-7183,-3573,3141,-499,-48,-10,1,7,11
8.75E+02,-7193,-3572,3140,-512,-35,-33,1,7,11
8.87E+02,-7192,-3568,3137,-769,-30,-58,1,7,11
8.96E+02,-7202,-3573,3140,-512,-23,-82,1,7,11
9.00E+02,-7206,-3581,3140,-770,-20,-103,1,7,11
8.99E+02,-7207,-3859,3149,-776,-30,-124,1,7,11
8.94E+02,-7198,-3871,3159,-777,-49,98,1,7,11
8.87E+02,-7190,-3878,3155,-509,-61,63,1,7,11
8.81E+02,-7186,-3884,3139,-488,-69,37,1,7,11
8.77E+02,-7182,-3881,3114,-471,-71,17,1,7,11
8.77E+02,-7200,-3882,3098,-468,-53,9,1,7,11
8.85E+02,-7198,-3893,3090,-471,-42,20,1,7,11
8.97E+02,-7184,-3902,3077,-465,-23,27,1,7,11
9.12E+02,-7188,-3903,2802,-448,268,20,1,7,11
9.26E+02,-7195,-3895,2768,-421,299,15,1,7,11
9.37E+02,-7195,-3893,2736,-389,341,15,1,7,11
9.44E+02,-7205,-3891,2702,-613,129,22,1,7,11
9.48E+02,-7211,-3884,2917,-580,171,27,1,7,11
9.50E+02,-7219,-3888,2893,-543,217,21,1,7,11
9.52E+02,-7259,-3886,2874,-243,513,7,1,7,11
9.51E+02,-7041,-3885,2872,-214,534,-257,1,7,11
9.47E+02,-7062,-3893,2884,-195,255,13,1,7,11
9.39E+02,-7075,-3900,2897,-172,197,24,1,7,11
9.28E+02,-7086,-3889,2896,-146,322,42,1,7,11
9.18E+02,-7087,-3883,2888,-370,-16,78,1,7,11
9.13E+02,-7052,-3895,2918,-343,-58,-114,1,7,11
9.17E+02,-7041,-3912,2697,-311,-50,-55,1,7,11
9.28E+02,-7049,-3926,2775,-289,-52,272,1,7,11
9.43E+02,-7054,-3920,3084,22,-80,319,1,7,11
9.55E+02,-7070,-3902,3124,83,122,374,1,7,11
9.61E+02,-7068,-3849,3088,89,26,184,1,7,11
9.61E+02,-7290,-3568,3090,-267,-324,512,1,7,11
9.57E+02,-7273,-3530,3105,-371,-141,557,1,7,11
9.50E+02,-7263,-3503,3118,-212,-218,583,1,7,11
9.41E+02,-7248,-3482,3155,-572,-545,590,1,7,11
9.30E+02,-7235,-3461,3180,-639,-618,587,1,7,11
9.17E+02,-7216,-3699,2950,-439,-429,568,1,7,11
9.01E+02,-7205,-3691,2975,-474,-482,541,1,7,11
8.83E+02,-7196,-3681,2992,-480,-789,239,1,7,11
8.65E+02,-7190,-3682,3028,-476,-838,190,1,7,11
8.49E+02,-7184,-3687,3058,-446,-887,134,1,7,11
8.38E+02,-7180,-3686,3332,-410,-691,327,1,7,11
8.29E+02,-7207,-3689,3375,-631,-1030,259,1,7,11
8.21E+02,-7227,-3689,3392,-582,-1138,-70,1,7,11
8.13E+02,-7261,-3679,3408,-540,-1311,118,1,7,11
8.04E+02,-7263,-3674,3409,-519,-1565,64,1,7,11
7.92E+02,-7237,-3684,3400,-516,-1867,-264,1,7,11
7.79E+02,-7213,-3685,3386,-518,-1966,-368,1,7,11
7.64E+02,-6847,-3655,3359,-520,-2633,-524,1,7,11
7.50E+02,-6802,-3600,3341,-534,-2791,-777,1,7,11
7.41E+02,-6825,-3281,3351,-528,-3430,-1000,1,7,11
7.38E+02,-6842,-3239,3447,-540,-3848,-1273,1,7,11
7.40E+02,-6802,-3320,3651,-638,-4333,-1469,1,7,11
7.48E+02,-6960,-3700,3872,-470,-4815,-1842,1,7,11
7.60E+02,-6532,-3846,3773,-598,-5415,-1861,1,7,11
7.76E+02,-6317,-3742,4216,-364,-5476,-1837,1,7,11
7.96E+02,-6416,-3813,4412,-46,-5242,-1493,1,7,11
8.18E+02,-6055,-4139,4635,206,-4903,-1650,1,7,11
8.38E+02,-6264,-4189,4870,507,-4225,-1227,1,7,11
8.54E+02,-6165,-4178,4768,737,-3810,-967,1,7,11
8.64E+02,-5851,-4179,5181,1067,-3304,-666,1,7,11
8.72E+02,-5767,-4167,5046,1081,-2733,-596,1,7,11
8.82E+02,-5939,-4140,5379,711,-2420,-297,1,7,11
8.97E+02,-5900,-4121,5464,486,-1889,-74,1,7,11
9.19E+02,-5616,-3837,5275,244,-1218,331,1,7,11
9.43E+02,-5598,-3789,5292,-6,-933,150,1,7,11
9.68E+02,-5613,-3792,5635,-279,-756,135,1,7,11
9.90E+02,-5628,-3814,5700,-230,-682,287,1,7,11
1.01E+03,-5889,-3821,5711,-553,-685,-62,1,7,11
1.02E+03,-5616,-3840,5695,-558,-696,104,1,7,11
1.03E+03,-5594,-4119,5663,-462,-646,17,1,7,11
1.04E+03,-5573,-4120,5368,-344,-817,-343,1,7,11
1.04E+03,-5570,-4122,5331,17,-454,-201,1,7,11
1.03E+03,-5603,-4115,5310,116,-626,-563,1,7,11
1.02E+03,-5629,-4111,5294,-53,-587,-397,1,7,11
9.96E+02,-5921,-4125,5287,285,-591,-479,1,7,11
9.70E+02,-5944,-4137,5252,355,-639,-799,1,7,11
9.44E+02,-5957,-4139,5486,141,-437,-851,1,7,11
9.24E+02,-5973,-4152,5451,143,-489,-886,1,7,11
9.14E+02,-5963,-4172,5444,379,-792,-653,1,7,11
9.14E+02,-5956,-4179,5444,339,-821,-674,1,7,11
9.19E+02,-5954,-4184,5452,297,-839,-685,1,7,11
9.25E+02,-5941,-4189,5455,-3,-834,-674,1,7,11
9.27E+02,-5927,-4195,5468,-60,-799,-654,1,7,11
9.25E+02,-5893,-4212,5496,124,-772,-880,1,7,11
9.19E+02,-5572,-3983,5284,55,-496,-848,1,7,11
9.10E+02,-5536,-4009,5335,3,-459,-854,1,7,11
8.98E+02,-5759,-4050,5673,-278,-456,-865,1,7,11
8.86E+02,-5710,-4075,5713,-260,-477,-866,1,7,11
8.77E+02,-5674,-4359,5742,10,-492,-865,1,7,11
8.71E+02,-5645,-4363,5759,20,-497,-836,1,7,11
8.69E+02,-5337,-4382,5540,-260,-472,-798,1,7,11
8.67E+02,-5343,-4402,5583,-274,-420,-506,1,7,11
8.64E+02,-5330,-4405,5609,-273,-394,-436,1,7,11
8.59E+02,-5310,-4419,5889,-285,-623,-613,1,7,11
8.55E+02,-5274,-4429,5629,-290,-597,-531,1,7,11
8.56E+02,-5499,-4436,5617,-290,-551,-206,1,7,11
8.63E+02,-5493,-4434,5592,-276,-223,-150,1,7,11
8.72E+02,-5492,-4419,5568,-260,-155,-345,1,7,11
8.81E+02,-5472,-4410,5532,28,-359,-283,1,7,11
8.86E+02,-5479,-4381,5513,52,-305,12,1,7,11
8.86E+02,-5485,-4367,5521,41,-277,59,1,7,11
8.85E+02,-5477,-4094,5524,28,-289,83,1,7,11
8.86E+02,-5462,-4082,5541,-262,-318,84,1,7,11
8.93E+02,-5438,-4080,5563,-306,-356,74,1,7,11
9.03E+02,-5406,-4094,5587,-345,-137,53,1,7,11
9.13E+02,-5383,-4375,5606,-376,-144,21,1,7,11
9.20E+02,-5381,-4406,5891,-156,-379,-261,1,7,11
9.21E+02,-5380,-4442,5915,-173,-343,-280,1,7,11
9.18E+02,-5378,-4473,5929,-161,-301,-292,1,7,11
9.13E+02,-5387,-4236,5929,-133,12,-297,1,7,11
9.07E+02,-5406,-4249,5921,-361,71,-292,1,7,11
9.00E+02,-5425,-4261,5894,-330,-127,-282,1,7,11
8.90E+02,-5450,-4271,5619,-305,-74,-270,1,7,11
8.74E+02,-5482,-4267,5592,-292,-20,0,1,7,11
8.52E+02,-5273,-4280,5580,-293,274,17,1,7,11
8.28E+02,-5326,-4288,5574,-299,290,36,1,7,11
8.04E+02,-5372,-4293,5580,-299,288,57,1,7,11
7.85E+02,-5676,-4289,5584,-291,267,95,1,7,11
7.72E+02,-5709,-4280,5587,-278,-25,-103,1,7,11
7.67E+02,-5734,-4242,5581,-260,-60,-28,1,7,11
7.70E+02,-5758,-4453,5567,4,-95,319,1,7,11
7.81E+02,-5739,-4389,5540,10,125,172,1,7,11
7.94E+02,-5721,-4066,5517,-262,119,522,1,7,11
8.06E+02,-5698,-4000,5514,-284,118,603,1,7,11
8.15E+02,-5633,-4158,5744,-298,114,408,1,7,11
8.20E+02,-5351,-4098,5732,-314,110,435,1,7,11
8.20E+02,-5305,-3790,5709,-331,92,420,1,7,11
8.16E+02,-5250,-3747,5697,-338,69,618,1,7,11
8.13E+02,-5494,-3965,5701,-349,37,527,1,7,11
8.18E+02,-5485,-3951,5704,-379,-305,353,1,7,11
8.34E+02,-5475,-3949,5721,-145,-377,-32,1,7,11
8.57E+02,-5465,-3961,5751,-179,-202,95,1,7,11
8.84E+02,-5456,-3740,5545,-235,-540,-294,1,7,11
9.08E+02,-5462,-3792,5614,-541,-621,-168,1,7,11
9.28E+02,-5467,-4100,5939,-582,-445,-515,1,7,11
9.45E+02,-5451,-4167,6011,-618,-775,-559,1,7,11
9.60E+02,-5426,-3981,5836,-636,-809,-574,1,7,11
9.73E+02,-5417,-4048,6158,-633,-808,-555,1,7,11
9.85E+02,-5394,-4091,6207,-602,-781,-242,1,7,11
9.96E+02,-5117,-4373,6248,-565,-463,-151,1,7,11
1.01E+03,-5100,-4377,6269,-248,-638,-287,1,7,11
1.01E+03,-5080,-4376,6017,-189,-537,115,1,7,11
1.02E+03,-5049,-4358,6259,-156,-203,267,1,7,11
1.03E+03,-5013,-4084,6245,-171,-144,143,1,7,11
1.03E+03,-5236,-4064,6237,-214,-356,236,1,7,11
1.03E+03,-5207,-4032,6219,-533,-333,552,1,7,11
1.02E+03,-5180,-4003,6222,-610,-324,581,1,7,11
1.02E+03,-5161,-3974,6222,-431,-336,580,1,7,11
1.01E+03,-5144,-4210,6232,-769,-359,568,1,7,11
9.99E+02,-5124,-4199,6254,-832,-130,536,1,7,11
9.85E+02,-4844,-4200,6019,-856,-150,224,1,7,11
9.68E+02,-4829,-4191,6051,-856,-154,156,1,7,11
9.50E+02,-4825,-4185,6056,-817,-135,310,1,7,11
9.33E+02,-4811,-4187,6060,-787,-363,-7,1,7,11
9.20E+02,-4808,-4195,6069,-505,-320,-68,1,7,11
9.11E+02,-4815,-4217,6077,-474,-276,-119,1,7,11
9.05E+02,-4823,-3976,6080,-447,24,109,1,7,11
9.00E+02,-4823,-3997,6074,-431,72,99,1,7,11
8.96E+02,-4814,-4028,6063,-427,127,102,1,7,11
8.95E+02,-4815,-4054,6055,-436,-63,110,1,7,11
8.98E+02,-4822,-4094,6047,-439,262,127,1,7,11
9.06E+02,-4830,-4382,6047,-415,334,-95,1,7,11
9.17E+02,-4844,-4410,6027,-387,144,-49,1,7,11
9.27E+02,-5129,-4434,6258,-612,203,262,1,7,11
9.29E+02,-5144,-4455,6213,-583,249,334,1,7,11
9.18E+02,-5174,-4466,6177,-558,558,144,1,7,11
8.97E+02,-5226,-4469,6152,-256,615,205,1,7,11
8.74E+02,-5011,-4441,5850,-209,389,540,1,7,11
8.58E+02,-5046,-4421,5806,-195,410,622,1,7,11
8.51E+02,-5072,-4408,5790,-203,415,434,1,7,11
8.51E+02,-5083,-4394,5760,-213,420,487,1,7,11
8.54E+02,-5103,-4370,5985,-217,441,770,1,7,11
8.56E+02,-5100,-4093,5955,-226,458,792,1,7,11
8.57E+02,-5111,-4076,5940,-238,497,787,1,7,11
8.60E+02,-5408,-4060,5937,-223,790,768,1,7,11
8.69E+02,-5430,-4051,5931,-204,810,506,1,7,11
8.82E+02,-5443,-4051,5936,-172,829,497,1,7,11
8.96E+02,-5444,-4052,5924,-372,856,485,1,7,11
9.07E+02,-5441,-4062,5919,-314,646,470,1,7,11
9.12E+02,-5444,-4064,5911,6,718,447,1,7,11
9.10E+02,-5472,-4053,5895,73,1069,419,1,7,11
9.04E+02,-5257,-4049,5631,-125,910,396,1,7,11
8.98E+02,-5305,-4038,5897,-65,995,639,1,7,11
8.94E+02,-5355,-4018,5609,267,1323,386,1,7,11
8.94E+02,-5658,-3987,5563,332,1392,398,1,7,11
9.02E+02,-5712,-4182,5508,378,1205,413,1,7,11
9.19E+02,-5505,-4141,5717,142,1274,428,1,7,11
9.45E+02,-5578,-4097,5656,150,1597,442,1,7,11
9.71E+02,-5626,-3800,5330,139,1416,459,1,7,11
9.92E+02,-5919,-3771,5264,363,1491,466,1,7,11
1.00E+03,-5952,-3744,5457,323,1864,462,1,7,11
9.96E+02,-5997,-3724,5400,279,1690,445,1,7,11
9.83E+02,-5773,-3962,5083,-28,1728,436,1,7,11
9.67E+02,-5813,-3948,5030,-82,2057,384,1,7,11
9.50E+02,-5840,-3935,5235,122,2142,600,1,7,11
9.37E+02,-5862,-3927,5172,82,2000,548,1,7,11
9.29E+02,-6161,-3922,4849,50,2357,213,1,7,11
9.26E+02,-6195,-3912,4782,-19,2207,133,1,7,11
9.31E+02,-6228,-3904,4968,-322,2586,300,1,7,11
9.39E+02,-6034,-3881,4892,-363,2464,-53,1,7,11
9.49E+02,-6099,-3867,4557,-143,2844,-128,1,7,11
9.55E+02,-6419,-3852,4722,-156,2709,79,1,7,11
9.55E+02,-6502,-3847,4351,-156,3104,54,1,7,11
9.52E+02,-6302,-3872,4249,-152,2980,63,1,7,11
9.45E+02,-6365,-3907,4396,-139,3363,74,1,7,11
9.38E+02,-6685,-3963,4075,-362,3202,90,1,7,11
9.30E+02,-6738,-3771,4014,-287,3256,99,1,7,11
9.20E+02,-6782,-3829,4199,92,3276,103,1,7,11
9.08E+02,-6626,-4115,3824,62,3269,103,1,7,11
8.92E+02,-6920,-4112,3785,137,3255,111,1,7,11
8.76E+02,-6997,-3836,3967,535,3212,-107,1,7,11
8.64E+02,-6796,-3807,3873,416,3410,-45,1,7,11
8.62E+02,-6841,-3762,3505,786,3360,284,1,7,11
8.70E+02,-6880,-3964,3655,866,3061,360,1,7,11
8.85E+02,-6899,-3917,3293,895,3019,175,1,7,11
8.99E+02,-6912,-3871,3450,642,2978,221,1,7,11
9.08E+02,-7185,-3555,3358,889,3196,231,1,7,11
9.12E+02,-7238,-3489,3021,865,3138,223,1,7,11
9.13E+02,-7056,-3685,2968,829,2778,216,1,7,11
9.15E+02,-7108,-3673,3171,797,2841,234,1,7,11
9.19E+02,-7094,-3672,3074,809,2590,252,1,7,11
9.23E+02,-7063,-3669,2698,841,2382,233,1,7,11
9.25E+02,-7072,-3640,2845,873,1997,183,1,7,11
9.21E+02,-7116,-3604,2502,884,1935,151,1,7,11
9.11E+02,-7157,-3317,2444,876,2167,171,1,7,11
9.01E+02,-7447,-3289,2661,841,1930,229,1,7,11
8.95E+02,-7469,-3261,2643,788,1942,559,1,7,11
8.96E+02,-7459,-3248,2622,468,1938,618,1,7,11
9.03E+02,-7452,-3236,2598,404,1931,384,1,7,11
9.15E+02,-7450,-3231,2563,612,2164,626,1,7,11
9.26E+02,-7459,-3228,2244,568,2140,576,1,7,11
9.34E+02,-7499,-3208,2194,544,2118,517,1,7,11
9.39E+02,-7538,-3452,2383,531,2084,228,1,7,11
9.40E+02,-7342,-3434,2046,547,2077,221,1,7,11
9.36E+02,-7363,-3430,1949,573,2096,514,1,7,11
9.28E+02,-7339,-3445,2112,589,2122,393,1,7,11
9.19E+02,-7354,-3453,1766,606,1993,460,1,7,11
9.11E+02,-7417,-3446,1692,623,2343,771,1,7,11
9.09E+02,-7755,-3420,1871,621,2386,843,1,7,11
9.10E+02,-7578,-3390,1805,596,2371,682,1,7,11
9.13E+02,-7655,-3355,1488,550,2306,1047,1,7,11
9.15E+02,-7959,-3048,1413,241,1935,898,1,7,11
9.14E+02,-7965,-2990,1599,170,2050,986,1,7,11
9.11E+02,-7945,-3178,1272,348,1902,1296,1,7,11
9.08E+02,-7680,-3092,1196,-7,1520,1323,1,7,11
9.08E+02,-7671,-2751,1400,115,1660,1347,1,7,11
9.10E+02,-7653,-2930,1363,-313,1536,1374,1,7,11
9.12E+02,-7638,-2864,1352,-237,1404,1394,1,7,11
9.10E+02,-7637,-2817,1326,-414,1007,1155,1,7,11
9.01E+02,-7637,-2527,1307,-836,1123,1170,1,7,11
8.90E+02,-7645,-2478,1299,-743,745,1175,1,7,11
8.80E+02,-7663,-2435,1298,-901,643,1191,1,7,11
8.79E+02,-7965,-2647,1327,-1310,818,1214,1,7,11
8.88E+02,-8020,-2614,1375,-1201,473,1248,1,7,11
9.03E+02,-8060,-2622,1190,-1598,590,1539,1,7,11
9.18E+02,-8061,-2664,1263,-1457,141,1543,1,7,11
9.28E+02,-8062,-2677,1587,-1511,-75,1214,1,7,11
9.32E+02,-7816,-2635,1624,-1531,-303,1376,1,7,11
9.31E+02,-7813,-2572,1642,-1797,-518,1307,1,7,11
9.27E+02,-7823,-2241,1651,-1536,-428,1015,1,7,11
9.19E+02,-7823,-2409,1641,-1512,-790,1290,1,7,11
9.10E+02,-7820,-2324,1620,-1488,-819,1358,1,7,11
9.00E+02,-7815,-1999,1591,-1482,-511,1185,1,7,11
8.91E+02,-7818,-1926,1584,-1481,-414,1277,1,7,11
8.84E+02,-7811,-2120,1586,-1482,-552,1626,1,7,11
8.80E+02,-8031,-2074,1574,-1475,-173,1454,1,7,11
8.79E+02,-8016,-1767,1543,-1462,-283,1498,1,7,11
8.84E+02,-8038,-1706,1264,-1453,-127,1513,1,7,11
8.92E+02,-7825,-1899,1259,-1448,262,1515,1,7,11
9.01E+02,-7820,-1839,1240,-1425,340,1523,1,7,11
9.10E+02,-8034,-1510,1171,-1621,177,1495,1,7,11
9.15E+02,-7975,-1417,1315,-1279,573,1431,1,7,11
9.16E+02,-7974,-1543,936,-1193,819,1592,1,7,11
9.10E+02,-8064,-1166,1040,-1163,1133,1270,1,7,11
8.95E+02,-8204,-1357,751,-1201,1287,1563,1,7,11
8.76E+02,-8294,-1357,766,-1260,1477,1603,1,7,11
8.58E+02,-8098,-1372,1071,-1573,1533,1632,1,7,11
8.49E+02,-8089,-1397,1119,-1551,1448,1651,1,7,11
8.53E+02,-8313,-1398,1137,-1227,1567,1607,1,7,11
8.65E+02,-8277,-1390,1109,-1397,1396,1266,1,7,11
8.79E+02,-8230,-1351,1048,-1292,1002,1178,1,7,11
8.88E+02,-8205,-1313,746,-971,948,1355,1,7,11
8.91E+02,-7919,-1018,703,-923,954,1315,1,7,11
8.91E+02,-7917,-959,643,-1121,1297,1307,1,7,11
8.89E+02,-7873,-919,853,-1127,1405,1354,1,7,11
8.89E+02,-7848,-1119,811,-1134,1580,1393,1,7,11
8.88E+02,-7870,-1061,791,-898,1535,1169,1,7,11
8.83E+02,-7859,-753,507,-911,1714,1231,1,7,11
8.73E+02,-7926,-683,448,-911,2174,1261,1,7,11
8.59E+02,-8228,-646,409,-956,2306,1583,1,7,11
8.47E+02,-8203,-894,609,-998,2387,1647,1,7,11
8.43E+02,-8210,-845,227,-974,2237,1627,1,7,11
8.50E+02,-8209,-786,357,-1017,2569,1608,1,7,11
8.62E+02,-7919,-445,-47,-1365,2645,1590,1,7,11
8.73E+02,-8203,-600,50,-1263,2508,1555,1,7,11
8.78E+02,-8201,-542,-316,-1502,2869,1592,1,7,11
8.75E+02,-8196,-210,-162,-1716,2723,1627,1,7,11
8.69E+02,-8235,-144,-205,-1922,3113,1424,1,7,11
8.62E+02,-8239,-370,-247,-2319,3180,1509,1,7,11
8.59E+02,-8208,-342,-562,-2349,2982,1829,1,7,11
8.57E+02,-8199,-295,-401,-2318,3020,1856,1,7,11
8.56E+02,-7887,33,-788,-2001,3057,1888,1,7,11
8.56E+02,-7829,116,-642,-1924,3387,1918,1,7,11
8.57E+02,-8046,287,-1142,-2063,3228,1692,1,7,11
8.57E+02,-8014,381,-1024,-1719,3305,1722,1,7,11
8.58E+02,-7649,179,-1368,-1722,3661,1768,1,7,11
8.60E+02,-7650,238,-1220,-1703,3701,1709,1,7,11
8.61E+02,-7629,534,-1269,-1687,3663,1906,1,7,11
8.63E+02,-7616,566,-1578,-1863,3308,1802,1,7,11
8.64E+02,-7562,601,-1637,-1483,3408,1426,1,7,11
8.65E+02,-7751,404,-1482,-1544,3018,1540,1,7,11
8.66E+02,-7691,479,-1861,-1327,3169,1386,1,7,11
8.67E+02,-7360,811,-1753,-1131,3073,994,1,7,11
8.69E+02,-7316,656,-1931,-716,2765,1106,1,7,11
8.73E+02,-7318,737,-2369,-886,2712,715,1,7,11
8.80E+02,-7548,1055,-2249,-890,2871,877,1,7,11
8.91E+02,-7317,1120,-2625,-670,2514,783,1,7,11
9.06E+02,-7349,934,-2477,-753,2619,466,1,7,11
9.24E+02,-7329,968,-2544,-1121,2421,451,1,7,11
9.43E+02,-7546,973,-2832,-960,1953,450,1,7,11
9.63E+02,-7490,995,-2878,-1009,1768,465,1,7,11
9.78E+02,-7443,1019,-2910,-1017,1872,487,1,7,11
9.86E+02,-7138,1282,-2914,-953,1476,779,1,7,11
9.80E+02,-7106,1292,-2919,-1098,1619,813,1,7,11
9.61E+02,-7080,1309,-2914,-684,1245,846,1,7,11
9.38E+02,-7070,1328,-2926,-769,1374,853,1,7,11
9.18E+02,-7287,1354,-2931,-584,976,844,1,7,11
9.11E+02,-7236,1381,-2938,-138,1096,799,1,7,11
9.14E+02,-7209,1165,-2740,45,743,489,1,7,11
9.18E+02,-6899,1196,-3073,-74,672,448,1,7,11
9.10E+02,-6861,1231,-3188,256,646,404,1,7,11
8.82E+02,-6841,1255,-2997,260,887,614,1,7,11
8.42E+02,-6841,1571,-3058,-34,875,566,1,7,11
8.02E+02,-6864,1585,-3072,-114,856,528,1,7,11
7.73E+02,-6865,1593,-3342,38,816,253,1,7,11
7.57E+02,-6852,1596,-3345,-302,771,227,1,7,11
7.50E+02,-6850,1597,-3047,-379,474,208,1,7,11
7.48E+02,-6844,1592,-3013,-175,444,210,1,7,11
7.49E+02,-6821,1579,-2975,-178,414,222,1,7,11
7.46E+02,-7040,1562,-3200,-137,392,514,1,7,11
7.37E+02,-6994,1565,-3188,-303,412,535,1,7,11
7.24E+02,-6985,1592,-2961,-104,461,533,1,7,11
7.10E+02,-6971,1614,-3015,264,483,546,1,7,11
6.99E+02,-6927,1644,-3354,333,494,555,1,7,11
6.95E+02,-6920,1437,-3454,354,783,529,1,7,11
6.97E+02,-6935,1465,-3245,293,782,243,1,7,11
7.06E+02,-6950,1493,-3301,-48,499,205,1,7,11
7.12E+02,-6958,1497,-3291,89,444,177,1,7,11
7.10E+02,-6922,1491,-3261,1,621,156,1,7,11
6.95E+02,-6633,1490,-3232,-290,589,382,1,7,11
6.78E+02,-6616,1484,-3454,-289,575,365,1,7,11
6.69E+02,-6598,1480,-3203,9,564,353,1,7,11
6.69E+02,-6593,1497,-3213,60,567,334,1,7,11
6.70E+02,-6612,1524,-3250,99,569,315,1,7,11
6.69E+02,-6586,1527,-3280,103,551,315,1,7,11
6.64E+02,-6585,1534,-3313,96,550,296,1,7,11
6.58E+02,-6595,1800,-3325,66,547,284,1,7,11
6.53E+02,-6566,1530,-3318,37,515,289,1,7,11
6.50E+02,-6781,1522,-3597,36,241,286,1,7,11
6.50E+02,-6776,1528,-3619,38,240,275,1,7,11
6.52E+02,-6780,1794,-3639,46,228,274,1,7,11
6.51E+02,-6783,1802,-3669,53,203,282,1,7,11
6.47E+02,-6778,1804,-3680,50,175,294,1,7,11
6.38E+02,-6778,1813,-3671,42,152,296,1,7,11
6.26E+02,-6772,1816,-3654,49,381,289,1,7,11
6.15E+02,-6770,1834,-3649,64,358,277,1,7,11
6.10E+02,-6755,1842,-3631,73,334,259,1,7,11
6.16E+02,-6745,1852,-3652,112,309,-11,1,7,11
6.24E+02,-6724,1857,-3664,-123,279,-18,1,7,11
6.24E+02,-6733,1868,-3707,-113,290,-42,1,7,11
6.15E+02,-6750,1865,-3457,112,298,-51,1,7,11
6.05E+02,-6761,1864,-3710,85,294,-67,1,7,11
5.96E+02,-6761,1858,-3469,54,271,-77,1,7,11
5.92E+02,-6745,1852,-3488,17,-4,-76,1,7,11
5.94E+02,-6740,1845,-3484,-284,-10,-83,1,7,11
6.01E+02,-6739,1845,-3469,-336,-18,-88,1,7,11
6.11E+02,-6743,1844,-3706,-384,-22,-85,1,7,11
6.24E+02,-6743,1854,-3688,-151,-23,-75,1,7,11
6.41E+02,-6740,1859,-3681,-162,-26,-58,1,7,11
6.60E+02,-6714,1862,-3675,-169,-16,-37,1,7,11
6.81E+02,-6703,1866,-3674,-166,274,-33,1,7,11
7.01E+02,-6710,1875,-3664,-161,309,-32,1,7,11
7.17E+02,-6720,1878,-3653,-139,334,-45,1,7,11
7.35E+02,-6731,1891,-3661,-371,341,-58,1,7,11
7.60E+02,-6740,1888,-3671,-358,338,-61,1,7,11
7.99E+02,-6747,1890,-3674,-348,333,-67,1,7,11
8.42E+02,-6725,1891,-3669,-349,317,-60,1,7,11
8.83E+02,-6721,1888,-3673,-338,328,-41,1,7,11
9.10E+02,-6709,1889,-3692,-315,357,-19,1,7,11
9.21E+02,-6709,1892,-3706,-299,375,256,1,7,11
9.24E+02,-6694,1897,-3463,-283,382,279,1,7,11
9.24E+02,-6698,1906,-3476,-282,378,287,1,7,11
9.30E+02,-6673,1915,-3491,-285,354,298,1,7,11
9.40E+02,-6389,1671,-3494,-281,335,293,1,7,11
9.51E+02,-6398,1693,-3510,-285,339,270,1,7,11
9.57E+02,-6657,1693,-3499,-300,334,-1,1,7,11
9.55E+02,-6666,1694,-3481,-296,326,-35,1,7,11
9.48E+02,-6679,1696,-3469,-277,300,-75,1,7,11
9.43E+02,-6672,1705,-3465,-264,267,-104,1,7,11
9.47E+02,-6400,1695,-3467,6,-5,-128,1,7,11
9.63E+02,-6400,1689,-3461,15,-6,109,1,7,11
9.86E+02,-6667,1675,-3692,35,261,94,1,7,11
1.01E+03,-6659,1919,-3690,81,264,94,1,7,11
1.02E+03,-6390,1915,-3461,-119,280,95,1,7,11
1.02E+03,-6384,1907,-3477,-80,316,99,1,7,11
1.00E+03,-6372,1898,-3498,-33,344,93,1,7,11
9.86E+02,-6379,1905,-3538,263,375,82,1,7,11
9.73E+02,-6385,1907,-3582,-19,140,90,1,7,11
9.71E+02,-6385,1909,-3858,-80,152,108,1,7,11
9.77E+02,-6379,1909,-3866,123,148,124,1,7,11
9.89E+02,-6359,1897,-3862,85,141,-122,1,7,11
1.00E+03,-6369,1909,-3866,60,149,-128,1,7,11
1.02E+03,-6377,1665,-3874,24,143,-122,1,7,11
1.03E+03,-6360,1668,-3879,-269,383,-97,1,7,11
1.04E+03,-6334,1678,-3892,-303,376,-79,1,7,11
1.04E+03,-6315,1672,-3901,-343,132,-70,1,7,11
1.04E+03,-6316,1670,-3895,-375,145,-77,1,7,11
1.03E+03,-6330,1680,-3913,-145,140,-83,1,7,11
1.02E+03,-6323,1683,-3915,-166,369,-76,1,7,11
1.02E+03,-6313,1687,-3920,-164,328,-85,1,7,11
1.02E+03,-6304,1688,-3923,-155,280,-95,1,7,11
1.03E+03,-6287,1680,-3927,-132,-26,-117,1,7,11
1.04E+03,-6295,1675,-3924,-342,-80,107,1,7,11
1.05E+03,-6294,1681,-3934,-302,124,77,1,7,11
1.06E+03,-6283,1682,-3946,-279,77,58,1,7,11
1.05E+03,-6291,1689,-3944,-277,43,47,1,7,11
1.04E+03,-6286,1686,-3957,-286,5,55,1,7,11
1.03E+03,-6302,1697,-3953,-291,-287,53,1,7,11
1.01E+03,-6305,1703,-3944,-293,-353,40,1,7,11
1.00E+03,-6322,1709,-3939,-289,-145,35,1,7,11
9.95E+02,-6329,1702,-3927,-292,-214,31,1,7,11
9.95E+02,-6325,1711,-3929,-292,-540,17,1,7,11
1.00E+03,-6310,1709,-3904,-305,-593,-258,1,7,11
1.02E+03,-6311,1704,-3880,-302,-635,-291,1,7,11
1.04E+03,-6329,1706,-3864,-281,-417,-336,1,7,11
1.06E+03,-6351,1700,-3853,-282,-465,-374,1,7,11
1.07E+03,-6361,1688,-3557,-285,-772,-152,1,7,11
1.07E+03,-6391,1689,-3543,-282,-828,-194,1,7,11
1.06E+03,-6677,1688,-3519,-294,-890,-223,1,7,11
1.04E+03,-6684,1667,-3482,-303,-694,-241,1,7,11
1.02E+03,-6717,1910,-3690,-290,-734,-543,1,7,11
9.98E+02,-6750,1890,-3627,-264,-1057,-592,1,7,11
9.80E+02,-6538,1885,-3618,40,-1143,-396,1,7,11
9.70E+02,-6566,1877,-3585,58,-980,-429,1,7,11
9.74E+02,-6604,1864,-3306,83,-1336,-465,1,7,11
9.92E+02,-6634,1840,-3279,99,-1222,-493,1,7,11
1.02E+03,-6918,1806,-3234,-119,-1647,-781,1,7,11
1.03E+03,-6650,1521,-3227,-42,-1843,-835,1,7,11
1.04E+03,-6931,1508,-3437,298,-1747,-647,1,7,11
1.02E+03,-6972,1497,-3382,140,-2159,-774,1,7,11
9.94E+02,-6785,1473,-3042,242,-2320,-1144,1,7,11
9.56E+02,-6851,1439,-3118,565,-2625,-1009,1,7,11
9.20E+02,-6908,1660,-2806,396,-2845,-1407,1,7,11
8.89E+02,-7239,1617,-2928,441,-2801,-1560,1,7,11
8.64E+02,-7069,1559,-2541,768,-3028,-1479,1,7,11
8.47E+02,-7154,1256,-2684,854,-3272,-1911,1,7,11
8.38E+02,-7469,1169,-2245,657,-3513,-2081,1,7,11
8.37E+02,-7538,1317,-2330,755,-3757,-2034,1,7,11
8.42E+02,-7385,958,-2146,1145,-4001,-2264,1,7,11
8.53E+02,-7776,1076,-1918,1304,-4300,-2514,1,7,11
8.68E+02,-7603,690,-1519,1564,-4940,-2752,1,7,11
8.87E+02,-7941,815,-1656,1529,-5072,-2974,1,7,11
9.09E+02,-7980,422,-1274,1737,-5682,-3376,1,7,11
9.34E+02,-7999,572,-1187,1986,-5991,-3239,1,7,11
9.61E+02,-7670,188,-1371,2213,-6220,-3285,1,7,11
9.90E+02,-7594,308,-1299,2447,-6025,-3592,1,7,11
1.02E+03,-7591,-47,-985,2931,-6175,-3687,1,7,11
1.05E+03,-7957,-123,-1139,2779,-5946,-3501,1,7,11
1.08E+03,-8046,54,-736,2797,-5699,-3482,1,7,11
1.10E+03,-7875,-302,-808,2739,-5462,-3673,1,7,11
1.12E+03,-7914,-181,-592,2897,-5248,-3591,1,7,11
1.14E+03,-8203,-582,-377,2820,-4788,-3284,1,7,11
1.15E+03,-8232,-484,98,2481,-4872,-3272,1,7,11
1.16E+03,-8275,-895,311,2643,-4708,-3299,1,7,11
1.17E+03,-8065,-1057,549,2574,-4320,-3588,1,7,11
1.17E+03,-8312,-929,508,2579,-4257,-3586,1,7,11
1.18E+03,-8309,-1291,679,2617,-4459,-3306,1,7,11
1.18E+03,-8068,-1365,751,2664,-4366,-3448,1,7,11
1.18E+03,-8086,-1193,1085,2571,-3980,-2999,1,7,11
1.17E+03,-8089,-1548,935,2417,-3816,-2773,1,7,11
1.16E+03,-8302,-1628,1010,1993,-3880,-2506,1,7,11
1.15E+03,-8218,-1481,1155,1788,-3602,-2236,1,7,11
1.13E+03,-7917,-1515,1220,1828,-2967,-1983,1,7,11
1.11E+03,-7898,-1821,1601,1607,-2839,-1739,1,7,11
1.09E+03,-7879,-1861,1446,1378,-2235,-1493,1,7,11
1.08E+03,-7840,-1667,1869,1122,-1946,-1249,1,7,11
1.07E+03,-7812,-1750,1726,892,-1679,-1289,1,7,11
1.06E+03,-7971,-2098,2137,434,-1480,-1099,1,7,11
1.06E+03,-8013,-2106,1965,557,-1555,-1041,1,7,11
1.06E+03,-7946,-2153,2007,160,-1220,-689,1,7,11
1.06E+03,-7669,-1934,2324,264,-1366,-803,1,7,11
1.06E+03,-7626,-1978,2416,82,-1002,-451,1,7,11
1.06E+03,-7646,-2010,2259,-343,-1090,-402,1,7,11
1.05E+03,-7608,-2313,2602,-571,-1071,-591,1,7,11
1.03E+03,-7798,-2354,2683,-411,-1080,-557,1,7,11
1.01E+03,-7715,-2399,2491,-456,-1096,-585,1,7,11
9.90E+02,-7693,-2189,2545,-452,-1063,-422,1,7,11
9.78E+02,-7688,-2221,2834,-441,-1027,-512,1,7,11
9.79E+02,-7725,-2250,2888,-435,-722,-841,1,7,11
9.91E+02,-7739,-2292,2700,-427,-717,-872,1,7,11
1.01E+03,-7723,-2606,2760,-622,-734,-657,1,7,11
1.03E+03,-7803,-2637,3076,-552,-735,-726,1,7,11
1.04E+03,-7760,-2674,3076,-212,-1042,-701,1,7,11
1.04E+03,-7807,-2647,2773,-375,-733,-667,1,7,11
1.04E+03,-7737,-2642,2704,-325,-869,-494,1,7,11
1.04E+03,-7735,-2674,2717,-344,-601,-593,1,7,11
1.04E+03,-7785,-2434,2718,-145,-288,-138,1,7,11
1.04E+03,-7783,-2467,2789,-228,-20,64,1,7,11
1.04E+03,-7805,-2474,3094,-237,226,-35,1,7,11
1.04E+03,-7575,-2446,3113,-223,414,354,1,7,11
1.03E+03,-7582,-2663,3118,-190,782,217,1,7,11
1.03E+03,-7570,-2600,2815,-137,853,549,1,7,11
1.03E+03,-7554,-2289,2718,-369,894,585,1,7,11
1.03E+03,-7773,-2214,2912,-352,669,585,1,7,11
1.03E+03,-7749,-2432,2853,-333,713,534,1,7,11
1.03E+03,-7765,-2414,2542,-305,750,187,1,7,11
1.04E+03,-7740,-2413,2507,-275,750,344,1,7,11
1.04E+03,-7721,-2405,2444,74,703,119,1,7,11
1.04E+03,-7715,-2384,2644,-106,665,-332,1,7,11
1.05E+03,-7704,-2365,2600,-37,864,-529,1,7,11
1.05E+03,-7750,-2327,2297,296,816,-488,1,7,11
1.04E+03,-7801,-2042,2240,349,497,-666,1,7,11
1.04E+03,-7584,-2044,2210,134,443,-1052,1,7,11
1.02E+03,-7588,-2322,2200,195,639,-1143,1,7,11
1.00E+03,-7579,-2350,2179,543,596,-971,1,7,11
9.82E+02,-7594,-2377,2416,393,580,-1308,1,7,11
9.61E+02,-7622,-2407,2412,495,571,-1369,1,7,11
9.44E+02,-7650,-2191,2416,832,549,-1391,1,7,11
9.34E+02,-7944,-2230,2408,886,253,-1391,1,7,11
9.35E+02,-8018,-2242,2404,848,178,-1359,1,7,11
9.49E+02,-7661,-2285,2419,783,340,-1011,1,7,11
9.77E+02,-7680,-2592,2250,469,331,-983,1,7,11
1.01E+03,-7661,-2641,2586,454,263,-933,1,7,11
1.05E+03,-7629,-2436,2684,467,-86,-1149,1,7,11
1.08E+03,-7627,-2472,2501,773,66,-1129,1,7,11
1.10E+03,-7630,-2496,2555,835,-303,-1114,1,7,11
1.10E+03,-7631,-2497,2845,650,-141,-1081,1,7,11
1.10E+03,-7622,-2511,2840,687,-215,-733,1,7,11
1.09E+03,-7802,-2508,2872,683,-253,-870,1,7,11
1.07E+03,-7793,-2486,2883,678,-251,-737,1,7,11
1.06E+03,-7776,-2469,2913,895,-255,-396,1,7,11
1.04E+03,-7761,-2458,2711,814,-256,-614,1,7,11
1.03E+03,-7747,-2686,2770,500,-517,-547,1,7,11
1.01E+03,-7747,-2658,3082,485,-517,-523,1,7,11
1.01E+03,-7704,-2655,3160,437,-542,-242,1,7,11
9.99E+02,-7403,-2663,3196,440,-568,-531,1,7,11
9.96E+02,-7377,-2648,2960,438,-604,-597,1,7,11
9.97E+02,-7338,-2636,2998,435,-637,-431,1,7,11
1.00E+03,-7322,-2634,3047,464,-394,-799,1,7,11
1.01E+03,-7317,-2653,3369,775,-400,-651,1,7,11
1.02E+03,-7305,-2672,3379,854,-415,-745,1,7,11
1.02E+03,-7528,-2444,3395,652,-426,-1079,1,7,11
1.03E+03,-7512,-2471,3401,689,-398,-903,1,7,11
1.03E+03,-7548,-2453,3394,722,-603,-964,1,7,11
1.03E+03,-7534,-2512,3419,699,-539,-948,1,7,11
1.03E+03,-7516,-2830,3453,691,-204,-1148,1,7,11
1.03E+03,-7524,-2855,3449,688,-339,-1100,1,7,11
1.02E+03,-7547,-2873,3372,895,83,-748,1,7,11
1.01E+03,-7534,-2902,3342,458,-19,-865,1,7,11
1.01E+03,-7529,-2936,3331,512,372,-472,1,7,11
1.00E+03,-7510,-2714,3346,342,202,-613,1,7,11
9.94E+02,-7504,-2725,3359,-51,244,-547,1,7,11
9.90E+02,-7517,-2730,3355,94,240,-242,1,7,11
9.87E+02,-7506,-2724,3068,19,217,-207,1,7,11
9.87E+02,-7529,-2689,3014,-305,191,-205,1,7,11
9.89E+02,-7520,-2691,2993,-142,145,-185,1,7,11
9.93E+02,-7510,-2711,2968,-230,306,-203,1,7,11
9.99E+02,-7520,-2722,3181,-576,-47,-516,1,7,11
1.00E+03,-7540,-2728,3134,-420,116,-579,1,7,11
1.01E+03,-7340,-2748,3090,-470,13,-597,1,7,11
1.02E+03,-7403,-2767,2703,-845,-152,-545,1,7,11
1.02E+03,-7739,-3074,2762,-977,-459,-146,1,7,11
1.02E+03,-7311,-3169,3006,-1556,-1046,2,1,7,11
1.02E+03,-7140,-2992,3069,-1397,-1136,-189,1,7,11
1.01E+03,-7126,-3060,3038,-758,-1044,-463,1,7,11
1.00E+03,-7435,-3407,3034,-609,-861,-884,1,7,11
9.85E+02,-7488,-3271,3043,5,-422,-685,1,7,11
9.69E+02,-7491,-3633,3045,316,-530,-654,1,7,11
9.56E+02,-7147,-3459,3017,385,-347,-834,1,7,11
9.53E+02,-7121,-3490,2988,673,-77,-795,1,7,11
9.59E+02,-7109,-3503,2975,1130,158,-500,1,7,11
9.72E+02,-7089,-3473,2958,1023,604,-463,1,7,11
9.87E+02,-7065,-3669,3181,1375,492,-426,1,7,11
1.00E+03,-7282,-3603,3149,1176,842,-636,1,7,11
1.01E+03,-7244,-3267,3090,1221,640,-613,1,7,11
1.02E+03,-7259,-3202,2780,1216,672,-607,1,7,11
1.02E+03,-7264,-3427,2739,1406,890,-584,1,7,11
1.02E+03,-7260,-3427,2728,1300,806,-612,1,7,11
1.01E+03,-7059,-3430,2756,959,441,-457,1,7,11
9.99E+02,-7098,-3435,2802,1150,516,-815,1,7,11
9.82E+02,-7120,-3444,3117,1118,302,-654,1,7,11
9.59E+02,-7123,-3211,3195,1087,50,-719,1,7,11
9.33E+02,-7152,-3281,3004,1057,-171,-1035,1,7,11
9.10E+02,-7472,-3604,3064,1040,-608,-1053,1,7,11
8.99E+02,-7500,-3660,3360,1039,-460,-760,1,7,11
9.05E+02,-7317,-3688,3369,1055,-477,-888,1,7,11
9.23E+02,-7348,-3703,3362,1055,-448,-465,1,7,11
9.49E+02,-7309,-3688,3052,1063,-607,-520,1,7,11
9.74E+02,-7483,-3681,2972,1082,-541,-353,1,7,11
9.92E+02,-7493,-3664,3162,1095,-336,-301,1,7,11
1.00E+03,-7313,-3647,3133,1108,261,-266,1,7,11
1.00E+03,-7367,-3326,2807,915,373,-274,1,7,11
9.96E+02,-7313,-3249,2724,984,149,-280,1,7,11
9.78E+02,-7546,-3423,2875,1294,191,-347,1,7,11
9.52E+02,-7322,-3355,2544,1308,213,-197,1,7,11
9.25E+02,-7346,-3055,2499,1299,180,-559,1,7,11
9.01E+02,-7324,-3028,2492,1006,352,-409,1,7,11
8.83E+02,-7297,-3043,2531,944,-28,-779,1,7,11
8.73E+02,-7520,-3346,2832,907,78,-883,1,7,11
8.72E+02,-7476,-3403,2885,1143,-327,-703,1,7,11
8.81E+02,-7155,-3220,2692,1127,-192,-747,1,7,11
8.97E+02,-7097,-3296,2763,1128,-529,-1029,1,7,11
9.12E+02,-7075,-3616,3094,1120,-591,-1035,1,7,11
9.22E+02,-7052,-3687,3171,1101,-409,-1034,1,7,11
9.22E+02,-7291,-3495,2992,1095,-504,-1044,1,7,11
9.16E+02,-7268,-3517,3049,1108,-874,-1057,1,7,11
9.10E+02,-7264,-3529,3383,1110,-752,-1074,1,7,11
9.06E+02,-7254,-3527,3449,1139,-916,-1078,1,7,11
9.06E+02,-7239,-3518,3251,926,-1342,-1063,1,7,11
9.06E+02,-7182,-3529,3330,1002,-1236,-1030,1,7,11
9.04E+02,-6848,-3560,3673,1357,-1589,-765,1,7,11
8.98E+02,-7006,-3544,3478,1240,-1642,-760,1,7,11
8.91E+02,-6656,-3508,3568,1630,-1657,-746,1,7,11
8.91E+02,-6689,-3505,3967,1447,-1635,-766,1,7,11
9.04E+02,-6853,-3473,3778,1844,-1590,-763,1,7,11
9.29E+02,-7063,-3499,4116,1791,-1210,-813,1,7,11
9.59E+02,-7126,-3459,4108,2307,-911,-183,1,7,11
9.86E+02,-7055,-3649,3791,2224,-656,278,1,7,11
1.00E+03,-7173,-3627,3795,2286,-597,472,1,7,11
1.00E+03,-6806,-3591,4132,1705,-313,1079,1,7,11
9.97E+02,-6924,-3256,4006,1524,32,1315,1,7,11
9.85E+02,-6540,-3420,4456,1190,-342,1393,1,7,11
9.75E+02,-6375,-3055,4641,847,-389,1360,1,7,11
9.68E+02,-6451,-3186,4527,592,-727,981,1,7,11
9.63E+02,-6062,-3087,4911,382,-979,1056,1,7,11
9.59E+02,-6191,-2764,4762,-35,-1373,861,1,7,11
9.56E+02,-5888,-2715,5125,120,-1334,614,1,7,11
9.52E+02,-5888,-2698,5225,10,-995,158,1,7,11
9.50E+02,-5847,-2709,5088,-384,-914,-27,1,7,11
9.51E+02,-5870,-2734,5432,-245,-1064,6,1,7,11
9.56E+02,-6176,-2788,5292,-619,-708,-199,1,7,11
9.63E+02,-6268,-3105,5643,-439,-870,-612,1,7,11
9.70E+02,-6117,-3162,5701,-476,-807,-461,1,7,11
9.72E+02,-6465,-2976,5752,-491,-786,-786,1,7,11
9.68E+02,-6305,-3034,5520,-463,-815,-831,1,7,11
9.58E+02,-6369,-3059,5747,-392,-645,-848,1,7,11
9.45E+02,-6662,-3062,5664,-564,-720,-826,1,7,11
9.29E+02,-6358,-3332,5315,-233,-1029,-492,1,7,11
9.13E+02,-6498,-3329,5453,-144,-725,-390,1,7,11
9.00E+02,-6137,-3336,5114,-345,-512,-567,1,7,11
8.92E+02,-6048,-3357,5098,-328,-196,-230,1,7,11
8.93E+02,-6240,-3376,5111,-345,-104,-152,1,7,11
9.02E+02,-6177,-3374,5376,-381,216,-337,1,7,11
9.14E+02,-6179,-3354,5389,-181,498,-301,1,7,11
9.26E+02,-6172,-3340,5389,-525,667,11,1,7,11
9.35E+02,-6161,-3065,5392,-626,751,62,1,7,11
9.42E+02,-6192,-3048,5379,-475,1024,102,1,7,11
9.50E+02,-6222,-3030,5113,-847,708,-102,1,7,11
9.62E+02,-6248,-3023,5113,-708,858,-52,1,7,11
9.78E+02,-6040,-3059,5408,-1069,475,-14,1,7,11
9.93E+02,-6106,-3363,5458,-1151,587,273,1,7,11
1.00E+03,-6510,-3400,5500,-916,187,296,1,7,11
9.96E+02,-6294,-3430,5248,-1151,297,138,1,7,11
9.74E+02,-6334,-3455,5489,-1081,-74,219,1,7,11
9.45E+02,-6329,-3219,5448,-735,-75,572,1,7,11
9.19E+02,-6338,-3234,5426,-815,-9,385,1,7,11
9.08E+02,-6393,-3235,5410,-418,355,423,1,7,11
9.12E+02,-6732,-3221,5384,-603,188,458,1,7,11
9.23E+02,-6553,-3450,5081,-210,248,495,1,7,11
9.35E+02,-6614,-3387,5017,-277,545,792,1,7,11
9.37E+02,-6655,-3072,5223,62,566,838,1,7,11
9.31E+02,-6932,-3008,5195,113,551,868,1,7,11
9.18E+02,-6948,-3197,5170,-116,521,876,1,7,11
9.02E+02,-6655,-3117,5152,-111,210,889,1,7,11
8.85E+02,-6616,-2773,5138,127,181,876,1,7,11
8.69E+02,-6588,-2921,4850,87,175,839,1,7,11
8.54E+02,-6549,-2528,4790,-271,174,795,1,7,11
8.39E+02,-6739,-2678,4762,-214,206,463,1,7,11
8.26E+02,-6668,-2617,4795,-470,521,581,1,7,11
8.17E+02,-6371,-2588,4814,-711,606,371,1,7,11
8.11E+02,-6363,-2578,4853,-922,432,123,1,7,11
8.10E+02,-6370,-2590,4858,-1301,770,-144,1,7,11
8.13E+02,-6357,-2625,4826,-1358,847,-394,1,7,11
8.18E+02,-6379,-2670,4765,-1355,683,-893,1,7,11
8.25E+02,-6717,-2477,4953,-1335,1033,-1106,1,7,11
8.32E+02,-6560,-2832,4918,-1306,1097,-979,1,7,11
8.39E+02,-6653,-2939,4885,-996,1107,-1022,1,7,11
8.44E+02,-6999,-2791,4595,-928,1072,-995,1,7,11
8.48E+02,-6856,-3130,4539,-1119,742,-900,1,7,11
8.53E+02,-7289,-2972,4698,-1094,832,-882,1,7,11
8.59E+02,-7149,-3031,4654,-1140,432,-615,1,7,11
8.69E+02,-7494,-3336,4611,-958,246,-302,1,7,11
8.80E+02,-7300,-3366,4324,-1310,297,262,1,7,11
8.93E+02,-7351,-3377,4291,-1161,59,543,1,7,11
9.07E+02,-7315,-3376,4253,-1540,-234,800,1,7,11
9.20E+02,-7512,-3367,4227,-1416,-506,738,1,7,11
9.29E+02,-7434,-3362,4466,-1525,-763,901,1,7,11
9.31E+02,-7069,-3366,4229,-1860,-979,1314,1,7,11
9.25E+02,-7196,-3383,4306,-1860,-1406,1203,1,7,11
9.13E+02,-6842,-3402,4672,-1480,-1269,1572,1,7,11
9.02E+02,-6787,-3416,4522,-1205,-1631,1412,1,7,11
8.95E+02,-7016,-3398,4574,-1079,-1522,1505,1,7,11
8.94E+02,-6986,-3048,4542,-640,-1685,1859,1,7,11
8.97E+02,-6653,-2957,4506,-271,-2060,1722,1,7,11
9.03E+02,-6625,-3100,4532,291,-2080,1775,1,7,11
9.09E+02,-6590,-2931,4591,233,-2067,1776,1,7,11
9.16E+02,-6554,-2534,4872,387,-1791,1718,1,7,11
9.22E+02,-6735,-2644,4585,477,-1746,1878,1,7,11
9.28E+02,-6392,-2266,4579,432,-1917,1500,1,7,11
9.31E+02,-6528,-2409,4934,-35,-1262,1015,1,7,11
9.30E+02,-6484,-2401,4989,-354,-1201,1040,1,7,11
9.23E+02,-6476,-2420,4775,-609,-753,810,1,7,11
9.10E+02,-6473,-2228,4816,-946,-851,611,1,7,11
8.90E+02,-6458,-2574,4841,-1255,-449,200,1,7,11
8.71E+02,-6451,-2670,4835,-1509,-572,331,1,7,11
8.57E+02,-6453,-2520,4814,-1711,-191,-18,1,7,11
8.53E+02,-6497,-2866,4790,-2115,-325,-78,1,7,11
8.55E+02,-6289,-2692,4744,-1950,31,-82,1,7,11
8.58E+02,-6330,-2752,4956,-2003,116,-26,1,7,11
8.59E+02,-6360,-3077,4923,-2032,-80,325,1,7,11
8.56E+02,-6329,-3133,4878,-2014,-58,183,1,7,11
8.52E+02,-6298,-3187,4589,-1983,-40,517,1,7,11
8.49E+02,-6505,-2991,4580,-1933,-41,557,1,7,11
8.47E+02,-6465,-3047,4584,-2126,-47,547,1,7,11
8.42E+02,-6454,-3360,4605,-1788,-47,228,1,7,11
8.31E+02,-6439,-3419,4895,-1701,-39,137,1,7,11
8.11E+02,-6466,-3232,4940,-1845,262,-6,1,7,11
7.91E+02,-6492,-3275,4957,-1434,315,96,1,7,11
7.79E+02,-6509,-3296,4970,-1273,163,-309,1,7,11
7.85E+02,-6309,-3300,4967,-1377,577,-209,1,7,11
8.01E+02,-6389,-3265,4906,-962,483,-590,1,7,11
8.15E+02,-6738,-3215,4566,-1094,648,-405,1,7,11
8.12E+02,-6560,-3452,4705,-768,1065,-406,1,7,11
7.93E+02,-6649,-3435,4336,-737,977,-616,1,7,11
7.73E+02,-6984,-3448,4227,-743,1360,-532,1,7,11
7.65E+02,-6815,-3440,4375,-756,1198,-182,1,7,11
7.71E+02,-7202,-3413,3978,-1045,1253,-351,1,7,11
7.85E+02,-7059,-3406,4201,-1104,1217,21,1,7,11
7.97E+02,-7120,-3393,4119,-897,1356,-104,1,7,11
8.02E+02,-7143,-3362,3799,-952,931,271,1,7,11
8.04E+02,-7136,-3337,3735,-1018,742,368,1,7,11
8.04E+02,-7120,-3065,3734,-1330,806,175,1,7,11
8.05E+02,-7086,-3343,3747,-1382,602,220,1,7,11
8.06E+02,-7219,-3380,3777,-1404,142,249,1,7,11
8.07E+02,-6896,-3434,3816,-1402,-20,229,1,7,11
8.07E+02,-6855,-3223,4113,-1359,112,147,1,7,11
8.06E+02,-6809,-3272,4156,-1303,15,339,1,7,11
8.05E+02,-6787,-3323,4218,-988,-333,272,1,7,11
8.04E+02,-6818,-3626,4008,-927,-358,-48,1,7,11
8.03E+02,-6892,-3642,4003,-1058,-374,-63,1,7,11
7.97E+02,-6902,-3677,4010,-741,-130,-9,1,7,11
7.86E+02,-7211,-3666,3975,-673,-312,307,1,7,11
7.69E+02,-7287,-3657,4176,-687,11,165,1,7,11
7.53E+02,-7096,-3615,3831,-1062,44,607,1,7,11
7.41E+02,-7058,-3272,4104,-1003,79,868,1,7,11
7.36E+02,-7232,-3271,4173,-1311,-38,719,1,7,11
7.34E+02,-7232,-3201,4156,-957,348,696,1,7,11
7.33E+02,-7236,-3417,4170,-1114,375,651,1,7,11
7.30E+02,-7248,-3332,4102,-699,354,859,1,7,11
7.26E+02,-7229,-3033,3810,-865,295,824,1,7,11
7.17E+02,-7204,-3014,3802,-777,-15,774,1,7,11
7.06E+02,-6903,-2985,3791,-425,-97,448,1,7,11
6.90E+02,-6869,-2974,3791,-612,107,592,1,7,11
6.72E+02,-6839,-2960,3796,-542,52,228,1,7,11
6.60E+02,-6814,-3186,3768,-225,18,135,1,7,11
6.61E+02,-6788,-3159,3766,-211,6,313,1,7,11
6.78E+02,-7018,-3151,3786,-208,3,-22,1,7,11
6.94E+02,-6999,-3167,3820,-215,-281,-103,1,7,11
6.92E+02,-6969,-3168,3827,-213,-329,66,1,7,11
6.72E+02,-6958,-3195,4109,-230,-372,-291,1,7,11
6.49E+02,-6915,-2986,4146,-250,-154,-147,1,7,11
6.39E+02,-6629,-3025,4159,-249,-168,-536,1,7,11
6.44E+02,-6915,-3048,4159,-247,-146,-414,1,7,11
6.63E+02,-6956,-3062,4163,-535,-381,-496,1,7,11
6.92E+02,-6984,-3368,4173,-574,-340,-796,1,7,11
7.18E+02,-6981,-3420,4186,-614,-315,-790,1,7,11
7.30E+02,-6962,-3234,4213,-398,4,-775,1,7,11
7.26E+02,-7002,-3590,4004,-638,-125,-501,1,7,11
7.16E+02,-7021,-3637,3996,-586,-32,-464,1,7,11
7.09E+02,-7014,-3696,3988,-525,310,-413,1,7,11
7.10E+02,-6970,-3494,4223,-206,128,-616,1,7,11
7.15E+02,-6938,-3525,4202,-136,220,-595,1,7,11
7.19E+02,-6964,-3540,4184,-318,583,-595,1,7,11
7.23E+02,-7027,-3511,4139,46,436,-579,1,7,11
7.29E+02,-6849,-3687,3765,-110,779,-256,1,7,11
7.38E+02,-6877,-3325,3893,-90,841,-141,1,7,11
7.49E+02,-6902,-3246,3539,108,655,-304,1,7,11
7.62E+02,-7205,-3436,3516,17,687,25,1,7,11
7.72E+02,-7244,-3390,3501,-336,652,82,1,7,11
7.80E+02,-7292,-3349,3501,-164,827,-120,1,7,11
7.84E+02,-7261,-3377,3573,-255,422,-52,1,7,11
7.83E+02,-7213,-3416,3845,-522,526,-27,1,7,11
7.77E+02,-7175,-3455,3866,-232,149,-38,1,7,11
7.71E+02,-6875,-3219,3881,-182,314,-72,1,7,11
7.68E+02,-6820,-3232,3926,-374,267,-123,1,7,11
7.68E+02,-6856,-3242,3925,15,272,25,1,7,11
7.72E+02,-6868,-3233,3936,86,-19,1,1,7,11
7.79E+02,-6898,-3205,3929,-127,-1,-269,1,7,11
7.87E+02,-7196,-3437,3953,-114,257,0,1,7,11
7.97E+02,-7202,-3419,3962,-111,-20,47,1,7,11
8.08E+02,-7206,-3419,3742,-122,-44,85,1,7,11
8.19E+02,-7175,-3430,3775,-118,-87,114,1,7,11
8.28E+02,-6890,-3449,3793,-100,-117,115,1,7,11
8.34E+02,-6861,-3451,3793,-57,-126,96,1,7,11
8.35E+02,-6840,-3443,3780,-13,-102,72,1,7,11
8.32E+02,-6859,-3422,3759,270,-58,40,1,7,11
8.27E+02,-6872,-3397,3742,270,-29,23,1,7,11
8.22E+02,-6889,-3372,3727,256,-5,14,1,7,11
8.20E+02,-6901,-3350,3720,-36,257,11,1,7,11
8.23E+02,-6891,-3355,3725,-79,-23,11,1,7,11
8.37E+02,-6866,-3338,3962,-107,-40,-258,1,7,11
8.61E+02,-6875,-3069,3951,110,-52,-284,1,7,11
8.91E+02,-6882,-3053,3934,75,-71,-306,1,7,11
9.20E+02,-6893,-3053,3932,38,-94,-316,1,7,11
9.43E+02,-6885,-3047,3926,12,-108,-314,1,7,11
9.56E+02,-6889,-3050,3927,-276,-113,-313,1,7,11
9.60E+02,-6861,-3337,3960,-315,-128,-308,1,7,11
9.59E+02,-6831,-3378,3736,-322,112,-325,1,7,11
9.52E+02,-6801,-3414,3757,-294,92,-360,1,7,11
9.43E+02,-7038,-3437,3763,-258,81,-158,1,7,11
9.32E+02,-7034,-3209,3762,21,84,-218,1,7,11
9.21E+02,-6791,-3232,3741,40,104,-530,1,7,11
9.10E+02,-6813,-3251,3713,49,-117,-568,1,7,11
9.02E+02,-6851,-3263,3940,42,-62,-585,1,7,11
8.98E+02,-6876,-3284,3913,17,-20,-578,1,7,11
9.00E+02,-6876,-3298,3881,-264,284,-566,1,7,11
9.10E+02,-7173,-3303,3863,-289,366,-549,1,7,11
9.25E+02,-7210,-3296,3582,-311,129,-517,1,7,11
9.41E+02,-7233,-3293,3557,-364,373,-210,1,7,11
9.55E+02,-7234,-3302,3544,-160,341,-159,1,7,11
9.66E+02,-7228,-3317,3538,-208,298,-375,1,7,11
9.72E+02,-7206,-3321,3533,-223,-7,-345,1,7,11
9.74E+02,-7182,-3315,3509,-221,-45,-330,1,7,11
9.73E+02,-7177,-3305,3486,-223,-75,-326,1,7,11
9.70E+02,-7172,-3287,3464,-226,-97,-323,1,7,11
9.64E+02,-7192,-3266,3456,-250,-108,-321,1,7,11
9.56E+02,-7213,-3260,3498,-556,121,-305,1,7,11
9.46E+02,-7222,-3275,3569,-595,65,-281,1,7,11
9.35E+02,-7202,-3301,3894,-594,-285,4,1,7,11
9.22E+02,-6911,-3586,3964,-556,-131,24,1,7,11
9.09E+02,-6867,-3617,3764,-235,-226,30,1,7,11
8.95E+02,-6818,-3637,3790,-158,-551,26,1,7,11
8.80E+02,-7016,-3653,3787,-343,-570,18,1,7,11
8.66E+02,-6986,-3667,3802,-288,-531,-262,1,7,11
8.53E+02,-6978,-3671,3806,9,-207,-283,1,7,11
8.42E+02,-6992,-3666,3814,27,-131,-298,1,7,11
8.32E+02,-7007,-3659,3831,19,-335,-293,1,7,11
8.24E+02,-7004,-3650,4097,-262,-309,-276,1,7,11
8.18E+02,-7013,-3633,4098,-289,-278,-259,1,7,11
8.12E+02,-7033,-3617,3839,-336,-259,31,1,7,11
8.08E+02,-7021,-3595,3818,-366,10,82,1,7,11
8.05E+02,-6789,-3293,3775,-132,62,124,1,7,11
8.02E+02,-6826,-3246,3757,-197,105,-80,1,7,11
7.99E+02,-6826,-3235,3765,-553,108,-22,1,7,11
7.98E+02,-7040,-3257,3787,-638,67,274,1,7,11
8.00E+02,-6971,-3301,3820,-418,12,269,1,7,11
8.08E+02,-6916,-3598,3834,-394,-270,-46,1,7,11
8.20E+02,-6648,-3602,3809,-568,3,120,1,7,11
8.30E+02,-6929,-3321,3746,-211,59,36,1,7,11
8.33E+02,-6994,-3292,3939,-159,-121,-270,1,7,11
8.28E+02,-7021,-3299,3905,-177,-69,-275,1,7,11
8.18E+02,-7010,-3589,3894,-214,-37,-268,1,7,11
8.09E+02,-7022,-3622,3881,-208,259,-297,1,7,11
8.06E+02,-6822,-3621,3858,-176,298,-330,1,7,11
8.09E+02,-6883,-3609,3840,-160,314,-315,1,7,11
8.21E+02,-7183,-3588,3562,-166,301,2,1,7,11
8.42E+02,-7191,-3639,3864,-244,-48,-124,1,7,11
8.70E+02,-6862,-3706,3933,-241,112,-74,1,7,11
9.00E+02,-6811,-3490,3728,-180,45,-90,1,7,11
9.27E+02,-6799,-3521,3763,-341,0,119,1,7,11
9.47E+02,-6810,-3516,3772,27,-289,78,1,7,11
9.59E+02,-6824,-3493,3778,112,-304,76,1,7,11
9.59E+02,-6833,-3464,3796,-89,-318,114,1,7,11
9.47E+02,-6825,-3702,3833,-58,-335,-82,1,7,11
9.22E+02,-6802,-3687,4131,-28,-365,-29,1,7,11
8.88E+02,-7030,-3654,4192,262,-155,258,1,7,11
8.51E+02,-6993,-3630,4219,295,-201,265,1,7,11
8.15E+02,-6979,-3613,4219,328,-234,262,1,7,11
7.88E+02,-6963,-3322,4212,358,-239,256,1,7,11
7.78E+02,-6943,-3284,4185,371,-225,-9,1,7,11
7.93E+02,-6928,-3250,4152,358,-184,-23,1,7,11
8.22E+02,-6919,-3207,4117,325,-380,-38,1,7,11
8.44E+02,-6941,-3427,3838,268,-302,-65,1,7,11
8.40E+02,-6974,-3399,3823,-67,28,-98,1,7,11
8.06E+02,-7011,-3387,3826,107,70,126,1,7,11
7.65E+02,-7027,-3376,4103,11,79,123,1,7,11
7.38E+02,-7015,-3382,4126,-341,46,118,1,7,11
7.33E+02,-6997,-3407,4148,-143,34,95,1,7,11
7.35E+02,-6977,-3455,4197,-186,14,52,1,7,11
7.30E+02,-6923,-3262,3968,-141,-275,-273,1,7,11
7.15E+02,-6624,-3311,3991,-334,-284,-375,1,7,11
7.00E+02,-6615,-3609,3999,-261,-282,-236,1,7,11
6.99E+02,-6618,-3633,3997,69,-263,-588,1,7,11
7.12E+02,-6647,-3636,4218,123,51,-387,1,7,11
7.34E+02,-6934,-3652,4197,119,122,-632,1,7,11
7.60E+02,-6920,-3683,4193,85,-73,-584,1,7,11
7.85E+02,-6923,-3710,4191,73,261,-554,1,7,11
8.03E+02,-6958,-3710,4167,80,345,-532,1,7,11
8.10E+02,-6985,-3703,4128,66,151,-223,1,7,11
8.06E+02,-6993,-3693,3820,37,201,-151,1,7,11
7.96E+02,-7012,-3667,3755,22,250,-343,1,7,11
7.84E+02,-6798,-3615,3943,-270,558,-282,1,7,11
7.75E+02,-6866,-3290,3885,-333,600,46,1,7,11
7.74E+02,-7170,-3255,3857,-187,586,-113,1,7,11
7.82E+02,-6893,-3258,3847,-556,516,-21,1,7,11
8.00E+02,-6884,-3286,3875,-397,182,259,1,7,11
8.23E+02,-6879,-3596,3932,-446,332,-22,1,7,11
8.43E+02,-6864,-3633,3743,-427,-50,-75,1,7,11
8.55E+02,-6845,-3677,3804,-619,77,121,1,7,11
8.58E+02,-6816,-3459,4102,-528,-310,72,1,7,11
8.55E+02,-7031,-3486,4126,-153,-160,30,1,7,11
8.47E+02,-7013,-3490,4160,-285,-220,-269,1,7,11
8.37E+02,-6994,-3475,4177,71,-520,-297,1,7,11
8.23E+02,-6974,-3458,4198,-105,-531,-296,1,7,11
8.05E+02,-6960,-3698,3975,-96,-531,-282,1,7,11
7.82E+02,-6931,-3684,3987,-105,-519,4,1,7,11
7.57E+02,-6649,-3670,4006,123,-217,33,1,7,11
7.33E+02,-6642,-3662,4015,75,-155,67,1,7,11
7.13E+02,-6634,-3655,4050,26,-348,106,1,7,11
6.96E+02,-6615,-3656,4077,-262,-283,-113,1,7,11
6.85E+02,-6614,-3653,4076,-265,36,-95,1,7,11
6.81E+02,-6610,-3639,4074,12,82,-80,1,7,11
6.82E+02,-6607,-3612,4050,50,126,-76,1,7,11
6.89E+02,-6620,-3306,4003,77,-81,-83,1,7,11
7.02E+02,-6922,-3246,4216,81,-25,-99,1,7,11
7.20E+02,-6977,-3430,4169,52,264,-101,1,7,11
7.43E+02,-6984,-3391,4146,-296,-8,-68,1,7,11
7.69E+02,-6950,-3403,4158,-174,-42,-49,1,7,11
7.95E+02,-6631,-3201,4209,-545,-94,-77,1,7,11
8.19E+02,-6558,-3259,3996,-595,120,95,1,7,11
8.41E+02,-6533,-3308,4038,-587,115,-299,1,7,11
8.60E+02,-6548,-3607,4061,-549,122,-186,1,7,11
8.78E+02,-6569,-3651,4081,-245,-116,-546,1,7,11
8.95E+02,-6585,-3689,4077,-189,-89,-597,1,7,11
9.13E+02,-6597,-3473,4073,-139,-42,-608,1,7,11
9.32E+02,-6613,-3507,4061,-340,281,-598,1,7,11
9.53E+02,-6627,-3537,4039,-282,357,-577,1,7,11
9.73E+02,-6653,-3543,4006,34,177,-542,1,7,11
9.87E+02,-6944,-3530,4213,74,242,-233,1,7,11
9.88E+02,-6980,-3511,4158,78,544,-158,1,7,11
9.70E+02,-6998,-3496,4120,52,567,-322,1,7,11
9.36E+02,-7011,-3486,3837,1,570,22,1,7,11
8.99E+02,-7026,-3471,3821,-298,560,97,1,7,11
8.78E+02,-6785,-3459,3823,-330,529,-80,1,7,11
8.84E+02,-7021,-3697,3805,-343,220,258,1,7,11
9.12E+02,-7025,-3683,3798,-355,175,318,1,7,11
9.49E+02,-7009,-3660,3786,-337,378,362,1,7,11
9.80E+02,-6976,-3635,3768,-313,343,129,1,7,11
9.94E+02,-6962,-3632,3753,-305,333,373,1,7,11
9.94E+02,-6971,-3617,3736,-291,325,332,1,7,11
9.87E+02,-6979,-3606,3721,-267,326,284,1,7,11
9.79E+02,-7012,-3593,3946,4,335,-17,1,7,11
9.75E+02,-7036,-3588,3934,-273,341,-39,1,7,11
9.75E+02,-6812,-3335,3956,-306,348,-64,1,7,11
9.75E+02,-6839,-3598,3722,-344,337,-77,1,7,11
9.73E+02,-6873,-3611,3751,-365,306,-85,1,7,11
9.65E+02,-6884,-3624,3802,-383,-1,-84,1,7,11
9.54E+02,-6866,-3653,4120,-137,-74,-77,1,7,11
9.40E+02,-6819,-3695,4177,-381,98,-70,1,7,11
9.27E+02,-7013,-3465,4212,-329,-271,-85,1,7,11
9.13E+02,-6962,-3476,3975,12,-298,-121,1,7,11
9.01E+02,-6919,-3474,4221,116,-328,86,1,7,11
8.89E+02,-6623,-3709,4199,-36,-299,32,1,7,11
8.79E+02,-6614,-3677,4172,321,27,-272,1,7,11
8.70E+02,-6625,-3649,4156,349,110,-308,1,7,11
8.64E+02,-6638,-3624,4157,356,-74,-322,1,7,11
8.60E+02,-6651,-3596,4151,354,-23,-320,1,7,11
8.59E+02,-6933,-3297,4157,345,265,-308,1,7,11
8.62E+02,-6992,-3234,4129,344,281,-284,1,7,11
8.69E+02,-6791,-3445,4100,307,275,26,1,7,11
8.81E+02,-7021,-3434,3827,-36,-16,101,1,7,11
8.98E+02,-6960,-3444,3836,123,-35,-126,1,7,11
9.18E+02,-6927,-3226,4139,39,-48,100,1,7,11
9.37E+02,-6916,-3255,4185,12,-79,38,1,7,11
9.52E+02,-6925,-3279,4220,11,-117,-297,1,7,11
9.58E+02,-6917,-3304,3980,14,83,-354,1,7,11
9.55E+02,-6921,-3595,3994,12,54,-152,1,7,11
9.45E+02,-6914,-3619,4001,15,45,-197,1,7,11
9.28E+02,-6913,-3654,3997,20,61,-229,1,7,11
9.07E+02,-6646,-3692,3993,27,97,-244,1,7,11
8.84E+02,-6641,-3470,3987,44,-101,-255,1,7,11
8.63E+02,-6640,-3493,3982,70,-35,-513,1,7,11
8.48E+02,-6653,-3517,3977,95,292,-245,1,7,11
8.39E+02,-6921,-3528,3978,120,355,-218,1,7,11
8.37E+02,-6955,-3528,4223,-99,150,-178,1,7,11
8.41E+02,-7003,-3472,4151,-52,178,-337,1,7,11
8.51E+02,-7021,-3665,3836,-75,184,7,1,7,11
8.64E+02,-7036,-3632,3785,99,180,104,1,7,11
8.77E+02,-7011,-3621,3755,-266,156,-66,1,7,11
8.87E+02,-7002,-3609,3733,-357,153,-30,1,7,11
8.93E+02,-6785,-3313,3961,-170,171,-18,1,7,11
8.96E+02,-6884,-3256,3922,-240,199,271,1,7,11
8.95E+02,-7200,-3220,3921,-611,178,374,1,7,11
8.92E+02,-7182,-3245,3959,-491,354,245,1,7,11
8.86E+02,-6873,-3300,3770,-836,-18,568,1,7,11
8.77E+02,-6800,-3621,3828,-846,110,558,1,7,11
8.68E+02,-7009,-3678,4135,-788,1,231,1,7,11
8.64E+02,-6987,-3701,4158,-436,-333,141,1,7,11
8.67E+02,-6966,-3464,4160,-597,-382,333,1,7,11
8.74E+02,-6944,-3472,4144,-248,-133,287,1,7,11
8.82E+02,-6943,-3461,4125,-146,-348,-15,1,7,11
8.91E+02,-6970,-3703,4111,-323,-280,-43,1,7,11
9.03E+02,-6979,-3675,4105,-274,36,-45,1,7,11
9.17E+02,-6975,-3649,4103,4,78,-34,1,7,11
9.33E+02,-6968,-3610,4113,18,98,-9,1,7,11
9.47E+02,-6950,-3299,4107,34,100,291,1,7,11
9.54E+02,-6644,-3227,3805,30,105,358,1,7,11
9.53E+02,-6599,-3422,3784,-264,-118,178,1,7,11
9.43E+02,-6568,-3393,3794,-334,-73,236,1,7,11
9.27E+02,-6548,-3420,3827,-163,-42,245,1,7,11
9.08E+02,-6541,-3453,4127,-235,-43,222,1,7,11
8.89E+02,-6551,-3228,4163,-528,-52,133,1,7,11
8.69E+02,-6582,-3255,4169,-541,-60,-49,1,7,11
8.46E+02,-6619,-3284,4171,-553,-46,96,1,7,11
8.18E+02,-6951,-3320,4183,-565,-8,-262,1,7,11
7.89E+02,-7001,-3627,4198,-578,271,-329,1,7,11
7.64E+02,-7036,-3687,4209,-564,295,-137,1,7,11
7.47E+02,-6809,-3484,4218,-526,325,-193,1,7,11
7.39E+02,-6841,-3522,3972,-201,365,-240,1,7,11
7.36E+02,-6876,-3544,4198,-363,155,-526,1,7,11
7.34E+02,-6896,-3544,4158,-274,197,-516,1,7,11
7.36E+02,-6896,-3533,4101,59,245,-216,1,7,11
7.50E+02,-6905,-3492,3779,121,549,-151,1,7,11
7.80E+02,-7170,-3692,3731,-107,591,-321,1,7,11
8.23E+02,-7184,-3646,3966,-119,611,34,1,7,11
8.66E+02,-7183,-3604,3960,99,579,-111,1,7,11
8.98E+02,-6899,-3319,3713,59,254,-10,1,7,11
9.10E+02,-6855,-3305,3726,22,159,318,1,7,11
9.05E+02,-6794,-3285,3726,-268,313,351,1,7,11
8.83E+02,-7026,-3270,3729,-305,-17,343,1,7,11
8.49E+02,-6996,-3253,3735,-347,-79,324,1,7,11
8.12E+02,-6987,-3252,3769,-139,-109,293,1,7,11
7.84E+02,-7005,-3250,3809,-187,123,262,1,7,11
7.68E+02,-7013,-3252,4111,-230,82,-14,1,7,11
7.59E+02,-7018,-3259,4148,-530,38,-37,1,7,11
7.53E+02,-7010,-3270,4172,-573,-269,-56,1,7,11
7.46E+02,-6979,-3279,4180,-619,-304,-78,1,7,11
7.37E+02,-6976,-3306,4196,-420,-315,-118,1,7,11
7.28E+02,-6951,-3591,4211,-453,-328,111,1,7,11
7.24E+02,-6915,-3614,4190,-477,-309,82,1,7,11
7.24E+02,-6643,-3635,4172,-502,-264,47,1,7,11
7.25E+02,-6637,-3649,4144,-774,47,17,1,7,11
7.23E+02,-6635,-3655,4119,-790,122,-266,1,7,11
7.17E+02,-6921,-3663,3830,-806,-60,-281,1,7,11
7.14E+02,-6915,-3663,3798,-823,-20,-271,1,7,11
7.19E+02,-6633,-3658,3771,-847,267,-257,1,7,11
7.30E+02,-6620,-3663,3745,-881,293,-258,1,7,11
7.45E+02,-6631,-3670,3739,-662,295,-270,1,7,11
7.60E+02,-6637,-3680,3747,-689,261,-273,1,7,11
7.72E+02,-6609,-3689,3728,-697,-60,-260,1,7,11
7.79E+02,-6596,-3461,3719,-710,-115,1,1,7,11
7.80E+02,-6602,-3494,3726,-729,94,-257,1,7,11
7.79E+02,-6990,-3546,3745,-760,83,-289,1,7,11
7.80E+02,-7014,-3852,3760,-1047,23,-306,1,7,11
7.91E+02,-7012,-3896,3767,-1052,-294,-338,1,7,11
8.12E+02,-6958,-3933,3734,-1041,-376,-359,1,7,11
8.40E+02,-6929,-3960,3951,-1028,-380,-137,1,7,11
8.72E+02,-6647,-3723,3939,-767,-371,-156,1,7,11
9.05E+02,-6921,-3751,3927,-765,-346,-160,1,7,11
9.37E+02,-6983,-3789,3933,-763,-335,-145,1,7,11
9.66E+02,-7002,-3801,3938,-746,-383,-346,1,7,11
9.89E+02,-7006,-3786,3919,-722,-197,-283,1,7,11
1.01E+03,-7012,-3775,3902,-726,-528,31,1,7,11
1.02E+03,-7028,-3772,3887,-758,-619,86,1,7,11
1.02E+03,-7034,-3784,3897,-1067,-477,-127,1,7,11
1.02E+03,-6801,-3783,3907,-1125,-859,-101,1,7,11
1.02E+03,-6815,-3773,3893,-928,-735,-65,1,7,11
1.01E+03,-6881,-3765,3846,-990,-1072,-41,1,7,11
1.00E+03,-7265,-3768,3536,-1336,-1097,-19,1,7,11
9.86E+02,-7442,-3782,3516,-1208,-1086,271,1,7,11
9.69E+02,-7477,-3808,3526,-1605,-1134,357,1,7,11
9.53E+02,-7139,-3824,3533,-1478,-934,172,1,7,11
9.39E+02,-6891,-3806,3543,-1799,-1005,254,1,7,11
9.31E+02,-6594,-3729,3486,-1800,-975,573,1,7,11
9.28E+02,-6667,-3911,3662,-1798,-1074,613,1,7,11
9.27E+02,-6340,-3584,3599,-1818,-865,427,1,7,11
9.23E+02,-6344,-3535,3601,-1868,-418,772,1,7,11
9.13E+02,-6667,-3506,3654,-1916,-566,850,1,7,11
8.96E+02,-6737,-3494,3471,-1707,-603,891,1,7,11
8.78E+02,-6780,-3482,3526,-1730,-507,892,1,7,11
8.60E+02,-6573,-3468,3574,-1738,-733,841,1,7,11
8.46E+02,-6652,-3708,3847,-1740,-960,768,1,7,11
8.36E+02,-7019,-3684,3850,-1742,-1168,453,1,7,11
8.28E+02,-6882,-3643,3571,-1744,-1587,431,1,7,11
8.24E+02,-7253,-3601,3540,-1776,-1446,474,1,7,11
8.22E+02,-7069,-3585,3534,-2101,-1524,850,1,7,11
8.25E+02,-7083,-3589,3540,-1924,-1811,747,1,7,11
8.33E+02,-7111,-3591,3842,-1981,-1522,1136,1,7,11
8.45E+02,-7134,-3328,3895,-2007,-1484,1011,1,7,11
8.56E+02,-7131,-3303,3967,-2001,-1460,1404,1,7,11
8.64E+02,-7090,-3276,3742,-1961,-1441,1540,1,7,11
8.64E+02,-7293,-3250,3747,-2144,-1655,1655,1,7,11
8.60E+02,-7200,-3456,3741,-1754,-1269,1506,1,7,11
8.53E+02,-6891,-3408,3717,-1683,-1164,1532,1,7,11
8.46E+02,-6816,-3372,3716,-1896,-1315,1521,1,7,11
8.42E+02,-7004,-3333,3965,-1851,-957,1460,1,7,11
8.43E+02,-6965,-3029,3947,-1813,-1108,1601,1,7,11
8.52E+02,-6947,-2998,3947,-1794,-762,1224,1,7,11
8.70E+02,-6952,-2994,3953,-1532,-674,1360,1,7,11
8.97E+02,-6999,-2994,3733,-1522,-841,979,1,7,11
9.25E+02,-6833,-2985,3793,-1489,-779,1126,1,7,11
9.48E+02,-7172,-2971,3835,-1439,-771,1073,1,7,11
9.61E+02,-7211,-2948,4100,-1643,-791,1071,1,7,11
9.63E+02,-7222,-3184,4120,-1598,-815,1083,1,7,11
9.58E+02,-7222,-3157,4132,-1540,-829,1092,1,7,11
9.47E+02,-7232,-3146,4134,-1219,-814,1092,1,7,11
9.36E+02,-7242,-3113,4130,-1408,-781,1106,1,7,11
9.26E+02,-7232,-3081,4117,-1348,-469,1129,1,7,11
9.22E+02,-7237,-2803,4109,-1297,-387,1137,1,7,11
9.26E+02,-7233,-2778,4112,-974,-553,1129,1,7,11
9.42E+02,-7225,-2742,4108,-1140,-204,1097,1,7,11
9.64E+02,-7240,-2709,4097,-1035,-361,1037,1,7,11
9.82E+02,-7244,-2934,4102,-661,-289,713,1,7,11
9.87E+02,-7224,-2888,4100,-775,11,827,1,7,11
9.73E+02,-7248,-2849,3836,-622,58,444,1,7,11
9.44E+02,-7268,-2821,3821,-136,94,574,1,7,11
9.08E+02,-7276,-2539,3797,-307,106,197,1,7,11
8.75E+02,-7276,-2509,3767,-69,106,341,1,7,11
8.50E+02,-7267,-2498,3732,299,115,-25,1,7,11
8.35E+02,-7278,-2501,3726,142,-112,109,1,7,11
8.29E+02,-7046,-2497,3721,234,-81,-264,1,7,11
8.33E+02,-7070,-2494,3716,560,-53,-366,1,7,11
8.41E+02,-7111,-2500,3720,608,-33,-202,1,7,11
8.48E+02,-7134,-2510,3739,393,-36,-533,1,7,11
8.47E+02,-7140,-2534,3777,427,-59,-594,1,7,11
8.42E+02,-7124,-2827,3813,468,-98,-394,1,7,11
8.41E+02,-7085,-2862,3831,787,118,-461,1,7,11
8.53E+02,-7055,-2891,4105,842,86,-791,1,7,11
8.79E+02,-7044,-2916,4146,883,53,-867,1,7,11
9.11E+02,-7286,-2700,4195,655,-263,-668,1,7,11
9.35E+02,-7257,-2733,3978,686,-340,-712,1,7,11
9.42E+02,-7211,-2770,4024,726,-162,-744,1,7,11
9.28E+02,-6892,-2804,4055,1032,-205,-1040,1,7,11
9.00E+02,-6856,-3082,4082,1079,-207,-1085,1,7,11
8.67E+02,-6818,-3104,4354,1109,-192,-1118,1,7,11
8.33E+02,-7039,-3127,4381,1129,-158,-1145,1,7,11
8.04E+02,-7000,-3145,4406,1140,-377,-909,1,7,11
7.80E+02,-6958,-3168,4422,1144,-338,-920,1,7,11
7.65E+02,-6922,-3188,4455,1146,-284,-933,1,7,11
7.56E+02,-6940,-2951,4254,1136,39,-950,1,7,11
7.49E+02,-6945,-2977,4322,1127,68,-930,1,7,11
7.43E+02,-6935,-3000,4644,1128,72,-1147,1,7,11
7.37E+02,-6927,-3027,4692,1143,73,-1109,1,7,11
7.34E+02,-6917,-3032,4731,912,73,-1069,1,7,11
7.35E+02,-6925,-3021,4493,918,114,-1026,1,7,11
7.37E+02,-6963,-3027,4518,1147,-78,-706,1,7,11
7.38E+02,-7019,-3053,4552,1099,269,-885,1,7,11
7.37E+02,-6810,-3331,4561,1073,376,-815,1,7,11
7.37E+02,-6864,-3070,4527,1063,253,-503,1,7,11
7.46E+02,-6884,-3047,4725,1051,386,-441,1,7,11
7.65E+02,-6897,-2994,4646,1029,800,-635,1,7,11
7.86E+02,-6893,-3199,4337,730,690,-600,1,7,11
7.96E+02,-6842,-3170,4298,662,1043,-576,1,7,11
7.85E+02,-7040,-3131,4248,869,1045,-596,1,7,11
7.63E+02,-6992,-3084,4440,826,1024,-395,1,7,11
7.46E+02,-6948,-2785,4379,771,741,-459,1,7,11
7.49E+02,-6927,-2771,4093,428,715,-789,1,7,11
7.66E+02,-6916,-2775,4358,597,668,-856,1,7,11
7.89E+02,-6629,-2802,4367,534,866,-658,1,7,11
8.07E+02,-6608,-3107,4373,228,834,-723,1,7,11
8.17E+02,-6602,-3156,4379,196,827,-1050,1,7,11
8.24E+02,-6615,-3196,4393,176,847,-1114,1,7,11
8.30E+02,-6633,-2992,4440,153,866,-1147,1,7,11
8.36E+02,-6628,-3062,4247,137,868,-1150,1,7,11
8.43E+02,-6605,-3384,4291,160,852,-897,1,7,11
8.50E+02,-6563,-3431,4310,211,842,-899,1,7,11
8.59E+02,-6543,-3211,4309,518,867,-912,1,7,11
8.68E+02,-6548,-3235,4315,550,651,-917,1,7,11
8.79E+02,-6531,-3253,4321,572,678,-1140,1,7,11
8.89E+02,-6753,-3270,4325,590,697,-1095,1,7,11
8.99E+02,-6722,-3297,4323,607,726,-1061,1,7,11
9.08E+02,-6713,-3319,4317,617,757,-1042,1,7,11
9.13E+02,-6723,-3325,4301,627,1045,-1034,1,7,11
9.13E+02,-6745,-3319,4278,612,1076,-764,1,7,11
9.07E+02,-6776,-3589,4277,570,1089,-733,1,7,11
9.02E+02,-6550,-3606,4278,531,1083,-709,1,7,11
9.04E+02,-6575,-3621,4258,249,1054,-681,1,7,11
9.17E+02,-6600,-3635,4227,221,1027,-651,1,7,11
9.36E+02,-6605,-3638,4453,189,752,-873,1,7,11
9.54E+02,-6605,-3655,4448,132,733,-836,1,7,11
9.59E+02,-6582,-3680,4452,350,707,-818,1,7,11
9.43E+02,-6572,-3703,4443,328,681,-831,1,7,11
9.14E+02,-6586,-3466,4432,303,663,-862,1,7,11
8.86E+02,-6602,-3488,4423,276,641,-885,1,7,11
8.70E+02,-6611,-3498,4390,-25,886,-896,1,7,11
8.71E+02,-6636,-3524,4376,-95,891,-645,1,7,11
8.79E+02,-6655,-3559,4367,94,874,-888,1,7,11
8.84E+02,-6647,-3588,4080,42,843,-859,1,7,11
8.76E+02,-6648,-3885,4056,-279,823,-819,1,7,11
8.55E+02,-6631,-3911,4013,-345,805,-769,1,7,11
8.28E+02,-6620,-3925,4216,-140,792,-463,1,7,11
8.00E+02,-6629,-3929,4161,-186,805,-394,1,7,11
7.73E+02,-6614,-3923,4121,-514,822,-584,1,7,11
7.49E+02,-6607,-3915,3824,-567,831,-518,1,7,11
7.30E+02,-6577,-3906,3787,-609,821,-199,1,7,11
7.15E+02,-6529,-3899,3752,-394,801,-148,1,7,11
7.05E+02,-6723,-3894,3719,-438,780,-380,1,7,11
6.99E+02,-6690,-3886,3940,-469,770,-382,1,7,11
6.96E+02,-6658,-3891,3904,-498,497,-130,1,7,11
6.99E+02,-6358,-3899,3877,-785,489,-142,1,7,11
7.06E+02,-6343,-3927,3863,-806,495,-176,1,7,11
7.16E+02,-6331,-3965,3853,-803,498,-210,1,7,11
7.25E+02,-6320,-3750,3583,-778,492,-240,1,7,11
7.30E+02,-6313,-3796,3558,-482,487,-524,1,7,11
7.32E+02,-6308,-4101,3532,-441,475,-552,1,7,11
7.36E+02,-6311,-4163,3493,-394,466,-579,1,7,11
7.41E+02,-6334,-3983,3457,-613,455,-596,1,7,11
7.51E+02,-6380,-4058,3687,-581,439,-610,1,7,11
7.67E+02,-6693,-4380,3662,-550,396,-599,1,7,11
7.88E+02,-6740,-4426,3643,-517,583,-566,1,7,11
8.12E+02,-6783,-4466,3610,-243,255,-513,1,7,11
8.36E+02,-6558,-4246,3321,-241,195,-196,1,7,11
8.55E+02,-6585,-4282,3297,-249,144,-384,1,7,11
8.70E+02,-6610,-4312,3273,-250,369,-323,1,7,11
8.82E+02,-6649,-4333,3255,-255,356,-277,1,7,11
8.90E+02,-6954,-4612,3253,-519,336,29,1,7,11
8.98E+02,-6998,-4619,3242,-514,303,88,1,7,11
9.04E+02,-7028,-4615,3214,-251,262,-96,1,7,11
9.10E+02,-6812,-4609,3437,-252,-32,-31,1,7,11
9.15E+02,-6841,-4340,3411,-251,-87,293,1,7,11
9.18E+02,-6848,-4343,3394,-520,105,355,1,7,11
9.21E+02,-6867,-4332,3397,-527,37,135,1,7,11
9.24E+02,-6857,-4310,3395,-519,-314,181,1,7,11
9.25E+02,-6802,-4271,3378,-224,-189,236,1,7,11
9.27E+02,-7040,-4252,3396,-191,-254,532,1,7,11
9.28E+02,-7010,-4243,3415,-143,-567,602,1,7,11
9.29E+02,-7005,-4248,3454,-321,-605,433,1,7,11
9.28E+02,-6998,-4286,3270,58,-388,805,1,7,11
9.24E+02,-7028,-4349,3619,269,-396,686,1,7,11
9.17E+02,-6835,-4671,3696,589,-401,1136,1,7,11
9.03E+02,-7222,-4481,3499,732,-400,1165,1,7,11
8.79E+02,-7117,-4538,3546,1213,-393,1856,1,7,11
8.48E+02,-7312,-4569,3577,1787,-395,2200,1,7,11
8.15E+02,-7717,-4535,3566,2666,-486,2971,1,7,11
7.90E+02,-7691,-4700,3526,2949,-742,3814,1,7,11
7.76E+02,-7532,-4277,3483,3623,-1374,4536,1,7,11
7.71E+02,-7120,-3990,3672,3933,-1512,5015,1,7,11
7.71E+02,-7199,-3882,3604,4109,-2149,5293,1,7,11
7.69E+02,-7001,-3019,3307,4099,-2185,5619,1,7,11
7.68E+02,-6967,-2871,3628,3889,-2613,5251,1,7,11
7.67E+02,-6653,-2567,3546,3222,-2455,5093,1,7,11
7.67E+02,-6932,-2010,3765,2719,-2444,4792,1,7,11
7.69E+02,-6593,-2049,4045,2426,-2450,4703,1,7,11
7.71E+02,-6784,-1867,4323,1454,-2664,4223,1,7,11
7.74E+02,-6740,-1458,4567,1309,-2589,3666,1,7,11
7.78E+02,-6705,-1566,4738,690,-2239,2806,1,7,11
7.82E+02,-6372,-1196,4856,607,-2368,2185,1,7,11
7.86E+02,-6325,-1366,5185,296,-2164,1527,1,7,11
7.91E+02,-6299,-1326,4998,16,-1680,1134,1,7,11
7.96E+02,-6283,-1022,4994,-176,-1427,238,1,7,11
8.02E+02,-6294,-989,5209,-640,-1382,-353,1,7,11
8.08E+02,-6300,-985,5173,-641,-1085,-884,1,7,11
8.14E+02,-6274,-1001,5145,-941,-827,-1377,1,7,11
8.20E+02,-6517,-1012,4862,-1240,-598,-1868,1,7,11
8.25E+02,-6320,-1309,4838,-1796,-135,-2307,1,7,11
8.30E+02,-6369,-1173,4833,-2094,20,-2627,1,7,11
8.34E+02,-6357,-1627,4847,-2371,126,-2835,1,7,11
8.38E+02,-6322,-1865,5132,-2591,-48,-2753,1,7,11
8.41E+02,-6291,-2096,5148,-2486,259,-3184,1,7,11
8.43E+02,-6276,-2308,5141,-2557,291,-3350,1,7,11
8.44E+02,-6298,-2241,4860,-2825,327,-3227,1,7,11
