timestamp,ax,ay,az,gx,gy,gz,Label1,Label2,Label3
4.09E+03,-7855,-1825,2022,371,541,-105,1,7,11
4.09E+03,-7851,-1831,1994,332,230,-89,1,7,11
4.09E+03,-7851,-1824,1986,294,184,-106,1,7,11
4.09E+03,-7868,-1823,2014,-3,381,122,1,7,11
4.09E+03,-7874,-1815,2039,-33,299,105,1,7,11
4.09E+03,-7845,-1807,2309,-48,-60,96,1,7,11
4.09E+03,-7834,-1802,2334,-54,119,72,1,7,11
4.09E+03,-7819,-1535,2347,-55,50,53,1,7,11
4.09E+03,-7811,-1527,2358,-55,6,29,1,7,11
4.09E+03,-7809,-1518,2349,-61,-278,11,1,7,11
4.09E+03,-8055,-1521,2334,-82,-303,4,1,7,11
4.09E+03,-8056,-1802,2336,89,-303,-285,1,7,11
4.09E+03,-8045,-1895,2275,5,-238,-367,1,7,11
4.09E+03,-8000,-1906,2564,1,-566,-132,1,7,11
4.09E+03,-7983,-1665,2622,-266,-623,-173,1,7,11
4.09E+03,-7965,-1674,2654,-259,-432,-206,1,7,11
4.09E+03,-7947,-1681,2656,12,-474,-231,1,7,11
4.09E+03,-7946,-1684,2655,12,-476,-239,1,7,11
4.10E+03,-7941,-1702,2658,2,-444,-229,1,7,11
4.10E+03,-7949,-1709,2663,-266,-633,-214,1,7,11
4.10E+03,-7962,-1734,2677,-272,-557,-190,1,7,11
4.10E+03,-7991,-1755,2475,-262,-222,-164,1,7,11
4.10E+03,-8009,-1769,2499,29,-142,-348,1,7,11
4.10E+03,-8017,-1760,2505,114,-334,-295,1,7,11
4.10E+03,-8040,-1737,2512,-88,2,23,1,7,11
4.10E+03,-8040,-1723,2537,-41,72,109,1,7,11
4.10E+03,-8021,-1699,2541,279,-120,-57,1,7,11
4.10E+03,-7994,-1672,2526,347,-46,274,1,7,11
4.10E+03,-8017,-1882,2497,152,298,330,1,7,11
4.10E+03,-8055,-1822,2433,210,380,154,1,7,11
4.10E+03,-7820,-1500,2592,249,213,528,1,7,11
4.10E+03,-7864,-1437,2247,515,601,408,1,7,11
4.10E+03,-7897,-1646,2186,227,477,829,1,7,11
4.10E+03,-7843,-1638,2393,180,837,743,1,7,11
4.10E+03,-8009,-1644,2372,138,693,1089,1,7,11
4.10E+03,-8011,-1651,2404,349,1071,1062,1,7,11
4.10E+03,-8030,-1663,2203,324,1100,736,1,7,11
4.10E+03,-8064,-1651,2256,339,1070,890,1,7,11
4.10E+03,-7856,-1618,2288,133,734,786,1,7,11
4.10E+03,-7888,-1565,2562,197,894,454,1,7,11
4.10E+03,-7897,-1250,2573,521,806,403,1,7,11
4.10E+03,-7921,-1170,2300,604,498,624,1,7,11
4.10E+03,-7930,-1362,2275,423,468,638,1,7,11
4.10E+03,-7926,-1295,2226,493,477,425,1,7,11
4.10E+03,-7923,-988,2421,792,790,479,1,7,11
4.10E+03,-7847,-953,2045,807,851,813,1,7,11
4.10E+03,-8031,-909,1935,809,1036,841,1,7,11
4.10E+03,-8011,-904,2102,774,906,831,1,7,11
4.10E+03,-8009,-933,2052,627,1011,793,1,7,11
4.10E+03,-8033,-992,2089,246,1296,462,1,7,11
4.10E+03,-7833,-1023,2105,177,966,613,1,7,11
4.10E+03,-7917,-1018,2082,142,1081,517,1,7,11
4.10E+03,-7921,-1000,2060,334,882,226,1,7,11
4.10E+03,-8219,-994,2076,-15,457,181,1,7,11
4.10E+03,-8211,-1004,2167,-107,243,165,1,7,11
4.10E+03,-8226,-1019,1947,85,293,372,1,7,11
4.10E+03,-8225,-1014,2005,45,73,313,1,7,11
4.10E+03,-7927,-999,2310,12,-139,-5,1,7,11
4.11E+03,-7901,-975,2323,-257,-565,-79,1,7,11
4.11E+03,-7891,-940,2043,-275,-413,121,1,7,11
4.11E+03,-7870,-914,2001,-321,-458,105,1,7,11
4.11E+03,-7836,-912,1948,-138,-426,109,1,7,11
4.11E+03,-7828,-938,1931,-232,-581,105,1,7,11
4.11E+03,-7841,-984,1938,-573,-218,105,1,7,11
4.11E+03,-7860,-1300,1964,-622,-380,92,1,7,11
4.11E+03,-7899,-1359,1997,-630,-310,66,1,7,11
4.11E+03,-8194,-1407,2041,-598,-276,39,1,7,11
4.11E+03,-8234,-1184,2347,-537,-276,10,1,7,11
4.11E+03,-8269,-1196,2389,-196,-302,-273,1,7,11
4.11E+03,-8267,-1188,2182,-355,-364,-278,1,7,11
4.11E+03,-8264,-1395,2221,16,-169,-276,1,7,11
4.11E+03,-8248,-1352,2218,-122,-226,6,1,7,11
4.11E+03,-8202,-1304,2188,-21,-234,52,1,7,11
4.11E+03,-7886,-1019,2409,279,-203,115,1,7,11
4.11E+03,-7830,-1005,2368,297,-129,-69,1,7,11
4.11E+03,-7811,-1015,2344,284,-268,-48,1,7,11
4.11E+03,-7811,-1015,2337,256,-105,-44,1,7,11
4.11E+03,-7842,-1016,2338,-24,-63,-53,1,7,11
4.11E+03,-7888,-1015,2346,-44,-14,-54,1,7,11
4.11E+03,-7916,-1008,2347,-57,-17,-44,1,7,11
4.11E+03,-7919,-983,2359,-72,-39,-29,1,7,11
4.11E+03,-7903,-951,2378,-91,-50,-18,1,7,11
4.11E+03,-7871,-928,2388,-100,-62,-16,1,7,11
4.11E+03,-7833,-900,2381,-95,-49,-35,1,7,11
4.11E+03,-7816,-1141,2381,-104,-2,-70,1,7,11
4.11E+03,-8028,-1149,2350,-111,303,-115,1,7,11
4.11E+03,-8062,-914,2336,-116,143,51,1,7,11
4.11E+03,-7835,-944,2363,127,235,-346,1,7,11
4.11E+03,-7865,-975,2378,-117,538,-185,1,7,11
4.11E+03,-8194,-997,2391,-81,562,-531,1,7,11
4.11E+03,-8196,-1019,2390,-38,246,-579,1,7,11
4.11E+03,-7918,-1287,2370,303,194,-624,1,7,11
4.11E+03,-7919,-1291,2333,358,170,-418,1,7,11
4.11E+03,-7930,-1304,2033,138,159,-442,1,7,11
4.11E+03,-7925,-1314,1982,167,148,-444,1,7,11
4.11E+03,-7927,-1320,1920,180,153,-429,1,7,11
4.11E+03,-7921,-1306,2096,185,174,-385,1,7,11
4.11E+03,-8209,-1287,1742,182,235,-569,1,7,11
4.12E+03,-8246,-1021,1913,148,565,-188,1,7,11
4.12E+03,-8283,-1018,1865,364,392,-292,1,7,11
4.12E+03,-8088,-1019,1864,331,468,115,1,7,11
4.12E+03,-8131,-1287,1677,310,484,260,1,7,11
4.12E+03,-8121,-1285,1776,328,415,374,1,7,11
4.12E+03,-8091,-1005,2111,379,548,173,1,7,11
4.12E+03,-8286,-946,2145,198,136,179,1,7,11
4.12E+03,-8219,-1120,2122,241,258,149,1,7,11
4.12E+03,-7902,-1040,2083,222,-82,353,1,7,11
4.12E+03,-7848,-735,1778,141,-118,280,1,7,11
4.12E+03,-7821,-725,1751,262,-108,-64,1,7,11
4.12E+03,-8049,-761,1755,111,-88,95,1,7,11
4.12E+03,-8064,-1084,1765,-292,-69,-282,1,7,11
4.12E+03,-7830,-908,1785,-153,-82,-153,1,7,11
4.12E+03,-7868,-983,2059,-230,-106,-533,1,7,11
4.12E+03,-7926,-1309,2078,-531,110,-630,1,7,11
4.12E+03,-8276,-1378,1948,-543,-292,-424,1,7,11
4.12E+03,-8245,-1391,1996,-515,-145,-397,1,7,11
4.12E+03,-8213,-1381,2039,-217,-261,-640,1,7,11
4.12E+03,-7918,-1365,2337,-161,-561,-627,1,7,11
4.12E+03,-7897,-1340,2362,-382,-564,-623,1,7,11
4.12E+03,-7887,-1313,2387,-354,-540,-609,1,7,11
4.12E+03,-7885,-1290,2393,-334,-243,-573,1,7,11
4.12E+03,-7855,-1285,2366,-318,-187,-519,1,7,11
4.12E+03,-7841,-1023,2332,-316,-338,-227,1,7,11
4.12E+03,-7865,-1282,2042,-335,38,-187,1,7,11
4.12E+03,-7917,-1290,2015,-367,-108,-131,1,7,11
4.12E+03,-8203,-1309,1996,-146,-43,-303,1,7,11
4.12E+03,-8208,-1319,1978,-169,258,34,1,7,11
4.12E+03,-8206,-1333,1958,-198,294,99,1,7,11
4.12E+03,-7916,-1355,1950,-237,320,-110,1,7,11
4.12E+03,-7910,-1365,1961,-536,346,-110,1,7,11
4.12E+03,-7919,-1381,1985,-590,341,125,1,7,11
4.12E+03,-7899,-1408,2034,-393,291,82,1,7,11
4.12E+03,-7871,-1178,2364,-450,-43,4,1,7,11
4.12E+03,-7855,-1205,2177,-487,98,-361,1,7,11
4.12E+03,-7815,-1228,2242,-498,-299,-230,1,7,11
4.12E+03,-8027,-1250,2269,-495,-175,-618,1,7,11
4.12E+03,-7995,-1274,2287,-501,-531,-497,1,7,11
4.12E+03,-7976,-1568,2569,-769,-611,-873,1,7,11
4.13E+03,-7955,-1610,2566,-508,-415,-728,1,7,11
4.13E+03,-7676,-1663,2575,-492,-458,-1080,1,7,11
4.13E+03,-7667,-1460,2579,-474,-472,-915,1,7,11
4.13E+03,-7954,-1519,2578,-457,-469,-1007,1,7,11
4.13E+03,-7983,-1828,2585,-436,-483,-1329,1,7,11
4.13E+03,-7993,-1876,2592,-396,-502,-1365,1,7,11
4.13E+03,-8023,-1913,2587,-595,-501,-1389,1,7,11
4.13E+03,-7837,-1710,2240,-149,-417,-964,1,7,11
4.13E+03,-7864,-1710,2192,-350,-568,-1084,1,7,11
4.13E+03,-7908,-1723,2423,-319,-178,-645,1,7,11
4.13E+03,-8195,-1737,2179,-299,-310,-430,1,7,11
4.13E+03,-8224,-1742,2426,-275,51,-215,1,7,11
4.13E+03,-8209,-1748,2393,5,115,6,1,7,11
4.13E+03,-7869,-1763,2335,16,-26,286,1,7,11
4.13E+03,-7820,-1791,2022,-285,343,155,1,7,11
4.13E+03,-8008,-2083,1981,-350,202,236,1,7,11
4.13E+03,-7675,-2125,1965,-169,559,514,1,7,11
4.13E+03,-7655,-2156,1990,-220,398,208,1,7,11
4.13E+03,-7663,-1930,2028,-516,418,145,1,7,11
4.13E+03,-7676,-1955,2314,-527,632,334,1,7,11
4.13E+03,-7969,-1976,2349,-254,543,267,1,7,11
4.13E+03,-7985,-1984,2398,-206,156,-45,1,7,11
4.13E+03,-7998,-1982,2181,-130,269,-100,1,7,11
4.13E+03,-8018,-1960,2228,-292,-125,107,1,7,11
4.13E+03,-8035,-1928,2288,67,-262,74,1,7,11
4.13E+03,-8027,-2138,2598,-80,-148,65,1,7,11
4.13E+03,-8023,-2091,2644,284,-513,51,1,7,11
4.13E+03,-8002,-1787,2669,132,-606,53,1,7,11
4.13E+03,-7971,-1728,2435,217,-394,51,1,7,11
4.13E+03,-7950,-1676,2456,535,-388,45,1,7,11
4.13E+03,-7669,-1901,2477,592,-605,51,1,7,11
4.13E+03,-7660,-1880,2492,395,-521,51,1,7,11
4.13E+03,-7646,-1876,2491,452,-167,65,1,7,11
4.13E+03,-7590,-1891,2490,773,-303,66,1,7,11
4.13E+03,-7569,-1909,2484,845,111,19,1,7,11
4.13E+03,-7583,-1918,2475,669,273,-309,1,7,11
4.13E+03,-7581,-1670,2450,754,151,-364,1,7,11
4.13E+03,-7591,-1679,2668,1080,542,-173,1,7,11
4.13E+03,-7656,-1684,2628,1123,430,-246,1,7,11
4.13E+03,-7990,-1683,2611,897,794,-556,1,7,11
4.14E+03,-8022,-1678,2572,918,839,-580,1,7,11
4.14E+03,-7825,-1666,2261,927,652,-616,1,7,11
4.14E+03,-7910,-1919,2223,905,707,-632,1,7,11
4.14E+03,-8249,-1910,2185,1118,766,-385,1,7,11
4.14E+03,-8084,-1907,2178,1041,1053,-632,1,7,11
4.14E+03,-8093,-1905,2422,709,733,-584,1,7,11
4.14E+03,-8265,-1898,2371,893,654,-542,1,7,11
4.14E+03,-7893,-1898,2015,863,894,-526,1,7,11
4.14E+03,-8216,-1898,1937,804,741,-562,1,7,11
4.14E+03,-8238,-1904,2147,492,1050,-523,1,7,11
4.14E+03,-8205,-1899,2093,447,1095,-208,1,7,11
4.14E+03,-7918,-1881,1757,422,1151,-151,1,7,11
4.14E+03,-8199,-1863,1905,399,982,-356,1,7,11
4.14E+03,-8248,-1840,1816,598,1308,-278,1,7,11
4.14E+03,-8254,-1825,1472,526,1336,82,1,7,11
4.14E+03,-8231,-1795,1627,172,1328,-95,1,7,11
4.14E+03,-8194,-1497,1560,286,1280,-57,1,7,11
4.14E+03,-8244,-1464,1537,105,967,-95,1,7,11
4.14E+03,-8121,-1430,1551,-356,1076,112,1,7,11
4.14E+03,-8098,-1655,1575,-573,778,-127,1,7,11
4.14E+03,-8233,-1639,1621,-798,185,105,1,7,11
4.14E+03,-7888,-1655,1480,-746,100,3,1,7,11
4.14E+03,-7810,-1415,1862,-1148,-543,-147,1,7,11
4.14E+03,-7978,-1421,1718,-977,-686,-595,1,7,11
4.14E+03,-7652,-1657,2057,-1286,-1330,-803,1,7,11
4.14E+03,-7571,-1620,2100,-1328,-1421,-736,1,7,11
4.14E+03,-7778,-1573,2172,-1393,-1678,-980,1,7,11
4.14E+03,-7799,-1545,1994,-1221,-2122,-1364,1,7,11
4.14E+03,-7630,-1539,2341,-1633,-2043,-1210,1,7,11
4.14E+03,-8037,-1537,2180,-1458,-2367,-1268,1,7,11
4.14E+03,-8117,-1235,2680,-1827,-2219,-1371,1,7,11
4.14E+03,-8158,-1172,2539,-1826,-2259,-1145,1,7,11
4.14E+03,-8142,-1357,2900,-1801,-2251,-879,1,7,11
4.14E+03,-8130,-1285,2732,-1526,-2184,-615,1,7,11
4.14E+03,-8303,-952,2792,-1531,-2375,-339,1,7,11
4.14E+03,-7880,-898,3078,-1824,-2010,-105,1,7,11
4.14E+03,-8040,-1126,3116,-1916,-2065,273,1,7,11
4.14E+03,-7942,-1114,3115,-1770,-1862,345,1,7,11
4.14E+03,-7806,-1109,3076,-2154,-1624,362,1,7,11
4.14E+03,-7722,-1117,2762,-2038,-1295,320,1,7,11
4.15E+03,-7418,-1151,2696,-2199,-676,271,1,7,11
4.15E+03,-7702,-957,2917,-2621,-544,-41,1,7,11
4.15E+03,-7724,-1286,2878,-2493,45,-62,1,7,11
4.15E+03,-7747,-1364,2825,-2844,360,-78,1,7,11
4.15E+03,-7577,-1193,2548,-2927,635,-77,1,7,11
4.15E+03,-7676,-1537,2828,-2707,803,-21,1,7,11
4.15E+03,-8037,-1613,2850,-2937,874,325,1,7,11
4.15E+03,-7871,-1417,2876,-2858,842,202,1,7,11
4.15E+03,-7898,-1448,2896,-2472,462,623,1,7,11
4.15E+03,-7914,-1449,2906,-2572,544,802,1,7,11
4.15E+03,-7875,-1416,2919,-2397,327,757,1,7,11
4.15E+03,-8042,-1629,2903,-1976,98,975,1,7,11
4.15E+03,-7951,-1600,2891,-2092,-355,1161,1,7,11
4.15E+03,-8056,-1597,2907,-1738,-184,1227,1,7,11
4.15E+03,-8373,-1625,2739,-1676,-380,1404,1,7,11
4.15E+03,-9269,-1605,2782,-1862,-524,1260,1,7,11
4.15E+03,-8891,-1550,2942,-1815,-705,1707,1,7,11
4.15E+03,-8510,-1223,2510,-1859,-1141,2029,1,7,11
4.15E+03,-7957,-1198,2658,-1749,-662,2026,1,7,11
4.15E+03,-7550,-1235,2561,-2141,-518,2106,1,7,11
4.15E+03,-7133,-1581,2196,-1961,-18,1820,1,7,11
4.15E+03,-7084,-1448,2275,-1982,445,1568,1,7,11
4.15E+03,-7090,-1842,2143,-1954,1108,1354,1,7,11
4.15E+03,-7106,-1762,1742,-2129,1186,905,1,7,11
4.15E+03,-7155,-2131,1859,-1767,1440,713,1,7,11
4.15E+03,-7372,-1967,1497,-1907,1870,777,1,7,11
4.15E+03,-7972,-2030,1431,-1800,1729,577,1,7,11
4.15E+03,-8096,-2332,1425,-1470,1728,150,1,7,11
4.15E+03,-8354,-2366,1450,-1430,1800,168,1,7,11
4.15E+03,-8712,-2382,1487,-1410,1320,216,1,7,11
4.15E+03,-8428,-2391,1794,-1412,720,242,1,7,11
4.15E+03,-8343,-2384,1826,-1427,423,206,1,7,11
4.15E+03,-8335,-2377,1848,-1436,222,349,1,7,11
4.15E+03,-8718,-2383,1860,-1448,315,-23,1,7,11
4.15E+03,-8381,-2398,1850,-1471,30,-5,1,7,11
4.15E+03,-8114,-2180,1853,-1517,-237,-7,1,7,11
4.15E+03,-7875,-2228,1901,-1826,-457,-123,1,7,11
4.15E+03,-7643,-2295,1706,-1848,-718,-306,1,7,11
4.15E+03,-7721,-2600,1715,-1802,-978,-537,1,7,11
4.15E+03,-7333,-2620,1905,-1453,-1180,-507,1,7,11
4.16E+03,-7299,-2625,1823,-1606,-1246,-700,1,7,11
4.16E+03,-7400,-2609,1495,-1239,-1172,-1074,1,7,11
4.16E+03,-7560,-2585,1422,-1361,-1002,-1068,1,7,11
4.16E+03,-7979,-2294,1620,-972,-1045,-686,1,7,11
4.16E+03,-7840,-2259,1589,-1130,-817,-470,1,7,11
4.16E+03,-7918,-2207,1579,-1056,-617,-203,1,7,11
4.16E+03,-8249,-2384,1571,-745,-183,71,1,7,11
4.16E+03,-8115,-2314,1583,-721,-304,365,1,7,11
4.16E+03,-8190,-2006,1588,-729,-259,441,1,7,11
4.16E+03,-8478,-1963,1606,-767,-264,1122,1,7,11
4.16E+03,-8468,-1962,1650,-1124,-315,1308,1,7,11
4.16E+03,-8180,-1965,1455,-954,-166,1390,1,7,11
4.16E+03,-8127,-1967,1521,-1303,-607,1382,1,7,11
4.16E+03,-8280,-1958,1832,-1158,-868,1309,1,7,11
4.16E+03,-7827,-1954,1874,-1545,-923,926,1,7,11
4.16E+03,-7604,-1968,1906,-1444,-1202,702,1,7,11
4.16E+03,-7681,-2007,1715,-1871,-1442,637,1,7,11
4.16E+03,-7520,-2329,2054,-1784,-1665,-16,1,7,11
4.16E+03,-7503,-2415,2147,-1933,-2089,-251,1,7,11
4.16E+03,-7498,-2246,1999,-2313,-2315,-723,1,7,11
4.16E+03,-7518,-2595,2357,-2380,-2241,-1215,1,7,11
4.16E+03,-7395,-2667,2210,-2359,-2608,-1706,1,7,11
4.16E+03,-7777,-2472,2562,-2004,-2439,-2347,1,7,11
4.16E+03,-7672,-2510,2647,-2090,-2665,-2683,1,7,11
4.16E+03,-8045,-2538,2474,-1881,-2608,-2902,1,7,11
4.16E+03,-8054,-2525,2540,-1615,-2234,-2778,1,7,11
4.16E+03,-8062,-2487,2847,-1329,-2042,-3091,1,7,11
4.16E+03,-7988,-2680,2846,-1065,-2075,-2789,1,7,11
4.16E+03,-8011,-2630,2832,-885,-1513,-2700,1,7,11
4.16E+03,-7998,-2599,2557,-802,-1272,-2475,1,7,11
4.16E+03,-7626,-2590,2518,-805,-1308,-2397,1,7,11
4.16E+03,-7411,-2616,2480,-893,-1088,-1743,1,7,11
4.16E+03,-7107,-2663,2467,-1040,-835,-1612,1,7,11
4.16E+03,-7215,-2479,2509,-949,-230,-1345,1,7,11
4.16E+03,-6899,-2521,2532,-1316,68,-1088,1,7,11
4.16E+03,-7032,-2526,2511,-1370,292,-506,1,7,11
4.16E+03,-6621,-2514,2483,-1158,514,-157,1,7,11
4.16E+03,-6533,-2529,2488,-1203,489,-101,1,7,11
4.16E+03,-6567,-2846,2545,-1239,710,138,1,7,11
4.16E+03,-6818,-2741,2906,-1206,941,614,1,7,11
4.17E+03,-7262,-3128,2738,-1395,983,442,1,7,11
4.17E+03,-7425,-3005,3102,-1297,943,448,1,7,11
4.17E+03,-7368,-3370,2963,-918,1106,621,1,7,11
4.17E+03,-7602,-3424,3054,-764,731,230,1,7,11
4.17E+03,-8299,-3438,3368,-857,660,333,1,7,11
4.17E+03,-8757,-3354,3331,-412,780,359,1,7,11
4.17E+03,-9019,-2948,3135,-522,606,624,1,7,11
4.17E+03,-9028,-2752,2767,-253,196,1036,1,7,11
4.17E+03,-8715,-2691,2722,-580,317,1211,1,7,11
4.17E+03,-8288,-2848,2911,-445,287,1476,1,7,11
4.17E+03,-7628,-2536,2891,-841,313,1816,1,7,11
4.17E+03,-7492,-2517,2847,-699,333,1512,1,7,11
4.17E+03,-7195,-2485,2471,-729,131,1621,1,7,11
4.17E+03,-6999,-2683,2589,-712,529,1189,1,7,11
4.17E+03,-6933,-2666,2215,-692,774,1284,1,7,11
4.17E+03,-6943,-2679,2417,-686,1043,907,1,7,11
4.17E+03,-6792,-2481,2192,-707,1014,1067,1,7,11
4.17E+03,-6903,-2551,2264,-727,1361,708,1,7,11
4.17E+03,-7090,-2858,2615,-706,1322,736,1,7,11
4.17E+03,-7552,-2866,2670,-657,1138,595,1,7,11
4.17E+03,-7773,-2560,2441,-835,682,242,1,7,11
4.17E+03,-7995,-2482,2454,-779,519,235,1,7,11
4.17E+03,-7887,-2672,2477,-510,-82,586,1,7,11
4.17E+03,-8258,-2630,2521,-794,-291,450,1,7,11
4.17E+03,-8292,-2594,2851,-838,-845,843,1,7,11
4.17E+03,-8269,-2303,2937,-882,-1085,668,1,7,11
4.17E+03,-8275,-2243,2812,-888,-922,682,1,7,11
4.17E+03,-8240,-2426,3191,-888,-1373,679,1,7,11
4.17E+03,-7934,-2363,3014,-865,-1641,647,1,7,11
4.17E+03,-7845,-2030,3048,-842,-1509,848,1,7,11
4.17E+03,-7971,-1953,3062,-821,-1810,774,1,7,11
4.17E+03,-7772,-2130,3024,-826,-1498,442,1,7,11
4.17E+03,-7339,-2063,2990,-870,-1548,597,1,7,11
4.17E+03,-7483,-1768,2978,-676,-997,240,1,7,11
4.17E+03,-7147,-1780,2984,-732,-689,158,1,7,11
4.17E+03,-7115,-2091,3008,-764,-412,320,1,7,11
4.17E+03,-7097,-2176,3033,-751,-225,-51,1,7,11
4.17E+03,-7111,-2018,3054,-692,-359,36,1,7,11
4.17E+03,-7433,-2348,3328,-853,-295,-169,1,7,11
4.17E+03,-7507,-2397,3331,-488,-304,-615,1,7,11
4.18E+03,-7320,-2184,3062,-398,-347,-777,1,7,11
4.18E+03,-7369,-2217,3064,-597,-159,-889,1,7,11
4.18E+03,-7391,-2269,3329,-567,-232,-715,1,7,11
4.18E+03,-7388,-2583,3331,-544,-565,-1033,1,7,11
4.18E+03,-7388,-2621,3055,-521,-602,-1100,1,7,11
4.18E+03,-7394,-2647,3038,-517,-608,-1150,1,7,11
4.18E+03,-7383,-2686,3018,-545,-573,-956,1,7,11
4.18E+03,-7387,-2677,3007,-543,-546,-975,1,7,11
4.18E+03,-7396,-2670,2992,-541,-514,-977,1,7,11
4.18E+03,-7704,-2659,3001,-536,-209,-959,1,7,11
4.18E+03,-7765,-2686,3029,-547,-168,-1143,1,7,11
4.18E+03,-7801,-2463,3065,-552,-149,-768,1,7,11
4.18E+03,-7567,-2496,3336,-544,-134,-886,1,7,11
4.18E+03,-7579,-2515,3338,-529,-369,-491,1,7,11
4.18E+03,-7571,-2510,3064,-515,-338,-609,1,7,11
4.18E+03,-7574,-2489,3039,-245,-299,-156,1,7,11
4.18E+03,-7577,-2478,3007,-247,6,-280,1,7,11
4.18E+03,-7564,-2460,2966,-514,44,99,1,7,11
4.18E+03,-7770,-2445,3183,-520,60,-64,1,7,11
4.18E+03,-7752,-2684,3149,-523,88,-20,1,7,11
4.18E+03,-7747,-2655,3121,-251,107,-1,1,7,11
4.18E+03,-7754,-2616,3095,-244,-127,261,1,7,11
4.18E+03,-7763,-2579,3087,-250,-119,269,1,7,11
4.18E+03,-7755,-2295,3078,-254,-128,273,1,7,11
4.18E+03,-7741,-2273,3075,-254,123,268,1,7,11
4.18E+03,-7698,-2276,3078,-518,114,-1,1,7,11
4.18E+03,-7385,-2286,3082,-532,-125,-60,1,7,11
4.18E+03,-7369,-2563,3112,-549,-79,94,1,7,11
4.18E+03,-7360,-2593,3151,-550,-46,-267,1,7,11
4.18E+03,-7361,-2618,3174,-523,-18,-352,1,7,11
4.18E+03,-7350,-2654,3179,-240,277,-142,1,7,11
4.18E+03,-7334,-2442,3174,-204,336,-169,1,7,11
4.18E+03,-7316,-2492,3173,-162,154,-189,1,7,11
4.18E+03,-7303,-2540,3154,-365,229,-214,1,7,11
4.18E+03,-7545,-2840,3131,-305,543,-250,1,7,11
4.18E+03,-7308,-2872,3090,13,593,-553,1,7,11
4.18E+03,-7327,-2897,2786,61,624,-590,1,7,11
4.18E+03,-7351,-2914,2703,94,390,-625,1,7,11
4.18E+03,-7386,-2918,2932,121,403,-392,1,7,11
4.18E+03,-7703,-2909,2914,-120,395,-395,1,7,11
4.19E+03,-7731,-2897,2894,-105,600,-619,1,7,11
4.19E+03,-7738,-2881,2865,-101,553,-587,1,7,11
4.19E+03,-7753,-2874,2864,-115,512,-562,1,7,11
4.19E+03,-7758,-2862,2887,-119,192,-545,1,7,11
4.19E+03,-7764,-2846,2888,-124,130,-533,1,7,11
4.19E+03,-7743,-2833,2869,118,338,-256,1,7,11
4.19E+03,-7716,-2830,2849,85,341,-238,1,7,11
4.19E+03,-7688,-2846,2840,40,369,-215,1,7,11
4.19E+03,-7405,-2872,2842,3,152,-197,1,7,11
4.19E+03,-7397,-2906,2843,-286,194,-193,1,7,11
4.19E+03,-7397,-2932,2837,-309,216,-192,1,7,11
4.19E+03,-7410,-2699,2820,-329,223,-191,1,7,11
4.19E+03,-7682,-2707,2556,-355,206,-184,1,7,11
4.19E+03,-7701,-2719,2548,-376,171,-167,1,7,11
4.19E+03,-7704,-2722,2551,-134,377,-138,1,7,11
4.19E+03,-7692,-2722,2556,-145,320,-359,1,7,11
4.19E+03,-7697,-2713,2818,-157,287,-317,1,7,11
4.19E+03,-7716,-2702,2845,-173,274,-277,1,7,11
4.19E+03,-7734,-2698,2863,-186,-4,41,1,7,11
4.19E+03,-7715,-2691,2879,-188,-24,111,1,7,11
4.19E+03,-7689,-2940,2891,-189,-23,-90,1,7,11
4.19E+03,-7407,-2939,2884,-188,-5,-56,1,7,11
4.19E+03,-7392,-2944,2882,-174,283,-49,1,7,11
4.19E+03,-7370,-2700,2870,-153,308,-58,1,7,11
4.19E+03,-7351,-2707,2858,-381,343,-100,1,7,11
4.19E+03,-7375,-2709,2857,-360,375,92,1,7,11
4.19E+03,-7389,-2717,2853,-333,369,40,1,7,11
4.19E+03,-7410,-2715,2845,-304,351,-263,1,7,11
4.19E+03,-7689,-2713,2845,-285,328,-288,1,7,11
4.19E+03,-7700,-2712,2846,-265,312,-292,1,7,11
4.19E+03,-7701,-2717,2835,6,307,-278,1,7,11
4.19E+03,-7696,-2721,2836,10,319,3,1,7,11
4.19E+03,-7684,-2723,2832,13,334,28,1,7,11
4.19E+03,-7424,-2726,2826,5,349,44,1,7,11
4.19E+03,-7408,-2729,2558,-265,354,62,1,7,11
4.19E+03,-7402,-2727,2537,-282,367,66,1,7,11
4.19E+03,-7379,-2715,2520,-300,376,70,1,7,11
4.19E+03,-7391,-2702,2496,-317,139,68,1,7,11
4.19E+03,-7372,-2695,2475,-339,148,76,1,7,11
4.19E+03,-7352,-2943,2438,-359,139,68,1,7,11
4.20E+03,-7349,-2694,2676,-383,167,43,1,7,11
4.20E+03,-7340,-2705,2669,-159,176,10,1,7,11
4.20E+03,-7357,-2721,2664,-182,186,-296,1,7,11
4.20E+03,-7379,-2733,2669,-201,175,-342,1,7,11
4.20E+03,-7412,-2747,2668,-202,159,-132,1,7,11
4.20E+03,-7696,-2760,2675,-202,137,-161,1,7,11
4.20E+03,-7709,-2764,2683,-200,365,-170,1,7,11
4.20E+03,-7724,-2768,2444,-193,344,-166,1,7,11
4.20E+03,-7724,-2783,2467,-182,326,-148,1,7,11
4.20E+03,-7720,-2789,2483,-162,305,-132,1,7,11
4.20E+03,-7718,-2791,2494,-141,288,-373,1,7,11
4.20E+03,-7710,-2793,2500,-372,280,-353,1,7,11
4.20E+03,-7683,-2792,2478,-339,285,-328,1,7,11
4.20E+03,-7404,-2795,2445,-308,313,-305,1,7,11
4.20E+03,-7389,-2795,2668,-280,358,-295,1,7,11
4.20E+03,-7384,-2797,2652,2,147,-293,1,7,11
4.20E+03,-7405,-2796,2638,28,186,-303,1,7,11
4.20E+03,-7685,-2787,2623,49,204,-308,1,7,11
4.20E+03,-7700,-2786,2604,68,210,-305,1,7,11
4.20E+03,-7713,-2787,2607,75,209,-297,1,7,11
4.20E+03,-7711,-2778,2606,87,201,-287,1,7,11
4.20E+03,-7724,-2770,2607,92,195,-277,1,7,11
4.20E+03,-7696,-2769,2589,93,192,-264,1,7,11
4.20E+03,-7422,-2772,2567,81,216,-270,1,7,11
4.20E+03,-7402,-2775,2287,75,245,-281,1,7,11
4.20E+03,-7370,-2784,2267,65,531,-298,1,7,11
4.20E+03,-7333,-2792,2229,57,564,-328,1,7,11
4.20E+03,-7309,-2811,2201,47,606,-373,1,7,11
4.20E+03,-7325,-3085,2431,45,396,-181,1,7,11
4.20E+03,-7350,-3112,2410,47,420,-238,1,7,11
4.20E+03,-7367,-3131,2385,54,418,-542,1,7,11
4.20E+03,-7400,-3149,2366,57,404,-581,1,7,11
4.20E+03,-7418,-3171,2355,62,620,-603,1,7,11
4.20E+03,-7700,-3194,2367,70,583,-620,1,7,11
4.20E+03,-7736,-2956,2371,66,512,-602,1,7,11
4.20E+03,-7740,-2969,2392,53,204,-567,1,7,11
4.20E+03,-7751,-2973,2405,40,163,-522,1,7,11
4.20E+03,-7740,-2971,2400,29,380,-201,1,7,11
4.20E+03,-7740,-2977,2396,7,370,-133,1,7,11
4.20E+03,-7721,-2985,2400,-268,367,-312,1,7,11
4.21E+03,-7697,-2992,2398,-275,378,1,1,7,11
4.21E+03,-7687,-2995,2405,-271,132,42,1,7,11
4.21E+03,-7419,-2984,2398,3,138,75,1,7,11
4.21E+03,-7410,-2969,2382,30,150,95,1,7,11
4.21E+03,-7420,-2950,2366,46,165,110,1,7,11
4.21E+03,-7689,-3196,2367,62,163,-128,1,7,11
4.21E+03,-7684,-3182,2356,83,152,-114,1,7,11
4.21E+03,-7408,-3168,2338,101,140,-115,1,7,11
4.21E+03,-7397,-3164,2318,105,133,120,1,7,11
4.21E+03,-7398,-3157,2305,103,378,84,1,7,11
4.21E+03,-7399,-3156,2030,95,354,47,1,7,11
4.21E+03,-7412,-3154,2019,77,335,11,1,7,11
4.21E+03,-7404,-3164,2011,53,308,-273,1,7,11
4.21E+03,-7410,-3176,2025,24,290,-307,1,7,11
4.21E+03,-7412,-3192,2041,-263,267,-331,1,7,11
4.21E+03,-7410,-2955,2318,-294,-11,-345,1,7,11
4.21E+03,-7408,-2980,2321,-322,-33,-347,1,7,11
4.21E+03,-7396,-3003,2333,-344,-48,-333,1,7,11
4.21E+03,-7385,-3029,2350,-369,-46,-318,1,7,11
4.21E+03,-7376,-3050,2381,-142,-44,-303,1,7,11
4.21E+03,-7420,-3072,2191,-161,-35,-302,1,7,11
4.21E+03,-7713,-3340,2187,-155,-63,-273,1,7,11
4.21E+03,-7738,-3345,2426,-139,-78,23,1,7,11
4.21E+03,-7553,-3329,2414,-380,-50,66,1,7,11
4.21E+03,-7729,-3025,2412,-345,270,-127,1,7,11
4.21E+03,-7828,-3191,2398,-284,335,-9,1,7,11
4.21E+03,-7881,-3080,2342,66,149,311,1,7,11
4.21E+03,-7827,-2727,2006,-95,214,851,1,7,11
4.21E+03,-7960,-2908,2168,302,616,1090,1,7,11
4.21E+03,-7582,-2844,2103,129,499,968,1,7,11
4.21E+03,-7703,-2551,2065,192,845,993,1,7,11
4.21E+03,-7341,-2516,1784,244,872,904,1,7,11
4.21E+03,-7552,-2472,1748,518,826,724,1,7,11
4.21E+03,-7532,-2439,1733,211,444,502,1,7,11
4.21E+03,-7540,-2686,1735,363,522,252,1,7,11
4.21E+03,-7356,-2665,1737,-25,320,-1,1,7,11
4.21E+03,-7690,-2658,1747,61,92,65,1,7,11
4.21E+03,-7728,-2677,1771,-134,-382,-321,1,7,11
4.21E+03,-7752,-2471,2085,-588,-561,-153,1,7,11
4.21E+03,-7735,-2545,2143,-499,-439,-219,1,7,11
4.22E+03,-7719,-2882,1937,-869,-494,-536,1,7,11
4.22E+03,-7417,-2722,1994,-673,-495,-580,1,7,11
4.22E+03,-7302,-3078,2012,-661,-447,-616,1,7,11
4.22E+03,-7470,-3173,2014,-857,-548,-442,1,7,11
4.22E+03,-7459,-3006,2036,-505,-352,-804,1,7,11
4.22E+03,-7467,-3339,2304,-638,67,-647,1,7,11
4.22E+03,-7496,-3401,2044,-245,-79,-736,1,7,11
4.22E+03,-7303,-3436,2036,-374,-9,-1060,1,7,11
4.22E+03,-7390,-3448,2010,-281,268,-1080,1,7,11
4.22E+03,-7717,-3447,1979,43,-12,-1035,1,7,11
4.22E+03,-7770,-3434,1968,77,-56,-677,1,7,11
4.22E+03,-7801,-3417,1960,80,-119,-787,1,7,11
4.22E+03,-7566,-3405,1964,56,62,-630,1,7,11
4.22E+03,-7570,-3385,1988,19,-283,-224,1,7,11
4.22E+03,-7557,-3359,1987,-285,-378,-343,1,7,11
4.22E+03,-7793,-3065,1994,-342,-200,31,1,7,11
4.22E+03,-7783,-3030,1997,-151,-251,-126,1,7,11
4.22E+03,-7773,-2991,2019,-209,-535,-32,1,7,11
4.22E+03,-7762,-2948,2044,-253,-538,313,1,7,11
4.22E+03,-7735,-3166,2322,-541,-531,142,1,7,11
4.22E+03,-7407,-3125,2359,-575,-197,239,1,7,11
4.22E+03,-7369,-3123,2360,-569,-135,213,1,7,11
4.22E+03,-7361,-3122,2371,-554,-326,149,1,7,11
4.22E+03,-7362,-3109,2373,-527,-271,327,1,7,11
4.22E+03,-7375,-3102,2350,-246,36,265,1,7,11
4.22E+03,-7399,-3088,2335,-237,91,-34,1,7,11
4.22E+03,-7682,-3086,2329,-234,-115,-59,1,7,11
4.22E+03,-7708,-3083,2323,-240,-78,-74,1,7,11
4.22E+03,-7745,-3086,2338,-245,-64,-83,1,7,11
4.22E+03,-7767,-3091,2347,-241,-91,-71,1,7,11
4.22E+03,-7764,-3090,2359,-230,-127,-58,1,7,11
4.22E+03,-7761,-3085,2360,-215,105,-46,1,7,11
4.22E+03,-7750,-3089,2365,-193,88,-31,1,7,11
4.22E+03,-7710,-3084,2360,-151,70,-20,1,7,11
4.22E+03,-7685,-3075,2335,-364,95,-36,1,7,11
4.22E+03,-7401,-3079,2318,-331,118,-61,1,7,11
4.22E+03,-7362,-3083,2045,-305,-104,-116,1,7,11
4.22E+03,-7387,-3087,2313,-285,-50,54,1,7,11
4.22E+03,-7413,-3089,2315,5,-39,-277,1,7,11
4.22E+03,-7715,-3078,2305,36,-41,-340,1,7,11
4.23E+03,-7751,-2808,2309,46,-67,-368,1,7,11
4.23E+03,-7771,-2798,2046,35,-103,-368,1,7,11
4.23E+03,-7767,-2780,2041,4,-128,-352,1,7,11
4.23E+03,-7761,-2772,2305,-300,116,-324,1,7,11
4.23E+03,-7737,-2779,2313,-357,114,-286,1,7,11
4.23E+03,-7698,-2797,2322,-153,-122,-258,1,7,11
4.23E+03,-7406,-3076,2331,-187,-73,7,1,7,11
4.23E+03,-7381,-3109,2337,-196,-8,-261,1,7,11
4.23E+03,-7374,-3139,2346,-178,309,-287,1,7,11
4.23E+03,-7370,-3164,2332,-141,361,-325,1,7,11
4.23E+03,-7375,-3176,2307,-356,145,-360,1,7,11
4.23E+03,-7395,-3193,2039,-322,173,-132,1,7,11
4.23E+03,-7422,-2950,2026,-297,175,-151,1,7,11
4.23E+03,-7710,-2950,2012,-277,151,-159,1,7,11
4.23E+03,-7724,-2948,1990,-269,365,-149,1,7,11
4.23E+03,-7736,-2950,1963,-281,323,-382,1,7,11
4.23E+03,-7733,-2951,1958,-306,283,-348,1,7,11
4.23E+03,-7714,-2949,1960,-339,-13,-307,1,7,11
4.23E+03,-7708,-2957,1959,-375,-31,-271,1,7,11
4.23E+03,-7716,-2962,1988,-145,-43,13,1,7,11
4.23E+03,-7709,-2972,1993,-151,-58,51,1,7,11
4.23E+03,-7693,-2976,1997,-149,-51,73,1,7,11
4.23E+03,-7688,-2987,2013,-147,-33,86,1,7,11
4.23E+03,-7420,-2984,2026,-381,-22,90,1,7,11
4.23E+03,-7416,-2980,2035,-347,-15,85,1,7,11
4.23E+03,-7407,-2984,2035,-309,-15,87,1,7,11
4.23E+03,-7405,-2988,2304,-268,-10,71,1,7,11
4.23E+03,-7403,-2987,2312,44,-12,54,1,7,11
4.23E+03,-7413,-3003,2325,107,-14,29,1,7,11
4.23E+03,-7402,-3014,2352,-74,-27,8,1,7,11
4.23E+03,-7384,-3037,2375,278,-42,-278,1,7,11
4.23E+03,-7374,-3059,2412,222,-56,-328,1,7,11
4.23E+03,-7376,-3060,2188,416,-84,-138,1,7,11
4.23E+03,-7392,-3037,2418,888,-115,-195,1,7,11
4.23E+03,-7686,-2991,2364,1067,111,-220,1,7,11
4.23E+03,-7408,-3195,2030,904,85,-200,1,7,11
4.23E+03,-7404,-3148,1970,900,110,-183,1,7,11
4.23E+03,-7408,-3119,1924,1059,-113,-169,1,7,11
4.23E+03,-7408,-3098,2163,640,-92,-159,1,7,11
4.23E+03,-7416,-3081,2150,424,-84,-150,1,7,11
4.24E+03,-7422,-3080,2137,164,-92,-135,1,7,11
4.24E+03,-7682,-3096,2155,-116,-110,-367,1,7,11
4.24E+03,-7418,-3134,1931,-376,125,-330,1,7,11
4.24E+03,-7418,-3172,1963,-587,110,-301,1,7,11
4.24E+03,-7421,-2954,2004,-491,100,-274,1,7,11
4.24E+03,-7681,-2998,2310,-862,82,9,1,7,11
4.24E+03,-7412,-3038,2367,-668,52,37,1,7,11
4.24E+03,-7395,-3070,2422,-669,20,53,1,7,11
4.24E+03,-7377,-3357,2205,-878,-260,60,1,7,11
4.24E+03,-7364,-3375,2230,-794,-266,66,1,7,11
4.24E+03,-7355,-3379,2247,-432,10,71,1,7,11
4.24E+03,-7356,-3377,2250,-571,47,82,1,7,11
4.24E+03,-7353,-3370,2236,-193,100,105,1,7,11
4.24E+03,-7347,-3368,2218,-341,-98,-123,1,7,11
4.24E+03,-7343,-3361,2200,8,-40,-104,1,7,11
4.24E+03,-7349,-3339,2177,75,267,-92,1,7,11
4.24E+03,-7357,-3068,2408,101,299,-84,1,7,11
4.24E+03,-7374,-3043,2387,96,310,-78,1,7,11
4.24E+03,-7388,-3020,2358,63,308,-69,1,7,11
4.24E+03,-7407,-3016,2350,11,296,-60,1,7,11
4.24E+03,-7404,-3011,2339,-298,265,-35,1,7,11
4.24E+03,-7388,-3018,2336,-360,-11,-21,1,7,11
4.24E+03,-7405,-3027,2358,-156,-25,-25,1,7,11
4.24E+03,-7409,-3038,2373,-183,-52,-32,1,7,11
4.24E+03,-7394,-3054,2408,-194,-88,-37,1,7,11
4.24E+03,-7387,-3058,2412,-182,-119,-55,1,7,11
4.24E+03,-7390,-3025,2406,-154,120,-83,1,7,11
4.24E+03,-7685,-2976,2392,-358,-128,-102,1,7,11
4.24E+03,-7743,-3168,2375,-310,-110,-92,1,7,11
4.24E+03,-7605,-3104,2363,3,-71,-38,1,7,11
4.24E+03,-7649,-2789,2349,47,-42,316,1,7,11
4.24E+03,-7640,-2733,2313,104,261,527,1,7,11
4.24E+03,-7595,-2938,2023,-83,291,595,1,7,11
4.24E+03,-7787,-2891,1991,-12,367,464,1,7,11
4.24E+03,-7761,-2862,1988,308,233,802,1,7,11
4.24E+03,-7705,-2863,1983,366,600,872,1,7,11
4.24E+03,-7379,-2880,1967,181,425,653,1,7,11
4.24E+03,-7343,-2912,1980,232,491,838,1,7,11
4.24E+03,-7331,-2943,1994,522,474,430,1,7,11
4.24E+03,-7342,-2691,1997,543,636,220,1,7,11
4.25E+03,-7374,-2932,1976,501,233,-7,1,7,11
4.25E+03,-7414,-2905,1935,151,311,49,1,7,11
4.25E+03,-7707,-2883,2154,260,-116,-367,1,7,11
4.25E+03,-7769,-2868,2115,80,14,-228,1,7,11
4.25E+03,-7601,-2878,2090,-380,-325,-556,1,7,11
4.25E+03,-7677,-2914,2072,-591,-371,-583,1,7,11
4.25E+03,-7984,-2723,2074,-789,-131,-572,1,7,11
4.25E+03,-8032,-2787,2095,-684,-348,-543,1,7,11
4.25E+03,-7827,-3098,2132,-767,-291,-244,1,7,11
4.25E+03,-7871,-3128,2173,-1029,11,-166,1,7,11
4.25E+03,-7879,-3127,1936,-700,52,-322,1,7,11
4.25E+03,-7828,-3086,1923,-823,81,73,1,7,11
4.25E+03,-7957,-2756,2115,-406,124,-27,1,7,11
4.25E+03,-7565,-2690,2050,-538,-51,352,1,7,11
4.25E+03,-7699,-2882,1748,-192,298,165,1,7,11
4.25E+03,-7332,-2843,1750,-144,374,174,1,7,11
4.25E+03,-7516,-2839,2068,-130,147,368,1,7,11
4.25E+03,-7426,-2862,2142,-375,327,260,1,7,11
4.25E+03,-7098,-2891,1930,-358,-51,86,1,7,11
4.25E+03,-7069,-2929,1985,-357,75,-372,1,7,11
4.25E+03,-7045,-2740,2023,-365,-301,-556,1,7,11
4.25E+03,-7246,-3105,2313,-376,-145,-460,1,7,11
4.25E+03,-7196,-2983,2372,-379,-184,-645,1,7,11
4.25E+03,-7189,-3386,2203,-363,-183,-1117,1,7,11
4.25E+03,-7232,-3262,2286,-301,-174,-1337,1,7,11
4.25E+03,-7065,-3615,2594,46,-175,-1259,1,7,11
4.25E+03,-7430,-3677,2607,-114,-172,-1612,1,7,11
4.25E+03,-7531,-3710,2605,-52,-147,-1604,1,7,11
4.25E+03,-7351,-3472,2600,-18,-360,-1246,1,7,11
4.25E+03,-7398,-3483,2603,-9,-307,-1340,1,7,11
4.25E+03,-7422,-3495,2615,258,-259,-898,1,7,11
4.25E+03,-7423,-3497,2618,275,33,-710,1,7,11
4.25E+03,-7397,-3499,2615,296,57,-793,1,7,11
4.25E+03,-7335,-3482,2604,328,77,-394,1,7,11
4.25E+03,-7327,-3457,2595,375,115,-546,1,7,11
4.25E+03,-7551,-3684,2560,200,-99,-148,1,7,11
4.25E+03,-7522,-3654,2269,255,-53,-330,1,7,11
4.25E+03,-7507,-3619,2238,552,262,-262,1,7,11
4.25E+03,-7494,-3588,2205,583,326,47,1,7,11
4.25E+03,-7512,-3296,2431,604,139,90,1,7,11
4.26E+03,-7542,-3257,2394,614,194,-116,1,7,11
4.26E+03,-7328,-3213,2357,604,240,-56,1,7,11
4.26E+03,-7366,-3427,2325,583,525,278,1,7,11
4.26E+03,-7403,-3387,2028,554,553,355,1,7,11
4.26E+03,-7696,-3353,2005,522,573,175,1,7,11
4.26E+03,-7725,-3048,1989,234,576,244,1,7,11
4.26E+03,-7750,-3009,1976,192,552,557,1,7,11
4.26E+03,-7781,-2969,1977,141,243,604,1,7,11
4.26E+03,-7554,-3166,1963,346,173,387,1,7,11
4.26E+03,-7576,-3100,1938,277,357,434,1,7,11
4.26E+03,-7603,-2787,1921,-69,284,496,1,7,11
4.26E+03,-7591,-2762,1926,76,-50,826,1,7,11
4.26E+03,-7805,-2755,1949,-281,118,889,1,7,11
4.26E+03,-7773,-2740,1948,-358,66,652,1,7,11
4.26E+03,-7758,-2723,1939,-192,38,652,1,7,11
4.26E+03,-7749,-2717,1947,-562,20,651,1,7,11
4.26E+03,-7741,-2716,1962,-414,11,656,1,7,11
4.26E+03,-7752,-2715,1993,-511,11,662,1,7,11
4.26E+03,-7749,-2717,2028,-844,16,677,1,7,11
4.26E+03,-7783,-2692,2319,-886,42,689,1,7,11
4.26E+03,-7611,-2914,2350,-644,65,726,1,7,11
4.26E+03,-7664,-2877,2351,-643,47,1079,1,7,11
4.26E+03,-7946,-2848,2374,-646,34,931,1,7,11
4.26E+03,-7671,-2838,2409,-661,2,1282,1,7,11
4.26E+03,-7628,-2818,2200,-642,-288,1328,1,7,11
4.26E+03,-7607,-2519,2199,-849,-296,1321,1,7,11
4.26E+03,-7604,-2457,2180,-794,-284,1302,1,7,11
4.26E+03,-7615,-2622,2427,-493,11,1299,1,7,11
4.26E+03,-7620,-2577,2421,-464,62,1318,1,7,11
4.26E+03,-7584,-2287,2417,-414,-109,1340,1,7,11
4.26E+03,-7560,-2261,2403,-616,-32,1305,1,7,11
4.26E+03,-7790,-2230,2377,-555,289,980,1,7,11
4.26E+03,-7772,-2199,2337,-230,358,1147,1,7,11
4.26E+03,-7783,-2391,2030,-384,220,727,1,7,11
4.26E+03,-7599,-2349,2017,-321,546,869,1,7,11
4.26E+03,-7626,-2319,1995,-262,549,793,1,7,11
4.26E+03,-7659,-2041,1971,50,537,457,1,7,11
4.26E+03,-7941,-2022,1957,96,240,637,1,7,11
4.26E+03,-7953,-2004,1937,-123,175,555,1,7,11
4.26E+03,-7954,-1988,1930,-100,351,213,1,7,11
4.27E+03,-7942,-1977,1921,-80,270,379,1,7,11
4.27E+03,-7945,-1966,2170,-70,-53,280,1,7,11
4.27E+03,-7941,-1957,2170,-78,-115,-56,1,7,11
4.27E+03,-7673,-1963,1924,-97,95,125,1,7,11
4.27E+03,-7676,-1976,1931,-112,65,53,1,7,11
4.27E+03,-7661,-1994,1948,-126,43,-260,1,7,11
4.27E+03,-7656,-2006,1951,116,42,-315,1,7,11
4.27E+03,-7668,-2029,1956,96,43,-358,1,7,11
4.27E+03,-7666,-2038,1976,76,35,-378,1,7,11
4.27E+03,-7661,-2308,1983,49,37,-135,1,7,11
4.27E+03,-7673,-2325,1986,12,44,-136,1,7,11
4.27E+03,-7678,-2340,2002,-281,51,-383,1,7,11
4.27E+03,-7947,-2355,2027,-312,54,-368,1,7,11
4.27E+03,-7943,-2373,2310,-329,48,-343,1,7,11
4.27E+03,-7671,-2394,2336,-334,47,-324,1,7,11
4.27E+03,-7671,-2404,2342,-324,63,-316,1,7,11
4.27E+03,-7940,-2398,2349,-306,86,-304,1,7,11
4.27E+03,-7940,-2383,2345,-285,111,-281,1,7,11
4.27E+03,-7954,-2356,2339,-267,-103,4,1,7,11
4.27E+03,-7984,-2318,2322,3,-57,43,1,7,11
4.27E+03,-8008,-2041,2307,4,-29,102,1,7,11
4.27E+03,-7991,-2034,2034,-285,-11,-83,1,7,11
4.27E+03,-7998,-2036,2043,-372,271,-65,1,7,11
4.27E+03,-8008,-2039,2322,-176,-6,-56,1,7,11
4.27E+03,-8033,-2044,2340,-221,-55,-56,1,7,11
4.27E+03,-8041,-2305,2359,-256,126,-41,1,7,11
4.27E+03,-8038,-2311,2382,-524,41,-23,1,7,11
4.27E+03,-8010,-2317,2404,-254,-299,259,1,7,11
4.27E+03,-7974,-2313,2409,-218,-349,259,1,7,11
4.27E+03,-7952,-2319,2431,-176,-378,-11,1,7,11
4.27E+03,-7667,-2321,2192,-377,-137,-40,1,7,11
4.27E+03,-7654,-2312,2199,-315,-133,-85,1,7,11
4.27E+03,-7652,-2044,2207,-264,-374,-127,1,7,11
4.27E+03,-7656,-2033,2227,18,-346,94,1,7,11
4.27E+03,-7670,-2026,2251,30,-323,74,1,7,11
4.27E+03,-7648,-2017,2245,29,-303,73,1,7,11
4.27E+03,-7660,-2002,2242,4,15,63,1,7,11
4.27E+03,-7945,-1990,2255,-292,78,74,1,7,11
4.27E+03,-7947,-1994,2266,-330,-124,109,1,7,11
4.27E+03,-7673,-2005,2272,-359,-75,-108,1,7,11
4.28E+03,-7647,-2023,2268,-377,-27,-86,1,7,11
4.28E+03,-7632,-2032,2256,-372,280,-100,1,7,11
4.28E+03,-7641,-2031,2227,-346,340,124,1,7,11
4.28E+03,-7668,-2027,2179,-323,133,112,1,7,11
4.28E+03,-7676,-2033,2396,-304,168,110,1,7,11
4.28E+03,-7943,-2034,2375,-294,194,95,1,7,11
4.28E+03,-7951,-2035,2345,-287,198,61,1,7,11
4.28E+03,-7960,-2034,2321,-286,173,12,1,7,11
4.28E+03,-7984,-2023,2305,-296,133,-293,1,7,11
4.28E+03,-7996,-2022,2031,-333,330,-317,1,7,11
4.28E+03,-7998,-2019,2016,-384,274,-324,1,7,11
4.28E+03,-7999,-2029,2013,-184,-31,-326,1,7,11
4.28E+03,-8005,-2044,2022,-231,-73,-322,1,7,11
4.28E+03,-8005,-2321,2046,-519,-112,-304,1,7,11
4.28E+03,-7978,-2342,2308,-529,107,-287,1,7,11
4.28E+03,-7679,-2365,2304,-519,93,-279,1,7,11
4.28E+03,-7655,-2387,2038,-241,110,-303,1,7,11
4.28E+03,-7648,-2397,2027,-211,126,-334,1,7,11
4.28E+03,-7651,-2403,2025,-180,-127,-365,1,7,11
4.28E+03,-7669,-2420,2016,-152,123,-143,1,7,11
4.28E+03,-7655,-2184,2010,-383,95,-169,1,7,11
4.28E+03,-7670,-2192,2033,-366,73,-230,1,7,11
4.28E+03,-7947,-2193,2045,-363,47,-256,1,7,11
4.28E+03,-7968,-2185,2330,-364,12,-517,1,7,11
4.28E+03,-7969,-2429,2336,-352,-296,-231,1,7,11
4.28E+03,-7937,-2432,2344,-347,-313,-175,1,7,11
4.28E+03,-7646,-2183,2333,-348,-276,-384,1,7,11
4.28E+03,-7621,-2203,2342,-350,50,-355,1,7,11
4.28E+03,-7600,-2224,2363,-339,119,-349,1,7,11
4.28E+03,-7583,-2244,2373,-315,-92,-364,1,7,11
4.28E+03,-7578,-2256,2363,-285,-61,-139,1,7,11
4.28E+03,-7579,-2270,2354,0,-40,-177,1,7,11
4.28E+03,-7590,-2283,2345,19,-21,-219,1,7,11
4.28E+03,-7616,-2285,2351,35,-9,-255,1,7,11
4.28E+03,-7653,-2287,2356,51,-18,-525,1,7,11
4.28E+03,-7645,-2293,2356,72,-54,-251,1,7,11
4.28E+03,-7641,-2304,2334,84,-66,-235,1,7,11
4.28E+03,-7625,-2571,2328,83,-71,-218,1,7,11
4.28E+03,-7611,-2581,2314,83,-64,-214,1,7,11
4.28E+03,-7595,-2590,2305,75,-51,-221,1,7,11
4.29E+03,-7600,-2597,2044,63,-34,-232,1,7,11
4.29E+03,-7606,-2614,2305,52,-24,-233,1,7,11
4.29E+03,-7611,-2630,2324,40,-15,-230,1,7,11
4.29E+03,-7613,-2649,2341,37,-8,-229,1,7,11
4.29E+03,-7626,-2654,2351,52,-6,-227,1,7,11
4.29E+03,-7650,-2656,2363,85,-7,-209,1,7,11
4.29E+03,-7663,-2660,2357,118,-13,-166,1,7,11
4.29E+03,-7654,-2660,2341,-104,-15,-364,1,7,11
4.29E+03,-7640,-2656,2322,-75,-10,-318,1,7,11
4.29E+03,-7627,-2643,2040,-58,259,-291,1,7,11
4.29E+03,-7621,-2644,2026,-58,267,-279,1,7,11
4.29E+03,-7617,-2641,1997,-70,271,-281,1,7,11
4.29E+03,-7617,-2638,2003,-98,263,-287,1,7,11
4.29E+03,-7617,-2640,2012,121,-11,-295,1,7,11
4.29E+03,-7630,-2646,2030,85,-37,-300,1,7,11
4.29E+03,-7656,-2639,2308,62,-69,-295,1,7,11
4.29E+03,-7671,-2636,2336,40,-113,-275,1,7,11
4.29E+03,-7674,-2625,2357,27,97,17,1,7,11
4.29E+03,-7663,-2613,2385,19,48,81,1,7,11
4.29E+03,-7673,-2604,2415,16,48,124,1,7,11
4.29E+03,-7652,-2604,2426,21,49,-81,1,7,11
4.29E+03,-7628,-2602,2179,42,76,-46,1,7,11
4.29E+03,-7600,-2595,2176,67,119,-31,1,7,11
4.29E+03,-7560,-2593,2418,90,-91,-38,1,7,11
4.29E+03,-7786,-2592,2404,111,-39,-72,1,7,11
4.29E+03,-7773,-2588,2380,126,266,-124,1,7,11
4.29E+03,-7784,-2595,2363,-124,303,70,1,7,11
4.29E+03,-7808,-2598,2353,-127,314,6,1,7,11
4.29E+03,-7582,-2607,2357,118,294,-306,1,7,11
4.29E+03,-7612,-2617,2363,105,-15,-350,1,7,11
4.29E+03,-7637,-2620,2366,89,-82,-372,1,7,11
4.29E+03,-7629,-2603,2400,5,43,-319,1,7,11
4.29E+03,-7636,-2600,2421,-278,47,-291,1,7,11
4.29E+03,-7615,-2604,2417,-295,54,13,1,7,11
4.29E+03,-7599,-2609,2422,-306,90,46,1,7,11
4.29E+03,-7598,-2615,2431,-311,-113,70,1,7,11
4.29E+03,-7599,-2614,2176,-302,-56,94,1,7,11
4.29E+03,-7613,-2617,2431,-277,260,113,1,7,11
4.29E+03,-7621,-2613,2430,7,314,-123,1,7,11
4.29E+03,-7616,-2610,2417,39,351,-100,1,7,11
4.30E+03,-7614,-2599,2401,79,376,-98,1,7,11
4.30E+03,-7627,-2587,2373,119,154,-101,1,7,11
4.30E+03,-7637,-2579,2356,-108,154,-99,1,7,11
4.30E+03,-7643,-2567,2348,-91,141,-105,1,7,11
4.30E+03,-7655,-2561,2336,-98,366,-119,1,7,11
4.30E+03,-7655,-2289,2326,-112,323,109,1,7,11
4.30E+03,-7659,-2275,2325,114,273,82,1,7,11
4.30E+03,-7652,-2268,2324,74,-34,64,1,7,11
4.30E+03,-7646,-2264,2325,35,-75,56,1,7,11
4.30E+03,-7647,-2262,2326,0,-93,53,1,7,11
4.30E+03,-7644,-2260,2329,-283,-100,61,1,7,11
4.30E+03,-7640,-2273,2331,-295,-84,83,1,7,11
4.30E+03,-7638,-2280,2330,-297,-50,108,1,7,11
4.30E+03,-7637,-2291,2336,-291,-6,-117,1,7,11
4.30E+03,-7635,-2563,2322,-272,294,-94,1,7,11
4.30E+03,-7632,-2563,2047,27,339,-86,1,7,11
4.30E+03,-7640,-2302,2036,65,372,-93,1,7,11
4.30E+03,-7660,-2297,2027,106,373,-97,1,7,11
4.30E+03,-7938,-2292,2015,-114,351,-104,1,7,11
4.30E+03,-7680,-2280,2001,-100,309,-113,1,7,11
4.30E+03,-7938,-2273,1990,-105,267,115,1,7,11
4.30E+03,-7946,-2258,2002,121,-42,87,1,7,11
4.30E+03,-7672,-2251,2000,78,-103,66,1,7,11
4.30E+03,-7653,-2252,1998,22,98,46,1,7,11
4.30E+03,-7635,-2259,2008,-289,60,28,1,7,11
4.30E+03,-7622,-2272,2007,-324,43,13,1,7,11
4.30E+03,-7617,-2284,2015,-351,49,8,1,7,11
4.30E+03,-7611,-2301,2028,-361,72,11,1,7,11
4.30E+03,-7610,-2575,2045,-356,95,14,1,7,11
4.30E+03,-7623,-2591,2306,-340,121,18,1,7,11
4.30E+03,-7638,-2596,2310,-325,-118,28,1,7,11
4.30E+03,-7638,-2598,2319,-309,-115,40,1,7,11
4.30E+03,-7654,-2592,2333,-309,-117,46,1,7,11
4.30E+03,-7658,-2581,2353,-310,110,70,1,7,11
4.30E+03,-7628,-2574,2344,-322,84,96,1,7,11
4.30E+03,-7627,-2575,2366,-351,86,99,1,7,11
4.30E+03,-7618,-2572,2384,-371,88,103,1,7,11
4.30E+03,-7628,-2575,2410,-371,105,92,1,7,11
4.30E+03,-7629,-2577,2424,-349,119,100,1,7,11
4.30E+03,-7620,-2580,2416,-316,-112,121,1,7,11
4.31E+03,-7603,-2574,2405,-267,-68,-120,1,7,11
4.31E+03,-7601,-2569,2398,42,-11,-112,1,7,11
4.31E+03,-7631,-2567,2399,97,302,-110,1,7,11
4.31E+03,-7655,-2563,2374,-96,339,-90,1,7,11
4.31E+03,-7672,-2579,2373,-49,364,-79,1,7,11
4.31E+03,-7946,-2577,2377,272,367,-91,1,7,11
4.31E+03,-8063,-2289,2358,363,373,-117,1,7,11
4.31E+03,-7883,-2251,2350,216,380,-95,1,7,11
4.31E+03,-8242,-2218,2344,635,170,280,1,7,11
4.31E+03,-8216,-2197,2326,496,162,178,1,7,11
4.31E+03,-7871,-2180,2310,845,171,537,1,7,11
4.31E+03,-8043,-2410,2309,889,181,545,1,7,11
4.31E+03,-7957,-2372,2317,891,140,218,1,7,11
4.31E+03,-7962,-2046,2327,831,327,340,1,7,11
4.31E+03,-8015,-1970,2337,443,-78,-17,1,7,11
4.31E+03,-7809,-2160,2361,517,-286,-47,1,7,11
4.31E+03,-8030,-2108,2363,313,-515,256,1,7,11
4.31E+03,-7964,-2062,2369,113,-413,335,1,7,11
4.31E+03,-7673,-1784,2399,-327,-466,170,1,7,11
4.31E+03,-7633,-1780,2188,-202,-462,525,1,7,11
4.31E+03,-7598,-2053,2214,-523,-401,611,1,7,11
4.31E+03,-7799,-2094,2221,-536,-571,423,1,7,11
4.31E+03,-7704,-2156,2212,-247,-193,429,1,7,11
4.31E+03,-7351,-1992,2208,-166,23,231,1,7,11
4.31E+03,-7355,-2030,2194,-351,-117,-25,1,7,11
4.31E+03,-7389,-2306,2181,-303,-73,-311,1,7,11
4.31E+03,-7725,-2048,2406,-289,-85,-583,1,7,11
4.31E+03,-7568,-2309,2373,-318,111,-783,1,7,11
4.31E+03,-7631,-2325,2337,-369,41,-896,1,7,11
4.31E+03,-7657,-2360,2313,-184,-268,-680,1,7,11
4.31E+03,-7658,-2406,2046,-523,-286,-680,1,7,11
4.31E+03,-7648,-2206,2316,-604,-286,-656,1,7,11
4.31E+03,-7649,-2264,2356,-410,-278,-888,1,7,11
4.31E+03,-7657,-2574,2399,-451,-304,-852,1,7,11
4.31E+03,-7637,-2619,2177,-468,-354,-813,1,7,11
4.31E+03,-7647,-2649,2202,-467,-139,-785,1,7,11
4.31E+03,-7639,-2667,2212,-449,-179,-493,1,7,11
4.31E+03,-7648,-2668,2224,-426,-190,-445,1,7,11
4.31E+03,-7645,-2669,2245,-417,-188,-640,1,7,11
4.31E+03,-7650,-2675,2277,-399,-175,-572,1,7,11
4.32E+03,-7648,-2672,2571,-624,-167,-247,1,7,11
4.32E+03,-7640,-2686,2600,-587,-159,-181,1,7,11
4.32E+03,-7625,-2442,2600,-544,-146,-383,1,7,11
4.32E+03,-7603,-2449,2593,-240,-376,-340,1,7,11
4.32E+03,-7562,-2446,2567,-182,-325,-313,1,7,11
4.32E+03,-7804,-2448,2279,-137,8,-296,1,7,11
4.32E+03,-7793,-2455,2243,-352,96,-296,1,7,11
4.32E+03,-7804,-2460,2248,-322,-86,-304,1,7,11
4.32E+03,-7563,-2468,2258,-290,-43,-311,1,7,11
4.32E+03,-7586,-2464,2262,7,-37,-324,1,7,11
4.32E+03,-7603,-2452,2271,51,-66,-315,1,7,11
4.32E+03,-7634,-2682,2275,108,-108,-275,1,7,11
4.32E+03,-7643,-2654,2280,-126,-124,34,1,7,11
4.32E+03,-7647,-2627,2284,-112,-120,99,1,7,11
4.32E+03,-7635,-2614,2282,-99,-116,-80,1,7,11
4.32E+03,-7592,-2601,2279,-88,-114,-21,1,7,11
4.32E+03,-7802,-2590,2273,-85,-94,-3,1,7,11
4.32E+03,-7774,-2583,2267,-88,-70,-21,1,7,11
4.32E+03,-7749,-2569,2258,-100,-44,-62,1,7,11
4.32E+03,-7762,-2564,2256,-121,-24,-117,1,7,11
4.32E+03,-7767,-2574,2266,118,-32,88,1,7,11
4.32E+03,-7772,-2591,2286,99,-52,13,1,7,11
4.32E+03,-7806,-2595,2576,76,-85,-323,1,7,11
4.32E+03,-7572,-2599,2611,66,116,-137,1,7,11
4.32E+03,-7601,-2591,2630,65,59,-184,1,7,11
4.32E+03,-7585,-2588,2609,58,1,-184,1,7,11
4.32E+03,-7558,-2590,2595,37,-261,-170,1,7,11
4.32E+03,-7796,-2603,2585,8,37,-154,1,7,11
4.32E+03,-7768,-2628,2579,-275,101,-146,1,7,11
4.32E+03,-7777,-2649,2585,-298,-70,-148,1,7,11
4.32E+03,-7782,-2685,2597,-309,-8,-138,1,7,11
4.32E+03,-7791,-2458,2611,-311,289,-132,1,7,11
4.32E+03,-7806,-2494,2618,-304,308,-134,1,7,11
4.32E+03,-7566,-2508,2637,-278,304,-134,1,7,11
4.32E+03,-7610,-2495,2638,17,297,-381,1,7,11
4.32E+03,-7630,-2480,2638,55,267,-326,1,7,11
4.32E+03,-7624,-2464,2620,80,-2,3,1,7,11
4.32E+03,-7604,-2454,2608,88,259,79,1,7,11
4.32E+03,-7571,-2439,2608,100,283,-123,1,7,11
4.32E+03,-7556,-2434,2599,112,309,-91,1,7,11
4.33E+03,-7792,-2687,2603,-126,334,-81,1,7,11
4.33E+03,-7785,-2687,2618,-98,341,-94,1,7,11
4.33E+03,-7783,-2678,2608,-57,324,-127,1,7,11
4.33E+03,-7778,-2665,2591,-14,307,91,1,7,11
4.33E+03,-7774,-2655,2562,282,290,48,1,7,11
4.33E+03,-7781,-2636,2282,277,279,-259,1,7,11
4.33E+03,-7791,-2629,2256,-1,260,-301,1,7,11
4.33E+03,-7801,-2627,2234,-29,-9,-333,1,7,11
4.33E+03,-7556,-2639,2234,-65,-20,-347,1,7,11
4.33E+03,-7555,-2651,2237,-106,-29,-352,1,7,11
4.33E+03,-7566,-2670,2242,110,-31,-356,1,7,11
4.33E+03,-7578,-2675,2250,77,-29,-355,1,7,11
4.33E+03,-7593,-2679,2275,36,-31,-346,1,7,11
4.33E+03,-7604,-2680,2300,4,-39,-325,1,7,11
4.33E+03,-7610,-2684,2570,-280,-40,-294,1,7,11
4.33E+03,-7607,-2680,2573,-303,-30,5,1,7,11
4.33E+03,-7608,-2681,2591,-315,-14,54,1,7,11
4.33E+03,-7609,-2681,2612,-311,-2,107,1,7,11
4.33E+03,-7600,-2672,2616,-280,267,-100,1,7,11
4.33E+03,-7587,-2668,2620,13,277,-56,1,7,11
4.33E+03,-7808,-2658,2598,55,278,-32,1,7,11
4.33E+03,-7791,-2642,2574,91,297,-42,1,7,11
4.33E+03,-7803,-2628,2291,113,320,-62,1,7,11
4.33E+03,-7808,-2621,2278,120,325,-76,1,7,11
4.33E+03,-7567,-2626,2276,110,327,-110,1,7,11
4.33E+03,-7586,-2631,2297,95,295,106,1,7,11
4.33E+03,-7593,-2634,2575,86,-16,66,1,7,11
4.33E+03,-7598,-2622,2589,86,-85,39,1,7,11
4.33E+03,-7580,-2610,2585,78,108,31,1,7,11
4.33E+03,-7577,-2603,2589,55,86,25,1,7,11
4.33E+03,-7572,-2599,2599,37,83,41,1,7,11
4.33E+03,-7563,-2599,2603,24,101,59,1,7,11
4.33E+03,-7797,-2606,2596,15,-123,77,1,7,11
4.33E+03,-7787,-2605,2580,22,-62,80,1,7,11
4.33E+03,-7795,-2623,2574,36,263,82,1,7,11
4.33E+03,-7787,-2640,2303,66,325,92,1,7,11
4.33E+03,-7798,-2641,2286,-128,141,76,1,7,11
4.33E+03,-7585,-2643,2253,-63,187,65,1,7,11
4.33E+03,-7584,-2625,2226,259,205,60,1,7,11
4.33E+03,-7621,-2601,2199,304,203,40,1,7,11
4.34E+03,-7647,-2586,2185,300,174,23,1,7,11
4.34E+03,-7659,-2573,2422,271,380,17,1,7,11
4.34E+03,-7661,-2563,2401,-28,325,20,1,7,11
4.34E+03,-7657,-2565,2393,-90,272,32,1,7,11
4.34E+03,-7638,-2566,2388,102,-23,43,1,7,11
4.34E+03,-7633,-2572,2399,40,-47,53,1,7,11
4.34E+03,-7634,-2578,2429,-265,-73,71,1,7,11
4.34E+03,-7620,-2588,2196,-299,-97,92,1,7,11
4.34E+03,-7617,-2593,2224,-314,-113,113,1,7,11
4.34E+03,-7615,-2595,2257,-314,-124,-123,1,7,11
4.34E+03,-7618,-2594,2278,-304,124,-104,1,7,11
4.34E+03,-7637,-2568,2589,-277,103,-52,1,7,11
4.34E+03,-7619,-2294,2585,-262,95,-20,1,7,11
4.34E+03,-7573,-2286,2578,-265,104,-1,1,7,11
4.34E+03,-7798,-2280,2567,-291,-105,-5,1,7,11
4.34E+03,-7778,-2291,2293,-331,-37,-25,1,7,11
4.34E+03,-7773,-2572,2290,-370,299,-50,1,7,11
4.34E+03,-7775,-2604,2285,-136,377,-71,1,7,11
4.34E+03,-7774,-2649,2285,-149,181,-86,1,7,11
4.34E+03,-7785,-2440,2284,-138,235,-115,1,7,11
4.34E+03,-7803,-2462,2283,-375,526,118,1,7,11
4.34E+03,-7576,-2464,2266,-335,541,107,1,7,11
4.34E+03,-7623,-2461,2248,-302,552,104,1,7,11
4.34E+03,-7633,-2459,2225,-270,540,-84,1,7,11
4.34E+03,-7640,-2442,2204,8,516,-30,1,7,11
4.34E+03,-7647,-2685,2186,8,255,-7,1,7,11
4.34E+03,-7633,-2672,2426,-266,233,325,1,7,11
4.34E+03,-7620,-2660,2403,-295,202,363,1,7,11
4.34E+03,-7614,-2643,2396,-361,182,132,1,7,11
4.34E+03,-7622,-2633,2396,-149,170,144,1,7,11
4.34E+03,-7640,-2623,2389,-194,149,169,1,7,11
4.34E+03,-7657,-2611,2403,-237,373,199,1,7,11
4.34E+03,-7670,-2596,2410,-521,333,229,1,7,11
4.34E+03,-7944,-2575,2428,-540,285,524,1,7,11
4.34E+03,-7947,-2304,2184,-548,-31,576,1,7,11
4.34E+03,-7949,-2276,2186,-546,-83,624,1,7,11
4.34E+03,-7971,-2244,2211,-541,124,408,1,7,11
4.34E+03,-7989,-2213,2240,-525,46,461,1,7,11
4.34E+03,-8015,-2424,2266,-242,-288,506,1,7,11
4.34E+03,-7815,-2367,2285,-222,-371,817,1,7,11
4.35E+03,-7850,-2039,2282,-191,-197,653,1,7,11
4.35E+03,-7889,-1967,2263,-169,-254,1024,1,7,11
4.35E+03,-7908,-2128,2215,-151,-536,920,1,7,11
4.35E+03,-8211,-1768,2408,-157,-237,1341,1,7,11
4.35E+03,-8247,-1915,2339,-194,-174,1553,1,7,11
4.35E+03,-8249,-1813,1995,-513,-332,1797,1,7,11
4.35E+03,-8227,-1477,2165,-613,57,2052,1,7,11
4.35E+03,-7929,-1427,2104,-488,-59,2040,1,7,11
4.35E+03,-7910,-1648,2083,-869,336,2210,1,7,11
4.35E+03,-7913,-1617,2083,-732,163,2580,1,7,11
4.35E+03,-7909,-1595,2101,-1075,175,2649,1,7,11
4.35E+03,-8203,-1554,2103,-1092,164,2677,1,7,11
4.35E+03,-8224,-1243,2103,-1085,322,2453,1,7,11
4.35E+03,-8284,-1195,2117,-1062,-61,2456,1,7,11
4.35E+03,-8130,-1392,2167,-1058,-257,2474,1,7,11
4.35E+03,-8183,-1304,1932,-1096,-830,2517,1,7,11
4.35E+03,-8161,-981,1968,-982,-994,2490,1,7,11
4.35E+03,-8109,-1146,2012,-1360,-1628,2432,1,7,11
4.35E+03,-8269,-1047,2312,-1219,-1906,2613,1,7,11
4.35E+03,-7896,-672,2349,-1559,-2052,2272,1,7,11
4.35E+03,-8039,-801,2382,-1624,-1787,2180,1,7,11
4.35E+03,-7678,-434,2196,-1417,-1904,2342,1,7,11
4.35E+03,-7586,-582,2263,-1431,-1410,1971,1,7,11
4.35E+03,-7778,-248,2600,-1658,-1349,2088,1,7,11
4.35E+03,-7743,-195,2682,-1570,-746,1666,1,7,11
4.35E+03,-7737,-157,2492,-1175,-402,1471,1,7,11
4.35E+03,-7764,-137,2547,-975,-346,1271,1,7,11
4.35E+03,-7797,-366,2816,-730,-88,1342,1,7,11
4.35E+03,-7557,-357,2559,-469,132,927,1,7,11
4.35E+03,-7797,-359,2819,-190,576,762,1,7,11
4.35E+03,-7573,-352,2820,102,483,816,1,7,11
4.35E+03,-7633,-346,2830,382,818,619,1,7,11
4.35E+03,-7674,-350,2860,637,799,171,1,7,11
4.35E+03,-7967,-369,2895,876,453,-40,1,7,11
4.35E+03,-8030,-138,2926,1107,572,-273,1,7,11
4.35E+03,-8053,-171,2943,1313,377,-513,1,7,11
4.35E+03,-8063,-201,2705,1227,-67,-788,1,7,11
4.35E+03,-8046,-198,2701,1628,23,-1065,1,7,11
4.35E+03,-7812,-173,2926,1485,-346,-1334,1,7,11
4.35E+03,-7842,-144,2872,1794,-172,-1274,1,7,11
4.36E+03,-7888,-377,2535,1796,-200,-1659,1,7,11
4.36E+03,-8222,-131,2462,1483,-169,-1458,1,7,11
4.36E+03,-8269,-198,2681,1630,-363,-1435,1,7,11
4.36E+03,-8263,-568,2438,1261,-288,-1644,1,7,11
4.36E+03,-8227,-445,2485,1179,39,-1624,1,7,11
4.36E+03,-7932,-824,2529,1152,81,-1640,1,7,11
4.36E+03,-7898,-668,2557,1173,86,-1421,1,7,11
4.36E+03,-7885,-730,2834,1217,82,-1468,1,7,11
4.36E+03,-7872,-763,2839,1259,69,-1489,1,7,11
4.36E+03,-7896,-767,2841,1560,67,-1486,1,7,11
4.36E+03,-7908,-748,2851,1592,52,-1433,1,7,11
4.36E+03,-7907,-719,2856,1600,25,-1586,1,7,11
4.36E+03,-8195,-684,2865,1570,-266,-1383,1,7,11
4.36E+03,-7935,-642,2880,1272,-299,-946,1,7,11
4.36E+03,-7926,-843,2891,1225,-313,-753,1,7,11
4.36E+03,-7881,-806,2892,1157,-310,-803,1,7,11
4.36E+03,-7834,-785,2895,1330,-275,-639,1,7,11
4.36E+03,-8046,-775,2896,973,35,-523,1,7,11
4.36E+03,-8003,-780,2900,1121,99,-209,1,7,11
4.36E+03,-7990,-794,2910,744,-99,-219,1,7,11
4.36E+03,-7992,-819,2920,878,-73,-525,1,7,11
4.36E+03,-8022,-834,2912,499,-67,-601,1,7,11
4.36E+03,-8062,-853,2906,616,-83,-413,1,7,11
4.36E+03,-7831,-880,2904,209,-114,-466,1,7,11
4.36E+03,-7872,-657,2909,320,125,-769,1,7,11
4.36E+03,-7927,-698,2915,-75,103,-791,1,7,11
4.36E+03,-7934,-749,2931,52,64,-781,1,7,11
4.36E+03,-7906,-1062,2714,-310,41,-781,1,7,11
4.36E+03,-7876,-1114,2760,-136,26,-778,1,7,11
4.36E+03,-7834,-899,2784,-175,19,-775,1,7,11
4.36E+03,-8050,-930,2799,-189,23,-499,1,7,11
4.36E+03,-8016,-959,2807,-188,44,-464,1,7,11
4.36E+03,-7994,-979,2808,-174,84,-426,1,7,11
4.36E+03,-7987,-994,2812,-152,-120,-636,1,7,11
4.36E+03,-7976,-1294,2789,-367,-51,-250,1,7,11
4.36E+03,-7974,-1299,2772,-345,-20,-198,1,7,11
4.36E+03,-7975,-1326,2736,-336,263,-149,1,7,11
4.36E+03,-7974,-1322,2688,-325,296,-369,1,7,11
4.36E+03,-8018,-1311,2906,-331,341,-339,1,7,11
4.36E+03,-8046,-1322,2868,-352,348,9,1,7,11
4.37E+03,-8061,-1342,2875,-376,330,63,1,7,11
4.37E+03,-8062,-1355,2881,-136,299,93,1,7,11
4.37E+03,-8060,-1363,2887,-138,256,95,1,7,11
4.37E+03,-8064,-1365,2905,-129,-53,74,1,7,11
4.37E+03,-8057,-1359,2905,-372,-113,42,1,7,11
4.37E+03,-8044,-1347,2902,-367,95,1,1,7,11
4.37E+03,-8018,-1327,2891,-371,68,-299,1,7,11
4.37E+03,-8011,-1305,2889,-383,65,-346,1,7,11
4.37E+03,-8011,-1300,2881,-141,68,-369,1,7,11
4.37E+03,-8027,-1300,2863,-153,83,-379,1,7,11
4.37E+03,-8045,-1314,2852,-154,100,-371,1,7,11
4.37E+03,-8042,-1327,2842,-148,124,-347,1,7,11
4.37E+03,-8051,-1344,2847,-132,-103,-322,1,7,11
4.37E+03,-8056,-1353,2868,-351,-84,-298,1,7,11
4.37E+03,-7813,-1356,2892,-298,-82,-268,1,7,11
4.37E+03,-7832,-1351,2914,31,-96,20,1,7,11
4.37E+03,-7834,-1337,2919,104,-125,60,1,7,11
4.37E+03,-7838,-1309,2921,-87,111,89,1,7,11
4.37E+03,-7852,-1285,2934,-39,85,123,1,7,11
4.37E+03,-7851,-1002,2940,-2,46,-93,1,7,11
4.37E+03,-7849,-973,2697,282,13,-59,1,7,11
4.37E+03,-7851,-944,2694,295,-271,-28,1,7,11
4.37E+03,-7839,-922,2707,289,-293,257,1,7,11
4.37E+03,-7827,-1142,2710,280,-301,278,1,7,11
4.37E+03,-7831,-1122,2720,-3,-305,294,1,7,11
4.37E+03,-7809,-1107,2718,-46,-322,310,1,7,11
4.37E+03,-8052,-1096,2724,-103,-319,296,1,7,11
4.37E+03,-8033,-1097,2745,73,-334,278,1,7,11
4.37E+03,-8009,-1109,2796,-269,-368,-13,1,7,11
4.37E+03,-7971,-1124,3098,-360,-159,-71,1,7,11
4.37E+03,-7680,-1136,3158,-192,-196,108,1,7,11
4.37E+03,-7679,-1150,2973,-515,-227,21,1,7,11
4.37E+03,-7942,-911,3047,-569,-518,-306,1,7,11
4.37E+03,-7678,-929,3396,-603,-563,-364,1,7,11
4.37E+03,-7940,-931,3417,-624,-593,-174,1,7,11
4.37E+03,-7938,-939,3432,-639,-619,-192,1,7,11
4.37E+03,-7943,-943,3433,-399,-599,-194,1,7,11
4.37E+03,-7953,-929,3433,-407,-549,-171,1,7,11
4.37E+03,-8004,-918,3423,-417,-232,-372,1,7,11
4.37E+03,-8018,-1143,3390,-398,-173,-261,1,7,11
4.38E+03,-7815,-1092,3334,-624,-316,-108,1,7,11
4.38E+03,-7840,-1038,2998,-583,70,129,1,7,11
4.38E+03,-7842,-721,3151,-542,-16,416,1,7,11
4.38E+03,-8028,-679,2808,-535,185,732,1,7,11
4.38E+03,-7679,-687,2765,-551,418,985,1,7,11
4.38E+03,-7669,-710,2779,-562,643,1363,1,7,11
4.38E+03,-7658,-723,3093,-554,741,1165,1,7,11
4.38E+03,-7648,-711,3151,-255,731,1402,1,7,11
4.38E+03,-7679,-672,3196,-193,877,1324,1,7,11
4.38E+03,-8000,-844,2946,-380,435,972,1,7,11
4.38E+03,-8033,-492,3179,-343,201,904,1,7,11
4.38E+03,-8061,-388,3156,-360,-6,1092,1,7,11
4.38E+03,-7832,-552,3175,-182,68,1029,1,7,11
4.38E+03,-7886,-197,2953,-531,-345,709,1,7,11
4.38E+03,-8254,-364,2999,-634,-235,673,1,7,11
4.38E+03,-8066,-303,3051,-501,-413,712,1,7,11
4.38E+03,-8283,1,3356,-890,-857,1034,1,7,11
4.38E+03,-8221,39,3422,-768,-722,1059,1,7,11
4.38E+03,-7895,70,3226,-1148,-1049,1060,1,7,11
4.38E+03,-7852,94,3287,-994,-1063,1034,1,7,11
4.38E+03,-7816,105,3607,-1349,-1065,752,1,7,11
4.38E+03,-7998,106,3659,-1162,-1048,722,1,7,11
4.38E+03,-7954,105,3676,-1205,-723,661,1,7,11
4.38E+03,-7666,93,3680,-1246,-880,848,1,7,11
4.38E+03,-7630,73,3686,-1543,-482,504,1,7,11
4.38E+03,-7962,32,3457,-1639,-375,525,1,7,11
4.38E+03,-7958,-269,3462,-1421,15,176,1,7,11
4.38E+03,-7940,-316,3465,-1458,-118,300,1,7,11
4.38E+03,-7976,-357,3466,-1482,259,-121,1,7,11
4.38E+03,-8007,-144,3694,-1476,336,-261,1,7,11
4.38E+03,-8019,-193,3631,-1448,135,-377,1,7,11
4.38E+03,-8025,-237,3292,-1409,197,-222,1,7,11
4.38E+03,-8028,-552,3211,-1632,542,-571,1,7,11
4.38E+03,-7839,-615,3390,-1596,399,-415,1,7,11
4.38E+03,-7839,-484,3030,-1555,456,-471,1,7,11
4.38E+03,-7983,-827,3194,-1243,488,-789,1,7,11
4.38E+03,-7792,-661,3129,-1192,795,-659,1,7,11
4.38E+03,-7695,-1026,2803,-1406,844,-1095,1,7,11
4.38E+03,-7355,-1133,2749,-1352,864,-1195,1,7,11
4.38E+03,-7312,-982,2743,-1294,840,-1469,1,7,11
4.39E+03,-7342,-1339,2752,-969,716,-1756,1,7,11
4.39E+03,-7393,-1156,2761,-1129,537,-2012,1,7,11
4.39E+03,-7716,-1227,2766,-698,283,-2220,1,7,11
4.39E+03,-7754,-1273,2755,-824,-287,-2617,1,7,11
4.39E+03,-7553,-1559,2749,-439,-597,-2444,1,7,11
4.39E+03,-7627,-1576,2714,-576,-894,-2442,1,7,11
4.39E+03,-7972,-1611,2941,-244,-905,-2609,1,7,11
4.39E+03,-7817,-1648,2936,-221,-1394,-2181,1,7,11
4.39E+03,-7864,-1435,2941,-241,-1595,-1923,1,7,11
4.39E+03,-7906,-1490,2711,-563,-1443,-1897,1,7,11
4.39E+03,-8224,-1818,2767,-418,-1489,-1589,1,7,11
4.39E+03,-8200,-1888,3081,-781,-1507,-1005,1,7,11
4.39E+03,-7884,-1698,3133,-869,-1456,-713,1,7,11
4.39E+03,-7996,-1764,3128,-672,-1611,-452,1,7,11
4.39E+03,-7585,-2089,3119,-699,-1397,-536,1,7,11
4.39E+03,-7722,-2151,3086,-663,-1101,-181,1,7,11
4.39E+03,-7411,-1961,2760,-835,-460,-146,1,7,11
4.39E+03,-7755,-2046,2934,-487,-268,-188,1,7,11
4.39E+03,-7807,-2379,2855,-419,327,-226,1,7,11
4.39E+03,-7735,-2414,2517,-613,562,-544,1,7,11
4.39E+03,-7713,-2182,2463,-584,772,-426,1,7,11
4.39E+03,-7560,-2211,2444,-573,642,-820,1,7,11
4.39E+03,-7678,-2250,2673,-546,649,-887,1,7,11
4.39E+03,-8020,-2284,2654,-241,838,-882,1,7,11
4.39E+03,-8032,-2285,2643,-156,496,-815,1,7,11
4.39E+03,-7979,-2254,2611,-298,439,-434,1,7,11
4.39E+03,-7652,-2219,2563,83,459,-526,1,7,11
4.39E+03,-7564,-2426,2291,-46,871,-263,1,7,11
4.39E+03,-8005,-2181,2576,322,1124,69,1,7,11
4.39E+03,-8564,-2188,2677,197,1387,86,1,7,11
4.39E+03,-8406,-2388,2472,558,982,138,1,7,11
4.39E+03,-8563,-1985,2472,397,949,604,1,7,11
4.39E+03,-8423,-2092,2537,389,950,480,1,7,11
4.39E+03,-8168,-1687,2533,386,1028,1029,1,7,11
4.39E+03,-8220,-1813,2473,385,749,932,1,7,11
4.39E+03,-7851,-1453,2652,603,1028,1326,1,7,11
4.39E+03,-7637,-1656,2592,517,1040,1218,1,7,11
4.39E+03,-7401,-1645,2564,169,1088,1249,1,7,11
4.39E+03,-7546,-1651,2584,332,898,1391,1,7,11
4.39E+03,-7531,-1422,2666,-10,1136,936,1,7,11
4.40E+03,-7310,-1431,2510,-66,731,704,1,7,11
4.40E+03,-7370,-1663,2862,-88,486,471,1,7,11
4.40E+03,-7744,-1623,2934,-108,187,534,1,7,11
4.40E+03,-7588,-1565,2757,123,111,179,1,7,11
4.40E+03,-7674,-1262,3085,98,-170,154,1,7,11
4.40E+03,-7817,-1203,3148,73,-618,172,1,7,11
4.40E+03,-8235,-1155,2982,27,-504,254,1,7,11
4.40E+03,-8309,-1363,3067,-294,-645,400,1,7,11
4.40E+03,-8263,-1337,3416,-372,-753,807,1,7,11
4.40E+03,-7902,-1320,3245,-193,-1056,649,1,7,11
4.40E+03,-8020,-1321,3302,-252,-1057,685,1,7,11
4.40E+03,-7634,-1333,3585,-537,-744,643,1,7,11
4.40E+03,-7795,-1339,3320,-554,-648,799,1,7,11
4.40E+03,-7737,-1347,3305,-576,-779,407,1,7,11
4.40E+03,-7682,-1356,3283,-612,-417,521,1,7,11
4.40E+03,-7375,-1364,3223,-407,-584,380,1,7,11
4.40E+03,-7336,-1375,3422,-468,-235,-25,1,7,11
4.40E+03,-7334,-1398,3388,-801,-141,88,1,7,11
4.40E+03,-7365,-1183,3378,-888,-319,-302,1,7,11
4.40E+03,-7417,-1227,3407,-710,-271,-155,1,7,11
4.40E+03,-7731,-1276,3210,-754,-261,-239,1,7,11
4.40E+03,-7798,-1574,3282,-755,-285,-551,1,7,11
4.40E+03,-7596,-1586,3623,-702,-341,-569,1,7,11
4.40E+03,-7655,-1589,3669,-868,-157,-551,1,7,11
4.40E+03,-7948,-1591,3698,-505,-229,-235,1,7,11
4.40E+03,-7953,-1577,3703,-391,-534,-154,1,7,11
4.40E+03,-7966,-1566,3698,-550,-543,-334,1,7,11
4.40E+03,-7940,-1567,3675,-207,-536,0,1,7,11
4.40E+03,-7643,-1566,3641,-141,-242,40,1,7,11
4.40E+03,-7594,-1559,3626,-351,-183,40,1,7,11
4.40E+03,-7556,-1560,3599,-325,-372,8,1,7,11
4.40E+03,-7786,-1552,3316,-317,-308,-297,1,7,11
4.40E+03,-7768,-1542,3280,-318,7,-356,1,7,11
4.40E+03,-7785,-1544,3255,-337,75,-161,1,7,11
4.40E+03,-7764,-1556,3240,-381,111,-186,1,7,11
4.40E+03,-7788,-1567,3252,-169,-97,-218,1,7,11
4.40E+03,-7563,-1586,3274,-212,-65,-244,1,7,11
4.40E+03,-7565,-1602,3277,-240,-69,-228,1,7,11
4.40E+03,-7564,-1616,3278,-255,-77,-201,1,7,11
4.40E+03,-7590,-1631,3275,-526,-63,-170,1,7,11
4.41E+03,-7626,-1635,3283,-520,-42,-384,1,7,11
4.41E+03,-7940,-1657,3290,-252,-42,-324,1,7,11
4.41E+03,-7944,-1413,3282,-224,-73,7,1,7,11
4.41E+03,-7649,-1415,3254,-209,-89,65,1,7,11
4.41E+03,-7607,-1427,3230,-178,-104,92,1,7,11
4.41E+03,-7567,-1439,3450,-155,-96,91,1,7,11
4.41E+03,-7577,-1450,3416,-371,-58,52,1,7,11
4.41E+03,-7599,-1459,3390,-348,-34,19,1,7,11
4.41E+03,-7590,-1482,3379,-330,-32,-270,1,7,11
4.41E+03,-7570,-1490,3365,-306,-30,-327,1,7,11
4.41E+03,-7561,-1494,3379,-283,-31,-141,1,7,11
4.41E+03,-7563,-1484,3404,1,-53,-197,1,7,11
4.41E+03,-7584,-1465,3433,24,-79,-234,1,7,11
4.41E+03,-7606,-1459,3447,30,-126,-224,1,7,11
4.41E+03,-7615,-1443,3203,32,96,-184,1,7,11
4.41E+03,-7624,-1440,3451,24,93,-377,1,7,11
4.41E+03,-7611,-1433,3441,7,120,-299,1,7,11
4.41E+03,-7605,-1431,3420,-258,-65,29,1,7,11
4.41E+03,-7632,-1431,3399,-259,289,103,1,7,11
4.41E+03,-7657,-1439,3394,11,376,-71,1,7,11
4.41E+03,-7943,-1435,3364,53,199,270,1,7,11
4.41E+03,-7962,-1421,3059,111,523,351,1,7,11
4.41E+03,-7983,-1657,3003,-93,583,167,1,7,11
4.41E+03,-7996,-1628,2950,-48,626,228,1,7,11
4.41E+03,-8017,-1596,3166,-19,397,529,1,7,11
4.41E+03,-8025,-1569,3141,260,639,575,1,7,11
4.41E+03,-8041,-1276,3117,277,606,604,1,7,11
4.41E+03,-8043,-1254,3098,286,540,630,1,7,11
4.41E+03,-8010,-1233,2801,288,213,638,1,7,11
4.41E+03,-7993,-1205,2775,268,155,609,1,7,11
4.41E+03,-8015,-1180,2778,-22,345,571,1,7,11
4.41E+03,-8027,-1174,2794,-53,-2,556,1,7,11
4.41E+03,-8034,-1166,3072,-62,-108,542,1,7,11
4.41E+03,-8040,-1158,3099,-52,40,535,1,7,11
4.41E+03,-8039,-1401,3115,-26,-302,540,1,7,11
4.41E+03,-8046,-1376,3141,263,-352,566,1,7,11
4.41E+03,-8053,-1356,3195,314,-380,620,1,7,11
4.41E+03,-7823,-1342,2998,138,-157,435,1,7,11
4.41E+03,-7849,-1316,3047,243,-220,785,1,7,11
4.41E+03,-7831,-1283,3054,598,-573,886,1,7,11
4.42E+03,-8042,-982,3047,415,-410,708,1,7,11
4.42E+03,-7986,-932,3049,445,-486,750,1,7,11
4.42E+03,-7954,-1133,3062,447,-778,752,1,7,11
4.42E+03,-7657,-1089,3362,427,-809,736,1,7,11
4.42E+03,-7606,-1064,3426,416,-834,689,1,7,11
4.42E+03,-7560,-1036,3269,420,-848,854,1,7,11
4.42E+03,-7793,-742,3321,419,-848,469,1,7,11
4.42E+03,-7785,-689,3624,390,-853,587,1,7,11
4.42E+03,-7772,-657,3659,608,-855,138,1,7,11
4.42E+03,-7777,-891,3697,550,-830,334,1,7,11
4.42E+03,-7765,-868,3461,223,-803,-19,1,7,11
4.42E+03,-7783,-849,3469,146,-502,-94,1,7,11
4.42E+03,-7801,-846,3478,323,-436,98,1,7,11
4.42E+03,-7799,-856,3484,-18,-623,95,1,7,11
4.42E+03,-7794,-866,3479,-103,-548,96,1,7,11
4.42E+03,-7556,-879,3485,64,-155,94,1,7,11
4.42E+03,-7571,-644,3510,-316,-344,99,1,7,11
4.42E+03,-7575,-658,3539,-370,-300,103,1,7,11
4.42E+03,-7579,-666,3566,-151,-279,106,1,7,11
4.42E+03,-7564,-666,3854,-177,-278,96,1,7,11
4.42E+03,-7555,-665,3878,-196,-279,77,1,7,11
4.42E+03,-7555,-667,3907,-208,-282,57,1,7,11
4.42E+03,-7804,-669,3925,-210,-290,32,1,7,11
4.42E+03,-7553,-674,3940,-199,-294,3,1,7,11
4.42E+03,-7786,-684,3923,-183,-299,-269,1,7,11
4.42E+03,-7776,-696,3895,-177,-274,-299,1,7,11
4.42E+03,-7759,-719,3874,-191,7,-338,1,7,11
4.42E+03,-7752,-759,3877,-218,29,-151,1,7,11
4.42E+03,-7782,-1059,3898,-236,20,-240,1,7,11
4.42E+03,-7782,-1099,3896,-250,-285,-592,1,7,11
4.42E+03,-7795,-1141,3896,-522,-350,-450,1,7,11
4.42E+03,-7770,-913,3899,-538,-193,-810,1,7,11
4.42E+03,-7749,-930,3892,-554,-534,-663,1,7,11
4.42E+03,-7731,-938,3898,-564,-599,-753,1,7,11
4.42E+03,-7722,-945,3906,-570,-633,-1065,1,7,11
4.42E+03,-7732,-947,3935,-570,-633,-1082,1,7,11
4.42E+03,-7750,-943,3962,-545,-609,-1053,1,7,11
4.42E+03,-7794,-945,3722,-230,-554,-728,1,7,11
4.42E+03,-7585,-939,3719,-148,-230,-858,1,7,11
4.42E+03,-7603,-933,3960,-311,-130,-437,1,7,11
4.43E+03,-7597,-942,3942,37,-270,-256,1,7,11
4.43E+03,-7559,-959,3923,116,92,-353,1,7,11
4.43E+03,-7762,-966,3928,-62,-73,-259,1,7,11
4.43E+03,-7761,-975,3946,260,-17,27,1,7,11
4.43E+03,-7780,-963,3946,321,-17,29,1,7,11
4.43E+03,-7565,-932,3957,354,-52,20,1,7,11
4.43E+03,-7601,-906,3721,365,-126,33,1,7,11
4.43E+03,-7611,-1123,3756,355,47,68,1,7,11
4.43E+03,-7619,-1094,3780,328,-273,115,1,7,11
4.43E+03,-7602,-1075,3785,300,-326,-85,1,7,11
4.43E+03,-7801,-1075,3778,280,-352,-30,1,7,11
4.43E+03,-7685,-1087,3770,-17,-302,-19,1,7,11
4.43E+03,-7371,-1103,3765,-51,26,-76,1,7,11
4.43E+03,-7348,-1124,3772,-97,83,90,1,7,11
4.43E+03,-7324,-1146,3783,115,103,-277,1,7,11
4.43E+03,-7338,-913,3794,64,101,-137,1,7,11
4.43E+03,-7355,-925,3791,13,83,-230,1,7,11
4.43E+03,-7373,-955,3802,-301,64,-547,1,7,11
4.43E+03,-7392,-975,3810,-349,68,-577,1,7,11
4.43E+03,-7408,-1006,4101,-133,84,-574,1,7,11
4.43E+03,-7406,-1297,4129,-150,101,-546,1,7,11
4.43E+03,-7405,-1324,4129,-155,-121,-513,1,7,11
4.43E+03,-7404,-1356,4117,-139,-85,-221,1,7,11
4.43E+03,-7415,-1387,3837,-370,-41,-187,1,7,11
4.43E+03,-7696,-1407,3789,-342,268,-148,1,7,11
4.43E+03,-7732,-1160,3762,-320,315,-354,1,7,11
4.43E+03,-7787,-1407,3734,-307,342,-292,1,7,11
4.43E+03,-7585,-1391,3714,-301,344,43,1,7,11
4.43E+03,-7605,-1381,3954,-307,310,-115,1,7,11
4.43E+03,-7589,-1351,3933,-324,269,-27,1,7,11
4.43E+03,-7570,-1323,3927,-364,-32,289,1,7,11
4.43E+03,-7801,-1283,3930,-157,-78,332,1,7,11
4.43E+03,-7771,-999,3935,-216,-118,355,1,7,11
4.43E+03,-7763,-969,3953,-536,115,383,1,7,11
4.43E+03,-7762,-949,3965,-589,112,157,1,7,11
4.43E+03,-7743,-952,3713,-634,120,190,1,7,11
4.43E+03,-7718,-961,3713,-403,-103,208,1,7,11
4.43E+03,-7696,-974,3957,-408,-56,192,1,7,11
4.43E+03,-7698,-977,3961,-402,-9,159,1,7,11
4.43E+03,-7709,-978,3958,-386,280,130,1,7,11
4.44E+03,-7718,-990,3954,-622,295,362,1,7,11
4.44E+03,-7713,-983,3716,-591,279,328,1,7,11
4.44E+03,-7752,-963,3734,-560,264,281,1,7,11
4.44E+03,-7756,-953,3727,-528,-45,260,1,7,11
4.44E+03,-7765,-924,3720,-244,-78,-17,1,7,11
4.44E+03,-7782,-898,3713,-232,-103,-22,1,7,11
4.44E+03,-7787,-1141,3955,-234,-118,-9,1,7,11
4.44E+03,-7793,-1136,3929,-242,-107,266,1,7,11
4.44E+03,-7778,-1145,3900,-252,-84,292,1,7,11
4.44E+03,-7764,-900,3884,-522,-41,297,1,7,11
4.44E+03,-7754,-921,3888,-540,257,287,1,7,11
4.44E+03,-7758,-939,3904,-552,280,262,1,7,11
4.44E+03,-7766,-941,3925,-556,275,-36,1,7,11
4.44E+03,-7775,-942,3949,-533,-3,-58,1,7,11
4.44E+03,-7779,-945,3713,-243,-76,-74,1,7,11
4.44E+03,-7778,-938,3730,-177,-123,-87,1,7,11
4.44E+03,-7779,-916,3733,-384,103,-90,1,7,11
4.44E+03,-7766,-902,3729,-344,94,-82,1,7,11
4.44E+03,-7758,-1142,3713,-313,113,-79,1,7,11
4.44E+03,-7744,-1130,3945,-300,-108,-75,1,7,11
4.44E+03,-7734,-1123,3937,-301,-62,-85,1,7,11
4.44E+03,-7739,-1127,3949,-315,-30,-103,1,7,11
4.44E+03,-7744,-1129,3951,-321,-15,126,1,7,11
4.44E+03,-7759,-1130,3957,-331,-18,97,1,7,11
4.44E+03,-7775,-1130,3726,-348,-35,77,1,7,11
4.44E+03,-7774,-1129,3737,-359,-60,69,1,7,11
4.44E+03,-7793,-1114,3752,-350,-73,70,1,7,11
4.44E+03,-7555,-1104,3747,-339,-85,98,1,7,11
4.44E+03,-7785,-1109,3722,-334,-93,-117,1,7,11
4.44E+03,-7761,-1113,3952,-339,-58,-100,1,7,11
4.44E+03,-7739,-1132,3940,-362,-22,-107,1,7,11
4.44E+03,-7738,-897,3940,-130,259,112,1,7,11
4.44E+03,-7747,-915,3935,-142,-3,72,1,7,11
4.44E+03,-7748,-934,3927,-149,-36,38,1,7,11
4.44E+03,-7748,-950,3915,-157,-65,2,1,7,11
4.44E+03,-7760,-970,3914,-173,-94,-286,1,7,11
4.44E+03,-7784,-997,3941,-181,119,-313,1,7,11
4.44E+03,-7800,-1020,3948,-166,45,-328,1,7,11
4.44E+03,-7576,-1288,3934,-140,-286,-333,1,7,11
4.44E+03,-7596,-1297,3902,-380,-351,-309,1,7,11
4.45E+03,-7583,-1298,3868,-382,-132,-273,1,7,11
4.45E+03,-7560,-1289,3860,-134,-134,22,1,7,11
4.45E+03,-7558,-1286,3881,-133,-373,59,1,7,11
4.45E+03,-7561,-1290,3906,-354,-366,109,1,7,11
4.45E+03,-7577,-1286,3919,-290,-356,-95,1,7,11
4.45E+03,-7609,-1013,3928,36,-337,-46,1,7,11
4.45E+03,-7631,-975,3952,108,-325,268,1,7,11
4.45E+03,-7664,-918,3962,-76,-311,342,1,7,11
4.45E+03,-7659,-1125,3720,-15,-312,194,1,7,11
4.45E+03,-7601,-1082,3712,288,-311,557,1,7,11
4.45E+03,-7794,-1031,3953,335,-264,618,1,7,11
4.45E+03,-7703,-751,3956,380,99,637,1,7,11
4.45E+03,-7422,-729,3960,146,-80,586,1,7,11
4.45E+03,-7415,-718,3716,162,-42,522,1,7,11
4.45E+03,-7681,-697,3966,188,-33,196,1,7,11
4.45E+03,-7697,-680,3957,207,-45,129,1,7,11
4.45E+03,-7689,-661,3931,214,-57,327,1,7,11
4.45E+03,-7694,-652,3929,194,-53,262,1,7,11
4.45E+03,-7710,-650,3950,153,-66,-52,1,7,11
4.45E+03,-7704,-659,3731,367,-106,-107,1,7,11
4.45E+03,-7703,-674,3782,328,99,94,1,7,11
4.45E+03,-7690,-703,3836,296,39,40,1,7,11
4.45E+03,-7700,-709,4136,292,-270,-274,1,7,11
4.45E+03,-7708,-721,4177,293,-328,-310,1,7,11
4.45E+03,-7708,-722,4185,314,-382,-324,1,7,11
4.45E+03,-7695,-711,4161,345,-151,-319,1,7,11
4.45E+03,-7682,-701,4137,353,-131,-300,1,7,11
4.45E+03,-7413,-707,4134,342,-351,-280,1,7,11
4.45E+03,-7389,-721,4139,325,-311,-276,1,7,11
4.45E+03,-7378,-747,4164,314,-268,-303,1,7,11
4.45E+03,-7393,-752,4183,314,7,-351,1,7,11
4.45E+03,-7401,-745,4197,317,-262,-135,1,7,11
4.45E+03,-7424,-735,4219,318,-298,-161,1,7,11
4.45E+03,-7702,-702,3985,315,-343,-166,1,7,11
4.45E+03,-7728,-658,4006,294,-378,-138,1,7,11
4.45E+03,-7728,-879,4031,-3,-151,-323,1,7,11
4.45E+03,-7705,-855,4023,-54,-145,13,1,7,11
4.45E+03,-7685,-838,4004,-124,-347,83,1,7,11
4.45E+03,-7399,-848,4003,50,-264,-120,1,7,11
4.45E+03,-7384,-873,4036,-275,87,-109,1,7,11
4.46E+03,-7374,-645,4063,-328,-106,-123,1,7,11
4.46E+03,-7357,-674,4079,-348,-64,93,1,7,11
4.46E+03,-7369,-698,4077,-338,-43,47,1,7,11
4.46E+03,-7380,-699,4073,-298,-35,6,1,7,11
4.46E+03,-7681,-686,4078,18,-7,-291,1,7,11
4.46E+03,-7713,-670,4063,93,261,-273,1,7,11
4.46E+03,-7732,-649,4045,-76,267,30,1,7,11
4.46E+03,-7731,-885,4020,267,291,98,1,7,11
4.46E+03,-7709,-875,3978,345,317,-100,1,7,11
4.46E+03,-7694,-867,4183,178,360,-79,1,7,11
4.46E+03,-7423,-857,4124,203,144,-100,1,7,11
4.46E+03,-7415,-845,4105,193,170,105,1,7,11
4.46E+03,-7413,-851,4112,169,159,39,1,7,11
4.46E+03,-7419,-865,4146,149,362,-298,1,7,11
4.46E+03,-7685,-872,4196,147,268,-379,1,7,11
4.46E+03,-7687,-873,3980,158,-97,-195,1,7,11
4.46E+03,-7707,-862,3985,174,66,-255,1,7,11
4.46E+03,-7709,-851,3989,182,-263,-528,1,7,11
4.46E+03,-7705,-837,3989,192,-294,-519,1,7,11
4.46E+03,-7716,-825,3973,201,-275,-236,1,7,11
4.46E+03,-7721,-829,4210,195,33,-186,1,7,11
4.46E+03,-7702,-841,4203,180,98,-130,1,7,11
4.46E+03,-7692,-852,4195,176,-86,-353,1,7,11
4.46E+03,-7695,-860,4173,177,-28,-335,1,7,11
4.46E+03,-7699,-862,4157,179,270,-328,1,7,11
4.46E+03,-7718,-850,4147,179,294,-321,1,7,11
4.46E+03,-7744,-843,4132,161,298,-307,1,7,11
4.46E+03,-7733,-847,4120,381,268,-290,1,7,11
4.46E+03,-7721,-848,4136,332,-19,-298,1,7,11
4.46E+03,-7720,-845,4185,280,-59,-308,1,7,11
4.46E+03,-7705,-838,3968,-12,-112,-307,1,7,11
4.46E+03,-7688,-837,3990,-37,96,-305,1,7,11
4.46E+03,-7683,-830,3993,-59,78,-304,1,7,11
4.46E+03,-7683,-820,4012,-92,84,-284,1,7,11
4.46E+03,-7417,-814,4015,-120,111,3,1,7,11
4.46E+03,-7428,-808,3987,-126,-101,47,1,7,11
4.46E+03,-7684,-811,4208,118,-51,109,1,7,11
4.46E+03,-7413,-827,4170,92,-6,-83,1,7,11
4.46E+03,-7413,-837,4149,50,287,-85,1,7,11
4.46E+03,-7693,-841,4138,17,304,-110,1,7,11
4.47E+03,-7749,-843,4157,-271,290,122,1,7,11
4.47E+03,-7763,-841,4165,-301,-46,-121,1,7,11
4.47E+03,-7781,-827,4195,-317,127,-111,1,7,11
4.47E+03,-7794,-805,3986,-333,53,-96,1,7,11
4.47E+03,-7798,-505,4026,-332,-293,-66,1,7,11
4.47E+03,-7808,-464,4059,-321,-139,-13,1,7,11
4.47E+03,-7778,-427,4036,-307,-177,323,1,7,11
4.47E+03,-7729,-407,3998,-307,-143,136,1,7,11
4.47E+03,-7419,-419,3972,-339,-307,163,1,7,11
4.47E+03,-7376,-437,4217,-374,73,383,1,7,11
4.47E+03,-7372,-453,4218,-145,-72,306,1,7,11
4.47E+03,-7400,-473,4210,-167,-4,-39,1,7,11
4.47E+03,-7684,-496,4210,-187,265,-116,1,7,11
4.47E+03,-7702,-511,4209,-202,-11,71,1,7,11
4.47E+03,-7712,-769,4214,-202,-51,13,1,7,11
4.47E+03,-7750,-504,4212,-189,-86,-279,1,7,11
4.47E+03,-7745,-501,4205,-184,-122,-274,1,7,11
4.47E+03,-7720,-506,4198,-181,122,-261,1,7,11
4.47E+03,-7703,-774,4178,-180,-118,-262,1,7,11
4.47E+03,-7418,-781,4156,-189,-95,-271,1,7,11
4.47E+03,-7389,-798,4139,-206,-53,-298,1,7,11
4.47E+03,-7386,-810,4132,-217,-4,-342,1,7,11
4.47E+03,-7422,-818,4151,-226,271,-381,1,7,11
4.47E+03,-7723,-813,4185,-217,-14,-138,1,7,11
4.47E+03,-7803,-789,4202,-186,-73,-376,1,7,11
4.47E+03,-7613,-510,4187,-135,110,-295,1,7,11
4.47E+03,-7635,-457,4168,-347,45,77,1,7,11
4.47E+03,-7644,-395,4157,-330,2,-66,1,7,11
4.47E+03,-7637,-525,4125,-334,-293,314,1,7,11
4.47E+03,-7630,-174,3829,-150,-313,246,1,7,11
4.47E+03,-7566,-358,3788,-535,-333,392,1,7,11
4.47E+03,-7759,-273,3717,-476,-334,491,1,7,11
4.47E+03,-7746,57,3904,-767,-337,807,1,7,11
4.47E+03,-7769,86,3865,-1407,-378,859,1,7,11
4.47E+03,-7738,71,3576,-1837,-218,672,1,7,11
4.47E+03,-7694,30,3545,-2008,-533,705,1,7,11
4.47E+03,-7697,-296,3507,-2647,-513,703,1,7,11
4.47E+03,-7421,-130,3463,-2704,-169,705,1,7,11
4.47E+03,-7411,-520,3694,-3197,20,677,1,7,11
4.47E+03,-7713,-429,3678,-3340,256,860,1,7,11
4.48E+03,-7723,-865,3656,-3370,210,500,1,7,11
4.48E+03,-7775,-764,3627,-3050,419,568,1,7,11
4.48E+03,-7611,-1138,3586,-3175,824,342,1,7,11
4.48E+03,-7990,-968,3290,-2739,640,-127,1,7,11
4.48E+03,-7857,-1284,3239,-2527,877,-300,1,7,11
4.48E+03,-7878,-1337,3402,-2295,779,-145,1,7,11
4.48E+03,-8024,-1353,2996,-2317,454,-237,1,7,11
4.48E+03,-7632,-1323,3085,-2125,786,-397,1,7,11
4.48E+03,-7588,-975,2709,-1759,1037,-868,1,7,11
4.48E+03,-7649,-1135,2939,-1747,1369,-1056,1,7,11
4.48E+03,-7954,-1098,2730,-2060,1637,-1148,1,7,11
4.48E+03,-7944,-1124,2801,-2125,1534,-933,1,7,11
4.48E+03,-7649,-951,3118,-2150,1847,-990,1,7,11
4.48E+03,-7619,-1307,3149,-2147,1830,-1337,1,7,11
4.48E+03,-7563,-1162,3155,-2115,1478,-1173,1,7,11
4.48E+03,-7795,-1256,3115,-2062,1659,-1540,1,7,11
4.48E+03,-7592,-1613,3097,-1773,1610,-1616,1,7,11
4.48E+03,-7574,-1479,3161,-1739,1272,-1596,1,7,11
4.48E+03,-7807,-1852,2952,-1909,1234,-1556,1,7,11
4.48E+03,-7756,-1725,2988,-1503,1204,-1216,1,7,11
4.48E+03,-7727,-1769,3030,-1562,1242,-1380,1,7,11
4.48E+03,-7806,-2049,3054,-1013,1559,-917,1,7,11
4.48E+03,-7777,-2059,3066,-1111,1272,-707,1,7,11
4.48E+03,-7611,-2055,3366,-729,1278,-815,1,7,11
4.48E+03,-7984,-2053,3428,-886,1182,-629,1,7,11
4.48E+03,-8046,-1767,3455,-501,1289,-166,1,7,11
4.48E+03,-8051,-1735,3217,-386,1143,43,1,7,11
4.48E+03,-8020,-1725,3268,-555,727,-27,1,7,11
4.48E+03,-7985,-1707,3323,-170,845,345,1,7,11
4.48E+03,-7990,-1673,3639,-277,453,159,1,7,11
4.48E+03,-7974,-1883,3690,-125,558,220,1,7,11
4.48E+03,-7945,-1839,3489,271,160,521,1,7,11
4.48E+03,-7941,-1809,3546,374,297,540,1,7,11
4.48E+03,-7657,-1824,3876,205,-106,546,1,7,11
4.48E+03,-7605,-1839,3932,564,-257,242,1,7,11
4.48E+03,-7762,-1851,3962,400,-145,153,1,7,11
4.48E+03,-7413,-1856,3955,474,-229,268,1,7,11
4.48E+03,-7305,-1880,3924,769,-536,111,1,7,11
4.48E+03,-7160,-1916,3889,794,-536,-319,1,7,11
4.48E+03,-7097,-1703,3576,823,-200,-539,1,7,11
4.49E+03,-7099,-1772,3536,823,-362,-507,1,7,11
4.49E+03,-7161,-2096,3509,833,-281,-738,1,7,11
4.49E+03,-7526,-2166,3485,835,14,-942,1,7,11
4.49E+03,-7398,-1965,3466,835,-258,-1354,1,7,11
4.49E+03,-7715,-2005,3710,817,-336,-1178,1,7,11
4.49E+03,-7754,-2026,3706,798,-153,-1220,1,7,11
4.49E+03,-7575,-2033,3701,503,-199,-1213,1,7,11
4.49E+03,-7609,-2306,3461,434,-252,-1380,1,7,11
4.49E+03,-7609,-2337,3489,605,-526,-1000,1,7,11
4.49E+03,-7578,-2385,3527,525,-251,-1129,1,7,11
4.49E+03,-7592,-2422,3557,210,-188,-1046,1,7,11
4.49E+03,-7553,-2194,3580,168,-150,-711,1,7,11
4.49E+03,-7780,-2196,3569,150,-358,-660,1,7,11
4.49E+03,-7765,-2180,3545,141,-305,-871,1,7,11
4.49E+03,-7706,-2415,3485,128,-259,-794,1,7,11
4.49E+03,-7389,-2395,3687,368,105,-469,1,7,11
4.49E+03,-7408,-2394,3680,336,263,-426,1,7,11
4.49E+03,-7739,-2411,3708,302,381,-385,1,7,11
4.49E+03,-7420,-2424,3478,299,138,-565,1,7,11
4.49E+03,-7713,-2394,3681,354,220,-551,1,7,11
4.49E+03,-7555,-2345,3599,159,568,-231,1,7,11
4.49E+03,-7984,-2034,3258,232,425,-287,1,7,11
4.49E+03,-8008,-2028,3438,557,491,46,1,7,11
4.49E+03,-8032,-2013,3401,391,811,-106,1,7,11
4.49E+03,-7677,-1987,3342,500,805,-45,1,7,11
4.49E+03,-7609,-1936,2989,894,804,-97,1,7,11
4.49E+03,-7744,-2160,3138,752,806,106,1,7,11
4.49E+03,-7387,-2151,2798,1068,821,0,1,7,11
4.49E+03,-7322,-2173,2737,1093,861,-145,1,7,11
4.49E+03,-7512,-1961,2717,1081,853,-551,1,7,11
4.49E+03,-7474,-1999,2719,1026,846,-453,1,7,11
4.49E+03,-7483,-2308,2737,707,844,-837,1,7,11
4.49E+03,-7527,-2361,2786,888,833,-653,1,7,11
4.49E+03,-7339,-2431,3080,833,806,-674,1,7,11
4.49E+03,-7410,-2254,3105,808,774,-654,1,7,11
4.49E+03,-7711,-2583,3126,818,494,-871,1,7,11
4.49E+03,-7737,-2642,3142,864,487,-828,1,7,11
4.49E+03,-7771,-2656,3115,692,511,-781,1,7,11
4.49E+03,-7579,-2643,3102,1038,819,-464,1,7,11
4.49E+03,-7652,-2626,3075,1114,845,-619,1,7,11
4.50E+03,-7642,-2604,2781,933,831,-240,1,7,11
4.50E+03,-7645,-2576,2748,995,831,-149,1,7,11
4.50E+03,-7625,-2287,2731,1298,813,-327,1,7,11
4.50E+03,-7571,-2246,2706,1330,802,-260,1,7,11
4.50E+03,-7727,-2192,2704,1345,800,68,1,7,11
4.50E+03,-7343,-2387,2936,1365,827,-112,1,7,11
4.50E+03,-7498,-2046,2898,1386,758,-16,1,7,11
4.50E+03,-7499,-2012,2889,1157,1098,294,1,7,11
4.50E+03,-7302,-1977,2875,1199,923,324,1,7,11
4.50E+03,-7369,-1925,2850,1259,971,376,1,7,11
4.50E+03,-7743,-2123,2550,1580,1292,164,1,7,11
4.50E+03,-7672,-2062,2511,1633,1345,205,1,7,11
4.50E+03,-7865,-1760,2480,1417,1348,254,1,7,11
4.50E+03,-8207,-1718,2462,1444,1020,555,1,7,11
4.50E+03,-8194,-1903,2679,1469,933,549,1,7,11
4.50E+03,-7850,-1825,2633,1466,1121,244,1,7,11
4.50E+03,-7993,-1495,2576,1425,1114,158,1,7,11
4.50E+03,-7943,-1418,2243,1617,934,289,1,7,11
4.50E+03,-7974,-1621,2178,1257,1301,-64,1,7,11
4.50E+03,-8008,-1601,2382,1379,1398,-105,1,7,11
4.50E+03,-8019,-1604,2337,980,1218,-112,1,7,11
4.50E+03,-8037,-1626,2304,1116,1542,-115,1,7,11
4.50E+03,-7843,-1654,2021,1039,1599,-122,1,7,11
4.50E+03,-7895,-1440,1984,747,1599,-112,1,7,11
4.50E+03,-7922,-1465,1928,765,1571,-109,1,7,11
4.50E+03,-8249,-1473,2126,1043,1551,-120,1,7,11
4.50E+03,-8083,-1485,2095,1051,1225,-121,1,7,11
4.50E+03,-8170,-1491,2087,1052,1368,-122,1,7,11
4.50E+03,-8480,-1489,2108,1036,946,-116,1,7,11
4.50E+03,-8501,-1478,2122,757,758,-115,1,7,11
4.50E+03,-8538,-1450,2146,716,827,-115,1,7,11
4.50E+03,-8521,-1414,2172,657,629,-81,1,7,11
4.50E+03,-8190,-1615,1983,840,141,-13,1,7,11
4.50E+03,-8139,-1578,2023,477,268,308,1,7,11
4.50E+03,-8298,-1541,2046,418,-103,132,1,7,11
4.50E+03,-8210,-1247,2329,623,89,194,1,7,11
4.50E+03,-7888,-1200,2354,571,66,241,1,7,11
4.50E+03,-7855,-1156,2375,530,66,531,1,7,11
4.50E+03,-8062,-1369,2398,245,73,558,1,7,11
4.50E+03,-8026,-1323,2396,223,104,561,1,7,11
4.51E+03,-8008,-1293,2396,201,-100,539,1,7,11
4.51E+03,-8026,-1004,2401,189,-34,238,1,7,11
4.51E+03,-8023,-974,2382,174,279,199,1,7,11
4.51E+03,-8027,-957,2349,152,356,151,1,7,11
4.51E+03,-8041,-952,2311,375,192,351,1,7,11
4.51E+03,-8049,-959,2013,343,540,308,1,7,11
4.51E+03,-8050,-972,1957,319,639,266,1,7,11
4.51E+03,-7814,-1000,2147,299,485,-30,1,7,11
4.51E+03,-7839,-1017,2086,289,831,-57,1,7,11
4.51E+03,-7884,-1293,1772,286,647,-75,1,7,11
4.51E+03,-7932,-1315,1727,279,670,-76,1,7,11
4.51E+03,-8195,-1333,1694,273,645,-65,1,7,11
4.51E+03,-8198,-1349,1668,262,864,-76,1,7,11
4.51E+03,-8200,-1352,1896,-17,808,-99,1,7,11
4.51E+03,-8211,-1345,1888,-48,481,127,1,7,11
4.51E+03,-8224,-1339,1889,-87,404,109,1,7,11
4.51E+03,-8230,-1345,1908,125,584,107,1,7,11
4.51E+03,-8219,-1360,1696,89,521,107,1,7,11
4.51E+03,-8236,-1371,1744,72,220,99,1,7,11
4.51E+03,-8237,-1380,1779,66,165,100,1,7,11
4.51E+03,-8214,-1385,1791,70,365,103,1,7,11
4.51E+03,-8195,-1374,1782,80,335,98,1,7,11
4.51E+03,-8204,-1376,1767,90,328,87,1,7,11
4.51E+03,-8179,-1384,1742,98,313,88,1,7,11
4.51E+03,-7910,-1387,1711,101,308,78,1,7,11
4.51E+03,-7900,-1396,1702,93,305,25,1,7,11
4.51E+03,-7902,-1153,1710,79,286,-281,1,7,11
4.51E+03,-7890,-1165,1713,77,-15,-330,1,7,11
4.51E+03,-7879,-1177,1701,77,-61,-368,1,7,11
4.51E+03,-7868,-1184,1690,67,-94,-139,1,7,11
4.51E+03,-7856,-1203,1675,51,-117,-154,1,7,11
4.51E+03,-7845,-1224,1678,24,-125,-165,1,7,11
4.51E+03,-7838,-1251,1676,-257,-124,-171,1,7,11
4.51E+03,-7836,-1277,1670,-284,-117,-170,1,7,11
4.51E+03,-7847,-1558,1919,-308,-105,-172,1,7,11
4.51E+03,-7859,-1593,1664,-325,-102,-165,1,7,11
4.51E+03,-7883,-1609,1672,-334,-105,-160,1,7,11
4.51E+03,-7916,-1623,1680,-345,124,-139,1,7,11
4.51E+03,-7932,-1630,1673,-352,82,-372,1,7,11
4.51E+03,-8210,-1638,1700,-372,42,-352,1,7,11
4.52E+03,-8229,-1641,1721,-146,-258,-327,1,7,11
4.52E+03,-8272,-1641,1777,-179,-305,-306,1,7,11
4.52E+03,-8292,-1632,2071,-206,-377,-260,1,7,11
4.52E+03,-8300,-1617,2094,-231,-185,55,1,7,11
4.52E+03,-8301,-1593,2112,-516,-225,-97,1,7,11
4.52E+03,-8308,-1568,2130,-551,-241,-17,1,7,11
4.52E+03,-8305,-1538,2141,-579,-230,334,1,7,11
4.52E+03,-8281,-1256,2149,-602,-216,180,1,7,11
4.52E+03,-8255,-1222,2145,-608,-194,524,1,7,11
4.52E+03,-8207,-1198,2150,-594,-177,592,1,7,11
4.52E+03,-7916,-1176,2161,-566,-156,620,1,7,11
4.52E+03,-7893,-1400,2165,-528,-145,617,1,7,11
4.52E+03,-7879,-1376,1931,-235,-154,597,1,7,11
4.52E+03,-7853,-1352,1963,-185,-183,565,1,7,11
4.52E+03,-7844,-1328,1994,-382,-215,512,1,7,11
4.52E+03,-7829,-1297,2018,-330,-251,199,1,7,11
4.52E+03,-7814,-1013,2036,-288,-529,144,1,7,11
4.52E+03,-8063,-988,2311,0,-530,338,1,7,11
4.52E+03,-8054,-970,2317,15,-527,282,1,7,11
4.52E+03,-8046,-964,2336,19,-514,-35,1,7,11
4.52E+03,-8029,-973,2340,17,-235,-106,1,7,11
4.52E+03,-8044,-1312,2015,-268,-321,-229,1,7,11
4.52E+03,-7813,-1360,2006,-297,7,-566,1,7,11
4.52E+03,-7853,-1156,2025,-324,54,-621,1,7,11
4.52E+03,-7875,-1208,2038,-332,69,-392,1,7,11
4.52E+03,-7885,-1263,2316,-335,60,-396,1,7,11
4.52E+03,-7901,-1569,2356,-327,38,-396,1,7,11
4.52E+03,-7894,-1636,2420,-308,-258,-385,1,7,11
4.52E+03,-7887,-1652,2187,-280,-304,-630,1,7,11
4.52E+03,-7888,-1410,2221,20,-347,-628,1,7,11
4.52E+03,-7883,-1664,2241,58,-134,-606,1,7,11
4.52E+03,-7863,-1653,2217,87,-153,-566,1,7,11
4.52E+03,-7839,-1649,2194,100,-132,-514,1,7,11
4.52E+03,-7824,-1648,2186,96,-323,-207,1,7,11
4.52E+03,-7837,-1658,2196,86,19,-164,1,7,11
4.52E+03,-7824,-1415,2200,91,80,-374,1,7,11
4.52E+03,-7819,-1425,2185,116,125,-332,1,7,11
4.52E+03,-7829,-1442,2186,-115,-83,-324,1,7,11
4.52E+03,-7822,-1459,2194,-95,-68,-327,1,7,11
4.52E+03,-7826,-1467,2195,-73,-79,-352,1,7,11
4.53E+03,-7830,-1470,2212,-49,-107,-377,1,7,11
4.53E+03,-7829,-1460,2228,-41,124,-144,1,7,11
4.53E+03,-7843,-1443,2245,-38,107,-147,1,7,11
4.53E+03,-7847,-1439,2266,-39,102,-381,1,7,11
4.53E+03,-7852,-1435,2272,-30,118,-343,1,7,11
4.53E+03,-7842,-1426,2256,-10,-106,-285,1,7,11
4.53E+03,-7866,-1657,2222,288,276,95,1,7,11
4.53E+03,-7865,-1642,2207,299,323,-106,1,7,11
4.53E+03,-7864,-1625,2180,313,361,-68,1,7,11
4.53E+03,-7849,-1609,2424,312,128,-42,1,7,11
4.53E+03,-7858,-1593,2427,307,141,-41,1,7,11
4.53E+03,-7858,-1583,2181,305,131,-42,1,7,11
4.53E+03,-7850,-1574,2180,309,365,-52,1,7,11
4.53E+03,-7851,-1549,2431,314,345,-75,1,7,11
4.53E+03,-7865,-1275,2410,307,330,-92,1,7,11
4.53E+03,-7866,-1258,2397,301,314,-97,1,7,11
4.53E+03,-7887,-1236,2367,298,316,-95,1,7,11
4.53E+03,-7894,-1219,2338,296,316,-67,1,7,11
4.53E+03,-7906,-1214,2344,296,329,-35,1,7,11
4.53E+03,-7901,-1217,2337,324,327,262,1,7,11
4.53E+03,-7870,-1221,2335,364,326,285,1,7,11
4.53E+03,-7837,-1218,2336,145,324,273,1,7,11
4.53E+03,-7833,-1207,2355,166,315,-30,1,7,11
4.53E+03,-7839,-1200,2391,163,281,-87,1,7,11
4.53E+03,-7839,-1195,2417,147,-32,83,1,7,11
4.53E+03,-7822,-1195,2183,377,-126,35,1,7,11
4.53E+03,-7821,-1192,2225,347,118,-275,1,7,11
4.53E+03,-7831,-1197,2277,306,115,-311,1,7,11
4.53E+03,-7842,-1198,2571,264,126,-327,1,7,11
4.53E+03,-7837,-1199,2581,-22,-99,-325,1,7,11
4.53E+03,-7828,-1199,2293,-14,-23,-299,1,7,11
4.53E+03,-7834,-1208,2260,259,342,-261,1,7,11
4.53E+03,-7845,-1217,2236,295,197,33,1,7,11
4.53E+03,-7876,-1237,2214,353,547,64,1,7,11
4.53E+03,-7866,-1241,2430,165,577,89,1,7,11
4.53E+03,-7866,-1234,2383,234,583,72,1,7,11
4.53E+03,-7886,-1226,2350,539,550,32,1,7,11
4.53E+03,-7916,-1202,2345,565,217,-273,1,7,11
4.53E+03,-7934,-1191,2349,570,336,-304,1,7,11
4.53E+03,-7905,-1186,2354,563,-76,-342,1,7,11
4.54E+03,-7879,-1192,2384,544,46,-155,1,7,11
4.54E+03,-7847,-1196,2415,528,-333,-252,1,7,11
4.54E+03,-7825,-1179,2428,527,-175,-624,1,7,11
4.54E+03,-7815,-1408,2418,526,-228,-465,1,7,11
4.54E+03,-7814,-1397,2378,517,-219,-777,1,7,11
4.54E+03,-8050,-1167,2349,237,-162,-790,1,7,11
4.54E+03,-8015,-1241,2334,200,-350,-793,1,7,11
4.54E+03,-7992,-1582,2334,183,-296,-826,1,7,11
4.54E+03,-7998,-1652,2330,183,-278,-877,1,7,11
4.54E+03,-8018,-1456,2335,174,-311,-668,1,7,11
4.54E+03,-7992,-1873,2395,135,-391,-741,1,7,11
4.54E+03,-7976,-1892,2411,380,-491,-1055,1,7,11
4.54E+03,-7995,-1879,2195,354,-829,-1124,1,7,11
4.54E+03,-8064,-1843,2240,329,-646,-924,1,7,11
4.54E+03,-7880,-1806,2259,298,-731,-910,1,7,11
4.54E+03,-7870,-1533,2252,-12,-1068,-1076,1,7,11
4.54E+03,-7823,-1524,2243,-90,-1053,-722,1,7,11
4.54E+03,-8048,-1529,2270,45,-714,-877,1,7,11
4.54E+03,-8012,-1820,2584,-346,-866,-790,1,7,11
4.54E+03,-8009,-1861,2662,-214,-509,-486,1,7,11
4.54E+03,-8037,-1896,2492,-567,-455,-443,1,7,11
4.54E+03,-7811,-1916,2819,-628,-457,-638,1,7,11
4.54E+03,-7817,-1679,2865,-400,-471,-547,1,7,11
4.54E+03,-7817,-1692,2899,-410,-466,-192,1,7,11
4.54E+03,-7818,-1694,2697,-404,-457,-358,1,7,11
4.54E+03,-7815,-1694,2759,-638,-468,-278,1,7,11
4.54E+03,-8042,-1698,2814,-612,-508,34,1,7,11
4.54E+03,-8012,-1682,3104,-572,-806,55,1,7,11
4.54E+03,-7671,-1881,3092,-516,-510,84,1,7,11
4.54E+03,-7638,-1884,3102,-530,-408,109,1,7,11
4.54E+03,-7604,-1905,3148,-552,-544,-128,1,7,11
4.54E+03,-7608,-1683,2954,-556,-170,121,1,7,11
4.54E+03,-7605,-1702,2971,-514,-360,118,1,7,11
4.54E+03,-7587,-1707,2950,-194,-284,111,1,7,11
4.54E+03,-7589,-1697,3114,-373,68,110,1,7,11
4.54E+03,-7616,-1681,2791,-305,-79,121,1,7,11
4.54E+03,-7618,-1680,2724,-258,273,-122,1,7,11
4.54E+03,-7616,-1672,2916,36,341,-113,1,7,11
4.54E+03,-7633,-1920,2864,54,140,124,1,7,11
4.54E+03,-7666,-1666,2834,39,171,93,1,7,11
4.55E+03,-7676,-1667,2824,0,132,64,1,7,11
4.55E+03,-7674,-1667,2557,-317,331,31,1,7,11
4.55E+03,-7663,-1671,2545,-366,278,1,1,7,11
4.55E+03,-7656,-1679,2820,-165,-16,-281,1,7,11
4.55E+03,-7657,-1693,2854,-209,-41,-299,1,7,11
4.55E+03,-7667,-1708,2894,-229,-62,-308,1,7,11
4.55E+03,-7653,-1732,2916,-226,-94,-301,1,7,11
4.55E+03,-7628,-1754,2688,-208,-109,-307,1,7,11
4.55E+03,-7618,-1770,2940,-180,-108,-326,1,7,11
4.55E+03,-7604,-1786,2930,-142,-101,-353,1,7,11
4.55E+03,-7597,-2055,2927,-368,-82,-136,1,7,11
4.55E+03,-7609,-2071,2936,-353,-70,-186,1,7,11
4.55E+03,-7622,-2084,2943,-340,-70,-241,1,7,11
4.55E+03,-7644,-2086,2943,-327,-82,-541,1,7,11
4.55E+03,-7658,-2085,2940,-327,-89,-548,1,7,11
4.55E+03,-7655,-2098,2693,-340,-89,-525,1,7,11
4.55E+03,-7656,-2106,2714,-349,-64,-236,1,7,11
4.55E+03,-7660,-2130,2737,-344,-33,-188,1,7,11
4.55E+03,-7636,-2157,2746,-318,-4,-144,1,7,11
4.55E+03,-7617,-2173,2739,-283,299,-373,1,7,11
4.55E+03,-7596,-1954,2717,42,361,-357,1,7,11
4.55E+03,-7607,-1950,2932,79,383,-379,1,7,11
4.55E+03,-7623,-1947,2887,102,140,-147,1,7,11
4.55E+03,-7646,-1937,2847,105,151,-170,1,7,11
4.55E+03,-7941,-1923,2827,81,148,-173,1,7,11
4.55E+03,-7960,-2173,2836,46,379,-157,1,7,11
4.55E+03,-7962,-2166,2840,8,337,-380,1,7,11
4.55E+03,-7954,-2158,2850,-279,296,-344,1,7,11
4.55E+03,-7655,-2160,2858,-305,264,-300,1,7,11
4.55E+03,-7605,-2175,2853,-320,264,-283,1,7,11
4.55E+03,-7580,-1927,2860,-327,288,-289,1,7,11
4.55E+03,-7578,-1937,2870,-321,310,-307,1,7,11
4.55E+03,-7575,-1937,2856,-301,315,-322,1,7,11
4.55E+03,-7607,-1936,2845,-286,320,-339,1,7,11
4.55E+03,-7633,-1941,2843,-277,307,-339,1,7,11
4.55E+03,-7646,-1937,2829,-266,297,-331,1,7,11
4.55E+03,-7651,-1943,2826,-266,291,-312,1,7,11
4.55E+03,-7639,-1941,2822,-262,299,-301,1,7,11
4.55E+03,-7651,-1936,2818,1,331,-295,1,7,11
4.55E+03,-7653,-1934,2516,13,368,-273,1,7,11
4.56E+03,-7644,-1931,2489,22,179,12,1,7,11
4.56E+03,-7620,-2173,2621,27,542,59,1,7,11
4.56E+03,-7606,-2154,2563,7,465,108,1,7,11
4.56E+03,-7640,-2153,2289,-308,677,-105,1,7,11
4.56E+03,-7680,-1922,2598,-157,1097,-67,1,7,11
4.56E+03,-7956,-1969,2664,-514,898,-48,1,7,11
4.56E+03,-7950,-2008,2438,-576,1092,-78,1,7,11
4.56E+03,-7678,-2034,2444,-612,869,106,1,7,11
4.56E+03,-7667,-2046,2447,-613,433,22,1,7,11
4.56E+03,-7673,-2045,2679,-578,514,-305,1,7,11
4.56E+03,-7677,-2042,2644,-533,368,-338,1,7,11
4.56E+03,-7667,-2041,2614,-239,260,-339,1,7,11
4.56E+03,-7667,-2029,2581,-198,-58,-333,1,7,11
4.56E+03,-7670,-2030,2569,-170,-89,-312,1,7,11
4.56E+03,-7677,-2022,2568,-151,-104,-288,1,7,11
4.56E+03,-7951,-2008,2575,-133,-100,-258,1,7,11
4.56E+03,-7962,-1992,2586,-377,-93,45,1,7,11
4.56E+03,-7953,-1990,2591,-363,-84,90,1,7,11
4.56E+03,-7959,-1982,2606,-348,-64,112,1,7,11
4.56E+03,-7956,-1982,2625,-329,-55,-123,1,7,11
4.56E+03,-7939,-1981,2636,-298,-54,-116,1,7,11
4.56E+03,-7667,-1977,2635,-259,-54,-123,1,7,11
4.56E+03,-7651,-1971,2628,40,-53,109,1,7,11
4.56E+03,-7635,-1978,2606,79,-45,73,1,7,11
4.56E+03,-7634,-1981,2585,106,-26,19,1,7,11
4.56E+03,-7653,-1980,2578,122,-8,-292,1,7,11
4.56E+03,-7673,-1975,2581,-128,-10,-334,1,7,11
4.56E+03,-7938,-1977,2585,124,-24,-355,1,7,11
4.56E+03,-7940,-1980,2588,106,-41,-367,1,7,11
4.56E+03,-7676,-1989,2600,77,-54,-374,1,7,11
4.56E+03,-7651,-1985,2617,47,-65,-380,1,7,11
4.56E+03,-7656,-1999,2639,18,-66,-133,1,7,11
4.56E+03,-7623,-2024,2644,4,-83,-384,1,7,11
4.56E+03,-7611,-2042,2645,-259,-70,-148,1,7,11
4.56E+03,-7614,-2321,2633,-260,-53,-166,1,7,11
4.56E+03,-7632,-2329,2619,-265,-38,-177,1,7,11
4.56E+03,-7639,-2343,2618,-271,-38,-170,1,7,11
4.56E+03,-7662,-2352,2623,-284,-34,-158,1,7,11
4.56E+03,-7948,-2355,2633,-290,-38,-139,1,7,11
4.56E+03,-7961,-2354,2632,-291,-50,-368,1,7,11
4.57E+03,-7977,-2343,2649,-292,-73,-323,1,7,11
4.57E+03,-8028,-2306,2676,-290,-98,-265,1,7,11
4.57E+03,-7829,-2010,2671,-273,122,101,1,7,11
4.57E+03,-7880,-1973,2640,13,82,-29,1,7,11
4.57E+03,-7858,-1932,2579,60,29,131,1,7,11
4.57E+03,-7821,-2147,2250,97,91,532,1,7,11
4.57E+03,-8030,-2120,2191,125,-45,410,1,7,11
4.57E+03,-8023,-2124,2241,234,183,517,1,7,11
4.57E+03,-7822,-2076,2244,587,313,162,1,7,11
4.57E+03,-7848,-1761,2247,404,-73,359,1,7,11
4.57E+03,-7875,-1707,2260,441,61,329,1,7,11
4.57E+03,-7867,-1671,2298,450,-320,328,1,7,11
4.57E+03,-7874,-1890,2591,446,-145,333,1,7,11
4.57E+03,-7852,-1866,2624,413,-211,371,1,7,11
4.57E+03,-8042,-1846,2631,619,-224,154,1,7,11
4.57E+03,-7976,-1824,2631,551,-167,177,1,7,11
4.57E+03,-7962,-1812,2647,209,-317,179,1,7,11
4.57E+03,-7941,-1819,2670,373,19,185,1,7,11
4.57E+03,-7639,-1828,2678,283,73,177,1,7,11
4.57E+03,-7602,-1848,2441,-57,125,131,1,7,11
4.57E+03,-7591,-1863,2450,125,-76,310,1,7,11
4.57E+03,-7598,-1881,2454,68,-32,-29,1,7,11
4.57E+03,-7617,-1899,2469,19,257,-107,1,7,11
4.57E+03,-7624,-1916,2485,-280,274,81,1,7,11
4.57E+03,-7625,-1678,2497,-312,276,14,1,7,11
4.57E+03,-7634,-1689,2499,-331,262,-299,1,7,11
4.57E+03,-7640,-1704,2484,-335,256,-347,1,7,11
4.57E+03,-7649,-1708,2459,-332,273,-372,1,7,11
4.57E+03,-7674,-1710,2655,-321,318,-370,1,7,11
4.57E+03,-7949,-1710,2572,-310,371,-345,1,7,11
4.57E+03,-7967,-1710,2270,-302,164,-310,1,7,11
4.57E+03,-7987,-1707,2241,-305,196,-273,1,7,11
4.57E+03,-8003,-1702,2206,-325,196,11,1,7,11
4.57E+03,-7988,-1697,2429,-365,170,30,1,7,11
4.57E+03,-7979,-1700,2412,-173,147,20,1,7,11
4.57E+03,-7966,-1699,2411,-250,366,-271,1,7,11
4.57E+03,-7955,-1706,2421,-588,338,-310,1,7,11
4.57E+03,-7962,-1720,2182,-463,322,-357,1,7,11
4.57E+03,-7982,-1743,2226,-793,285,-138,1,7,11
4.57E+03,-8003,-1766,2263,-837,-14,-160,1,7,11
4.58E+03,-8009,-2052,2300,-860,-68,-165,1,7,11
4.58E+03,-7999,-2074,2560,-837,-100,-165,1,7,11
4.58E+03,-8008,-2087,2570,-800,-110,-157,1,7,11
4.58E+03,-8015,-2099,2563,-493,-118,-134,1,7,11
4.58E+03,-8030,-2097,2298,-441,-126,-369,1,7,11
4.58E+03,-8041,-2093,2295,-405,112,-341,1,7,11
4.58E+03,-8055,-2086,2299,-628,84,-321,1,7,11
4.58E+03,-7809,-2069,2299,-605,43,-302,1,7,11
4.58E+03,-7815,-1788,2297,-600,18,-278,1,7,11
4.58E+03,-8052,-1765,2294,-610,2,16,1,7,11
4.58E+03,-8036,-1749,2297,-634,19,50,1,7,11
4.58E+03,-8013,-1737,2301,-406,56,81,1,7,11
4.58E+03,-8004,-1729,2572,-428,115,103,1,7,11
4.58E+03,-8000,-1734,2572,-427,-87,-125,1,7,11
4.58E+03,-7967,-1745,2296,-408,-36,-100,1,7,11
4.58E+03,-7965,-1751,2282,-628,291,-105,1,7,11
4.58E+03,-7995,-1760,2284,-594,338,-112,1,7,11
4.58E+03,-8003,-1755,2260,-544,348,-109,1,7,11
4.58E+03,-7997,-1744,2228,-248,335,-106,1,7,11
4.58E+03,-7995,-1745,2193,-227,324,-117,1,7,11
4.58E+03,-7990,-1748,2178,-223,302,119,1,7,11
4.58E+03,-7981,-1745,2426,-223,285,90,1,7,11
4.58E+03,-8002,-1736,2412,-235,275,64,1,7,11
4.58E+03,-8023,-1741,2427,-520,-4,63,1,7,11
4.58E+03,-8028,-1755,2180,-553,-37,73,1,7,11
4.58E+03,-8019,-1782,2180,-580,-64,79,1,7,11
4.58E+03,-8036,-2060,2429,-597,-74,70,1,7,11
4.58E+03,-8060,-2084,2416,-599,-84,68,1,7,11
4.58E+03,-7869,-2108,2409,-598,-91,65,1,7,11
4.58E+03,-7860,-2127,2395,-593,117,91,1,7,11
4.58E+03,-7843,-2148,2405,-596,67,89,1,7,11
4.58E+03,-7823,-2154,2414,-604,-309,47,1,7,11
4.58E+03,-7815,-2147,2420,-630,-160,15,1,7,11
4.58E+03,-8058,-2140,2429,-417,-531,6,1,7,11
4.58E+03,-8013,-2150,2197,-477,-625,18,1,7,11
4.58E+03,-7951,-1929,2235,-792,-422,31,1,7,11
4.58E+03,-7631,-1973,2284,-841,-433,27,1,7,11
4.58E+03,-7571,-2022,2590,-870,-428,5,1,7,11
4.58E+03,-7786,-2313,2637,-875,-411,-295,1,7,11
4.58E+03,-7782,-2334,2671,-866,-389,-337,1,7,11
4.59E+03,-7791,-2359,2436,-857,-633,-350,1,7,11
4.59E+03,-7801,-2372,2450,-838,-600,-347,1,7,11
4.59E+03,-7579,-2372,2451,-819,-525,-320,1,7,11
4.59E+03,-7619,-2366,2464,-801,-179,-261,1,7,11
4.59E+03,-7653,-2363,2479,-776,-340,82,1,7,11
4.59E+03,-7662,-2359,2477,-465,19,-69,1,7,11
4.59E+03,-7655,-2346,2456,-388,-122,285,1,7,11
4.59E+03,-7672,-2324,2677,-544,261,364,1,7,11
4.59E+03,-7671,-2043,2618,-188,357,187,1,7,11
4.59E+03,-7653,-2016,2303,-354,194,234,1,7,11
4.59E+03,-7652,-1985,2243,-285,540,232,1,7,11
4.59E+03,-7966,-2170,2426,61,634,178,1,7,11
4.59E+03,-7975,-2153,2395,83,616,165,1,7,11
4.59E+03,-7976,-2141,2369,99,592,130,1,7,11
4.59E+03,-7999,-2130,2369,106,561,341,1,7,11
4.59E+03,-8004,-2121,2364,112,512,311,1,7,11
4.59E+03,-7991,-2127,2364,-114,196,284,1,7,11
4.59E+03,-7959,-2134,2364,-90,169,263,1,7,11
4.59E+03,-7680,-2143,2370,-60,156,-35,1,7,11
4.59E+03,-7670,-2152,2374,-15,140,-77,1,7,11
4.59E+03,-7671,-2152,2379,289,381,-121,1,7,11
4.59E+03,-7937,-2154,2374,334,356,99,1,7,11
4.59E+03,-7671,-2160,2377,375,327,69,1,7,11
4.59E+03,-7662,-2164,2382,168,314,26,1,7,11
4.59E+03,-7659,-2159,2391,211,296,-267,1,7,11
4.59E+03,-7949,-2155,2412,253,293,-307,1,7,11
4.59E+03,-7969,-2150,2179,552,-2,-319,1,7,11
4.59E+03,-7969,-2139,2188,588,-39,-320,1,7,11
4.59E+03,-7968,-2124,2208,600,-64,-321,1,7,11
4.59E+03,-7972,-2114,2250,603,-74,-320,1,7,11
4.59E+03,-7981,-2110,2280,602,-76,-322,1,7,11
4.59E+03,-7982,-2099,2290,609,-69,-312,1,7,11
4.59E+03,-7982,-2087,2275,616,-45,-288,1,7,11
4.59E+03,-7974,-2066,2258,617,266,2,1,7,11
4.59E+03,-7990,-2053,2246,614,354,26,1,7,11
4.59E+03,-8026,-2054,2243,607,182,50,1,7,11
4.59E+03,-7809,-2052,2255,613,242,73,1,7,11
4.59E+03,-7832,-1788,2254,633,529,101,1,7,11
4.59E+03,-7860,-1775,2256,395,545,125,1,7,11
4.59E+03,-7860,-1763,2243,406,539,-99,1,7,11
4.60E+03,-7872,-1741,2233,422,547,-85,1,7,11
4.60E+03,-7889,-1717,2228,431,537,-56,1,7,11
4.60E+03,-7897,-1697,2216,438,254,-18,1,7,11
4.60E+03,-7843,-1666,2426,443,217,276,1,7,11
4.60E+03,-7822,-1902,2390,440,190,298,1,7,11
4.60E+03,-8032,-1889,2377,417,193,288,1,7,11
4.60E+03,-8027,-1885,2387,391,207,-2,1,7,11
4.60E+03,-8030,-1881,2402,628,209,-55,1,7,11
4.60E+03,-8024,-1859,2415,625,193,-89,1,7,11
4.60E+03,-8028,-1847,2177,626,165,-106,1,7,11
4.60E+03,-8033,-1833,2183,628,144,-112,1,7,11
4.60E+03,-8015,-1813,2423,633,132,-109,1,7,11
4.60E+03,-8022,-1534,2399,633,147,-102,1,7,11
4.60E+03,-8026,-1516,2366,609,181,-77,1,7,11
4.60E+03,-8008,-1523,2325,568,221,-56,1,7,11
4.60E+03,-8005,-1512,2039,520,537,-59,1,7,11
4.60E+03,-7995,-1507,2016,209,591,-67,1,7,11
4.60E+03,-8008,-1502,2010,155,639,-88,1,7,11
4.60E+03,-8018,-1509,2013,357,405,-104,1,7,11
4.60E+03,-8017,-1529,2020,317,405,126,1,7,11
4.60E+03,-8022,-1798,2015,291,397,77,1,7,11
4.60E+03,-8027,-1812,2013,273,387,22,1,7,11
4.60E+03,-8042,-1829,2009,263,637,-290,1,7,11
4.60E+03,-8052,-1847,2012,256,631,-345,1,7,11
4.60E+03,-7826,-1870,2034,261,622,-140,1,7,11
4.60E+03,-7833,-1895,2046,284,584,-173,1,7,11
4.60E+03,-7826,-1913,2318,319,540,-205,1,7,11
4.60E+03,-7852,-1668,2345,369,248,-237,1,7,11
4.60E+03,-7882,-1675,2345,177,210,-251,1,7,11
4.60E+03,-7929,-1669,2308,515,186,-247,1,7,11
4.60E+03,-7930,-1904,2000,598,175,-185,1,7,11
4.60E+03,-7896,-1872,1944,407,183,-383,1,7,11
4.60E+03,-7861,-1830,2152,445,214,-342,1,7,11
4.60E+03,-7847,-1800,2112,450,230,-302,1,7,11
4.60E+03,-7846,-1518,2080,431,226,-268,1,7,11
4.60E+03,-7846,-1501,1784,408,199,13,1,7,11
4.60E+03,-7821,-1505,1745,384,169,31,1,7,11
4.60E+03,-8044,-1502,1699,629,170,28,1,7,11
4.60E+03,-8014,-1508,1682,616,198,6,1,7,11
4.60E+03,-7990,-1535,1699,602,217,-289,1,7,11
4.61E+03,-7976,-1825,1756,598,206,-363,1,7,11
4.61E+03,-7990,-1856,2070,612,148,-208,1,7,11
4.61E+03,-8026,-1879,2112,629,312,-563,1,7,11
4.61E+03,-8064,-1891,2152,636,-46,-388,1,7,11
4.61E+03,-7865,-1899,1927,632,118,-436,1,7,11
4.61E+03,-7895,-1911,1952,621,33,-438,1,7,11
4.61E+03,-7897,-1918,1958,611,-291,-418,1,7,11
4.61E+03,-7861,-1912,1933,602,-313,-636,1,7,11
4.61E+03,-7835,-1897,2164,573,-269,-594,1,7,11
4.61E+03,-7831,-1906,2152,522,61,-548,1,7,11
4.61E+03,-8062,-1669,2150,212,125,-245,1,7,11
4.61E+03,-8036,-1694,2134,158,-68,-228,1,7,11
4.61E+03,-8033,-1717,2151,356,-27,-238,1,7,11
4.61E+03,-7819,-1762,1964,-43,-38,-531,1,7,11
4.61E+03,-7811,-1774,1956,-76,-85,-253,1,7,11
4.61E+03,-7816,-1781,1939,-107,-117,-230,1,7,11
4.61E+03,-7837,-1792,1925,118,111,-190,1,7,11
4.61E+03,-7831,-2061,2169,105,80,-381,1,7,11
4.61E+03,-7829,-2075,2140,84,71,-326,1,7,11
4.61E+03,-7816,-2089,2134,43,58,-282,1,7,11
4.61E+03,-8064,-2098,2148,-264,33,4,1,7,11
4.61E+03,-8058,-2084,2157,-316,-269,25,1,7,11
4.61E+03,-7827,-2077,1921,-383,-334,58,1,7,11
4.61E+03,-7812,-2080,1925,-220,-166,108,1,7,11
4.61E+03,-8058,-2080,1940,-575,-245,-124,1,7,11
4.61E+03,-7811,-2065,1968,-431,-587,-114,1,7,11
4.61E+03,-7824,-2042,2022,-806,-439,-90,1,7,11
4.61E+03,-7846,-1780,2068,-675,-824,-43,1,7,11
4.61E+03,-7870,-1774,2407,-1042,-711,272,1,7,11
4.61E+03,-7908,-1777,2233,-1104,-1111,346,1,7,11
4.61E+03,-8202,-1781,2292,-1088,-988,190,1,7,11
4.61E+03,-8297,-2054,2576,-720,-1349,593,1,7,11
4.61E+03,-8154,-2081,2591,-776,-1162,798,1,7,11
4.61E+03,-8499,-2100,2596,-250,-1250,992,1,7,11
4.61E+03,-8480,-2071,2603,59,-1652,1617,1,7,11
4.61E+03,-8085,-1741,2624,361,-1909,1713,1,7,11
4.61E+03,-7882,-1895,2687,606,-1738,1971,1,7,11
4.61E+03,-7951,-1494,2523,873,-1719,2363,1,7,11
4.61E+03,-7565,-1578,2875,721,-1863,2395,1,7,11
4.61E+03,-7712,-1395,2698,755,-1451,2353,1,7,11
4.62E+03,-7387,-964,2762,700,-1255,1973,1,7,11
4.62E+03,-7350,-1070,3082,824,-1316,1791,1,7,11
4.62E+03,-7339,-687,3116,388,-1132,1830,1,7,11
4.62E+03,-7356,-832,3094,187,-690,1604,1,7,11
4.62E+03,-7415,-491,2797,-42,-474,1402,1,7,11
4.62E+03,-7766,-440,2746,-274,-241,992,1,7,11
4.62E+03,-7607,-426,2696,-238,-282,1141,1,7,11
4.62E+03,-7980,-431,2872,-395,-81,1057,1,7,11
4.62E+03,-7861,-445,2536,-511,364,760,1,7,11
4.62E+03,-8219,-491,2472,-862,245,1024,1,7,11
4.62E+03,-8262,-813,2468,-670,565,1026,1,7,11
4.62E+03,-8297,-873,2516,-696,550,714,1,7,11
4.62E+03,-8302,-652,2856,-698,164,866,1,7,11
4.62E+03,-8290,-662,2692,-698,-70,471,1,7,11
4.62E+03,-8270,-652,2788,-701,-374,582,1,7,11
4.62E+03,-8236,-863,3112,-689,-431,213,1,7,11
4.62E+03,-7936,-801,3170,-697,-715,163,1,7,11
4.62E+03,-7873,-490,2947,-719,-931,178,1,7,11
4.62E+03,-7821,-448,2976,-745,-1305,246,1,7,11
4.62E+03,-8004,-419,3030,-1031,-1339,616,1,7,11
4.62E+03,-7968,-428,3365,-1050,-1299,471,1,7,11
4.62E+03,-7662,-442,3383,-1039,-979,820,1,7,11
4.62E+03,-7646,-458,3393,-755,-1103,867,1,7,11
4.62E+03,-7649,-471,3425,-745,-685,885,1,7,11
4.62E+03,-7649,-476,3455,-734,-777,873,1,7,11
4.62E+03,-7663,-478,3231,-726,-633,814,1,7,11
4.62E+03,-7661,-477,3261,-719,-517,787,1,7,11
4.62E+03,-7673,-470,3254,-704,-155,462,1,7,11
4.62E+03,-7680,-451,3253,-681,-321,401,1,7,11
4.62E+03,-7950,-437,3252,-656,51,561,1,7,11
4.62E+03,-7677,-439,3260,-891,-113,513,1,7,11
4.62E+03,-7635,-467,3262,-867,3,195,1,7,11
4.62E+03,-7564,-509,3272,-840,298,359,1,7,11
4.62E+03,-7749,-806,3263,-762,332,-30,1,7,11
4.62E+03,-7759,-829,3233,-434,363,63,1,7,11
4.62E+03,-7768,-839,3433,-611,373,-333,1,7,11
4.62E+03,-7796,-820,3371,-531,168,-187,1,7,11
4.62E+03,-7599,-789,3335,-214,246,-245,1,7,11
4.62E+03,-7662,-494,3060,-158,563,-231,1,7,11
4.62E+03,-7995,-470,3035,-350,606,-170,1,7,11
4.63E+03,-8052,-440,2986,-290,610,-320,1,7,11
4.63E+03,-7863,-419,2960,5,616,34,1,7,11
4.63E+03,-7921,-393,2958,21,596,125,1,7,11
4.63E+03,-8208,-633,2979,14,548,-52,1,7,11
4.63E+03,-8216,-622,3023,0,211,262,1,7,11
4.63E+03,-7917,-628,3066,-269,352,303,1,7,11
4.63E+03,-7847,-630,3355,-269,-21,309,1,7,11
4.63E+03,-8040,-619,3376,1,-109,287,1,7,11
4.63E+03,-8023,-588,3366,35,103,266,1,7,11
4.63E+03,-7997,-553,3332,55,82,291,1,7,11
4.63E+03,-7981,-545,3068,43,99,328,1,7,11
4.63E+03,-7968,-559,3344,18,98,356,1,7,11
4.63E+03,-7950,-566,3359,-269,75,354,1,7,11
4.63E+03,-7676,-560,3348,-305,34,328,1,7,11
4.63E+03,-7659,-546,3058,-366,5,287,1,7,11
4.63E+03,-7631,-539,3049,-203,2,-10,1,7,11
4.63E+03,-7620,-547,3042,-571,34,-57,1,7,11
4.63E+03,-7617,-577,3335,-430,53,-98,1,7,11
4.63E+03,-7653,-608,3392,-770,73,104,1,7,11
4.63E+03,-7947,-636,3414,-812,54,86,1,7,11
4.63E+03,-7939,-406,3394,-827,45,98,1,7,11
4.63E+03,-7674,-436,3392,-838,74,96,1,7,11
4.63E+03,-7945,-461,3390,-830,115,88,1,7,11
4.63E+03,-7958,-474,3370,-789,-104,91,1,7,11
4.63E+03,-8011,-449,3333,-475,-66,107,1,7,11
4.63E+03,-8022,-443,3047,-429,-46,-102,1,7,11
4.63E+03,-8045,-443,3035,-398,-42,-53,1,7,11
4.63E+03,-8056,-436,3030,-390,-55,-23,1,7,11
4.63E+03,-8050,-426,3038,-403,-81,-16,1,7,11
4.63E+03,-8032,-416,3062,-440,-114,-31,1,7,11
4.63E+03,-8024,-418,3362,-495,103,-54,1,7,11
4.63E+03,-7996,-433,3418,-815,65,-92,1,7,11
4.63E+03,-7964,-461,3225,-885,17,-125,1,7,11
4.63E+03,-7672,-493,3282,-646,-259,86,1,7,11
4.63E+03,-7655,-772,3584,-881,-261,37,1,7,11
4.63E+03,-7642,-788,3619,-827,13,1,1,7,11
4.63E+03,-7622,-809,3635,-484,60,-276,1,7,11
4.63E+03,-7617,-819,3624,-616,-111,-286,1,7,11
4.63E+03,-7613,-823,3325,-216,258,-291,1,7,11
4.63E+03,-7629,-816,3265,-333,140,-297,1,7,11
4.64E+03,-7653,-815,3223,43,521,-286,1,7,11
4.64E+03,-7675,-822,3216,-106,616,-281,1,7,11
4.64E+03,-7944,-810,3443,257,397,-285,1,7,11
4.64E+03,-7980,-801,3434,337,399,-313,1,7,11
4.64E+03,-8003,-802,3428,383,579,-344,1,7,11
4.64E+03,-7962,-798,3412,152,209,-144,1,7,11
4.64E+03,-7678,-800,3417,135,358,-253,1,7,11
4.64E+03,-7661,-809,3454,349,-17,-386,1,7,11
4.64E+03,-7642,-820,3246,311,111,-793,1,7,11
4.64E+03,-7634,-823,3307,292,-268,-691,1,7,11
4.64E+03,-7640,-816,3600,297,-364,-1087,1,7,11
4.64E+03,-7645,-797,3605,320,-163,-925,1,7,11
4.64E+03,-7676,-507,3585,369,-146,-967,1,7,11
4.64E+03,-7973,-498,3316,176,-317,-913,1,7,11
4.64E+03,-8007,-780,3593,254,62,-1059,1,7,11
4.64E+03,-8016,-825,3612,630,-9,-680,1,7,11
4.64E+03,-8014,-869,3617,814,380,-822,1,7,11
4.64E+03,-7965,-886,3302,955,527,-460,1,7,11
4.64E+03,-7666,-892,3424,1253,466,-635,1,7,11
4.64E+03,-7603,-647,2986,1519,692,-579,1,7,11
4.64E+03,-7795,-679,2787,1713,937,-581,1,7,11
4.64E+03,-7776,-717,2849,2105,1203,-421,1,7,11
4.64E+03,-7636,-750,2681,2171,1446,-835,1,7,11
4.64E+03,-7983,-1071,2284,2161,1532,-707,1,7,11
4.64E+03,-8004,-904,2429,2112,1501,-1106,1,7,11
4.64E+03,-8063,-986,2349,2050,1418,-1307,1,7,11
4.64E+03,-7931,-1312,2016,1730,1265,-1251,1,7,11
4.64E+03,-8295,-1376,1965,1919,1285,-1651,1,7,11
4.64E+03,-8316,-1198,1953,1846,734,-1505,1,7,11
4.64E+03,-8080,-1268,2003,1803,465,-1913,1,7,11
4.64E+03,-8306,-1555,2311,1813,198,-2069,1,7,11
4.64E+03,-7867,-1265,2338,1868,-14,-1969,1,7,11
4.64E+03,-7654,-1388,2322,1676,-44,-2205,1,7,11
4.64E+03,-7761,-976,2358,1892,367,-2506,1,7,11
4.64E+03,-7744,-1141,2239,1503,571,-2816,1,7,11
4.64E+03,-7569,-911,2885,1615,386,-3057,1,7,11
4.64E+03,-7676,-1018,3158,1253,143,-3217,1,7,11
4.64E+03,-8035,-1154,3365,1536,93,-3403,1,7,11
4.64E+03,-7909,-1541,3259,1619,-180,-2948,1,7,11
4.64E+03,-8263,-1649,3324,1460,-389,-2846,1,7,11
4.65E+03,-8261,-1480,3594,1532,-506,-2363,1,7,11
4.65E+03,-8221,-1535,3603,1810,-497,-1845,1,7,11
4.65E+03,-7888,-1826,3605,1513,-419,-1332,1,7,11
4.65E+03,-7852,-1827,3608,1430,-548,-879,1,7,11
4.65E+03,-7868,-1803,3588,1574,-160,-218,1,7,11
4.65E+03,-7884,-1496,3275,1192,-304,-92,1,7,11
4.65E+03,-7869,-1437,3434,1317,84,512,1,7,11
4.65E+03,-7954,-1650,3333,898,-32,648,1,7,11
4.65E+03,-7650,-1629,3329,657,244,708,1,7,11
4.65E+03,-7638,-1608,3348,777,599,650,1,7,11
4.65E+03,-7647,-1574,3334,420,616,772,1,7,11
4.65E+03,-7939,-1260,3038,585,590,603,1,7,11
4.65E+03,-7984,-1213,2978,229,542,190,1,7,11
4.65E+03,-8032,-1168,3163,381,245,323,1,7,11
4.65E+03,-8041,-1387,3082,262,199,-5,1,7,11
4.65E+03,-8004,-1370,2751,122,180,-53,1,7,11
4.65E+03,-7979,-1392,2722,-315,188,-101,1,7,11
4.65E+03,-7959,-1173,2731,-233,186,88,1,7,11
4.65E+03,-7939,-1220,2756,-393,139,30,1,7,11
4.65E+03,-7667,-1272,2763,-778,321,-289,1,7,11
4.65E+03,-7626,-1584,2747,-878,-20,-337,1,7,11
4.65E+03,-7592,-1634,2734,-704,-66,-139,1,7,11
4.65E+03,-7574,-1444,2740,-1031,-100,-194,1,7,11
4.65E+03,-7804,-1524,2743,-1064,121,-249,1,7,11
4.65E+03,-7786,-1869,2759,-1066,78,-570,1,7,11
4.65E+03,-7771,-1691,2758,-1025,26,-396,1,7,11
4.65E+03,-7773,-1764,2755,-702,-280,-485,1,7,11
4.65E+03,-7779,-2073,2742,-880,-338,-822,1,7,11
4.65E+03,-7784,-2111,2725,-807,-373,-641,1,7,11
4.65E+03,-7561,-2141,2723,-506,-135,-695,1,7,11
4.65E+03,-7598,-2170,2758,-499,-145,-708,1,7,11
4.65E+03,-7650,-1950,2808,-506,-151,-680,1,7,11
4.65E+03,-7939,-1984,3120,-508,-162,-862,1,7,11
4.65E+03,-7670,-2016,3173,-510,-160,-493,1,7,11
4.65E+03,-7632,-2038,3196,-499,-369,-638,1,7,11
4.65E+03,-7620,-2039,2947,-483,-274,-546,1,7,11
4.65E+03,-7608,-2029,2948,-466,93,-201,1,7,11
4.65E+03,-7606,-2023,3185,-436,-61,-369,1,7,11
4.65E+03,-7575,-2014,3146,-403,273,-293,1,7,11
4.65E+03,-7586,-1983,3076,-615,347,2,1,7,11
4.66E+03,-7611,-1952,2778,-563,135,23,1,7,11
4.66E+03,-7613,-2173,2735,-514,376,59,1,7,11
4.66E+03,-7626,-2141,2716,-203,319,68,1,7,11
4.66E+03,-7628,-2110,2705,-173,-5,67,1,7,11
4.66E+03,-7621,-2071,2705,-150,-76,69,1,7,11
4.66E+03,-7603,-1781,2721,-142,127,70,1,7,11
4.66E+03,-7581,-1755,2744,-162,99,76,1,7,11
4.66E+03,-7804,-1744,2784,-212,80,87,1,7,11
4.66E+03,-7785,-1737,3090,-525,79,74,1,7,11
4.66E+03,-7773,-1745,3135,-586,83,51,1,7,11
4.66E+03,-7751,-1758,3182,-392,98,19,1,7,11
4.66E+03,-7760,-1766,2959,-440,-120,-286,1,7,11
4.66E+03,-7778,-2052,2979,-485,-92,-318,1,7,11
4.66E+03,-7780,-2084,2975,-504,-60,-340,1,7,11
4.66E+03,-7801,-2112,2955,-508,-10,-361,1,7,11
4.66E+03,-7578,-2150,3181,-509,301,-378,1,7,11
4.66E+03,-7607,-1936,3156,-493,339,-381,1,7,11
4.66E+03,-7627,-1973,3113,-453,361,-381,1,7,11
4.66E+03,-7641,-1997,2812,-400,368,-375,1,7,11
4.66E+03,-7669,-2003,2760,-595,378,-370,1,7,11
4.66E+03,-7947,-2006,2704,-535,366,-340,1,7,11
4.66E+03,-7673,-2005,2908,-227,342,-298,1,7,11
4.66E+03,-7655,-2015,2868,-201,317,-270,1,7,11
4.66E+03,-7633,-2015,2860,-187,279,-276,1,7,11
4.66E+03,-7606,-2017,2871,-177,-40,-306,1,7,11
4.66E+03,-7590,-2010,2902,-168,-115,-357,1,7,11
4.66E+03,-7582,-1997,2930,-156,67,-163,1,7,11
4.66E+03,-7575,-1990,2712,-157,-264,-224,1,7,11
4.66E+03,-7584,-1973,2732,-168,-321,-547,1,7,11
4.66E+03,-7614,-1956,2757,-202,-367,-587,1,7,11
4.66E+03,-7629,-1948,2768,-513,-150,-583,1,7,11
4.66E+03,-7633,-1945,2776,-593,-167,-551,1,7,11
4.66E+03,-7636,-1954,2798,-419,-163,-243,1,7,11
4.66E+03,-7669,-1958,2813,-481,-142,-185,1,7,11
4.66E+03,-7976,-1945,3085,-783,-375,-347,1,7,11
4.66E+03,-8034,-1933,3087,-819,-355,42,1,7,11
4.66E+03,-8064,-2164,3094,-840,-359,-43,1,7,11
4.66E+03,-7812,-2139,3090,-827,-372,143,1,7,11
4.66E+03,-7814,-2115,2810,-786,-131,585,1,7,11
4.66E+03,-8040,-2087,2781,-494,-160,769,1,7,11
4.67E+03,-7985,-2058,2751,-471,-234,755,1,7,11
4.67E+03,-7665,-1777,2738,-467,-543,1131,1,7,11
4.67E+03,-7619,-1764,2753,-482,-588,953,1,7,11
4.67E+03,-7616,-1757,2790,-479,-629,994,1,7,11
4.67E+03,-7624,-1751,2800,-440,-431,1292,1,7,11
4.67E+03,-7606,-1726,2768,-621,-447,1335,1,7,11
4.67E+03,-7612,-1694,2698,-541,-623,1377,1,7,11
4.67E+03,-7569,-1691,2889,-234,-223,1168,1,7,11
4.67E+03,-7792,-1707,2871,-198,-265,1405,1,7,11
4.67E+03,-7786,-1736,2889,-157,-70,1325,1,7,11
4.67E+03,-7772,-1771,2887,-353,329,940,1,7,11
4.67E+03,-7775,-1792,2856,-285,169,748,1,7,11
4.67E+03,-7785,-2066,2558,9,228,506,1,7,11
4.67E+03,-7803,-2075,2555,-271,225,224,1,7,11
4.67E+03,-7568,-2089,2841,-333,132,-78,1,7,11
4.67E+03,-7584,-2080,2895,-161,-57,-374,1,7,11
4.67E+03,-7636,-2063,2696,-255,-304,-634,1,7,11
4.67E+03,-7679,-1770,2727,-615,-595,-794,1,7,11
4.67E+03,-7669,-1742,2735,-483,-854,-840,1,7,11
4.67E+03,-7629,-1731,2765,-887,-763,-810,1,7,11
4.67E+03,-7580,-1751,3134,-1045,-1131,-411,1,7,11
4.67E+03,-7803,-1762,2969,-915,-1141,-537,1,7,11
4.67E+03,-7782,-1787,3065,-1031,-1133,-135,1,7,11
4.67E+03,-7763,-2075,3401,-1309,-1099,5,1,7,11
4.67E+03,-7764,-2104,3206,-1294,-1027,-127,1,7,11
4.67E+03,-7759,-2133,3255,-990,-677,-16,1,7,11
4.67E+03,-7763,-2152,3294,-898,-805,319,1,7,11
4.67E+03,-7774,-2157,3327,-1046,-402,375,1,7,11
4.67E+03,-7768,-2154,3611,-663,-532,149,1,7,11
4.67E+03,-7766,-2141,3638,-793,-170,142,1,7,11
4.67E+03,-7752,-2126,3658,-411,-361,371,1,7,11
4.67E+03,-7739,-2097,3647,-543,-324,318,1,7,11
4.67E+03,-7718,-2072,3636,-180,-301,-4,1,7,11
4.67E+03,-7705,-1781,3614,-347,-268,-80,1,7,11
4.67E+03,-7718,-1742,3599,-282,28,105,1,7,11
4.67E+03,-7723,-1710,3585,27,64,73,1,7,11
4.67E+03,-7729,-1699,3311,76,107,62,1,7,11
4.67E+03,-7719,-1701,3312,-124,-95,71,1,7,11
4.67E+03,-7731,-1693,3299,-53,-25,84,1,7,11
4.67E+03,-7755,-1689,3281,277,292,116,1,7,11
4.68E+03,-7763,-1685,3250,366,359,-94,1,7,11
4.68E+03,-7777,-1672,3202,202,196,-45,1,7,11
4.68E+03,-7797,-1669,3425,539,549,258,1,7,11
4.68E+03,-7555,-1915,3420,616,627,289,1,7,11
4.68E+03,-7568,-1901,3409,436,411,297,1,7,11
4.68E+03,-7564,-1875,3385,498,415,288,1,7,11
4.68E+03,-7571,-1848,3347,786,400,261,1,7,11
4.68E+03,-7574,-1804,3045,780,389,-38,1,7,11
4.68E+03,-7590,-1511,3002,474,393,-81,1,7,11
4.68E+03,-7599,-1492,2963,389,398,-111,1,7,11
4.68E+03,-7589,-1481,3192,533,400,117,1,7,11
4.68E+03,-7581,-1483,3176,144,410,71,1,7,11
4.68E+03,-7578,-1497,2948,275,413,22,1,7,11
4.68E+03,-7578,-1510,2944,-79,391,-278,1,7,11
4.68E+03,-7576,-1520,3188,114,621,-306,1,7,11
4.68E+03,-7607,-1794,3168,73,610,-332,1,7,11
4.68E+03,-7626,-1809,3158,54,597,-326,1,7,11
4.68E+03,-7650,-1822,3146,65,560,-311,1,7,11
4.68E+03,-7672,-1827,3134,90,520,-307,1,7,11
4.68E+03,-7944,-1820,3122,119,213,-298,1,7,11
4.68E+03,-7974,-1798,3089,-128,161,-294,1,7,11
4.68E+03,-7990,-1527,3078,110,365,-286,1,7,11
4.68E+03,-7986,-1511,3081,76,304,-271,1,7,11
4.68E+03,-8006,-1511,3086,36,-13,-262,1,7,11
4.68E+03,-7983,-1523,3094,0,-97,9,1,7,11
4.68E+03,-7952,-1529,3099,-282,100,-259,1,7,11
4.68E+03,-7680,-1798,3128,-306,48,-292,1,7,11
4.68E+03,-7664,-1797,3168,-316,-275,-338,1,7,11
4.68E+03,-7651,-1529,3176,-303,-336,-131,1,7,11
4.68E+03,-7958,-1487,3157,-281,-354,-187,1,7,11
4.68E+03,-7823,-1661,3129,-260,-326,-198,1,7,11
4.68E+03,-8219,-1566,3089,-272,-287,-354,1,7,11
4.68E+03,-8263,-1231,2812,-329,-270,102,1,7,11
4.68E+03,-8286,-1188,3106,-164,13,305,1,7,11
4.68E+03,-8305,-1166,3181,-514,-267,230,1,7,11
4.68E+03,-8257,-1399,2966,-587,-379,406,1,7,11
4.68E+03,-7889,-1363,3193,-395,-241,813,1,7,11
4.68E+03,-8037,-1317,3136,-482,-557,666,1,7,11
4.68E+03,-7958,-1287,3077,-858,-545,735,1,7,11
4.68E+03,-7956,-1292,2782,-751,-218,750,1,7,11
4.69E+03,-7940,-1318,2756,-923,-173,735,1,7,11
4.69E+03,-7625,-1353,2746,-1357,-135,665,1,7,11
4.69E+03,-7602,-1382,2733,-1276,-351,791,1,7,11
4.69E+03,-7769,-1165,2704,-1460,-352,414,1,7,11
4.69E+03,-7702,-1215,2912,-1893,-321,520,1,7,11
4.69E+03,-7419,-1280,2867,-2059,-277,371,1,7,11
4.69E+03,-7411,-1619,2817,-1944,22,-9,1,7,11
4.69E+03,-7700,-1458,2526,-2315,71,127,1,7,11
4.69E+03,-7753,-1815,2500,-2391,117,12,1,7,11
4.69E+03,-7674,-1667,2475,-2431,-88,-363,1,7,11
4.69E+03,-8003,-1770,2684,-2178,-118,-147,1,7,11
4.69E+03,-7849,-2105,2581,-2415,-114,-192,1,7,11
4.69E+03,-7904,-2149,2284,-2380,-124,-188,1,7,11
4.69E+03,-8184,-1928,2246,-2350,-5,-245,1,7,11
4.69E+03,-8800,-1975,2252,-2348,-15,-191,1,7,11
4.69E+03,-8802,-1986,2219,-2315,49,5,1,7,11
4.69E+03,-8421,-1954,2205,-2016,-350,-118,1,7,11
4.69E+03,-8458,-2104,2200,-1983,-234,-13,1,7,11
4.69E+03,-8252,-2051,2244,-1975,-561,273,1,7,11
4.69E+03,-7813,-1763,2604,-1971,-620,-3,1,7,11
4.69E+03,-7952,-1743,2486,-1962,-408,-91,1,7,11
4.69E+03,-7668,-1705,2838,-2168,-476,36,1,7,11
4.69E+03,-7801,-1905,2891,-2087,-847,-361,1,7,11
4.69E+03,-7739,-1848,2919,-1767,-646,-224,1,7,11
4.69E+03,-7683,-1803,2694,-1742,-883,-561,1,7,11
4.69E+03,-7361,-1510,2715,-1744,-856,-604,1,7,11
4.69E+03,-7331,-1500,2765,-1778,-818,-615,1,7,11
4.69E+03,-7525,-1521,3091,-2082,-810,-589,1,7,11
4.69E+03,-7497,-1840,3195,-2118,-793,-576,1,7,11
4.69E+03,-7468,-1920,3052,-2111,-800,-569,1,7,11
4.69E+03,-7470,-1762,3434,-2075,-819,-582,1,7,11
4.69E+03,-7470,-2116,3264,-1729,-868,-600,1,7,11
4.69E+03,-7463,-1945,3302,-1868,-662,-622,1,7,11
4.69E+03,-7514,-2017,3584,-1494,-661,-399,1,7,11
4.69E+03,-7498,-2365,3625,-1662,-698,-388,1,7,11
4.69E+03,-7142,-2220,3694,-1593,-755,-634,1,7,11
4.69E+03,-7044,-2609,3509,-1266,-1072,-440,1,7,11
4.69E+03,-7275,-2469,3577,-1189,-897,-826,1,7,11
4.69E+03,-7233,-2552,3891,-1376,-1307,-705,1,7,11
4.69E+03,-7255,-2858,3939,-1330,-1231,-1114,1,7,11
4.70E+03,-7254,-2910,3732,-1329,-1492,-968,1,7,11
4.70E+03,-7216,-2701,3776,-1364,-1781,-1330,1,7,11
4.70E+03,-7241,-2793,4120,-1204,-2345,-1186,1,7,11
4.70E+03,-7177,-3149,4213,-1550,-2465,-1267,1,7,11
4.70E+03,-6879,-3199,4046,-1603,-2743,-1638,1,7,11
4.70E+03,-7186,-2973,4402,-1633,-3192,-1450,1,7,11
4.70E+03,-7074,-3000,4281,-1635,-3024,-1459,1,7,11
4.70E+03,-7331,-3097,4614,-1634,-3344,-1630,1,7,11
4.70E+03,-7535,-3373,4616,-1577,-3207,-1381,1,7,11
4.70E+03,-7482,-3375,4636,-1258,-3362,-914,1,7,11
4.70E+03,-7072,-3344,4632,-1198,-3197,-489,1,7,11
4.70E+03,-7242,-3049,4608,-1329,-2469,-238,1,7,11
4.70E+03,-7193,-3017,4313,-965,-2340,40,1,7,11
4.70E+03,-6847,-2984,4282,-1084,-1688,336,1,7,11
4.70E+03,-7014,-3199,4232,-662,-1540,594,1,7,11
4.70E+03,-6945,-3163,4429,-477,-909,831,1,7,11
4.70E+03,-6654,-3136,4359,-549,-858,1024,1,7,11
4.70E+03,-6972,-3105,4057,-140,-637,905,1,7,11
4.70E+03,-6828,-3098,4059,-287,-545,1003,1,7,11
4.70E+03,-7195,-3075,4069,53,-593,1331,1,7,11
4.70E+03,-7246,-2795,4095,110,-503,1385,1,7,11
4.70E+03,-7257,-2777,4406,127,-727,1406,1,7,11
4.70E+03,-7221,-2733,4474,-122,-978,1153,1,7,11
4.70E+03,-6893,-2931,4276,-123,-1183,1399,1,7,11
4.70E+03,-6853,-2881,4609,92,-1573,1385,1,7,11
4.70E+03,-6792,-2848,4702,19,-1412,1385,1,7,11
4.70E+03,-7000,-2833,4571,-335,-1467,1364,1,7,11
4.70E+03,-6637,-2830,4932,-174,-1521,1334,1,7,11
4.70E+03,-6781,-2555,4782,-533,-1522,1003,1,7,11
4.70E+03,-6138,-2552,5119,-866,-161,-17,1,7,11
4.70E+03,-6447,-2824,5111,-850,-305,-128,1,7,11
4.70E+03,-6495,-2840,5096,-836,39,25,1,7,11
4.70E+03,-6327,-2873,5085,-833,120,-336,1,7,11
4.70E+03,-6692,-2905,5059,-818,-79,-166,1,7,11
4.70E+03,-6780,-2925,5016,-782,-20,-220,1,7,11
4.70E+03,-6546,-2904,5229,-484,308,-520,1,7,11
4.70E+03,-6599,-2855,5016,-476,144,-592,1,7,11
4.70E+03,-6970,-2556,5098,-472,149,-630,1,7,11
4.70E+03,-6814,-2516,5386,-397,296,-604,1,7,11
4.70E+03,-7190,-2462,5073,-256,-67,-251,1,7,11
4.71E+03,-7215,-2671,5208,-344,126,-314,1,7,11
4.71E+03,-6865,-2654,4825,60,-77,-105,1,7,11
4.71E+03,-7009,-2679,4771,-86,320,271,1,7,11
4.71E+03,-6913,-2440,4771,281,176,295,1,7,11
4.71E+03,-6603,-2686,4796,380,217,-12,1,7,11
4.71E+03,-6576,-2674,4819,187,173,-88,1,7,11
4.71E+03,-6547,-2648,4835,225,333,84,1,7,11
4.71E+03,-6539,-2612,5144,243,-6,-257,1,7,11
4.71E+03,-6542,-2569,5166,517,-64,-330,1,7,11
4.71E+03,-6557,-2284,5239,532,-97,-384,1,7,11
4.71E+03,-6572,-2262,5042,562,-114,-149,1,7,11
4.71E+03,-6571,-2259,5059,615,-108,-136,1,7,11
4.71E+03,-6588,-2254,5039,435,-41,-381,1,7,11
4.71E+03,-6648,-2234,5241,780,323,-352,1,7,11
4.71E+03,-6999,-2212,5185,834,174,-283,1,7,11
4.71E+03,-6808,-2209,4826,865,220,81,1,7,11
4.71E+03,-6847,-2195,4780,882,216,-73,1,7,11
4.71E+03,-6852,-2424,4909,868,184,275,1,7,11
4.71E+03,-6835,-2373,4865,809,139,334,1,7,11
4.71E+03,-6838,-2312,4889,439,329,353,1,7,11
4.71E+03,-6815,-2030,4929,548,-75,368,1,7,11
4.71E+03,-7007,-2011,4976,141,6,351,1,7,11
4.71E+03,-6971,-2005,4811,-82,-209,268,1,7,11
4.71E+03,-6940,-2006,5164,57,-568,-61,1,7,11
4.71E+03,-6653,-2026,5014,-283,-636,-118,1,7,11
4.71E+03,-6599,-2318,5106,-335,-434,101,1,7,11
4.71E+03,-6543,-2356,5444,-350,-453,58,1,7,11
4.71E+03,-6753,-2372,5498,-337,-444,16,1,7,11
4.71E+03,-6726,-2381,5256,-319,-403,-277,1,7,11
4.71E+03,-6687,-2400,5496,-310,-588,-298,1,7,11
4.71E+03,-6396,-2420,5469,-318,-213,-326,1,7,11
4.71E+03,-6392,-2191,5463,-360,-332,-365,1,7,11
4.71E+03,-6663,-2208,5463,-164,41,-144,1,7,11
4.71E+03,-6702,-2220,5449,-237,-125,-169,1,7,11
4.71E+03,-6721,-2229,5437,-592,-64,-156,1,7,11
4.71E+03,-6733,-2245,5436,-441,-9,-382,1,7,11
4.71E+03,-6748,-2272,5450,-791,301,-346,1,7,11
4.71E+03,-6754,-2302,5456,-850,344,-310,1,7,11
4.71E+03,-6766,-2582,5452,-875,129,-279,1,7,11
4.71E+03,-6784,-2595,5447,-860,161,-260,1,7,11
4.72E+03,-6559,-2590,5417,-800,195,19,1,7,11
4.72E+03,-6580,-2564,5108,-463,235,50,1,7,11
4.72E+03,-6570,-2295,5032,-635,536,81,1,7,11
4.72E+03,-6573,-2287,5240,-560,584,76,1,7,11
4.72E+03,-6599,-2277,5211,-240,601,33,1,7,11
4.72E+03,-6616,-2278,5186,-182,571,-283,1,7,11
4.72E+03,-6612,-2269,5127,-132,530,-350,1,7,11
4.72E+03,-6611,-2256,4830,-373,252,-166,1,7,11
4.72E+03,-6616,-2262,4820,-382,231,-220,1,7,11
4.72E+03,-6608,-2285,4848,-137,206,-516,1,7,11
4.72E+03,-6629,-2584,4861,-142,166,-560,1,7,11
4.72E+03,-6624,-2617,5126,-152,134,-558,1,7,11
4.72E+03,-6618,-2651,5144,-175,368,-554,1,7,11
4.72E+03,-6618,-2678,5158,-199,353,-542,1,7,11
4.72E+03,-6635,-2439,5158,-218,354,-529,1,7,11
4.72E+03,-6650,-2463,5145,-231,371,-243,1,7,11
4.72E+03,-6921,-2472,4842,-245,161,-199,1,7,11
4.72E+03,-6932,-2472,4795,-522,230,-156,1,7,11
4.72E+03,-6948,-2466,4756,-543,550,-373,1,7,11
4.72E+03,-6980,-2462,4971,-562,604,-338,1,7,11
4.72E+03,-6988,-2454,4924,-570,630,-302,1,7,11
4.72E+03,-6999,-2440,4573,-574,409,-272,1,7,11
4.72E+03,-6987,-2445,4507,-598,463,6,1,7,11
4.72E+03,-6979,-2453,4702,-621,771,18,1,7,11
4.72E+03,-6984,-2463,4641,-387,827,10,1,7,11
4.72E+03,-7003,-2471,4329,-410,860,-257,1,7,11
4.72E+03,-6997,-2487,4276,-438,860,-265,1,7,11
4.72E+03,-7001,-2517,4239,-468,837,-294,1,7,11
4.72E+03,-6992,-2558,4224,-495,776,-341,1,7,11
4.72E+03,-6976,-2848,4225,-498,422,-154,1,7,11
4.72E+03,-6985,-2896,4250,-486,566,-233,1,7,11
4.72E+03,-6978,-2938,4288,-459,159,-550,1,7,11
4.72E+03,-6960,-2728,4343,-423,-3,-611,1,7,11
4.72E+03,-6949,-2783,4677,-388,74,-407,1,7,11
4.72E+03,-6919,-3090,4506,-602,-377,-450,1,7,11
4.72E+03,-6635,-3138,4867,-557,-557,-490,1,7,11
4.72E+03,-6616,-3182,4988,-247,-471,-779,1,7,11
4.72E+03,-6605,-2960,4821,-183,-878,-786,1,7,11
4.72E+03,-6578,-2971,5152,-379,-728,-507,1,7,11
4.72E+03,-6581,-2956,5216,-322,-768,-465,1,7,11
4.73E+03,-6582,-3190,5017,-264,-759,-387,1,7,11
4.73E+03,-6587,-3161,5054,42,-707,-538,1,7,11
4.73E+03,-6565,-3125,5076,88,-893,-149,1,7,11
4.73E+03,-6545,-3077,5086,-127,-787,-284,1,7,11
4.73E+03,-6538,-2776,5089,-99,-405,77,1,7,11
4.73E+03,-6540,-2732,5089,-79,-530,-89,1,7,11
4.73E+03,-6530,-2698,5072,-59,-161,-16,1,7,11
