timestamp,ax,ay,az,gx,gy,gz,Label1,Label2,Label3
7.46E+02,-6431,-3822,3903,-251,-174,-650,1,7,11
7.43E+02,-6435,-4097,3919,-522,-182,-814,1,7,11
7.34E+02,-6452,-4140,3958,-556,-190,-451,1,7,11
7.24E+02,-6484,-4220,3756,-553,-176,-581,1,7,11
7.15E+02,-6503,-4058,3787,-523,-182,-211,1,7,11
7.12E+02,-6493,-4380,3792,-179,-181,-131,1,7,11
7.18E+02,-6480,-4402,3765,-319,-152,-348,1,7,11
7.35E+02,-6483,-4394,3750,45,-338,-330,1,7,11
7.58E+02,-6296,-4367,3768,-126,10,-311,1,7,11
7.81E+02,-6347,-4066,3785,-34,101,-293,1,7,11
8.00E+02,-6393,-4026,3805,300,-73,-281,1,7,11
8.15E+02,-6695,-3976,3832,361,280,-282,1,7,11
8.27E+02,-6745,-4204,4126,152,305,-297,1,7,11
8.36E+02,-6772,-4142,4139,193,294,-323,1,7,11
8.43E+02,-6552,-3808,4144,209,272,-351,1,7,11
8.47E+02,-6578,-3748,4161,168,-25,-362,1,7,11
8.48E+02,-6582,-3727,4185,351,-78,-360,1,7,11
8.46E+02,-6574,-3942,4178,278,121,-364,1,7,11
8.40E+02,-6564,-3928,4188,-82,73,-368,1,7,11
8.30E+02,-6552,-3930,4191,92,48,-361,1,7,11
8.14E+02,-6560,-3937,4202,33,52,-337,1,7,11
7.96E+02,-6782,-3925,4183,-257,54,-287,1,7,11
7.77E+02,-6732,-3949,4168,-321,71,16,1,7,11
7.62E+02,-6392,-3765,4178,-380,83,34,1,7,11
7.53E+02,-6326,-4100,4160,-133,124,-262,1,7,11
7.45E+02,-6327,-4161,4162,-363,-61,-334,1,7,11
7.34E+02,-6354,-4200,4164,-299,261,-132,1,7,11
7.19E+02,-6390,-3999,4185,22,303,-160,1,7,11
7.06E+02,-6386,-4041,4187,117,299,-156,1,7,11
7.03E+02,-6364,-4055,4182,-35,280,-143,1,7,11
7.07E+02,-6349,-4048,4177,318,266,-384,1,7,11
7.13E+02,-6363,-4030,4183,146,264,-355,1,7,11
7.14E+02,-6361,-4021,4198,201,-20,-308,1,7,11
7.10E+02,-6352,-4010,4220,248,-63,-266,1,7,11
7.03E+02,-6329,-3973,3970,548,-106,3,1,7,11
6.97E+02,-6327,-4182,3978,559,113,-259,1,7,11
6.93E+02,-6326,-4154,3998,542,78,-270,1,7,11
6.93E+02,-6326,-4133,4015,525,43,-303,1,7,11
6.96E+02,-6309,-3832,4002,514,7,-342,1,7,11
7.03E+02,-6312,-3795,4005,210,-267,-139,1,7,11
7.12E+02,-6320,-3774,4015,152,-269,-191,1,7,11
7.24E+02,-6326,-3792,4040,350,-266,-232,1,7,11
7.38E+02,-6317,-3793,4049,332,-271,-527,1,7,11
7.56E+02,-6301,-3800,4034,304,-264,-556,1,7,11
7.76E+02,-6293,-3812,4047,265,10,-571,1,7,11
8.00E+02,-6278,-4107,4053,-34,22,-564,1,7,11
8.26E+02,-6525,-4159,4052,-53,51,-565,1,7,11
8.51E+02,-6283,-4194,4057,-30,114,-555,1,7,11
8.75E+02,-6276,-4213,4047,271,-93,-521,1,7,11
8.94E+02,-6503,-4223,4033,315,-63,-220,1,7,11
9.08E+02,-6484,-4211,4015,346,-30,-204,1,7,11
9.13E+02,-6520,-4193,4019,345,265,-199,1,7,11
9.10E+02,-6291,-4175,4046,329,273,-164,1,7,11
9.01E+02,-6312,-4159,4064,326,259,-349,1,7,11
8.92E+02,-6299,-4155,4059,322,-24,-259,1,7,11
8.86E+02,-6289,-4162,4056,307,-34,76,1,7,11
8.85E+02,-6522,-4166,4045,285,-30,123,1,7,11
8.83E+02,-6489,-4165,4033,256,-21,-126,1,7,11
8.76E+02,-6461,-4162,4029,-42,-5,106,1,7,11
8.63E+02,-6462,-4168,4030,-87,274,54,1,7,11
8.46E+02,-6470,-4156,4024,-118,293,2,1,7,11
8.34E+02,-6478,-4146,4021,97,306,-298,1,7,11
8.31E+02,-6488,-4158,4022,49,321,-339,1,7,11
8.39E+02,-6489,-4178,4027,5,334,-375,1,7,11
8.51E+02,-6499,-4189,4032,-277,360,-167,1,7,11
8.62E+02,-6499,-4189,4019,-296,378,-217,1,7,11
8.70E+02,-6275,-4190,4019,-322,154,-537,1,7,11
8.76E+02,-6303,-4205,4027,-341,166,-573,1,7,11
8.79E+02,-6320,-3969,4016,-337,167,-598,1,7,11
8.83E+02,-6344,-4201,3979,-314,161,-600,1,7,11
8.87E+02,-6354,-4203,4202,-328,151,-559,1,7,11
8.91E+02,-6335,-3994,4199,-356,373,-233,1,7,11
8.95E+02,-6317,-4023,4188,-363,333,-191,1,7,11
8.99E+02,-6324,-4037,4179,-342,295,-160,1,7,11
9.03E+02,-6344,-4041,4184,-313,267,-131,1,7,11
9.06E+02,-6344,-4052,4178,-293,-39,-337,1,7,11
9.10E+02,-6345,-4051,4168,-263,-87,-289,1,7,11
9.13E+02,-6333,-4032,4147,24,-127,12,1,7,11
9.15E+02,-6299,-4040,4153,12,90,48,1,7,11
9.18E+02,-6502,-4058,4156,9,50,45,1,7,11
9.19E+02,-6515,-4025,4148,13,45,-260,1,7,11
9.20E+02,-6524,-4006,4140,-262,40,-278,1,7,11
9.20E+02,-6289,-4014,4148,-286,44,-269,1,7,11
9.20E+02,-6314,-4008,4160,-282,57,41,1,7,11
9.18E+02,-6328,-4025,4181,-274,73,-118,1,7,11
9.16E+02,-6285,-4066,4183,10,72,-31,1,7,11
9.12E+02,-6477,-4355,4175,54,81,260,1,7,11
9.08E+02,-6454,-4088,4159,93,108,-35,1,7,11
9.02E+02,-6477,-4083,4162,121,-114,-94,1,7,11
8.93E+02,-6526,-4055,4175,-104,-85,122,1,7,11
8.79E+02,-6299,-4044,4193,-82,-84,122,1,7,11
8.58E+02,-6295,-4032,4193,-57,-105,-113,1,7,11
8.32E+02,-6285,-4015,4190,-44,-116,-101,1,7,11
8.06E+02,-6294,-3990,4198,-36,-106,-96,1,7,11
7.85E+02,-6303,-3983,4197,-46,-106,-98,1,7,11
7.71E+02,-6310,-4220,4200,-52,-107,-101,1,7,11
7.64E+02,-6324,-4200,4191,-66,-102,-84,1,7,11
7.62E+02,-6341,-4202,4192,-86,-89,-51,1,7,11
7.63E+02,-6325,-4212,4196,-101,-93,-7,1,7,11
7.66E+02,-6283,-3978,4187,-97,-78,279,1,7,11
7.66E+02,-6505,-3976,4164,-76,-37,285,1,7,11
7.63E+02,-6472,-4199,4139,-58,281,283,1,7,11
7.60E+02,-6451,-4178,4142,-82,359,278,1,7,11
7.59E+02,-6477,-4159,4147,-101,181,274,1,7,11
7.60E+02,-6519,-4157,4141,126,233,285,1,7,11
7.63E+02,-6291,-4171,4143,102,512,296,1,7,11
7.63E+02,-6344,-4179,4148,90,523,295,1,7,11
7.60E+02,-6373,-4178,4153,100,238,305,1,7,11
7.56E+02,-6660,-4164,4139,108,191,297,1,7,11
7.51E+02,-6685,-4160,4131,106,136,299,1,7,11
7.47E+02,-6710,-4163,4133,107,345,303,1,7,11
7.41E+02,-6741,-4165,4139,-122,307,312,1,7,11
7.31E+02,-6747,-4154,4138,-87,262,318,1,7,11
7.17E+02,-6744,-4135,4129,-50,-31,317,1,7,11
7.03E+02,-6739,-4114,4113,-33,-62,302,1,7,11
6.92E+02,-6719,-4117,4121,-36,-87,285,1,7,11
6.87E+02,-6701,-4111,4129,-18,-100,263,1,7,11
6.84E+02,-6365,-3808,4126,-32,-88,-105,1,7,11
6.83E+02,-6366,-3811,4124,-14,-25,-95,1,7,11
6.80E+02,-6348,-3819,4109,273,280,-97,1,7,11
6.72E+02,-6373,-3802,4109,310,336,113,1,7,11
6.61E+02,-6672,-3778,4106,334,130,76,1,7,11
6.59E+02,-6705,-3756,4104,339,163,45,1,7,11
6.82E+02,-6725,-3740,4097,330,163,19,1,7,11
7.29E+02,-6774,-3733,4122,297,150,-274,1,7,11
7.77E+02,-6566,-3723,4142,261,133,-292,1,7,11
8.07E+02,-6601,-3955,4158,-3,348,-290,1,7,11
8.11E+02,-6601,-3964,4168,-15,276,-270,1,7,11
7.82E+02,-6582,-3715,4164,-39,-8,-258,1,7,11
7.22E+02,-6571,-3726,4164,-48,-51,-264,1,7,11
6.60E+02,-6533,-3960,4140,-46,-68,-276,1,7,11
6.25E+02,-6776,-3718,4136,-57,-73,-300,1,7,11
6.23E+02,-6776,-3753,4152,-102,-63,-314,1,7,11
6.37E+02,-6531,-3784,4175,-125,-55,-304,1,7,11
6.55E+02,-6768,-3785,4163,-90,-59,-270,1,7,11
6.71E+02,-6730,-3777,4138,-60,-62,19,1,7,11
6.79E+02,-6685,-3751,4106,-53,-51,35,1,7,11
6.77E+02,-6659,-3753,4100,-68,-30,38,1,7,11
6.65E+02,-6391,-3755,4096,-62,-2,35,1,7,11
6.45E+02,-6385,-3759,3827,-52,286,30,1,7,11
6.33E+02,-6397,-3769,3827,-37,329,18,1,7,11
6.50E+02,-6663,-3766,3832,-17,362,-260,1,7,11
6.97E+02,-6696,-3763,4101,-13,136,-299,1,7,11
7.50E+02,-6737,-3761,4116,258,152,-328,1,7,11
7.84E+02,-6771,-3736,4104,275,149,-349,1,7,11
7.87E+02,-6534,-3966,4096,268,130,-362,1,7,11
7.75E+02,-6568,-3963,4105,-11,360,-370,1,7,11
7.65E+02,-6587,-3956,4103,-32,328,-370,1,7,11
7.65E+02,-6584,-3941,3832,-46,290,-359,1,7,11
7.70E+02,-6575,-3940,3819,-88,260,-348,1,7,11
7.72E+02,-6577,-3720,3838,-124,-14,-334,1,7,11
7.65E+02,-6549,-3745,3834,125,-50,-323,1,7,11
7.48E+02,-6782,-3759,3831,119,-70,-334,1,7,11
7.19E+02,-6760,-3774,3821,101,-86,-359,1,7,11
6.84E+02,-6766,-3771,3822,95,-83,-376,1,7,11
6.53E+02,-6774,-3784,3830,85,-87,-369,1,7,11
6.42E+02,-6758,-3790,3818,95,-93,-351,1,7,11
6.49E+02,-6729,-3795,3811,106,-93,-323,1,7,11
6.67E+02,-6715,-3780,3807,106,-89,-310,1,7,11
6.88E+02,-6710,-3797,3828,96,-88,-298,1,7,11
7.09E+02,-6716,-3790,3837,120,-87,-288,1,7,11
7.28E+02,-6703,-3794,3827,-127,-97,-271,1,7,11
7.44E+02,-6697,-3797,3820,127,-93,-278,1,7,11
7.57E+02,-6715,-3788,3826,120,-76,-303,1,7,11
7.69E+02,-6765,-3758,3829,105,-64,-329,1,7,11
7.81E+02,-6545,-3735,3831,87,-65,-334,1,7,11
7.93E+02,-6579,-3729,4101,57,-70,-307,1,7,11
8.06E+02,-6563,-3741,4098,39,-100,3,1,7,11
8.20E+02,-6532,-3759,3838,16,-120,48,1,7,11
8.33E+02,-6774,-3763,4096,7,126,67,1,7,11
8.46E+02,-6751,-3769,4108,-261,110,79,1,7,11
8.59E+02,-6726,-3768,4097,-258,101,75,1,7,11
8.71E+02,-6736,-3760,3827,-269,103,63,1,7,11
8.82E+02,-6753,-3757,3834,-297,100,58,1,7,11
8.93E+02,-6752,-3781,4096,-321,90,66,1,7,11
9.02E+02,-6727,-3811,3836,-339,70,53,1,7,11
9.11E+02,-6729,-3808,3832,-332,76,9,1,7,11
9.20E+02,-6725,-3818,3822,-321,80,-289,1,7,11
9.27E+02,-6758,-3804,3813,-310,102,-353,1,7,11
9.31E+02,-6531,-3798,3828,-311,110,-140,1,7,11
9.28E+02,-6537,-3811,3828,-324,92,-178,1,7,11
9.14E+02,-6784,-3823,3828,-320,72,-221,1,7,11
8.86E+02,-6776,-3828,3829,-327,46,-527,1,7,11
8.51E+02,-6529,-3835,3830,-327,32,-573,1,7,11
8.16E+02,-6570,-4097,4132,-335,18,-583,1,7,11
7.87E+02,-6570,-4109,4142,-313,-278,-527,1,7,11
7.68E+02,-6546,-4106,4136,-289,-308,-198,1,7,11
7.59E+02,-6718,-4129,4143,-268,-343,-307,1,7,11
7.59E+02,-6393,-4117,4137,14,-371,32,1,7,11
7.66E+02,-6344,-4111,4133,11,-375,93,1,7,11
7.75E+02,-6316,-4114,4129,2,-363,-117,1,7,11
7.80E+02,-6303,-4111,4152,-274,-348,-105,1,7,11
7.83E+02,-6298,-3824,4145,-275,-326,123,1,7,11
7.90E+02,-6299,-3805,4142,-322,-310,86,1,7,11
8.08E+02,-6297,-3800,4137,-149,-280,37,1,7,11
8.37E+02,-6314,-4112,4155,-240,33,4,1,7,11
8.70E+02,-6348,-4126,4154,-538,88,-310,1,7,11
9.00E+02,-6386,-4112,4145,-550,127,-376,1,7,11
9.20E+02,-6399,-4104,4133,-599,120,-173,1,7,11
9.32E+02,-6689,-3824,4113,-391,96,-222,1,7,11
9.36E+02,-6684,-4102,4120,-483,35,-228,1,7,11
9.34E+02,-6687,-4150,4140,-797,-286,-516,1,7,11
9.29E+02,-6688,-4159,4142,-816,-358,-554,1,7,11
9.20E+02,-6677,-4164,4133,-838,-154,-582,1,7,11
9.05E+02,-6723,-4134,4125,-847,-178,-564,1,7,11
8.84E+02,-6737,-4144,4144,-883,-211,-202,1,7,11
8.59E+02,-6731,-4132,4137,-877,-228,-288,1,7,11
8.33E+02,-6691,-4174,4121,-867,-201,-57,1,7,11
8.12E+02,-6390,-4217,4118,-827,-130,153,1,7,11
7.99E+02,-6328,-4015,4123,-777,-296,593,1,7,11
7.93E+02,-6295,-4021,4126,-454,83,471,1,7,11
7.93E+02,-6296,-3983,4135,-392,-49,864,1,7,11
7.98E+02,-6501,-4207,4149,-631,293,1035,1,7,11
8.08E+02,-6427,-4181,4127,-629,351,965,1,7,11
8.24E+02,-6075,-4149,3781,-388,157,1341,1,7,11
8.46E+02,-6075,-4124,3943,-458,530,1329,1,7,11
8.70E+02,-6429,-3815,3872,-787,404,994,1,7,11
8.91E+02,-6301,-4110,3845,-895,502,934,1,7,11
9.05E+02,-6720,-3839,3550,-642,851,1130,1,7,11
9.08E+02,-6636,-3829,3537,-896,879,1109,1,7,11
9.04E+02,-6998,-4116,3532,-866,855,1147,1,7,11
8.97E+02,-6817,-4130,3526,-782,800,935,1,7,11
8.93E+02,-6801,-3839,3709,-405,444,963,1,7,11
8.93E+02,-7031,-3782,3635,-607,631,908,1,7,11
8.93E+02,-6789,-3742,3618,-582,569,1082,1,7,11
8.93E+02,-6824,-3725,3625,-582,226,733,1,7,11
8.89E+02,-6856,-3941,3619,-570,136,663,1,7,11
8.83E+02,-6804,-3942,3589,-580,277,885,1,7,11
8.78E+02,-7021,-3919,3277,-601,-75,841,1,7,11
8.75E+02,-7022,-3947,3265,-415,118,491,1,7,11
8.74E+02,-7034,-3727,3280,-787,73,598,1,7,11
8.72E+02,-7026,-3790,3309,-833,83,242,1,7,11
8.67E+02,-7018,-3827,3588,-821,110,364,1,7,11
8.56E+02,-7000,-3832,3598,-807,-127,-60,1,7,11
8.40E+02,-6951,-3781,3307,-815,100,53,1,7,11
8.20E+02,-6606,-3734,3248,-674,52,-326,1,7,11
7.99E+02,-6553,-3731,3230,-1088,23,-177,1,7,11
7.77E+02,-6552,-3947,3438,-945,1,-222,1,7,11
7.55E+02,-6565,-3951,3397,-1325,-278,-190,1,7,11
7.36E+02,-6627,-3956,3355,-1384,-261,-353,1,7,11
7.20E+02,-6940,-3754,3066,-1176,-265,56,1,7,11
7.08E+02,-6959,-4113,3023,-1172,-278,-54,1,7,11
7.01E+02,-7035,-4198,3027,-1342,22,280,1,7,11
6.98E+02,-6890,-3997,3343,-907,88,344,1,7,11
7.02E+02,-7264,-3995,3390,-884,-91,181,1,7,11
7.11E+02,-7110,-4197,3429,-578,-25,549,1,7,11
7.26E+02,-7143,-3762,3398,78,-42,435,1,7,11
7.45E+02,-7141,-3909,3404,-18,-65,461,1,7,11
7.70E+02,-7143,-3553,3426,308,125,427,1,7,11
7.97E+02,-7126,-3479,3443,335,46,613,1,7,11
8.24E+02,-7124,-3654,3437,321,-295,520,1,7,11
8.50E+02,-7073,-3630,3437,261,-146,199,1,7,11
8.74E+02,-7258,-3644,3436,-52,-217,146,1,7,11
8.95E+02,-7213,-3651,3438,-81,-248,334,1,7,11
9.11E+02,-7169,-3698,3215,-105,-518,281,1,7,11
9.21E+02,-6881,-3473,3238,-67,-248,-15,1,7,11
9.29E+02,-6869,-3493,3260,-10,-226,-39,1,7,11
9.33E+02,-6844,-3493,3243,317,-214,-41,1,7,11
9.36E+02,-6839,-3483,3250,369,-195,-48,1,7,11
9.39E+02,-6829,-3470,3243,164,-189,-38,1,7,11
9.43E+02,-6824,-3463,3241,185,-183,-23,1,7,11
9.47E+02,-6809,-3492,3265,176,-183,257,1,7,11
9.54E+02,-6820,-3511,3305,187,-181,-18,1,7,11
9.61E+02,-6812,-3472,3297,210,-226,-39,1,7,11
9.68E+02,-6812,-3524,3621,190,-230,-26,1,7,11
9.72E+02,-6855,-3489,3676,245,-241,-36,1,7,11
9.72E+02,-6909,-3458,3466,552,-539,-11,1,7,11
9.67E+02,-7193,-3704,3526,592,-564,309,1,7,11
9.55E+02,-7173,-3685,3550,632,-603,376,1,7,11
9.37E+02,-7200,-3652,3854,620,-627,156,1,7,11
9.12E+02,-6903,-3652,3887,618,-431,225,1,7,11
8.86E+02,-6874,-3620,3890,632,-422,253,1,7,11
8.65E+02,-6843,-3611,3881,617,-388,550,1,7,11
8.56E+02,-6816,-3619,3905,595,-597,553,1,7,11
8.57E+02,-6825,-3595,3947,604,-549,238,1,7,11
8.65E+02,-6828,-3277,3955,384,-520,174,1,7,11
8.73E+02,-6809,-3217,3933,632,-228,373,1,7,11
8.78E+02,-6807,-3456,3952,590,-161,320,1,7,11
8.78E+02,-6820,-3421,3715,564,-366,273,1,7,11
8.73E+02,-6794,-3391,3716,524,-342,-26,1,7,11
8.63E+02,-6802,-3351,3724,235,-306,-92,1,7,11
8.48E+02,-6815,-3061,3745,164,-292,112,1,7,11
8.28E+02,-6823,-3063,3781,345,-297,88,1,7,11
8.06E+02,-6820,-3065,3793,287,-330,79,1,7,11
7.83E+02,-6797,-3069,3781,-33,-356,81,1,7,11
7.66E+02,-7037,-3333,3800,-83,-350,87,1,7,11
7.60E+02,-7037,-3356,3817,-118,-327,95,1,7,11
7.64E+02,-7026,-3367,3826,-128,-296,100,1,7,11
7.70E+02,-7028,-3390,4115,116,9,103,1,7,11
7.67E+02,-7028,-3408,4137,115,32,108,1,7,11
7.52E+02,-7024,-3414,4132,124,48,111,1,7,11
7.36E+02,-7032,-3413,4135,124,66,98,1,7,11
7.31E+02,-7040,-3413,4142,124,71,88,1,7,11
7.41E+02,-6787,-3406,4138,-113,93,91,1,7,11
7.56E+02,-6815,-3376,4134,-86,110,100,1,7,11
7.66E+02,-6811,-3395,4150,-90,112,-127,1,7,11
7.66E+02,-6805,-3431,4165,-72,115,111,1,7,11
7.59E+02,-6827,-3390,4156,-28,106,55,1,7,11
7.51E+02,-6841,-3377,4160,-38,97,56,1,7,11
7.44E+02,-6812,-3385,4156,-52,88,72,1,7,11
7.44E+02,-6811,-3397,4159,-59,82,78,1,7,11
7.52E+02,-6788,-3387,4144,-45,76,70,1,7,11
7.70E+02,-6797,-3374,4149,-54,97,32,1,7,11
7.96E+02,-6799,-3373,4140,-74,115,11,1,7,11
8.28E+02,-6796,-3406,4134,-99,-119,-304,1,7,11
8.62E+02,-6795,-3394,4120,-93,-97,-355,1,7,11
8.96E+02,-6809,-3381,4119,-102,-71,-155,1,7,11
9.27E+02,-6832,-3365,4128,122,-64,-178,1,7,11
9.51E+02,-6834,-3365,4131,86,-76,-164,1,7,11
9.67E+02,-6835,-3358,4123,47,-99,-135,1,7,11
9.75E+02,-6810,-3376,4113,4,-118,-354,1,7,11
9.78E+02,-6788,-3387,3839,-275,-110,-348,1,7,11
9.78E+02,-6800,-3390,4099,-277,-87,-352,1,7,11
9.74E+02,-6819,-3399,3837,-282,-79,-351,1,7,11
9.70E+02,-6838,-3407,4107,-288,-82,-350,1,7,11
9.65E+02,-6850,-3417,4102,-291,-100,-341,1,7,11
9.60E+02,-6863,-3419,4101,-291,-125,-329,1,7,11
9.56E+02,-6855,-3423,3836,-293,115,-298,1,7,11
9.50E+02,-6839,-3429,3827,-285,111,-269,1,7,11
9.39E+02,-6828,-3436,3826,-287,103,9,1,7,11
9.21E+02,-6804,-3445,3812,-280,98,28,1,7,11
8.99E+02,-6793,-3442,3810,-267,112,30,1,7,11
8.77E+02,-6797,-3445,3811,-267,-126,28,1,7,11
8.62E+02,-6799,-3451,3809,-264,-115,35,1,7,11
8.55E+02,-6800,-3202,3807,-262,-105,43,1,7,11
8.53E+02,-6805,-3453,3810,3,-98,58,1,7,11
8.53E+02,-6804,-3445,3816,11,-93,76,1,7,11
8.51E+02,-6820,-3439,3809,18,-91,90,1,7,11
8.46E+02,-6819,-3440,3805,5,-100,108,1,7,11
8.40E+02,-6807,-3456,3804,-272,-113,114,1,7,11
8.33E+02,-6811,-3212,3805,-288,-123,97,1,7,11
8.27E+02,-6828,-3447,3806,-280,126,77,1,7,11
8.22E+02,-6833,-3451,3810,-286,109,92,1,7,11
8.18E+02,-6833,-3220,3811,-277,93,-125,1,7,11
8.16E+02,-6826,-3229,3817,-257,84,-89,1,7,11
8.18E+02,-6824,-3234,3823,24,79,-64,1,7,11
8.21E+02,-6820,-3213,3810,58,65,-52,1,7,11
8.27E+02,-6831,-3437,3817,104,65,-49,1,7,11
8.35E+02,-6830,-3411,3807,121,58,-52,1,7,11
8.44E+02,-6814,-3404,3806,110,59,-61,1,7,11
8.53E+02,-6801,-3402,3810,96,74,-67,1,7,11
8.62E+02,-6789,-3409,3820,89,100,-82,1,7,11
8.70E+02,-6795,-3402,3822,96,118,-97,1,7,11
8.77E+02,-6803,-3409,3839,99,-119,-105,1,7,11
8.84E+02,-6826,-3388,4097,120,-110,-109,1,7,11
8.90E+02,-6839,-3362,3835,125,-110,-101,1,7,11
8.93E+02,-6848,-3358,3831,109,-118,-83,1,7,11
8.94E+02,-6837,-3372,3830,90,-127,-80,1,7,11
8.92E+02,-6834,-3358,3828,94,127,-96,1,7,11
8.89E+02,-6832,-3351,3821,79,125,-108,1,7,11
8.87E+02,-6851,-3366,3835,62,-122,-127,1,7,11
8.85E+02,-6877,-3342,3832,72,126,113,1,7,11
8.86E+02,-6871,-3340,3828,48,114,124,1,7,11
8.89E+02,-6871,-3349,3829,30,115,-124,1,7,11
8.93E+02,-6857,-3376,3829,18,113,-117,1,7,11
8.98E+02,-6833,-3393,3825,18,113,120,1,7,11
9.03E+02,-6847,-3389,3833,38,-128,86,1,7,11
9.07E+02,-6869,-3376,3838,57,-124,70,1,7,11
9.08E+02,-6877,-3372,4098,65,-124,73,1,7,11
9.08E+02,-6893,-3366,4099,69,126,85,1,7,11
9.05E+02,-6877,-3350,3837,66,115,103,1,7,11
9.00E+02,-6877,-3338,3830,37,114,107,1,7,11
8.93E+02,-6876,-3337,3836,12,107,116,1,7,11
8.88E+02,-6871,-3068,4096,8,92,124,1,7,11
8.86E+02,-6858,-3060,3831,-260,68,-125,1,7,11
8.90E+02,-6836,-3065,3816,-284,52,-123,1,7,11
8.99E+02,-6823,-3346,4096,-300,49,-127,1,7,11
9.08E+02,-6821,-3365,4097,-285,61,110,1,7,11
9.15E+02,-6828,-3368,4097,6,79,93,1,7,11
9.14E+02,-6833,-3358,3835,43,94,82,1,7,11
9.08E+02,-6836,-3352,3834,64,114,69,1,7,11
9.01E+02,-6850,-3338,3835,85,-126,60,1,7,11
8.95E+02,-6846,-3346,4109,96,-118,61,1,7,11
8.93E+02,-6845,-3356,4112,113,-112,57,1,7,11
8.91E+02,-6830,-3349,4096,-116,-107,55,1,7,11
8.86E+02,-6833,-3337,3833,-99,-91,51,1,7,11
8.75E+02,-6835,-3071,3830,-99,-78,41,1,7,11
8.61E+02,-6850,-3057,3832,-117,-68,29,1,7,11
8.50E+02,-6862,-3058,4101,112,-69,35,1,7,11
8.47E+02,-6864,-3058,4110,97,-83,42,1,7,11
8.54E+02,-6853,-3054,4104,81,-96,48,1,7,11
8.65E+02,-6854,-3058,4104,67,-104,47,1,7,11
8.76E+02,-6844,-3065,4101,57,-111,47,1,7,11
8.80E+02,-6834,-3066,3829,45,-112,43,1,7,11
8.81E+02,-6822,-3335,3824,23,-106,35,1,7,11
8.79E+02,-6824,-3351,3824,14,-78,3,1,7,11
8.79E+02,-6838,-3346,3827,40,-47,-308,1,7,11
8.82E+02,-6854,-3346,3813,55,-20,-361,1,7,11
8.84E+02,-6866,-3355,3821,55,269,-152,1,7,11
8.82E+02,-6873,-3352,3823,56,289,-180,1,7,11
8.73E+02,-6877,-3353,3817,49,300,-180,1,7,11
8.61E+02,-6880,-3355,3810,39,291,-157,1,7,11
8.52E+02,-6889,-3360,3802,32,275,-374,1,7,11
8.52E+02,-6907,-3360,3798,39,-10,-335,1,7,11
8.61E+02,-6908,-3353,3797,34,-55,-293,1,7,11
8.74E+02,-6911,-3348,3792,22,-97,-266,1,7,11
8.85E+02,-6898,-3361,3791,0,123,9,1,7,11
8.90E+02,-6880,-3371,3792,-267,95,14,1,7,11
8.90E+02,-6866,-3383,3790,-267,81,15,1,7,11
8.86E+02,-6847,-3388,3789,-260,71,19,1,7,11
8.84E+02,-6823,-3388,3785,1,71,18,1,7,11
8.84E+02,-6815,-3393,3791,3,83,17,1,7,11
8.83E+02,-6818,-3394,3784,11,97,17,1,7,11
8.76E+02,-6824,-3401,3789,17,113,20,1,7,11
8.62E+02,-6820,-3407,3794,30,125,28,1,7,11
8.44E+02,-6838,-3399,3793,43,-106,32,1,7,11
8.30E+02,-6859,-3390,3800,51,-97,45,1,7,11
8.26E+02,-6870,-3376,3797,52,-105,63,1,7,11
8.32E+02,-6869,-3377,3803,41,-124,86,1,7,11
8.42E+02,-6858,-3384,3794,39,114,102,1,7,11
8.52E+02,-6846,-3389,3792,37,102,105,1,7,11
8.56E+02,-6838,-3392,3796,37,104,96,1,7,11
8.56E+02,-6840,-3390,3803,44,108,82,1,7,11
8.54E+02,-6848,-3387,3812,45,113,68,1,7,11
8.52E+02,-6864,-3373,3808,45,100,59,1,7,11
8.51E+02,-6860,-3383,3801,39,90,61,1,7,11
8.48E+02,-6859,-3391,3795,39,94,66,1,7,11
8.43E+02,-6855,-3386,3789,37,99,65,1,7,11
8.36E+02,-6854,-3391,3789,45,107,63,1,7,11
8.29E+02,-6863,-3383,3796,69,119,65,1,7,11
8.26E+02,-6868,-3360,3795,83,116,82,1,7,11
8.29E+02,-6860,-3350,3789,76,115,110,1,7,11
8.36E+02,-6850,-3359,3788,55,117,-126,1,7,11
8.45E+02,-6869,-3368,3807,43,127,-118,1,7,11
8.53E+02,-6881,-3353,3802,57,122,-106,1,7,11
8.60E+02,-6877,-3346,3807,47,112,-90,1,7,11
8.65E+02,-6881,-3343,3801,41,101,-82,1,7,11
8.68E+02,-6866,-3337,3787,30,88,-74,1,7,11
8.70E+02,-6852,-3059,3765,24,78,-85,1,7,11
8.70E+02,-6842,-3066,3778,-294,70,-108,1,7,11
8.69E+02,-6848,-3360,3791,-344,78,121,1,7,11
8.65E+02,-6857,-3375,3806,-350,84,97,1,7,11
8.61E+02,-6865,-3389,3802,-332,94,92,1,7,11
8.58E+02,-6883,-3371,3811,-307,112,101,1,7,11
8.57E+02,-6885,-3373,3816,-284,119,124,1,7,11
8.61E+02,-6876,-3372,3805,2,122,-116,1,7,11
8.66E+02,-6869,-3363,3800,22,-126,-109,1,7,11
8.72E+02,-6865,-3344,3790,37,-119,-112,1,7,11
8.76E+02,-6871,-3061,3777,40,-114,-116,1,7,11
8.79E+02,-6873,-3054,3776,14,-118,-117,1,7,11
8.81E+02,-6887,-3050,3789,-265,-125,126,1,7,11
8.83E+02,-6903,-3049,3793,-285,109,123,1,7,11
8.85E+02,-7170,-3051,3794,-297,91,-121,1,7,11
8.83E+02,-7176,-3059,3800,-310,69,-113,1,7,11
8.74E+02,-6900,-3061,3795,-314,56,-103,1,7,11
8.56E+02,-6887,-3331,3805,-328,56,-101,1,7,11
8.32E+02,-6870,-3068,3789,-301,56,-117,1,7,11
8.09E+02,-6860,-3059,3772,-303,64,124,1,7,11
7.95E+02,-6869,-3064,3783,-318,90,97,1,7,11
7.89E+02,-6879,-3338,3791,-316,107,79,1,7,11
7.87E+02,-6885,-3336,3782,-294,117,65,1,7,11
7.83E+02,-6889,-3336,3794,-287,125,64,1,7,11
7.76E+02,-6893,-3335,3787,-281,125,75,1,7,11
7.66E+02,-6900,-3069,3784,-280,125,87,1,7,11
7.55E+02,-6897,-3054,3776,-284,119,110,1,7,11
7.44E+02,-6888,-3054,3773,-291,111,123,1,7,11
7.38E+02,-6878,-3068,3777,-307,109,122,1,7,11
7.38E+02,-6872,-3340,3777,-318,109,106,1,7,11
7.46E+02,-6872,-3347,3769,-312,116,84,1,7,11
7.60E+02,-6867,-3342,3768,-295,126,63,1,7,11
7.80E+02,-6866,-3333,3771,-276,-112,47,1,7,11
8.03E+02,-6864,-3330,3769,-267,-104,41,1,7,11
8.30E+02,-6866,-3330,3762,-258,-98,33,1,7,11
8.58E+02,-6878,-3059,3756,5,-94,24,1,7,11
8.86E+02,-6891,-3046,3767,12,-93,28,1,7,11
9.11E+02,-6896,-3046,3765,-261,-106,39,1,7,11
9.32E+02,-6903,-3046,3764,-285,-119,45,1,7,11
9.48E+02,-6905,-3049,3762,-296,119,55,1,7,11
9.60E+02,-6899,-3056,3760,-303,103,65,1,7,11
9.68E+02,-6889,-3070,3765,-309,98,74,1,7,11
9.75E+02,-6892,-3339,3771,-309,97,82,1,7,11
9.78E+02,-6892,-3339,3767,-296,100,90,1,7,11
9.80E+02,-6897,-3343,3767,-294,105,97,1,7,11
9.80E+02,-6903,-3349,3781,-290,113,98,1,7,11
9.79E+02,-6903,-3361,3789,-283,115,98,1,7,11
9.75E+02,-6890,-3366,3782,-271,113,80,1,7,11
9.71E+02,-6887,-3367,3772,2,112,45,1,7,11
9.66E+02,-6885,-3361,3758,17,122,6,1,7,11
9.61E+02,-6891,-3338,3734,25,127,-281,1,7,11
9.55E+02,-6888,-3343,3738,-257,-117,-299,1,7,11
9.50E+02,-6870,-3363,3736,-274,-97,-324,1,7,11
9.45E+02,-6865,-3384,3742,-281,-72,-360,1,7,11
9.42E+02,-6856,-3387,3731,-260,-53,-143,1,7,11
9.40E+02,-6867,-3385,3734,9,-35,-163,1,7,11
9.39E+02,-6880,-3380,3737,17,-27,-153,1,7,11
9.39E+02,-6896,-3383,3737,25,-36,-376,1,7,11
9.40E+02,-6902,-3380,3734,37,-67,-339,1,7,11
9.39E+02,-6908,-3382,3734,46,-97,-305,1,7,11
9.34E+02,-6906,-3377,3724,52,-123,-272,1,7,11
9.22E+02,-6894,-3369,3715,47,115,15,1,7,11
9.04E+02,-6885,-3368,3959,44,102,37,1,7,11
8.85E+02,-6866,-3377,3965,28,98,54,1,7,11
8.69E+02,-6867,-3399,3729,20,109,51,1,7,11
8.61E+02,-6873,-3403,3743,38,114,53,1,7,11
8.59E+02,-6890,-3393,3741,67,-127,56,1,7,11
8.57E+02,-6910,-3383,3751,78,-123,65,1,7,11
8.54E+02,-6907,-3383,3761,76,-127,80,1,7,11
8.47E+02,-6904,-3384,3758,72,127,81,1,7,11
8.41E+02,-6898,-3387,3765,72,125,77,1,7,11
8.39E+02,-6893,-3397,3764,77,-127,70,1,7,11
8.44E+02,-6891,-3411,3763,97,-124,63,1,7,11
8.50E+02,-6876,-3439,3755,-127,-116,61,1,7,11
8.50E+02,-6862,-3202,3745,-76,-102,55,1,7,11
8.40E+02,-6856,-3454,3742,-6,-80,54,1,7,11
8.23E+02,-6881,-3397,3712,321,-58,56,1,7,11
8.08E+02,-6912,-3358,3965,337,-47,89,1,7,11
8.03E+02,-7195,-3067,3712,325,-51,-127,1,7,11
8.08E+02,-7230,-3037,3733,287,-71,-100,1,7,11
8.18E+02,-7250,-2996,3741,-12,-126,-78,1,7,11
8.27E+02,-7240,-2968,3741,-78,61,-52,1,7,11
8.32E+02,-7225,-2959,3746,102,-262,-32,1,7,11
8.34E+02,-7180,-2995,3774,20,-328,-31,1,7,11
8.39E+02,-6887,-3004,3778,-259,-352,-63,1,7,11
8.49E+02,-6859,-3020,3771,-265,-320,-105,1,7,11
8.63E+02,-6856,-3035,3782,-289,-273,95,1,7,11
8.76E+02,-6869,-3054,3852,-292,43,57,1,7,11
8.84E+02,-6883,-3053,4136,-265,73,27,1,7,11
8.87E+02,-7175,-3043,4168,22,106,-257,1,7,11
8.87E+02,-7181,-3035,4163,81,-128,-259,1,7,11
8.87E+02,-7178,-3049,4169,97,125,-268,1,7,11
8.90E+02,-6886,-3343,4159,-125,118,-288,1,7,11
8.96E+02,-6843,-3343,4119,-54,-116,-327,1,7,11
9.03E+02,-6793,-3069,3796,266,-71,-140,1,7,11
9.11E+02,-7014,-3064,3764,275,263,-209,1,7,11
9.18E+02,-7022,-3050,3750,280,355,-255,1,7,11
9.26E+02,-7039,-3054,3738,-10,146,-536,1,7,11
9.36E+02,-6793,-3062,3726,-38,163,-541,1,7,11
9.50E+02,-6825,-3063,3724,-80,162,-535,1,7,11
9.66E+02,-6864,-3334,3742,-112,136,-234,1,7,11
9.81E+02,-6892,-3338,3738,-126,354,-175,1,7,11
9.89E+02,-7169,-3069,3730,115,316,-370,1,7,11
9.87E+02,-7169,-3329,3720,65,279,-322,1,7,11
9.74E+02,-6908,-3350,3736,14,-2,-292,1,7,11
9.56E+02,-7176,-3353,3744,-269,-5,-279,1,7,11
9.40E+02,-7192,-3364,3767,-302,-6,-278,1,7,11
9.30E+02,-7215,-3356,3778,-303,258,-294,1,7,11
9.27E+02,-7237,-3365,3793,-324,265,-317,1,7,11
9.28E+02,-7233,-3395,3794,-339,268,-349,1,7,11
9.29E+02,-7238,-3404,3779,-343,274,-155,1,7,11
9.29E+02,-7239,-3395,3779,-344,266,-217,1,7,11
9.26E+02,-7231,-3368,3764,-364,-6,-529,1,7,11
9.22E+02,-7201,-3356,3736,-160,-44,-569,1,7,11
9.18E+02,-7195,-3383,3727,-222,-61,-586,1,7,11
9.14E+02,-7195,-3202,3726,-533,-83,-581,1,7,11
9.07E+02,-6907,-3262,3928,-522,-102,-576,1,7,11
8.94E+02,-6880,-3285,3886,-239,-98,-598,1,7,11
8.74E+02,-6848,-3313,3870,-241,-83,-385,1,7,11
8.51E+02,-6851,-3588,3867,-240,-60,-432,1,7,11
8.32E+02,-6859,-3595,3864,-230,-62,-460,1,7,11
8.25E+02,-6850,-3595,3845,-228,-89,-485,1,7,11
8.32E+02,-6846,-3602,3559,-229,-128,-504,1,7,11
8.46E+02,-6830,-3647,3556,-252,86,-775,1,7,11
8.63E+02,-6829,-3710,3844,-535,56,-787,1,7,11
8.77E+02,-6824,-3505,3861,-255,-259,-787,1,7,11
8.87E+02,-6791,-3515,3578,-190,-316,-784,1,7,11
8.95E+02,-6999,-3537,3549,-163,-372,-783,1,7,11
9.01E+02,-6962,-3860,3559,-178,-142,-796,1,7,11
9.05E+02,-6939,-3917,3572,-159,-147,-817,1,7,11
9.06E+02,-6945,-3940,3846,-369,-131,-832,1,7,11
9.03E+02,-6944,-3929,3849,-296,-373,-808,1,7,11
8.96E+02,-6925,-3900,3582,-266,-130,-790,1,7,11
8.86E+02,-6926,-3948,3876,-285,-150,-778,1,7,11
8.78E+02,-6652,-3947,3893,40,-155,-509,1,7,11
8.78E+02,-6629,-3954,3922,76,-135,-790,1,7,11
8.86E+02,-6597,-3929,3922,-124,-365,-835,1,7,11
8.99E+02,-6581,-3892,3916,-92,-323,-892,1,7,11
9.11E+02,-6573,-3847,3896,-100,6,-674,1,7,11
9.19E+02,-6572,-3580,3886,104,101,-685,1,7,11
9.21E+02,-6561,-3847,3879,54,-65,-658,1,7,11
9.20E+02,-6544,-3897,3870,39,273,-867,1,7,11
9.19E+02,-6543,-3911,3849,69,355,-835,1,7,11
9.18E+02,-6553,-3939,3841,69,129,-820,1,7,11
9.18E+02,-6536,-3944,3549,91,361,-818,1,7,11
9.18E+02,-6774,-3953,3531,58,304,-810,1,7,11
9.16E+02,-6780,-3728,3524,35,-30,-787,1,7,11
9.11E+02,-6763,-3778,3534,17,119,-473,1,7,11
9.05E+02,-6767,-3816,3547,26,40,-410,1,7,11
8.98E+02,-6552,-3834,3571,50,-259,-582,1,7,11
8.94E+02,-6584,-4142,3876,69,-302,-196,1,7,11
8.91E+02,-6572,-4155,3875,-117,-343,-317,1,7,11
8.91E+02,-6568,-4129,3861,-59,-359,52,1,7,11
8.92E+02,-6563,-4116,3863,-49,-360,-96,1,7,11
8.96E+02,-6555,-4132,3904,-59,-357,-3,1,7,11
9.00E+02,-6529,-4115,3924,-14,-371,337,1,7,11
9.05E+02,-6761,-3835,3951,-6,-383,132,1,7,11
9.10E+02,-6748,-4100,3746,-13,-380,168,1,7,11
9.14E+02,-6751,-4099,3790,262,-360,196,1,7,11
9.13E+02,-6746,-3813,3814,298,-347,221,1,7,11
9.06E+02,-6732,-3781,3816,310,-332,234,1,7,11
8.91E+02,-6716,-3739,3794,307,-319,231,1,7,11
8.72E+02,-6705,-3950,3760,264,-301,214,1,7,11
8.58E+02,-6713,-3929,3744,-90,-285,190,1,7,11
8.54E+02,-6729,-3926,3728,61,-275,162,1,7,11
8.62E+02,-6761,-3718,3743,-290,-263,370,1,7,11
8.76E+02,-6549,-3729,3742,-313,-271,301,1,7,11
8.91E+02,-6568,-3737,3743,-325,-315,-40,1,7,11
9.00E+02,-6576,-3967,3738,-319,-360,113,1,7,11
9.04E+02,-6614,-3948,3751,-321,-132,40,1,7,11
9.08E+02,-6639,-3945,3789,-330,-164,-263,1,7,11
9.16E+02,-6653,-3965,4097,-306,-189,-296,1,7,11
9.28E+02,-6647,-3964,4148,8,-212,-326,1,7,11
9.40E+02,-6585,-3949,4167,66,-236,-376,1,7,11
9.46E+02,-6543,-3950,4177,123,-212,-177,1,7,11
9.42E+02,-6756,-3951,4191,-96,-182,-517,1,7,11
9.27E+02,-6720,-3896,4169,-71,-136,-597,1,7,11
9.09E+02,-6732,-3921,4209,-77,-337,-631,1,7,11
8.97E+02,-6696,-3916,4199,-60,-311,-410,1,7,11
8.96E+02,-6682,-3923,4208,-61,-276,-453,1,7,11
9.05E+02,-6676,-3929,3968,-50,2,-491,1,7,11
9.17E+02,-6388,-3947,4221,-47,11,-806,1,7,11
9.25E+02,-6379,-3950,4217,-50,32,-888,1,7,11
9.26E+02,-6391,-3960,4216,-69,52,-699,1,7,11
9.22E+02,-6399,-3727,4215,-86,51,-747,1,7,11
9.18E+02,-6675,-3741,3970,-127,48,-1030,1,7,11
9.17E+02,-6684,-3779,3985,115,33,-767,1,7,11
9.20E+02,-6691,-3822,3987,120,22,-735,1,7,11
9.21E+02,-6682,-4117,3984,-117,9,-693,1,7,11
9.17E+02,-6399,-4152,3982,-105,0,-656,1,7,11
9.03E+02,-6385,-4176,3986,-94,-258,-866,1,7,11
8.83E+02,-6373,-4200,4001,-88,-261,-813,1,7,11
8.66E+02,-6360,-4199,4006,-68,-275,-492,1,7,11
8.58E+02,-6348,-4204,4007,-72,-297,-419,1,7,11
8.62E+02,-6331,-4203,4021,-85,-313,-603,1,7,11
8.74E+02,-6299,-4006,4041,-128,-331,-240,1,7,11
8.89E+02,-6526,-4022,4033,124,-326,-191,1,7,11
9.03E+02,-6468,-4006,4000,-117,-322,-155,1,7,11
9.14E+02,-6433,-4010,3989,-127,-302,-152,1,7,11
9.20E+02,-6414,-4029,3991,97,-276,-168,1,7,11
9.20E+02,-6144,-4055,3989,60,7,-200,1,7,11
9.14E+02,-6125,-4086,3995,34,32,-246,1,7,11
9.03E+02,-6141,-4096,4005,37,63,-573,1,7,11
8.89E+02,-6419,-4353,4022,33,90,-623,1,7,11
8.73E+02,-6451,-4354,4035,38,94,-639,1,7,11
8.58E+02,-6472,-4091,4038,56,88,-626,1,7,11
8.46E+02,-6469,-4075,4035,57,66,-591,1,7,11
8.41E+02,-6447,-4069,4016,37,42,-550,1,7,11
8.44E+02,-6433,-4085,4026,11,41,-513,1,7,11
8.52E+02,-6430,-4083,4026,7,54,-225,1,7,11
8.61E+02,-6430,-4360,4049,3,75,-177,1,7,11
8.70E+02,-6141,-4379,4042,26,88,-377,1,7,11
8.76E+02,-6126,-4366,4029,59,-127,-361,1,7,11
8.81E+02,-6111,-4364,4030,63,-90,-344,1,7,11
8.84E+02,-6094,-4374,4023,49,-66,-346,1,7,11
8.84E+02,-6106,-4373,4024,30,-49,-380,1,7,11
8.82E+02,-6405,-4356,4024,20,-37,-162,1,7,11
8.77E+02,-6444,-4357,4035,8,-44,-170,1,7,11
8.69E+02,-6480,-4365,4047,5,-56,-149,1,7,11
8.60E+02,-6466,-4375,4040,14,-83,-369,1,7,11
8.53E+02,-6441,-4392,4028,19,-101,-370,1,7,11
8.49E+02,-6442,-4409,4040,19,-108,-153,1,7,11
8.50E+02,-6445,-4406,4040,37,-120,-208,1,7,11
8.53E+02,-6418,-4416,4039,34,106,-248,1,7,11
8.54E+02,-6408,-4442,4047,17,88,-552,1,7,11
8.50E+02,-6137,-4445,4045,25,61,-578,1,7,11
8.44E+02,-6115,-4436,4040,30,47,-588,1,7,11
8.42E+02,-6093,-4439,4031,22,47,-581,1,7,11
8.46E+02,-6090,-4460,4037,13,65,-557,1,7,11
8.55E+02,-6074,-4231,4050,10,73,-256,1,7,11
8.62E+02,-6039,-4253,4047,7,77,-207,1,7,11
8.57E+02,-6024,-4247,4027,12,82,-180,1,7,11
8.38E+02,-6259,-4246,4014,3,85,-135,1,7,11
8.13E+02,-6226,-4260,4019,-271,84,-336,1,7,11
7.94E+02,-6183,-4300,4021,-265,106,-267,1,7,11
7.88E+02,-6169,-4328,4025,25,-101,30,1,7,11
7.93E+02,-6167,-4339,4007,74,-40,61,1,7,11
8.03E+02,-6208,-4324,4011,-127,287,70,1,7,11
8.10E+02,-6251,-4318,4004,-92,337,83,1,7,11
8.14E+02,-6050,-4267,4002,-43,379,99,1,7,11
8.17E+02,-6092,-4257,4010,-30,143,-118,1,7,11
8.21E+02,-6115,-4242,4017,-8,147,-72,1,7,11
8.26E+02,-6406,-4459,4008,280,148,-18,1,7,11
8.31E+02,-6418,-4435,4015,260,128,-4,1,7,11
8.35E+02,-6417,-4406,4003,-17,332,-1,1,7,11
8.37E+02,-6139,-4387,3986,-65,277,-12,1,7,11
8.38E+02,-6135,-4378,3968,-120,-17,-36,1,7,11
8.41E+02,-6413,-4388,3995,83,-29,-61,1,7,11
8.48E+02,-6420,-4392,4014,65,-38,-61,1,7,11
8.56E+02,-6431,-4395,4009,63,-28,-31,1,7,11
8.65E+02,-6434,-4417,4013,65,-12,280,1,7,11
8.73E+02,-6407,-4433,4000,82,-13,331,1,7,11
8.78E+02,-6120,-4427,3974,95,-10,350,1,7,11
8.84E+02,-6108,-4407,4211,96,271,319,1,7,11
8.91E+02,-6401,-4390,4204,75,303,257,1,7,11
9.04E+02,-6445,-4387,4212,58,322,-59,1,7,11
9.17E+02,-6491,-4373,4218,55,320,-98,1,7,11
9.27E+02,-6512,-4355,4214,53,296,-110,1,7,11
9.28E+02,-6526,-4354,4207,45,267,-110,1,7,11
9.16E+02,-6277,-4364,4215,37,-22,-112,1,7,11
8.96E+02,-6526,-4372,4206,34,-65,-118,1,7,11
8.79E+02,-6510,-4374,4209,37,-87,-126,1,7,11
8.70E+02,-6472,-4381,4187,39,-108,-127,1,7,11
8.74E+02,-6438,-4387,4171,40,-97,116,1,7,11
8.83E+02,-6435,-4385,4180,44,-67,97,1,7,11
8.93E+02,-6430,-4399,4189,57,-41,84,1,7,11
8.99E+02,-6449,-4405,4188,96,-7,87,1,7,11
8.99E+02,-6434,-4404,4180,127,-4,103,1,7,11
8.96E+02,-6416,-4407,4170,-101,274,109,1,7,11
8.92E+02,-6426,-4403,4170,-74,319,105,1,7,11
8.86E+02,-6451,-4410,4193,-52,362,97,1,7,11
8.79E+02,-6488,-4385,4195,257,138,93,1,7,11
8.69E+02,-6507,-4090,4165,298,142,107,1,7,11
8.57E+02,-6503,-4070,4153,290,135,122,1,7,11
8.45E+02,-6517,-4074,4160,-3,381,114,1,7,11
8.36E+02,-6279,-4064,4159,-22,357,109,1,7,11
8.33E+02,-6293,-4044,4167,-35,332,103,1,7,11
8.38E+02,-6292,-4040,4175,-54,284,115,1,7,11
8.45E+02,-6276,-4046,4156,-72,-13,-126,1,7,11
8.52E+02,-6274,-4070,4153,-100,-36,-112,1,7,11
8.54E+02,-6525,-4091,4164,-94,-44,-98,1,7,11
8.53E+02,-6279,-4089,4171,-62,-44,-93,1,7,11
8.49E+02,-6280,-4063,4181,-25,-50,-86,1,7,11
8.43E+02,-6523,-4044,4169,-9,-60,-75,1,7,11
8.36E+02,-6511,-4037,4186,-20,-72,-78,1,7,11
8.32E+02,-6504,-4052,4217,-18,-81,-85,1,7,11
8.32E+02,-6496,-4054,3970,273,-91,-87,1,7,11
8.37E+02,-6473,-4040,4208,313,-91,-91,1,7,11
8.45E+02,-6482,-4026,4204,322,-64,-105,1,7,11
8.54E+02,-6521,-4003,4201,341,-36,-114,1,7,11
8.62E+02,-6308,-4218,4191,349,-3,-106,1,7,11
8.69E+02,-6338,-4177,4190,328,263,-77,1,7,11
8.78E+02,-6355,-4164,4178,277,260,-52,1,7,11
8.88E+02,-6337,-4173,4170,-38,-8,-42,1,7,11
8.98E+02,-6324,-4192,4172,-89,-10,-73,1,7,11
9.06E+02,-6307,-4179,4167,-110,-10,-119,1,7,11
9.08E+02,-6303,-4179,4167,103,-5,89,1,7,11
9.00E+02,-6302,-4189,4188,75,-5,53,1,7,11
8.86E+02,-6291,-4188,4193,78,-10,35,1,7,11
8.71E+02,-6297,-4185,4181,76,257,26,1,7,11
8.59E+02,-6312,-4185,4169,76,280,38,1,7,11
8.52E+02,-6311,-4195,4171,63,292,57,1,7,11
8.47E+02,-6325,-4208,4164,60,309,56,1,7,11
8.40E+02,-6325,-4206,4167,66,316,51,1,7,11
8.29E+02,-6324,-4200,4153,74,327,38,1,7,11
8.15E+02,-6337,-4210,4161,65,330,28,1,7,11
8.04E+02,-6361,-4210,4174,71,327,26,1,7,11
7.98E+02,-6361,-4210,4168,85,306,40,1,7,11
7.97E+02,-6372,-4200,4153,102,295,45,1,7,11
7.97E+02,-6386,-4209,4155,103,275,56,1,7,11
7.94E+02,-6390,-4208,4160,117,261,66,1,7,11
7.90E+02,-6394,-4200,4145,126,-7,74,1,7,11
7.87E+02,-6395,-4189,4125,121,-26,78,1,7,11
7.90E+02,-6392,-4185,4109,95,-48,70,1,7,11
7.98E+02,-6390,-4197,4113,64,-69,55,1,7,11
8.09E+02,-6385,-4210,4122,44,-84,36,1,7,11
8.20E+02,-6365,-4213,4120,42,-104,23,1,7,11
8.30E+02,-6345,-4204,4116,44,-120,19,1,7,11
8.41E+02,-6346,-4213,4128,38,-127,9,1,7,11
8.54E+02,-6344,-4210,4117,51,127,8,1,7,11
8.71E+02,-6348,-4213,4116,55,-122,10,1,7,11
8.91E+02,-6331,-4211,4103,69,-121,14,1,7,11
9.08E+02,-6302,-4207,3837,60,-126,-258,1,7,11
9.18E+02,-6273,-4202,3832,38,-128,-300,1,7,11
9.20E+02,-6520,-4212,3824,3,-108,-367,1,7,11
9.17E+02,-6289,-3971,3838,-263,-66,-182,1,7,11
9.14E+02,-6329,-3979,4121,24,-24,-222,1,7,11
9.16E+02,-6348,-3978,4123,60,-7,-221,1,7,11
9.25E+02,-6370,-3973,4126,86,-2,-212,1,7,11
9.38E+02,-6660,-4214,4119,94,-13,-187,1,7,11
9.51E+02,-6673,-4208,4114,95,-43,-161,1,7,11
9.61E+02,-6663,-4204,4124,84,-115,-370,1,7,11
9.66E+02,-6388,-4223,4109,65,101,-322,1,7,11
9.65E+02,-6373,-4001,4110,45,77,-268,1,7,11
9.58E+02,-6359,-4021,4102,49,81,36,1,7,11
9.44E+02,-6342,-4029,4109,60,98,75,1,7,11
9.26E+02,-6328,-4020,4101,83,116,103,1,7,11
9.09E+02,-6313,-4021,4102,97,-114,122,1,7,11
8.99E+02,-6314,-4018,4108,84,-91,124,1,7,11
8.98E+02,-6336,-4013,4115,87,-71,116,1,7,11
9.00E+02,-6347,-3983,4104,96,-82,101,1,7,11
9.02E+02,-6347,-3977,3836,72,-98,91,1,7,11
8.98E+02,-6349,-3988,4115,33,-111,75,1,7,11
8.88E+02,-6387,-3989,4127,27,-115,46,1,7,11
8.76E+02,-6672,-3985,4141,33,-122,48,1,7,11
8.67E+02,-6674,-3995,4147,38,120,65,1,7,11
8.63E+02,-6382,-3998,4130,64,102,87,1,7,11
8.61E+02,-6352,-3991,4119,77,104,81,1,7,11
8.59E+02,-6328,-3974,4106,85,110,67,1,7,11
8.52E+02,-6335,-4214,4099,84,-118,61,1,7,11
8.43E+02,-6322,-4211,3836,63,-107,70,1,7,11
8.33E+02,-6321,-4224,4100,33,-98,66,1,7,11
8.27E+02,-6334,-3977,4108,19,-90,63,1,7,11
8.26E+02,-6343,-3983,3838,15,-89,59,1,7,11
8.30E+02,-6367,-3994,3838,10,-91,50,1,7,11
8.36E+02,-6358,-4001,3838,11,-108,51,1,7,11
8.44E+02,-6365,-3988,3837,21,-116,33,1,7,11
8.53E+02,-6370,-3989,4102,14,121,24,1,7,11
8.63E+02,-6378,-3986,3839,32,109,21,1,7,11
8.72E+02,-6346,-3987,3829,31,86,26,1,7,11
8.79E+02,-6348,-3992,4104,17,87,-258,1,7,11
8.83E+02,-6356,-3995,4124,11,71,-274,1,7,11
8.81E+02,-6365,-3985,4116,14,46,-288,1,7,11
8.74E+02,-6359,-3984,4120,-265,22,-289,1,7,11
8.64E+02,-6348,-4001,4125,-295,-258,-293,1,7,11
8.57E+02,-6363,-4005,4131,-303,-277,-319,1,7,11
8.58E+02,-6370,-3992,4122,-311,-304,-342,1,7,11
8.65E+02,-6378,-3991,4125,-333,-323,-369,1,7,11
8.76E+02,-6363,-4012,4136,-360,-341,-380,1,7,11
8.86E+02,-6357,-4021,4155,-367,-343,-147,1,7,11
8.92E+02,-6334,-4023,4156,-365,-357,-156,1,7,11
8.95E+02,-6300,-4043,4162,-368,-362,-153,1,7,11
8.97E+02,-6284,-4041,4164,-359,-352,-155,1,7,11
8.98E+02,-6277,-4036,4166,-360,-346,-152,1,7,11
8.99E+02,-6524,-4047,4181,-375,-347,-144,1,7,11
8.97E+02,-6290,-4037,4173,-372,-336,-148,1,7,11
8.89E+02,-6297,-4033,4161,-380,-335,-129,1,7,11
8.75E+02,-6292,-4041,4167,-140,-333,-350,1,7,11
8.59E+02,-6280,-4053,4176,-147,-346,-309,1,7,11
8.46E+02,-6519,-4057,4186,-139,-361,-274,1,7,11
8.43E+02,-6518,-4042,4190,-137,-376,0,1,7,11
8.48E+02,-6484,-4056,4178,-157,-144,15,1,7,11
8.58E+02,-6441,-4081,4176,-175,-140,23,1,7,11
8.66E+02,-6417,-4360,4182,-193,-363,12,1,7,11
8.68E+02,-6415,-4372,4184,-193,-304,-263,1,7,11
8.65E+02,-6434,-4377,4190,-182,18,-274,1,7,11
8.61E+02,-6445,-4377,4199,-164,76,-272,1,7,11
8.56E+02,-6468,-4373,4194,-137,-114,-263,1,7,11
8.51E+02,-6476,-4357,4180,-365,-61,10,1,7,11
8.45E+02,-6474,-4095,4160,-355,-26,19,1,7,11
8.38E+02,-6457,-4089,4127,-365,-12,9,1,7,11
8.30E+02,-6467,-4359,4125,-150,-8,-290,1,7,11
8.23E+02,-6475,-4362,3833,-162,-12,-336,1,7,11
8.20E+02,-6459,-4367,3797,-182,-17,-361,1,7,11
8.24E+02,-6462,-4392,3793,-230,262,-135,1,7,11
8.30E+02,-6510,-4422,3816,-515,281,-163,1,7,11
8.34E+02,-6287,-4446,3827,-516,277,-195,1,7,11
8.32E+02,-6317,-4464,4104,-244,269,-233,1,7,11
8.24E+02,-6336,-4457,4100,-210,-4,-526,1,7,11
8.10E+02,-6334,-4444,3826,-188,-30,-550,1,7,11
7.94E+02,-6295,-4440,3802,-193,-74,-560,1,7,11
7.77E+02,-6521,-4427,3777,-211,-111,-568,1,7,11
7.60E+02,-6490,-4432,3775,-514,110,-543,1,7,11
7.43E+02,-6472,-4466,3815,-563,91,-224,1,7,11
7.28E+02,-6449,-4244,4110,-564,64,-373,1,7,11
7.15E+02,-6408,-4258,3839,-536,16,4,1,7,11
7.06E+02,-6401,-4256,3821,-522,-259,114,1,7,11
7.01E+02,-6123,-4240,3792,-516,-275,-29,1,7,11
7.00E+02,-6112,-4234,3783,-524,-264,331,1,7,11
7.04E+02,-6104,-4240,3783,-539,34,161,1,7,11
7.06E+02,-6104,-4272,3800,-526,-119,239,1,7,11
7.00E+02,-6132,-4242,3802,-224,275,568,1,7,11
6.81E+02,-6498,-4387,3812,-186,195,789,1,7,11
6.65E+02,-6525,-4080,3815,-165,636,655,1,7,11
6.69E+02,-6481,-4010,3779,-207,506,943,1,7,11
6.98E+02,-6142,-4065,3751,-616,852,1401,1,7,11
7.29E+02,-6128,-4412,3720,-492,679,1161,1,7,11
7.43E+02,-6422,-4231,3714,-802,743,1018,1,7,11
7.34E+02,-6516,-4238,3962,-784,1053,1078,1,7,11
7.15E+02,-6372,-4437,3947,-458,1064,684,1,7,11
7.04E+02,-6703,-4367,3868,-387,765,646,1,7,11
7.04E+02,-6764,-4062,3531,-614,725,661,1,7,11
7.09E+02,-6536,-4059,3486,-618,665,679,1,7,11
7.12E+02,-6536,-4048,3681,-603,860,681,1,7,11
7.12E+02,-6556,-4060,3622,-596,814,659,1,7,11
7.10E+02,-6544,-4039,3284,-561,781,869,1,7,11
7.06E+02,-6555,-4050,3246,-555,772,799,1,7,11
7.00E+02,-6567,-4055,3204,-514,511,478,1,7,11
6.93E+02,-6559,-4063,3420,-203,498,405,1,7,11
6.86E+02,-6565,-4035,3372,-144,481,552,1,7,11
6.79E+02,-6590,-4026,3364,-360,469,207,1,7,11
6.75E+02,-6633,-3990,3356,-323,467,148,1,7,11
6.72E+02,-6646,-4176,3063,-306,441,380,1,7,11
6.69E+02,-6604,-4114,3003,-326,429,130,1,7,11
6.64E+02,-6546,-4113,3026,-144,483,132,1,7,11
6.59E+02,-6756,-4149,3015,-196,834,368,1,7,11
6.54E+02,-6757,-4124,2944,-201,686,281,1,7,11
6.51E+02,-6554,-4120,3142,-513,1052,-108,1,7,11
6.52E+02,-6647,-4145,3112,-595,1120,5,1,7,11
6.57E+02,-6991,-4216,3078,-415,1124,-130,1,7,11
6.68E+02,-6848,-4022,2756,-420,1083,-527,1,7,11
6.86E+02,-7184,-4041,2714,-417,749,-495,1,7,11
7.12E+02,-7255,-4049,2909,-397,810,-857,1,7,11
7.42E+02,-7275,-4073,2848,-390,631,-671,1,7,11
7.69E+02,-7274,-4084,2540,-390,191,-723,1,7,11
7.88E+02,-7284,-4401,2821,-387,284,-758,1,7,11
7.97E+02,-7296,-4474,2864,-589,97,-736,1,7,11
8.02E+02,-7248,-4285,2901,-229,-132,-665,1,7,11
8.06E+02,-7223,-4309,2931,-355,-595,-864,1,7,11
8.12E+02,-6906,-4335,2717,27,-781,-795,1,7,11
8.17E+02,-6844,-4631,2808,-98,-877,-502,1,7,11
8.20E+02,-7036,-4660,3166,339,-653,-480,1,7,11
8.19E+02,-6969,-4616,2975,591,-658,-490,1,7,11
8.16E+02,-6937,-4284,3024,800,-896,-817,1,7,11
8.16E+02,-6918,-4478,3330,686,-877,-668,1,7,11
8.21E+02,-6646,-4414,3373,762,-883,-1057,1,7,11
8.30E+02,-6647,-4077,3370,1028,-675,-983,1,7,11
8.43E+02,-6987,-4010,3391,688,-735,-1221,1,7,11
8.58E+02,-7039,-3994,3438,811,-1078,-1644,1,7,11
8.73E+02,-6801,-4029,3260,412,-939,-1812,1,7,11
8.86E+02,-7023,-4358,3313,562,-1342,-1708,1,7,11
8.94E+02,-6966,-4437,3620,245,-1194,-2118,1,7,11
8.94E+02,-6921,-4256,3655,227,-1256,-1982,1,7,11
8.90E+02,-6583,-4292,3680,247,-1547,-2030,1,7,11
8.84E+02,-6754,-4310,3692,517,-1549,-2011,1,7,11
8.82E+02,-6393,-4341,3466,528,-1270,-1927,1,7,11
8.86E+02,-6298,-4336,3495,562,-1200,-2049,1,7,11
8.93E+02,-6451,-4620,3537,563,-1359,-1850,1,7,11
9.00E+02,-6109,-4648,3859,587,-976,-1597,1,7,11
9.07E+02,-6264,-4297,3568,398,-1116,-1291,1,7,11
9.11E+02,-5870,-4611,3853,580,-735,-895,1,7,11
9.14E+02,-5961,-4505,3914,246,-644,-561,1,7,11
9.16E+02,-5558,-4938,3724,195,-837,-129,1,7,11
9.17E+02,-5745,-4798,3775,236,-511,-356,1,7,11
9.18E+02,-5701,-5140,4105,543,-443,-146,1,7,11
9.17E+02,-5672,-5157,4125,603,-394,-224,1,7,11
9.15E+02,-5739,-5121,4160,414,-582,-555,1,7,11
9.10E+02,-5544,-4857,4195,457,-554,-545,1,7,11
9.05E+02,-5593,-4811,4222,786,-519,-527,1,7,11
8.99E+02,-5894,-4785,3989,848,-227,-223,1,7,11
8.95E+02,-5915,-4785,4022,644,-198,-145,1,7,11
8.92E+02,-5912,-4790,4047,682,-155,-139,1,7,11
8.92E+02,-5931,-4809,4081,690,-129,-150,1,7,11
8.94E+02,-5960,-4770,4357,750,-342,-207,1,7,11
8.99E+02,-5973,-4987,4367,1050,-313,-234,1,7,11
9.05E+02,-5968,-4920,4383,1096,-298,-517,1,7,11
9.10E+02,-5939,-4883,4389,1067,-304,-524,1,7,11
9.12E+02,-5926,-4569,4395,1028,-303,-516,1,7,11
9.10E+02,-5917,-4567,4432,676,-294,-249,1,7,11
9.07E+02,-5902,-4532,4449,849,-314,-236,1,7,11
9.03E+02,-5902,-4736,4462,781,-318,-193,1,7,11
8.99E+02,-5609,-4712,4470,447,-349,-348,1,7,11
8.97E+02,-5561,-4709,4237,598,-129,19,1,7,11
8.97E+02,-5530,-4722,4267,161,-150,90,1,7,11
9.00E+02,-5740,-4735,4275,316,-172,-127,1,7,11
9.07E+02,-5712,-4510,4290,-35,-151,-128,1,7,11
9.14E+02,-5729,-4537,4324,-95,-356,96,1,7,11
9.19E+02,-5760,-4557,4624,-119,-312,70,1,7,11
9.21E+02,-5538,-4567,4663,-94,1,62,1,7,11
9.19E+02,-5563,-4569,4676,-65,41,62,1,7,11
9.17E+02,-5562,-4566,4669,-29,64,50,1,7,11
9.16E+02,-5566,-4538,4650,-4,108,12,1,7,11
9.19E+02,-5592,-4512,4647,258,-76,-292,1,7,11
9.23E+02,-5632,-4498,4650,-8,-5,-312,1,7,11
9.25E+02,-5929,-4481,4661,-21,313,-317,1,7,11
9.23E+02,-5947,-4484,4647,-39,359,-325,1,7,11
9.15E+02,-5968,-4484,4620,-67,138,-381,1,7,11
9.05E+02,-5992,-4494,4622,-112,170,-181,1,7,11
8.96E+02,-6014,-4489,4608,105,179,-215,1,7,11
8.91E+02,-5761,-4516,4340,41,149,-209,1,7,11
8.91E+02,-6011,-4542,4344,-263,345,-180,1,7,11
8.93E+02,-5999,-4541,4323,-270,273,-136,1,7,11
8.96E+02,-5984,-4507,4297,-263,-34,-340,1,7,11
8.99E+02,-5958,-4481,4276,-285,-83,-273,1,7,11
9.02E+02,-5921,-4722,4252,-319,123,39,1,7,11
9.04E+02,-5632,-4717,4224,-349,85,91,1,7,11
9.05E+02,-5576,-4718,4442,-131,52,-117,1,7,11
9.04E+02,-5534,-4507,4447,-220,33,-108,1,7,11
9.01E+02,-5545,-4559,4233,-540,53,-123,1,7,11
8.96E+02,-5590,-4876,4295,-557,72,-127,1,7,11
8.87E+02,-5611,-4921,4320,-247,74,-108,1,7,11
8.78E+02,-5889,-4965,4339,-164,86,-73,1,7,11
8.70E+02,-5892,-4740,4343,-313,103,-38,1,7,11
8.65E+02,-5891,-4991,4344,71,-120,-15,1,7,11
8.65E+02,-5613,-4952,4336,-72,-79,256,1,7,11
8.67E+02,-5605,-4901,4309,257,-34,-15,1,7,11
8.73E+02,-5632,-4567,4291,296,269,-52,1,7,11
8.81E+02,-5925,-4495,4276,295,303,-67,1,7,11
8.89E+02,-5941,-4718,4287,258,317,-34,1,7,11
8.96E+02,-5966,-4696,4288,-27,316,306,1,7,11
9.00E+02,-5981,-4715,4281,-63,299,135,1,7,11
9.00E+02,-6005,-4720,4275,-99,257,201,1,7,11
8.97E+02,-5999,-4483,4272,-115,-12,191,1,7,11
8.93E+02,-6005,-4493,4240,-122,261,145,1,7,11
8.88E+02,-5998,-4505,4463,123,287,370,1,7,11
8.84E+02,-6002,-4537,4476,99,308,336,1,7,11
8.79E+02,-6013,-4550,4467,115,323,271,1,7,11
8.75E+02,-5788,-4559,4470,-112,347,-39,1,7,11
8.72E+02,-5840,-4540,4455,-64,367,-51,1,7,11
8.70E+02,-5843,-4545,4447,-49,363,-31,1,7,11
8.69E+02,-5879,-4545,4444,-33,373,-25,1,7,11
8.71E+02,-5885,-4562,4445,-23,358,-22,1,7,11
8.74E+02,-6191,-4521,4430,264,362,-26,1,7,11
8.77E+02,-6213,-4562,4446,-12,345,275,1,7,11
8.80E+02,-6239,-4585,4453,268,351,315,1,7,11
8.82E+02,-6257,-4873,4456,293,339,353,1,7,11
8.82E+02,-6033,-4886,4444,345,337,361,1,7,11
8.79E+02,-6065,-4882,4437,138,335,346,1,7,11
8.72E+02,-6102,-4866,4451,177,328,329,1,7,11
8.65E+02,-6110,-4541,4424,514,293,311,1,7,11
8.60E+02,-6087,-4731,4393,588,265,308,1,7,11
8.60E+02,-6088,-4640,4374,395,-6,308,1,7,11
8.66E+02,-6062,-4342,4366,397,-57,329,1,7,11
8.73E+02,-6069,-4332,4384,397,-91,342,1,7,11
8.78E+02,-6115,-4325,4439,392,126,354,1,7,11
8.77E+02,-6423,-4318,4241,422,82,378,1,7,11
8.74E+02,-6461,-4268,4251,507,36,168,1,7,11
8.73E+02,-6478,-4458,4227,840,-260,235,1,7,11
8.79E+02,-6445,-4419,4426,656,-275,544,1,7,11
8.93E+02,-6107,-4054,4048,711,-297,528,1,7,11
9.10E+02,-6231,-3995,4190,879,-304,530,1,7,11
9.22E+02,-5838,-4069,4163,458,-275,524,1,7,11
9.25E+02,-5771,-4479,4222,619,92,253,1,7,11
9.21E+02,-5832,-4470,4048,492,297,244,1,7,11
9.13E+02,-6159,-4066,4356,665,218,564,1,7,11
9.08E+02,-6211,-4146,4410,717,590,410,1,7,11
9.08E+02,-6188,-3747,4247,888,606,802,1,7,11
9.14E+02,-5874,-3941,4678,462,581,889,1,7,11
9.21E+02,-5859,-3897,4563,614,522,878,1,7,11
9.28E+02,-5883,-3880,4911,520,178,791,1,7,11
9.34E+02,-6177,-3858,4955,196,327,426,1,7,11
9.37E+02,-6160,-3550,4957,144,-51,580,1,7,11
9.39E+02,-5880,-3510,4919,322,123,211,1,7,11
9.39E+02,-5865,-3517,4912,-77,68,367,1,7,11
9.36E+02,-5835,-3843,4941,39,34,286,1,7,11
9.32E+02,-5812,-3947,4746,-296,11,-54,1,7,11
9.25E+02,-5805,-3716,4759,-263,5,116,1,7,11
9.15E+02,-5820,-3946,4740,13,12,63,1,7,11
9.03E+02,-5837,-3893,4761,-272,24,67,1,7,11
8.92E+02,-5861,-3842,4777,-337,22,111,1,7,11
8.83E+02,-6180,-3532,4799,-199,20,-80,1,7,11
8.78E+02,-6200,-3542,4766,-584,-276,321,1,7,11
8.74E+02,-6212,-3881,4760,-480,-314,192,1,7,11
8.71E+02,-6238,-3965,4745,-861,-326,566,1,7,11
8.69E+02,-6026,-3741,4977,-675,-294,603,1,7,11
8.66E+02,-6088,-3944,4915,-660,-241,614,1,7,11
8.64E+02,-6126,-3943,4886,-675,43,390,1,7,11
8.63E+02,-6114,-3738,4882,-721,54,426,1,7,11
8.62E+02,-6068,-3765,4592,-705,72,428,1,7,11
8.55E+02,-6058,-3759,4575,-645,-126,409,1,7,11
8.39E+02,-6057,-3802,4583,-838,-33,415,1,7,11
8.12E+02,-6417,-3883,4508,-471,258,451,1,7,11
7.83E+02,-6139,-3715,4578,-673,-320,291,1,7,11
7.61E+02,-6428,-3907,4509,-694,-196,109,1,7,11
7.53E+02,-6431,-3874,4708,-889,-335,273,1,7,11
7.56E+02,-6506,-3514,4624,-717,21,143,1,7,11
7.62E+02,-6508,-3930,4679,-1041,-9,506,1,7,11
7.65E+02,-6349,-3886,4636,-826,219,1113,1,7,11
7.64E+02,-6504,-3738,4335,-784,402,1174,1,7,11
7.60E+02,-6335,-4369,4732,33,1150,1986,1,7,11
7.53E+02,-6427,-3290,4113,587,1194,2180,1,7,11
7.43E+02,-6721,-4179,4295,-427,1167,1720,1,7,11
7.31E+02,-6358,-3730,4352,-5,1071,2058,1,7,11
7.19E+02,-6473,-3924,4213,313,911,2077,1,7,11
7.10E+02,-6720,-3528,4209,-35,1150,1569,1,7,11
7.09E+02,-6576,-3479,4209,120,1075,990,1,7,11
7.17E+02,-6943,-3709,3979,89,1109,764,1,7,11
7.28E+02,-6796,-3709,4013,-102,896,680,1,7,11
7.38E+02,-6845,-3706,3993,344,907,726,1,7,11
7.43E+02,-6851,-3312,4134,227,1031,854,1,7,11
7.45E+02,-6805,-3291,3803,256,776,546,1,7,11
7.45E+02,-7023,-3468,4116,-84,498,142,1,7,11
7.45E+02,-7032,-3648,3786,315,777,-14,1,7,11
7.46E+02,-6812,-3633,3771,292,770,53,1,7,11
7.51E+02,-6802,-3656,3763,278,504,-346,1,7,11
7.60E+02,-7022,-3661,3741,304,503,-240,1,7,11
7.76E+02,-7008,-3670,3714,321,768,-410,1,7,11
8.00E+02,-6954,-3700,3932,347,772,-816,1,7,11
8.30E+02,-6600,-3501,3895,356,770,-725,1,7,11
8.61E+02,-6533,-3563,3878,372,809,-940,1,7,11
8.83E+02,-6537,-3884,3859,173,642,-1221,1,7,11
8.92E+02,-6724,-3726,3580,223,895,-1592,1,7,11
8.89E+02,-6686,-4109,3856,546,652,-1462,1,7,11
8.82E+02,-6737,-3814,3855,508,711,-1838,1,7,11
8.80E+02,-6604,-3743,3860,728,759,-1863,1,7,11
8.86E+02,-6953,-3925,3851,897,749,-1821,1,7,11
8.94E+02,-7025,-3869,3854,1013,709,-1492,1,7,11
8.98E+02,-6805,-3854,3850,1326,883,-1424,1,7,11
8.92E+02,-6860,-3571,3846,1374,790,-1649,1,7,11
8.77E+02,-7253,-3486,3845,1153,454,-1660,1,7,11
8.61E+02,-7539,-3074,3600,1100,-380,-1989,1,7,11
8.50E+02,-7302,-3545,4160,515,-166,-1845,1,7,11
8.48E+02,-7776,-3399,3765,885,-236,-1470,1,7,11
8.49E+02,-7371,-3637,3837,513,-784,-1594,1,7,11
8.48E+02,-7533,-3705,4098,218,-671,-1629,1,7,11
8.39E+02,-7146,-3510,4102,160,-1038,-1653,1,7,11
8.26E+02,-7227,-3877,3832,350,-1135,-1664,1,7,11
8.15E+02,-6865,-3892,3811,330,-925,-1444,1,7,11
8.12E+02,-6814,-3933,4119,-36,-957,-1423,1,7,11
8.16E+02,-6619,-3832,4127,-107,-986,-1562,1,7,11
8.24E+02,-6929,-3553,3798,541,-895,-981,1,7,11
8.33E+02,-6965,-3931,4199,-283,-1113,-744,1,7,11
8.39E+02,-6735,-4104,3972,-566,-1621,-654,1,7,11
8.43E+02,-6406,-4083,4034,-555,-1798,-427,1,7,11
8.46E+02,-6123,-3977,4021,-216,-1793,-466,1,7,11
8.47E+02,-6070,-4091,4394,-530,-1829,-415,1,7,11
8.48E+02,-6233,-4377,4408,-154,-1530,-560,1,7,11
8.45E+02,-5862,-4368,4419,-308,-1630,-225,1,7,11
8.40E+02,-5802,-4354,4457,-278,-1400,-221,1,7,11
8.34E+02,-5801,-4073,4250,-275,-1150,-520,1,7,11
8.28E+02,-5817,-4092,4318,-295,-671,-552,1,7,11
8.25E+02,-5780,-4409,4344,-275,-465,-568,1,7,11
8.25E+02,-5968,-4230,4613,44,-236,-563,1,7,11
8.27E+02,-5991,-4472,4629,-95,50,-571,1,7,11
8.32E+02,-5836,-4449,4701,258,266,-241,1,7,11
8.39E+02,-5860,-4451,4530,354,311,-375,1,7,11
8.46E+02,-5877,-4410,4596,191,277,1,1,7,11
8.54E+02,-5868,-4068,4877,245,-127,-110,1,7,11
8.60E+02,-5847,-4213,4875,240,-311,306,1,7,11
8.64E+02,-5831,-4163,4877,371,-234,233,1,7,11
8.66E+02,-5803,-4139,4881,257,-412,427,1,7,11
8.66E+02,-5949,-4124,4572,123,-794,656,1,7,11
8.64E+02,-5891,-4153,4560,-323,-804,1090,1,7,11
8.61E+02,-5589,-3971,4577,-195,-503,940,1,7,11
8.58E+02,-5570,-4055,4595,-231,-631,933,1,7,11
8.55E+02,-5612,-4069,4595,-158,-189,1110,1,7,11
8.54E+02,-5945,-4011,4558,-309,-257,756,1,7,11
8.55E+02,-5777,-4204,4535,5,-89,667,1,7,11
8.59E+02,-5879,-4126,4496,52,314,820,1,7,11
8.63E+02,-6258,-3766,4515,55,192,460,1,7,11
8.66E+02,-6095,-3948,4578,-257,254,631,1,7,11
8.68E+02,-6412,-3924,4924,-349,231,537,1,7,11
8.69E+02,-6439,-3949,4741,-147,143,193,1,7,11
8.70E+02,-6420,-3946,4764,-362,293,131,1,7,11
8.74E+02,-6116,-3903,4767,-325,-60,351,1,7,11
8.81E+02,-6019,-3846,4747,-317,-126,334,1,7,11
8.85E+02,-6174,-3555,4984,-376,124,331,1,7,11
8.83E+02,-5825,-3867,4974,-221,-94,328,1,7,11
8.71E+02,-5774,-3932,4954,-561,-1,302,1,7,11
8.53E+02,-6007,-3724,4911,-610,369,263,1,7,11
8.37E+02,-5785,-3765,4895,-435,238,263,1,7,11
8.30E+02,-5813,-4097,4569,-502,609,266,1,7,11
8.32E+02,-5866,-4178,4526,-850,461,257,1,7,11
8.39E+02,-6159,-3988,4734,-662,801,-33,1,7,11
8.44E+02,-6037,-3995,4491,-667,665,-122,1,7,11
8.44E+02,-6492,-4196,4713,-857,763,69,1,7,11
8.42E+02,-6659,-3742,4627,-487,761,80,1,7,11
8.42E+02,-6751,-3937,4332,-428,672,-107,1,7,11
8.48E+02,-6538,-3574,4246,-461,796,-15,1,7,11
8.57E+02,-6552,-3695,4409,-809,633,355,1,7,11
8.67E+02,-6781,-3635,4082,-1041,175,518,1,7,11
8.73E+02,-6738,-3699,4053,-1351,-44,438,1,7,11
8.73E+02,-6667,-3552,4022,-1615,-274,856,1,7,11
8.70E+02,-6361,-3881,3997,-1802,-203,729,1,7,11
8.67E+02,-6305,-3943,4204,-1667,-624,1115,1,7,11
8.67E+02,-6491,-3773,4188,-1753,-507,999,1,7,11
8.70E+02,-6447,-3792,4140,-1762,-861,1391,1,7,11
8.73E+02,-6128,-3835,4124,-1736,-668,1552,1,7,11
8.74E+02,-6098,-4128,4136,-1688,-697,1645,1,7,11
8.71E+02,-6096,-4154,4168,-1861,-703,1461,1,7,11
8.67E+02,-6087,-4178,4181,-1504,-692,1524,1,7,11
8.64E+02,-6112,-4161,4184,-1639,-887,1839,1,7,11
8.66E+02,-6423,-4119,4168,-1268,-803,1907,1,7,11
8.70E+02,-6488,-4099,4120,-1179,-432,1728,1,7,11
8.75E+02,-6334,-4104,4108,-1390,-520,2052,1,7,11
8.78E+02,-6718,-3837,4098,-1283,-315,2132,1,7,11
8.77E+02,-6617,-3803,4099,-913,-97,1938,1,7,11
8.74E+02,-7020,-3764,4131,-1061,326,1974,1,7,11
8.69E+02,-6885,-3738,4151,-710,177,1955,1,7,11
8.62E+02,-7243,-3959,4205,-843,245,2130,1,7,11
8.55E+02,-7094,-3919,4209,-424,528,1734,1,7,11
8.50E+02,-7146,-3563,4178,-252,250,1845,1,7,11
8.51E+02,-7436,-3712,4144,-368,223,1435,1,7,11
8.56E+02,-7464,-3606,4123,9,196,1546,1,7,11
8.64E+02,-7496,-3233,4110,121,168,1174,1,7,11
8.70E+02,-7505,-3395,4100,-54,138,1362,1,7,11
8.72E+02,-7461,-3335,3808,-11,355,1328,1,7,11
8.73E+02,-7124,-3060,3770,-4,321,1304,1,7,11
8.74E+02,-7289,-3051,3739,-13,306,1009,1,7,11
8.76E+02,-7200,-3052,3728,-13,303,977,1,7,11
8.80E+02,-6855,-3045,3717,-1,305,955,1,7,11
8.81E+02,-7013,-3050,3723,273,295,937,1,7,11
8.76E+02,-6950,-3044,3966,323,313,1147,1,7,11
8.64E+02,-6916,-3018,3948,134,337,1084,1,7,11
8.48E+02,-6634,-2971,3908,215,377,748,1,7,11
8.34E+02,-6651,-3175,3878,544,198,669,1,7,11
8.29E+02,-6957,-3101,3867,622,544,864,1,7,11
8.32E+02,-6805,-2749,3848,437,394,831,1,7,11
8.36E+02,-7173,-2902,3577,474,479,840,1,7,11
8.37E+02,-7290,-2824,3583,477,798,875,1,7,11
8.33E+02,-7142,-2509,3850,461,826,663,1,7,11
8.28E+02,-7486,-2468,3852,440,823,704,1,7,11
8.27E+02,-7543,-2448,3858,411,807,738,1,7,11
8.34E+02,-7335,-2683,3872,393,783,758,1,7,11
8.43E+02,-7369,-2669,3878,638,497,1033,1,7,11
8.48E+02,-7379,-2664,3882,638,462,1049,1,7,11
8.42E+02,-7366,-2658,3881,404,432,1058,1,7,11
8.29E+02,-7349,-2660,3879,445,408,1058,1,7,11
8.18E+02,-7325,-2654,3873,509,391,1024,1,7,11
8.16E+02,-7334,-2620,3858,852,395,703,1,7,11
8.28E+02,-7317,-2589,3580,685,389,642,1,7,11
8.45E+02,-7315,-2268,3552,1030,395,831,1,7,11
8.61E+02,-7316,-2206,3522,1091,408,770,1,7,11
8.68E+02,-7326,-2187,3524,1107,411,440,1,7,11
8.68E+02,-7362,-2411,3514,1123,404,601,1,7,11
8.67E+02,-7416,-2374,3510,1141,638,248,1,7,11
8.69E+02,-7730,-2358,3525,907,597,158,1,7,11
8.76E+02,-7802,-2327,3525,958,532,330,1,7,11
8.83E+02,-7607,-2026,3512,1016,172,267,1,7,11
8.86E+02,-7636,-1977,3517,1308,297,-39,1,7,11
8.81E+02,-7649,-1928,3529,1324,-101,-71,1,7,11
8.72E+02,-7637,-2140,3531,1322,8,-85,1,7,11
8.62E+02,-7605,-2103,3556,1293,-382,-90,1,7,11
8.58E+02,-7562,-2066,3846,985,-244,-82,1,7,11
8.60E+02,-7778,-1787,3883,919,-597,-65,1,7,11
8.66E+02,-7739,-1759,3921,1121,-418,-31,1,7,11
8.74E+02,-7687,-1735,3962,1065,-481,270,1,7,11
8.82E+02,-7359,-1739,3755,754,-773,311,1,7,11
8.87E+02,-7312,-1728,3771,724,-798,352,1,7,11
8.89E+02,-7548,-1718,3806,700,-798,377,1,7,11
8.86E+02,-7535,-1700,3835,686,-778,374,1,7,11
8.79E+02,-7534,-1665,4128,679,-501,365,1,7,11
8.69E+02,-7532,-1882,4156,673,-488,362,1,7,11
8.61E+02,-7526,-1839,4181,657,-459,360,1,7,11
8.57E+02,-7518,-1799,4205,877,-422,362,1,7,11
8.55E+02,-7513,-1502,3972,836,-386,359,1,7,11
8.55E+02,-7516,-1472,3999,770,-601,347,1,7,11
8.53E+02,-7525,-1458,4035,437,-558,328,1,7,11
8.49E+02,-7515,-1434,4045,634,-527,312,1,7,11
8.45E+02,-7499,-1419,4053,561,-221,298,1,7,11
8.41E+02,-7495,-1417,4063,224,-181,278,1,7,11
8.37E+02,-7496,-1433,4085,132,-140,257,1,7,11
8.34E+02,-7517,-1461,4379,308,-358,-18,1,7,11
8.31E+02,-7528,-1466,4384,265,-336,-34,1,7,11
8.27E+02,-7540,-1456,4365,257,-316,-48,1,7,11
8.23E+02,-7536,-1441,4362,-15,-304,-53,1,7,11
8.18E+02,-7520,-1447,4370,-43,-281,-57,1,7,11
8.13E+02,-7507,-1451,4374,-68,0,-66,1,7,11
8.08E+02,-7506,-1446,4381,-81,25,-83,1,7,11
8.05E+02,-7507,-1443,4375,-105,42,-109,1,7,11
8.03E+02,-7514,-1439,4374,122,55,117,1,7,11
8.02E+02,-7528,-1447,4399,86,59,81,1,7,11
8.04E+02,-7544,-1451,4400,58,56,70,1,7,11
8.06E+02,-7539,-1455,4400,52,48,73,1,7,11
8.08E+02,-7530,-1463,4396,48,42,77,1,7,11
8.10E+02,-7524,-1466,4400,58,49,78,1,7,11
8.12E+02,-7534,-1461,4412,72,68,79,1,7,11
8.12E+02,-7531,-1445,4400,101,81,83,1,7,11
8.11E+02,-7525,-1428,4388,124,96,94,1,7,11
8.06E+02,-7516,-1419,4393,-126,116,106,1,7,11
7.96E+02,-7516,-1424,4398,122,-124,111,1,7,11
7.85E+02,-7515,-1423,4392,-127,-117,104,1,7,11
7.77E+02,-7526,-1420,4384,-119,-106,86,1,7,11
7.78E+02,-7533,-1418,4391,-117,-90,72,1,7,11
7.86E+02,-7538,-1662,4390,-115,-78,60,1,7,11
7.98E+02,-7539,-1657,4379,-116,-63,53,1,7,11
8.11E+02,-7537,-1656,4377,-121,-51,44,1,7,11
8.21E+02,-7547,-1661,4385,125,-33,33,1,7,11
8.32E+02,-7297,-1419,4383,115,-16,26,1,7,11
8.42E+02,-7545,-1422,4374,114,-5,17,1,7,11
8.54E+02,-7545,-1425,4370,115,-2,15,1,7,11
8.64E+02,-7542,-1431,4365,118,256,8,1,7,11
8.71E+02,-7551,-1427,4364,124,-1,2,1,7,11
8.72E+02,-7304,-1422,4362,126,-6,0,1,7,11
8.68E+02,-7312,-1420,4365,126,-11,5,1,7,11
8.61E+02,-7308,-1414,4360,118,-21,14,1,7,11
8.58E+02,-7304,-1416,4089,104,-31,24,1,7,11
8.59E+02,-7309,-1414,4092,95,-37,28,1,7,11
8.65E+02,-7299,-1415,4084,88,-45,40,1,7,11
8.74E+02,-7551,-1415,4075,84,-46,49,1,7,11
8.83E+02,-7547,-1428,4070,75,-44,56,1,7,11
8.91E+02,-7544,-1437,4072,74,-37,60,1,7,11
9.00E+02,-7545,-1437,4064,81,-25,50,1,7,11
9.06E+02,-7312,-1441,4079,95,-7,38,1,7,11
9.11E+02,-7338,-1432,4076,121,263,31,1,7,11
9.12E+02,-7340,-1427,4070,-111,265,26,1,7,11
9.06E+02,-7346,-1409,4058,-101,281,15,1,7,11
8.92E+02,-7367,-1654,4067,-98,297,2,1,7,11
8.70E+02,-7361,-1647,4068,-100,296,-268,1,7,11
8.49E+02,-7348,-1629,4058,-109,286,-295,1,7,11
8.36E+02,-7337,-1621,4045,119,275,-327,1,7,11
8.37E+02,-7325,-1623,4034,77,264,-362,1,7,11
8.46E+02,-7324,-1633,4035,33,263,-144,1,7,11
8.55E+02,-7326,-1633,4028,2,260,-169,1,7,11
8.54E+02,-7325,-1655,4038,-284,262,-178,1,7,11
8.45E+02,-7329,-1659,4049,-289,273,-177,1,7,11
8.35E+02,-7335,-1409,4069,-276,285,-168,1,7,11
8.32E+02,-7333,-1435,4066,12,292,-154,1,7,11
8.38E+02,-7316,-1458,4062,46,298,-161,1,7,11
8.46E+02,-7302,-1474,4044,76,317,-210,1,7,11
8.50E+02,-7552,-1459,4035,99,335,-515,1,7,11
8.42E+02,-7299,-1433,4013,107,344,-564,1,7,11
8.28E+02,-7311,-1664,4020,82,351,-614,1,7,11
8.15E+02,-7337,-1646,4032,26,354,-398,1,7,11
8.13E+02,-7374,-1632,4041,-293,353,-436,1,7,11
8.22E+02,-7408,-1600,4050,-363,340,-473,1,7,11
8.34E+02,-7700,-1546,4043,-184,323,-788,1,7,11
8.44E+02,-7709,-1219,3998,-625,274,-877,1,7,11
8.49E+02,-7412,-1376,4166,-859,-44,-1050,1,7,11
8.50E+02,-7682,-1339,4166,-1000,-81,-1345,1,7,11
8.51E+02,-7701,-1335,4179,-1440,123,-1444,1,7,11
8.54E+02,-7783,-1335,4174,-2133,104,-2101,1,7,11
8.58E+02,-7647,-1184,4194,-2593,100,-2188,1,7,11
8.59E+02,-7980,-1654,4207,-2714,96,-2671,1,7,11
8.54E+02,-7677,-1697,4151,-2964,70,-2541,1,7,11
8.44E+02,-7793,-2040,3830,-3349,51,-2889,1,7,11
8.34E+02,-7349,-2680,3778,-3352,48,-2724,1,7,11
8.29E+02,-7432,-2753,3728,-3198,57,-3104,1,7,11
8.33E+02,-7067,-3013,3931,-2692,42,-2993,1,7,11
8.43E+02,-7290,-3405,3843,-2636,20,-3350,1,7,11
8.53E+02,-7271,-3456,3479,-2374,-317,-3342,1,7,11
8.61E+02,-7222,-3251,3642,-1987,-189,-3001,1,7,11
8.64E+02,-7189,-3601,3620,-1967,-578,-3126,1,7,11
8.67E+02,-7184,-3688,3621,-1938,-453,-2934,1,7,11
8.70E+02,-7183,-3502,3617,-2159,-850,-2687,1,7,11
8.75E+02,-6907,-3844,3636,-2129,-741,-2395,1,7,11
8.79E+02,-6849,-3935,3631,-2067,-919,-2088,1,7,11
8.80E+02,-7037,-3733,3661,-1773,-1333,-1825,1,7,11
8.76E+02,-7019,-4136,3534,-1789,-1215,-1638,1,7,11
8.67E+02,-6998,-4019,3882,-1683,-1622,-1227,1,7,11
8.58E+02,-6913,-4051,3865,-1483,-1526,-1358,1,7,11
8.53E+02,-6753,-4065,3572,-1597,-1900,-1006,1,7,11
8.54E+02,-6343,-4091,3568,-1239,-1910,-958,1,7,11
8.60E+02,-6475,-4400,3858,-1154,-1844,-945,1,7,11
8.70E+02,-6132,-4456,3901,-1310,-1457,-962,1,7,11
8.80E+02,-6075,-4466,3927,-916,-1275,-970,1,7,11
8.89E+02,-6039,-4472,3716,-1057,-1324,-937,1,7,11
8.94E+02,-6263,-4436,3723,-680,-1121,-1128,1,7,11
8.93E+02,-6254,-4387,3726,-872,-674,-1056,1,7,11
8.86E+02,-6263,-4093,3960,-875,-770,-711,1,7,11
8.75E+02,-6264,-4086,3944,-671,-396,-865,1,7,11
8.66E+02,-6026,-4360,3926,-733,-569,-502,1,7,11
8.63E+02,-6025,-4391,3899,-1047,-549,-637,1,7,11
8.65E+02,-6256,-4477,3872,-1122,-584,-531,1,7,11
8.68E+02,-6241,-4331,3854,-920,-398,-212,1,7,11
8.68E+02,-6229,-4719,3859,-953,-489,-191,1,7,11
8.65E+02,-6256,-4571,3875,-910,-813,-200,1,7,11
8.60E+02,-6066,-4597,3891,-1032,-862,-178,1,7,11
8.56E+02,-6132,-4588,3888,-886,-653,-348,1,7,11
8.53E+02,-6442,-4579,3905,-507,-699,35,1,7,11
8.52E+02,-6492,-4543,3916,-628,-718,-65,1,7,11
8.50E+02,-6489,-4513,3916,-250,-745,359,1,7,11
8.45E+02,-6451,-4505,3929,-160,-741,240,1,7,11
8.36E+02,-6424,-4509,3961,-323,-699,591,1,7,11
8.29E+02,-6127,-4494,3735,36,-650,387,1,7,11
8.26E+02,-6082,-4728,3784,127,-838,389,1,7,11
8.31E+02,-6072,-4710,4109,-32,-489,608,1,7,11
8.40E+02,-6068,-4672,4189,322,-395,556,1,7,11
8.51E+02,-6083,-4329,3985,176,-558,233,1,7,11
8.61E+02,-6097,-4473,4016,253,-219,198,1,7,11
8.70E+02,-6070,-4354,4000,537,-169,191,1,7,11
8.76E+02,-6040,-4019,3987,232,-357,182,1,7,11
8.80E+02,-6039,-4218,3990,143,-276,176,1,7,11
8.81E+02,-6044,-4193,4011,280,70,173,1,7,11
8.79E+02,-6063,-4205,4029,-74,-99,175,1,7,11
8.74E+02,-6081,-4205,4028,121,-24,180,1,7,11
8.65E+02,-6066,-3974,4015,72,281,191,1,7,11
8.56E+02,-6079,-3991,4020,38,346,175,1,7,11
8.48E+02,-6133,-4031,4069,15,147,149,1,7,11
8.44E+02,-6458,-4040,4361,49,167,128,1,7,11
8.45E+02,-6507,-4002,4363,96,147,128,1,7,11
8.49E+02,-6276,-3974,4368,112,354,139,1,7,11
8.55E+02,-6284,-4222,4375,113,306,147,1,7,11
8.60E+02,-6279,-4202,4085,-127,268,148,1,7,11
8.65E+02,-6520,-4178,4063,115,258,131,1,7,11
8.67E+02,-6522,-4178,4055,94,265,355,1,7,11
8.66E+02,-6518,-4198,4064,83,276,304,1,7,11
8.63E+02,-6521,-4213,4047,97,295,-24,1,7,11
8.61E+02,-6525,-4220,4027,123,326,-114,1,7,11
8.61E+02,-6516,-3973,3997,-105,352,49,1,7,11
8.66E+02,-6523,-3978,4223,-91,135,-321,1,7,11
8.73E+02,-6286,-3992,4205,-93,162,-169,1,7,11
8.79E+02,-6284,-4019,4188,-86,172,-516,1,7,11
8.83E+02,-6273,-4036,4173,-75,178,-600,1,7,11
8.83E+02,-6519,-4046,4167,-65,183,-423,1,7,11
8.82E+02,-6501,-4063,4161,-69,170,-480,1,7,11
8.83E+02,-6467,-4091,4161,-78,132,-781,1,7,11
8.87E+02,-6417,-4365,4158,-98,331,-833,1,7,11
8.92E+02,-6115,-4096,4126,-120,285,-649,1,7,11
8.93E+02,-6088,-4080,4098,78,273,-698,1,7,11
8.88E+02,-6110,-4088,4098,4,295,-723,1,7,11
8.76E+02,-6423,-4090,4114,-315,322,-689,1,7,11
8.63E+02,-6471,-4398,4120,-366,333,-847,1,7,11
8.53E+02,-6503,-4456,4124,-375,323,-469,1,7,11
8.52E+02,-6520,-4243,4110,-347,308,-634,1,7,11
8.56E+02,-6306,-4261,4116,-306,307,-585,1,7,11
8.61E+02,-6331,-4276,4112,5,287,-542,1,7,11
8.63E+02,-6349,-4275,4096,54,-6,-248,1,7,11
8.61E+02,-6360,-4283,3806,91,-54,-210,1,7,11
8.57E+02,-6357,-4280,3797,112,-98,-156,1,7,11
8.54E+02,-6348,-4279,3817,-125,115,-371,1,7,11
8.52E+02,-6336,-4290,3838,-112,74,-336,1,7,11
8.51E+02,-6308,-4292,4104,-89,-7,-298,1,7,11
8.48E+02,-6522,-4288,4101,-61,-290,-269,1,7,11
8.40E+02,-6473,-4287,4101,-33,-336,11,1,7,11
8.30E+02,-6466,-4286,4117,-17,-336,19,1,7,11
8.23E+02,-6460,-4265,4126,263,-315,33,1,7,11
8.23E+02,-6440,-4243,4144,285,-289,47,1,7,11
8.30E+02,-6411,-4242,4159,282,-280,65,1,7,11
8.40E+02,-6125,-4479,4145,284,-275,56,1,7,11
8.49E+02,-6107,-4463,4151,272,-259,36,1,7,11
8.53E+02,-6111,-4450,4170,-5,19,10,1,7,11
8.54E+02,-6107,-4451,4176,-27,33,-268,1,7,11
8.54E+02,-6100,-4445,4178,-46,44,-280,1,7,11
8.54E+02,-6101,-4440,4175,-67,64,-299,1,7,11
8.54E+02,-6135,-4444,4200,-105,93,-304,1,7,11
8.52E+02,-6402,-4460,3971,120,98,-288,1,7,11
8.45E+02,-6135,-4457,4223,116,90,-272,1,7,11
8.32E+02,-6133,-4450,4218,120,95,-257,1,7,11
8.18E+02,-6129,-4480,3986,99,98,13,1,7,11
8.09E+02,-6143,-4236,4000,112,112,22,1,7,11
8.09E+02,-6408,-4251,4020,-112,115,52,1,7,11
8.13E+02,-6402,-4246,4012,-63,109,71,1,7,11
8.18E+02,-6402,-4243,4018,-29,107,91,1,7,11
8.18E+02,-6137,-4228,4029,269,96,109,1,7,11
8.15E+02,-6107,-4473,4022,304,67,126,1,7,11
8.13E+02,-6066,-4451,3991,330,52,115,1,7,11
8.15E+02,-6075,-4428,3995,318,80,84,1,7,11
8.22E+02,-6090,-4420,4013,288,97,61,1,7,11
8.28E+02,-6104,-4412,4029,275,118,46,1,7,11
8.26E+02,-6107,-4407,4042,265,-123,61,1,7,11
8.16E+02,-6089,-4404,4057,257,-115,106,1,7,11
8.03E+02,-6060,-4409,4051,-1,-113,-109,1,7,11
7.96E+02,-6057,-4394,4050,-5,-95,-89,1,7,11
8.02E+02,-6062,-4385,4039,-11,-71,-70,1,7,11
8.17E+02,-6065,-4369,4035,-21,-55,-51,1,7,11
8.34E+02,-6062,-4365,4030,-51,-40,-30,1,7,11
8.46E+02,-6045,-4386,4027,-89,-39,-20,1,7,11
8.54E+02,-6076,-4391,4034,-108,-12,-43,1,7,11
8.59E+02,-6097,-4399,4032,-115,262,-51,1,7,11
8.63E+02,-6128,-4429,4043,-99,289,-23,1,7,11
8.69E+02,-6125,-4433,4036,-36,296,288,1,7,11
8.73E+02,-6114,-4423,4028,269,297,307,1,7,11
8.75E+02,-6136,-4385,4019,296,323,294,1,7,11
8.71E+02,-6425,-4358,4012,303,342,280,1,7,11
8.62E+02,-6476,-4054,3996,303,361,263,1,7,11
8.50E+02,-6519,-4027,3999,263,366,272,1,7,11
8.37E+02,-6528,-4032,4031,-48,331,292,1,7,11
8.23E+02,-6280,-4030,4055,-71,290,296,1,7,11
8.13E+02,-6302,-4025,4043,-80,-6,298,1,7,11
8.07E+02,-6314,-4012,4033,-70,-43,299,1,7,11
8.07E+02,-6302,-3998,4026,-67,-71,303,1,7,11
8.10E+02,-6300,-3986,4013,-71,-89,303,1,7,11
8.13E+02,-6528,-4224,3992,-87,-116,300,1,7,11
8.13E+02,-6526,-3971,4003,-113,-113,275,1,7,11
8.11E+02,-6527,-3978,4025,126,-103,259,1,7,11
8.11E+02,-6526,-3997,4027,-126,-95,-11,1,7,11
8.18E+02,-6276,-3990,4021,-92,-95,-18,1,7,11
8.29E+02,-6506,-4220,4000,-64,-106,-16,1,7,11
8.40E+02,-6516,-4211,4014,-67,-98,-27,1,7,11
8.44E+02,-6509,-4198,4002,-67,-98,-26,1,7,11
8.38E+02,-6513,-4194,4000,-73,-102,-19,1,7,11
8.28E+02,-6528,-4187,4004,-73,-81,-2,1,7,11
8.22E+02,-6281,-4180,4015,-60,-58,289,1,7,11
8.23E+02,-6284,-4168,4021,-50,-59,313,1,7,11
8.31E+02,-6286,-4166,4021,-47,-61,326,1,7,11
8.44E+02,-6297,-4162,4026,-43,-57,313,1,7,11
8.58E+02,-6322,-4149,4030,-41,-51,300,1,7,11
8.72E+02,-6331,-4134,4041,-29,-44,303,1,7,11
8.81E+02,-6337,-4110,4034,-25,-38,299,1,7,11
8.83E+02,-6351,-3834,4035,-50,-36,290,1,7,11
8.77E+02,-6371,-3820,4034,-80,-37,271,1,7,11
8.64E+02,-6376,-3823,4037,-110,-50,262,1,7,11
8.50E+02,-6367,-3835,4047,126,-62,-9,1,7,11
8.39E+02,-6383,-3839,4058,-127,-58,-30,1,7,11
8.32E+02,-6370,-4098,4058,-111,-67,-44,1,7,11
8.25E+02,-6368,-3839,4057,-98,-66,-72,1,7,11
8.18E+02,-6376,-3822,4048,-82,-65,-93,1,7,11
8.08E+02,-6382,-3798,4038,-80,-67,-103,1,7,11
7.98E+02,-6355,-3807,4039,-104,-84,-110,1,7,11
7.90E+02,-6357,-3804,4040,-110,-94,111,1,7,11
7.85E+02,-6358,-3777,4035,-104,-112,85,1,7,11
7.80E+02,-6362,-3768,4023,-124,-121,65,1,7,11
7.73E+02,-6352,-3779,4027,96,-119,64,1,7,11
7.62E+02,-6360,-3804,4056,77,-101,76,1,7,11
7.48E+02,-6356,-3825,4066,91,-83,103,1,7,11
7.34E+02,-6361,-3829,4061,-121,-67,126,1,7,11
7.22E+02,-6352,-3802,4036,-76,-44,-114,1,7,11
7.14E+02,-6347,-3777,4024,-62,-14,-105,1,7,11
7.10E+02,-6329,-3771,4019,-70,259,-104,1,7,11
7.10E+02,-6347,-3767,4023,-75,279,-112,1,7,11
7.13E+02,-6372,-3763,4029,-76,283,-119,1,7,11
7.15E+02,-6382,-3747,4008,-76,277,-120,1,7,11
7.15E+02,-6384,-3739,4000,-96,278,-127,1,7,11
7.15E+02,-6386,-3758,4007,-124,277,109,1,7,11
7.14E+02,-6660,-3766,4020,-123,276,84,1,7,11
7.14E+02,-6666,-3764,4019,-113,263,63,1,7,11
7.16E+02,-6688,-3749,4015,-99,266,46,1,7,11
7.20E+02,-6714,-3735,4020,-91,268,52,1,7,11
7.26E+02,-6724,-3736,4045,-81,-10,77,1,7,11
7.36E+02,-6711,-3722,4030,-60,-48,105,1,7,11
7.49E+02,-6694,-3968,4016,-64,-76,123,1,7,11
7.63E+02,-6687,-3714,4014,-80,-90,-127,1,7,11
7.76E+02,-6687,-3962,4015,-90,-91,-116,1,7,11
7.87E+02,-6692,-3955,4019,-97,-89,-96,1,7,11
7.97E+02,-6665,-3958,4019,-101,-88,-75,1,7,11
8.08E+02,-6661,-3961,4014,-107,-56,-82,1,7,11
8.23E+02,-6664,-3726,4030,-114,-15,-91,1,7,11
8.41E+02,-6683,-3966,4021,-95,285,-103,1,7,11
8.59E+02,-6685,-3954,4010,-91,316,-107,1,7,11
8.76E+02,-6693,-3953,3994,-106,335,124,1,7,11
8.90E+02,-6705,-3936,3982,-114,348,85,1,7,11
8.98E+02,-6728,-3928,3984,118,349,50,1,7,11
9.02E+02,-6743,-3940,3998,91,344,28,1,7,11
9.00E+02,-6771,-3943,4009,81,327,15,1,7,11
8.93E+02,-6779,-3945,4013,79,287,12,1,7,11
8.82E+02,-6770,-3958,4003,80,-10,4,1,7,11
8.69E+02,-6747,-3951,3985,91,-50,-276,1,7,11
8.56E+02,-6739,-3951,3975,87,-75,-296,1,7,11
8.45E+02,-6727,-3942,4217,90,-92,-304,1,7,11
8.40E+02,-6726,-3939,3972,72,-96,-305,1,7,11
8.43E+02,-6724,-3953,3979,56,-100,-302,1,7,11
8.54E+02,-6710,-3728,3978,58,-106,-305,1,7,11
8.67E+02,-6695,-3721,3972,87,-123,-316,1,7,11
8.79E+02,-6704,-3719,4222,93,-115,-330,1,7,11
8.87E+02,-6724,-3961,3969,103,-116,-339,1,7,11
8.93E+02,-6727,-3965,3969,98,-125,-325,1,7,11
8.97E+02,-6730,-3967,3971,97,121,-305,1,7,11
9.02E+02,-6725,-3713,3976,91,114,-287,1,7,11
9.07E+02,-6723,-3719,3982,75,111,-277,1,7,11
9.08E+02,-6724,-3722,3986,63,99,-298,1,7,11
9.02E+02,-6740,-3964,3997,54,89,-320,1,7,11
8.88E+02,-6748,-3944,3992,36,77,-330,1,7,11
8.70E+02,-6741,-3957,4010,-258,54,-347,1,7,11
8.55E+02,-6767,-3951,4021,-268,50,-376,1,7,11
8.48E+02,-6769,-3966,4022,-284,16,-142,1,7,11
8.50E+02,-6775,-3967,4007,-293,-259,-189,1,7,11
8.54E+02,-6536,-3713,4014,-313,-274,-225,1,7,11
8.55E+02,-6540,-3726,4029,-340,-306,-254,1,7,11
8.51E+02,-6776,-3732,4034,-352,-350,-527,1,7,11
8.44E+02,-6758,-3738,4027,-363,-377,-524,1,7,11
8.39E+02,-6733,-3760,4039,-378,-134,-248,1,7,11
8.40E+02,-6702,-3787,4057,-365,-150,-207,1,7,11
8.45E+02,-6394,-3802,4073,-342,-183,-160,1,7,11
8.50E+02,-6330,-3800,4061,-320,-216,-129,1,7,11
8.51E+02,-6314,-3785,4064,-331,-233,-136,1,7,11
8.47E+02,-6330,-3772,4082,-354,-236,-147,1,7,11
8.42E+02,-6342,-3781,4355,-161,-237,-158,1,7,11
8.40E+02,-6352,-3812,4374,-206,-237,-167,1,7,11
8.42E+02,-6361,-3829,4385,-226,-521,-152,1,7,11
8.48E+02,-6329,-3838,4385,-233,-558,-132,1,7,11
8.56E+02,-6320,-4102,4384,-219,-568,-383,1,7,11
8.62E+02,-6510,-4112,4352,-212,-586,-380,1,7,11
8.67E+02,-6455,-4143,4083,-212,-563,-160,1,7,11
8.72E+02,-6440,-4151,4071,-206,-517,-212,1,7,11
8.79E+02,-6436,-4163,4070,-219,-216,-516,1,7,11
8.87E+02,-6434,-4189,4083,-251,-185,-572,1,7,11
8.96E+02,-6458,-4177,4074,-514,-162,-629,1,7,11
9.03E+02,-6467,-4177,4058,-536,-146,-393,1,7,11
9.07E+02,-6453,-4194,4053,-572,-375,-395,1,7,11
9.06E+02,-6433,-3983,4049,-600,-343,-391,1,7,11
9.01E+02,-6441,-4022,4058,-605,-297,-415,1,7,11
8.92E+02,-6486,-4043,4073,-574,2,-426,1,7,11
8.81E+02,-6510,-4031,4064,-529,19,-394,1,7,11
8.70E+02,-6500,-4048,4051,-253,9,-578,1,7,11
8.62E+02,-6485,-4065,4049,-225,5,-256,1,7,11
8.60E+02,-6478,-4354,4060,-195,10,-183,1,7,11
8.63E+02,-6481,-4089,4057,-130,28,-350,1,7,11
8.69E+02,-6491,-4069,4048,-324,50,34,1,7,11
8.74E+02,-6508,-4073,4055,-277,85,-55,1,7,11
8.75E+02,-6281,-4050,4072,37,104,138,1,7,11
8.73E+02,-6524,-4014,4046,86,79,609,1,7,11
8.71E+02,-6468,-3994,4005,105,44,820,1,7,11
8.71E+02,-6125,-4002,3975,73,25,727,1,7,11
8.72E+02,-6075,-4058,3996,-266,62,1027,1,7,11
8.72E+02,-6075,-4375,4030,-270,83,698,1,7,11
8.68E+02,-6082,-4377,4038,7,72,790,1,7,11
8.59E+02,-6093,-4381,4052,22,74,595,1,7,11
8.49E+02,-6132,-4059,4042,60,96,140,1,7,11
8.42E+02,-6413,-4037,4077,34,97,268,1,7,11
8.43E+02,-6448,-4030,4077,34,84,-90,1,7,11
8.51E+02,-6453,-4024,4393,54,59,82,1,7,11
8.61E+02,-6471,-3980,4404,85,11,38,1,7,11
8.70E+02,-6438,-4216,4384,103,-317,33,1,7,11
8.74E+02,-6440,-4219,4389,88,-324,28,1,7,11
8.75E+02,-6420,-4215,4394,68,-342,24,1,7,11
8.76E+02,-6404,-3971,4391,45,-311,22,1,7,11
8.80E+02,-6434,-4200,4382,42,10,22,1,7,11
8.85E+02,-6431,-4187,4367,28,53,42,1,7,11
8.87E+02,-6448,-4208,4376,0,102,55,1,7,11
8.85E+02,-6443,-4217,4373,-261,122,57,1,7,11
8.76E+02,-6440,-4220,4364,2,-125,25,1,7,11
8.63E+02,-6453,-4209,4373,-259,-128,-286,1,7,11
8.51E+02,-6490,-4185,4368,-270,115,-343,1,7,11
8.43E+02,-6515,-4185,4362,-318,58,-142,1,7,11
8.41E+02,-6493,-4219,4375,-364,-273,-186,1,7,11
8.42E+02,-6482,-4000,4408,-131,-318,-243,1,7,11
8.44E+02,-6459,-3997,4406,-349,-342,-539,1,7,11
8.48E+02,-6462,-3997,4398,-329,-330,-576,1,7,11
8.51E+02,-6435,-3994,4381,-321,-308,-599,1,7,11
8.53E+02,-6432,-4025,4398,-348,-262,-630,1,7,11
8.54E+02,-6410,-4040,4392,-355,11,-405,1,7,11
8.55E+02,-6135,-4056,4397,-367,48,-446,1,7,11
8.59E+02,-6129,-4053,4388,-374,88,-480,1,7,11
8.67E+02,-6140,-4059,4403,-137,-118,-476,1,7,11
8.77E+02,-6126,-4067,4403,-135,-96,-455,1,7,11
8.85E+02,-6068,-4092,4377,-147,-109,-412,1,7,11
8.84E+02,-6042,-4366,4355,-167,-101,-387,1,7,11
8.70E+02,-6051,-4395,4368,-177,-93,-612,1,7,11
8.49E+02,-6100,-4407,4382,-169,-105,-572,1,7,11
8.31E+02,-6140,-4409,4400,-145,108,-515,1,7,11
8.23E+02,-6417,-4377,4390,-373,49,-196,1,7,11
8.25E+02,-6409,-4361,4378,-368,-273,-382,1,7,11
8.30E+02,-6126,-4375,4370,-130,-330,-328,1,7,11
8.34E+02,-6111,-4384,4094,-142,-349,-311,1,7,11
8.33E+02,-6096,-4410,4093,-158,-359,-301,1,7,11
8.31E+02,-6076,-4444,4362,-167,-359,-306,1,7,11
8.31E+02,-6069,-4477,4373,-138,-351,-318,1,7,11
8.35E+02,-6076,-4476,4369,-339,-331,-315,1,7,11
8.40E+02,-6047,-4233,4366,-299,-326,-287,1,7,11
8.42E+02,-6047,-4239,4378,-268,-301,-286,1,7,11
8.35E+02,-6055,-4231,4389,29,-287,-293,1,7,11
8.24E+02,-6054,-4470,4378,54,-276,-311,1,7,11
8.14E+02,-6065,-4450,4380,65,-271,-320,1,7,11
8.12E+02,-6054,-4450,4387,58,-272,-305,1,7,11
8.19E+02,-6048,-4444,4386,65,-268,-288,1,7,11
8.32E+02,-6033,-4466,4411,63,-292,10,1,7,11
8.46E+02,-6017,-4479,4409,76,-295,0,1,7,11
8.56E+02,-6018,-4238,4432,76,-283,-280,1,7,11
8.64E+02,-6265,-4258,4448,64,-292,-309,1,7,11
8.71E+02,-6050,-4463,4448,96,-276,-368,1,7,11
8.79E+02,-6042,-4433,4435,68,-297,-345,1,7,11
8.88E+02,-6029,-4226,4457,35,-299,-291,1,7,11
8.93E+02,-6259,-4238,4458,46,-301,3,1,7,11
8.91E+02,-6225,-4244,4465,55,-298,24,1,7,11
8.80E+02,-6215,-4474,4463,61,-282,24,1,7,11
8.66E+02,-6251,-4461,4236,56,-262,77,1,7,11
8.53E+02,-6248,-4466,4236,56,-271,-81,1,7,11
8.50E+02,-6240,-4474,4244,87,-268,282,1,7,11
8.57E+02,-6217,-4463,4236,-115,-293,380,1,7,11
8.67E+02,-6147,-4240,4231,-111,-296,189,1,7,11
8.77E+02,-5881,-4473,4470,-84,27,152,1,7,11
8.82E+02,-5882,-4444,4437,-91,102,361,1,7,11
8.83E+02,-6167,-4442,4455,109,-65,311,1,7,11
8.82E+02,-6245,-4422,4235,95,-8,266,1,7,11
8.79E+02,-6022,-4412,4239,96,-28,260,1,7,11
8.76E+02,-6029,-4391,4226,109,-34,260,1,7,11
8.70E+02,-6057,-4370,4471,101,-30,256,1,7,11
8.61E+02,-6076,-4370,4472,70,-52,-5,1,7,11
8.48E+02,-6090,-4378,4479,51,-79,-33,1,7,11
8.34E+02,-6101,-4387,4232,45,-111,-84,1,7,11
8.24E+02,-6106,-4367,4479,49,103,119,1,7,11
8.21E+02,-6099,-4353,4467,29,57,85,1,7,11
8.23E+02,-6099,-4094,4470,0,31,62,1,7,11
8.28E+02,-6088,-4373,4238,-270,28,54,1,7,11
8.31E+02,-6075,-4392,4235,4,33,38,1,7,11
8.32E+02,-6067,-4409,4243,24,46,16,1,7,11
8.33E+02,-6055,-4398,4228,60,54,1,1,7,11
8.35E+02,-6032,-4407,4243,64,63,3,1,7,11
8.40E+02,-6037,-4405,4241,76,84,4,1,7,11
8.44E+02,-6044,-4390,4245,95,97,31,1,7,11
8.43E+02,-6033,-4385,4235,104,107,65,1,7,11
8.34E+02,-6025,-4392,4239,96,-126,91,1,7,11
8.19E+02,-6041,-4428,4254,81,-85,104,1,7,11
8.06E+02,-6091,-4432,4268,92,-28,99,1,7,11
8.01E+02,-6140,-4411,4277,115,266,127,1,7,11
8.05E+02,-6429,-4419,4319,123,280,-53,1,7,11
8.13E+02,-6431,-4446,4350,-80,258,274,1,7,11
8.19E+02,-6403,-4421,4318,273,-69,344,1,7,11
8.21E+02,-6070,-4377,4268,331,106,130,1,7,11
8.21E+02,-6029,-4074,4225,333,44,373,1,7,11
8.22E+02,-6244,-4054,4460,280,-263,325,1,7,11
8.25E+02,-6210,-4017,4429,-23,-280,-11,1,7,11
8.27E+02,-6188,-4006,4422,-111,-263,-91,1,7,11
8.25E+02,-6176,-4024,4432,79,72,64,1,7,11
8.15E+02,-6186,-4057,4450,24,-100,28,1,7,11
8.00E+02,-6212,-4072,4456,33,-13,2,1,7,11
7.85E+02,-6241,-4091,4460,50,312,-289,1,7,11
7.79E+02,-6033,-4073,4447,83,361,-330,1,7,11
7.80E+02,-6084,-4059,4441,104,382,-346,1,7,11
7.86E+02,-6107,-4044,4454,107,373,-333,1,7,11
7.92E+02,-6108,-4042,4463,107,343,-305,1,7,11
7.95E+02,-6128,-4041,4471,111,318,-285,1,7,11
7.98E+02,-6405,-4041,4228,123,288,16,1,7,11
8.02E+02,-6404,-4028,4479,-116,256,70,1,7,11
8.08E+02,-6132,-4031,4242,-116,-35,-121,1,7,11
8.14E+02,-6116,-4030,4242,-114,-64,-65,1,7,11
8.17E+02,-6120,-4014,4243,-118,-79,-19,1,7,11
8.17E+02,-6111,-4010,4251,121,-99,287,1,7,11
8.15E+02,-6121,-3997,4263,108,-96,320,1,7,11
8.14E+02,-6122,-3991,4268,94,-102,355,1,7,11
8.15E+02,-6126,-3993,4281,79,-107,365,1,7,11
8.19E+02,-6116,-3993,4278,68,-122,367,1,7,11
8.24E+02,-6110,-3996,4276,57,127,352,1,7,11
8.28E+02,-6078,-3984,4260,62,112,332,1,7,11
8.32E+02,-6078,-3983,4240,50,118,285,1,7,11
8.34E+02,-6105,-3978,4240,41,-127,-15,1,7,11
8.34E+02,-6106,-3972,4242,42,127,-35,1,7,11
8.33E+02,-6091,-3969,4235,36,127,-58,1,7,11
8.30E+02,-6093,-3977,4228,24,-116,-83,1,7,11
8.27E+02,-6098,-4000,4474,33,-88,-109,1,7,11
8.25E+02,-6121,-3992,4473,55,-52,123,1,7,11
8.22E+02,-6132,-3992,4473,79,-30,109,1,7,11
8.16E+02,-6417,-3974,4460,107,-9,94,1,7,11
8.06E+02,-6453,-4212,4465,117,262,91,1,7,11
7.93E+02,-6472,-4197,4463,122,256,87,1,7,11
7.82E+02,-6489,-4187,4469,121,-14,81,1,7,11
7.76E+02,-6484,-4184,4464,116,-38,63,1,7,11
7.79E+02,-6489,-4191,4472,111,-63,36,1,7,11
7.84E+02,-6464,-4185,4450,109,-86,7,1,7,11
7.89E+02,-6464,-4157,4448,100,-81,-288,1,7,11
7.92E+02,-6453,-4141,4440,81,-87,-311,1,7,11
7.94E+02,-6420,-4160,4432,37,-91,-311,1,7,11
7.98E+02,-6421,-4187,4444,-257,-83,-331,1,7,11
8.07E+02,-6428,-4194,4443,-262,-70,-342,1,7,11
8.16E+02,-6450,-4193,4452,-276,-53,-333,1,7,11
8.20E+02,-6450,-4208,4467,-285,-64,-290,1,7,11
8.17E+02,-6450,-3970,4465,-277,-93,3,1,7,11
8.09E+02,-6454,-3981,4466,0,-127,34,1,7,11
8.04E+02,-6443,-3988,4459,24,125,80,1,7,11
8.10E+02,-6418,-3982,4444,55,-125,126,1,7,11
8.26E+02,-6138,-3982,4435,66,-103,-106,1,7,11
8.41E+02,-6123,-3989,4435,72,-79,-103,1,7,11
8.46E+02,-6133,-3988,4429,80,-45,-123,1,7,11
8.37E+02,-6131,-3974,4417,89,-23,119,1,7,11
8.21E+02,-6408,-4223,4416,76,259,90,1,7,11
8.09E+02,-6437,-3981,4426,64,277,79,1,7,11
8.09E+02,-6458,-3987,4423,84,281,80,1,7,11
8.14E+02,-6457,-3986,4409,109,273,96,1,7,11
8.12E+02,-6446,-3976,4398,127,274,110,1,7,11
7.93E+02,-6468,-4222,4415,-114,272,125,1,7,11
7.63E+02,-6477,-4212,4414,-104,-6,-95,1,7,11
7.40E+02,-6463,-4197,4404,-95,-36,-56,1,7,11
7.38E+02,-6470,-4197,4428,-105,-44,-35,1,7,11
7.52E+02,-6475,-4194,4447,-101,-53,-20,1,7,11
7.64E+02,-6494,-4167,4449,-84,-68,-24,1,7,11
7.60E+02,-6505,-4136,4447,-67,-83,-35,1,7,11
7.40E+02,-6505,-4130,4443,-78,-86,-31,1,7,11
7.17E+02,-6487,-4143,4446,-96,-78,-39,1,7,11
7.04E+02,-6472,-4139,4446,-106,-61,-64,1,7,11
7.00E+02,-6481,-4121,4434,-100,-47,-110,1,7,11
6.97E+02,-6476,-3829,4427,-105,-49,99,1,7,11
6.93E+02,-6500,-3815,4419,102,-58,40,1,7,11
6.89E+02,-6521,-3822,4430,58,-67,28,1,7,11
6.93E+02,-6525,-3834,4438,23,-75,45,1,7,11
7.03E+02,-6513,-4109,4436,11,-87,61,1,7,11
7.12E+02,-6500,-4113,4429,21,-86,67,1,7,11
7.08E+02,-6483,-4103,4404,14,-90,69,1,7,11
6.94E+02,-6477,-4102,4383,-267,-74,53,1,7,11
6.83E+02,-6481,-4107,4385,-296,-56,34,1,7,11
6.90E+02,-6501,-4131,4394,-323,-40,26,1,7,11
7.15E+02,-6500,-4146,4400,-320,-33,33,1,7,11
7.44E+02,-6514,-4160,4409,-316,-12,37,1,7,11
7.66E+02,-6510,-4161,4406,-294,-7,42,1,7,11
7.81E+02,-6509,-4157,4400,-276,-2,36,1,7,11
7.95E+02,-6500,-4157,4393,-265,-10,35,1,7,11
8.14E+02,-6519,-4148,4392,4,-3,20,1,7,11
8.40E+02,-6287,-4135,4396,12,-12,28,1,7,11
8.66E+02,-6286,-4130,4397,16,-35,54,1,7,11
8.86E+02,-6274,-4138,4380,8,-48,88,1,7,11
8.94E+02,-6516,-4161,4361,4,-50,114,1,7,11
8.92E+02,-6499,-4180,4374,12,-48,112,1,7,11
8.85E+02,-6508,-4171,4363,35,-41,90,1,7,11
8.76E+02,-6511,-4169,4356,49,-37,74,1,7,11
8.68E+02,-6518,-4167,4355,60,-32,59,1,7,11
8.61E+02,-6528,-4171,4093,76,-26,56,1,7,11
8.58E+02,-6301,-4164,4354,102,-15,54,1,7,11
8.57E+02,-6307,-4157,4354,-128,-28,73,1,7,11
8.58E+02,-6292,-4120,4064,-100,-52,85,1,7,11
8.59E+02,-6291,-3836,4045,121,-57,81,1,7,11
8.57E+02,-6309,-4112,4064,56,-49,72,1,7,11
8.53E+02,-6342,-4144,4354,29,-41,68,1,7,11
8.45E+02,-6337,-4148,4357,48,-68,80,1,7,11
8.34E+02,-6333,-4140,4087,64,-77,82,1,7,11
8.20E+02,-6326,-4118,4083,85,-86,97,1,7,11
8.06E+02,-6322,-4098,4078,93,-93,104,1,7,11
7.95E+02,-6307,-4097,4083,83,-99,120,1,7,11
7.90E+02,-6293,-4115,4088,79,-89,-125,1,7,11
7.88E+02,-6281,-4119,4079,88,-79,124,1,7,11
7.89E+02,-6291,-4120,4082,92,-66,101,1,7,11
7.91E+02,-6306,-4120,4084,89,-62,77,1,7,11
7.93E+02,-6318,-4118,4090,89,-68,61,1,7,11
7.94E+02,-6329,-3837,4078,98,-83,43,1,7,11
7.96E+02,-6339,-3828,4078,82,-98,43,1,7,11
7.98E+02,-6346,-3833,4081,58,-106,47,1,7,11
8.01E+02,-6347,-3840,4093,44,-120,52,1,7,11
8.08E+02,-6343,-3836,4088,48,120,54,1,7,11
8.16E+02,-6321,-3823,4077,45,102,63,1,7,11
8.21E+02,-6320,-3825,4085,26,101,56,1,7,11
8.20E+02,-6312,-3840,4354,8,98,51,1,7,11
8.10E+02,-6305,-4097,4355,1,97,35,1,7,11
7.99E+02,-6316,-4099,4361,-262,105,27,1,7,11
7.92E+02,-6325,-4109,4374,-271,103,26,1,7,11
7.95E+02,-6339,-4118,4375,-275,95,16,1,7,11
8.03E+02,-6326,-4115,4371,-272,79,0,1,7,11
8.11E+02,-6330,-4129,4372,-284,83,-292,1,7,11
8.13E+02,-6322,-4126,4370,-265,83,-305,1,7,11
8.11E+02,-6314,-4120,4368,-258,90,-331,1,7,11
8.11E+02,-6328,-3837,4373,-265,89,-364,1,7,11
8.18E+02,-6328,-4102,4382,-302,69,-374,1,7,11
8.32E+02,-6332,-3836,4381,-328,58,-137,1,7,11
8.46E+02,-6332,-4115,4399,-371,39,-144,1,7,11
8.55E+02,-6333,-4118,4397,-381,24,-155,1,7,11
8.54E+02,-6328,-4124,4390,-134,2,-160,1,7,11
8.48E+02,-6305,-4128,4374,-148,-278,-154,1,7,11
8.45E+02,-6274,-4139,4375,-182,-298,-162,1,7,11
8.50E+02,-6516,-4144,4379,-200,-319,-167,1,7,11
8.64E+02,-6486,-4157,4369,-224,-349,-162,1,7,11
8.81E+02,-6472,-4171,4364,-239,-354,-150,1,7,11
8.98E+02,-6481,-4182,4371,-242,-349,-377,1,7,11
9.10E+02,-6494,-4193,4373,-233,-347,-336,1,7,11
9.19E+02,-6493,-4209,4385,-222,-351,-307,1,7,11
9.26E+02,-6476,-4189,4357,-196,-363,-313,1,7,11
9.31E+02,-6410,-4215,4078,-215,-380,-318,1,7,11
9.36E+02,-6401,-3990,4082,-234,-341,-353,1,7,11
9.37E+02,-6431,-4013,4372,-230,-314,-372,1,7,11
9.30E+02,-6447,-3980,4372,-210,-307,-369,1,7,11
9.14E+02,-6442,-4002,4389,-223,-291,-335,1,7,11
8.92E+02,-6441,-4009,4395,-218,10,-310,1,7,11
8.71E+02,-6439,-4007,4378,-212,54,-292,1,7,11
8.58E+02,-6452,-4017,4372,-230,105,-288,1,7,11
8.58E+02,-6467,-4012,4388,-227,-109,-271,1,7,11
8.64E+02,-6474,-4002,4366,-228,-87,36,1,7,11
8.72E+02,-6494,-3994,4374,-235,-73,92,1,7,11
8.75E+02,-6527,-3993,4393,-239,-78,-86,1,7,11
8.74E+02,-6312,-3990,4406,-191,-99,271,1,7,11
8.72E+02,-6329,-4172,4381,-379,121,143,1,7,11
8.72E+02,-6305,-4119,4092,-150,79,564,1,7,11
8.75E+02,-6496,-4109,4048,-232,67,450,1,7,11
8.78E+02,-6421,-4184,4018,-598,-110,476,1,7,11
8.75E+02,-6408,-4218,4023,-617,306,637,1,7,11
8.64E+02,-6436,-4204,4017,-629,198,548,1,7,11
8.48E+02,-6438,-3969,4014,-400,562,514,1,7,11
8.32E+02,-6457,-3981,4005,-407,389,229,1,7,11
8.23E+02,-6498,-3990,3975,-629,454,229,1,7,11
8.22E+02,-6525,-4039,3981,-634,486,214,1,7,11
8.25E+02,-6326,-4053,3991,-622,505,129,1,7,11
8.27E+02,-6383,-4012,3979,-611,502,318,1,7,11
8.25E+02,-6685,-3986,4218,-591,461,284,1,7,11
8.21E+02,-6693,-4190,4182,-631,401,300,1,7,11
8.20E+02,-6729,-4103,4137,-627,629,343,1,7,11
8.24E+02,-6720,-3831,4122,-446,563,209,1,7,11
8.30E+02,-6716,-4127,4106,-798,249,591,1,7,11
8.34E+02,-6731,-4146,3833,-825,223,472,1,7,11
8.33E+02,-6723,-4180,3797,-824,198,838,1,7,11
8.27E+02,-6667,-3972,3759,-828,135,665,1,7,11
8.21E+02,-6375,-3987,3964,-771,334,694,1,7,11
8.20E+02,-6367,-3987,3924,-467,300,644,1,7,11
8.26E+02,-6336,-4176,3840,-402,271,498,1,7,11
8.34E+02,-6312,-4138,3495,-627,275,622,1,7,11
8.40E+02,-6327,-4154,3459,-422,290,222,1,7,11
8.38E+02,-6370,-4155,3671,-450,302,344,1,7,11
8.32E+02,-6391,-4179,3630,-473,288,263,1,7,11
8.26E+02,-6696,-3987,3618,-486,305,-37,1,7,11
8.24E+02,-6745,-4020,3587,-445,324,-71,1,7,11
8.27E+02,-6537,-4027,3293,-395,328,-121,1,7,11
8.27E+02,-6577,-4002,3239,-605,334,43,1,7,11
8.22E+02,-6610,-4224,3451,-591,332,-260,1,7,11
8.10E+02,-6620,-3979,3451,-591,332,6,1,7,11
7.97E+02,-6613,-4022,3203,-568,309,54,1,7,11
7.90E+02,-6635,-4052,3235,-524,259,87,1,7,11
7.92E+02,-6635,-4069,3262,-185,-92,-117,1,7,11
8.00E+02,-6921,-4051,3289,-362,68,-81,1,7,11
8.07E+02,-6946,-4028,3312,-297,-291,-18,1,7,11
8.10E+02,-6947,-4041,3603,-259,-369,315,1,7,11
8.09E+02,-6973,-4027,3649,82,-142,368,1,7,11
8.09E+02,-6993,-3986,3706,-76,-153,163,1,7,11
8.13E+02,-6998,-4192,3493,273,-174,186,1,7,11
8.19E+02,-6994,-4131,3513,349,-202,183,1,7,11
8.24E+02,-6976,-3807,3527,130,-225,167,1,7,11
8.22E+02,-6949,-3753,3527,130,-245,133,1,7,11
8.16E+02,-6932,-3963,3556,339,-249,342,1,7,11
8.08E+02,-6926,-3935,3855,283,-246,298,1,7,11
8.04E+02,-6649,-3927,3874,-14,-514,263,1,7,11
8.08E+02,-6625,-3901,3873,-41,-256,-39,1,7,11
8.16E+02,-6609,-3892,3862,-61,-225,-65,1,7,11
8.23E+02,-6590,-3890,3872,-100,-181,-91,1,7,11
8.28E+02,-6569,-3912,3891,-123,-140,-97,1,7,11
8.29E+02,-6558,-3923,3911,-117,-352,-113,1,7,11
8.27E+02,-6541,-3925,3919,-91,-320,127,1,7,11
8.26E+02,-6534,-3913,3936,-73,-296,108,1,7,11
8.23E+02,-6550,-3884,3963,-38,-278,105,1,7,11
8.18E+02,-6575,-3859,3731,-12,-291,-118,1,7,11
8.10E+02,-6588,-3579,3737,264,-321,-45,1,7,11
7.99E+02,-6576,-3868,3761,-32,-367,299,1,7,11
7.88E+02,-6563,-3852,3773,-16,-148,348,1,7,11
7.78E+02,-6543,-3882,3801,-41,-163,135,1,7,11
7.71E+02,-6554,-3905,3814,-19,-137,128,1,7,11
7.68E+02,-6575,-3884,3813,258,-349,335,1,7,11
7.67E+02,-6592,-3856,3821,261,-316,281,1,7,11
7.67E+02,-6630,-3841,4102,-31,-287,-2,1,7,11
7.69E+02,-6653,-3841,4109,-34,-297,275,1,7,11
7.75E+02,-6652,-3577,4101,-21,-310,293,1,7,11
7.83E+02,-6619,-3847,3830,-24,-322,306,1,7,11
7.95E+02,-6594,-3866,3823,-31,-314,276,1,7,11
8.09E+02,-6596,-3864,3826,-21,-296,-18,1,7,11
8.25E+02,-6590,-3865,3837,-19,-275,-29,1,7,11
8.38E+02,-6585,-3863,4096,-1,27,-40,1,7,11
8.43E+02,-6567,-3867,4100,267,70,-61,1,7,11
8.34E+02,-6555,-3872,4101,282,124,-89,1,7,11
8.14E+02,-6536,-3864,3831,300,-99,-120,1,7,11
7.93E+02,-6532,-3850,3821,318,-51,116,1,7,11
7.82E+02,-6536,-3579,3813,329,-9,103,1,7,11
7.87E+02,-6541,-3560,3818,324,269,90,1,7,11
7.97E+02,-6580,-3551,3833,319,287,82,1,7,11
8.05E+02,-6604,-3529,3824,306,274,105,1,7,11
8.04E+02,-6624,-3530,3834,287,268,-115,1,7,11
7.99E+02,-6660,-3538,3837,261,257,-81,1,7,11
7.97E+02,-6628,-3843,4106,-20,-31,-74,1,7,11
8.04E+02,-6922,-3542,4112,-13,-47,115,1,7,11
8.15E+02,-6951,-3498,4118,-4,-71,104,1,7,11
8.24E+02,-6946,-3484,4112,-27,-123,-126,1,7,11
8.21E+02,-6949,-3470,4140,-64,108,-88,1,7,11
8.09E+02,-6972,-3701,4154,-95,52,-38,1,7,11
7.94E+02,-6923,-3708,4149,127,-282,271,1,7,11
7.84E+02,-6916,-3709,4146,89,-312,-11,1,7,11
7.81E+02,-6929,-3703,4153,65,-307,-29,1,7,11
7.82E+02,-6917,-3688,4152,42,-326,-59,1,7,11
7.84E+02,-6918,-3691,4160,6,-309,-113,1,7,11
7.84E+02,-6938,-3695,4147,-275,-299,96,1,7,11
7.82E+02,-6914,-3698,4141,-292,-288,58,1,7,11
7.79E+02,-6649,-3471,4164,-297,6,21,1,7,11
7.75E+02,-6634,-3499,4166,-292,53,-306,1,7,11
7.70E+02,-6620,-3465,4140,11,96,-262,1,7,11
7.63E+02,-6612,-3466,4145,-263,102,-545,1,7,11
7.53E+02,-6622,-3481,4159,-282,104,-567,1,7,11
7.45E+02,-6645,-3464,4167,-275,67,-540,1,7,11
7.43E+02,-6643,-3466,4177,-269,15,-223,1,7,11
7.48E+02,-6648,-3462,4181,6,-281,-154,1,7,11
7.58E+02,-6616,-3468,4182,17,-325,-330,1,7,11
7.69E+02,-6612,-3468,4201,21,-353,-263,1,7,11
7.79E+02,-6603,-3482,3972,5,-381,50,1,7,11
7.88E+02,-6580,-3492,3996,-262,-174,107,1,7,11
7.97E+02,-6573,-3485,4002,-280,-227,-101,1,7,11
8.07E+02,-6550,-3705,4013,-305,-544,-54,1,7,11
8.17E+02,-6782,-3708,4048,-361,-578,277,1,7,11
8.28E+02,-6766,-3460,4069,-156,-585,354,1,7,11
8.39E+02,-6758,-3459,4072,-192,-593,163,1,7,11
8.47E+02,-6745,-3705,4074,-219,-597,213,1,7,11
8.51E+02,-6752,-3704,4089,-238,-585,244,1,7,11
8.49E+02,-6766,-3699,4360,-256,-566,531,1,7,11
8.39E+02,-6771,-3693,4364,-523,-554,560,1,7,11
8.28E+02,-6770,-3681,4369,-527,-532,584,1,7,11
8.20E+02,-6530,-3667,4359,-536,-243,607,1,7,11
8.20E+02,-6547,-3652,4087,-558,-203,612,1,7,11
8.26E+02,-6574,-3631,4085,-590,-166,621,1,7,11
8.33E+02,-6588,-3625,4078,-631,-142,386,1,7,11
8.38E+02,-6589,-3613,4079,-409,-132,402,1,7,11
8.39E+02,-6593,-3619,4077,-410,-375,456,1,7,11
8.34E+02,-6583,-3628,4091,-422,-326,784,1,7,11
8.25E+02,-6636,-3618,4093,-416,2,803,1,7,11
8.13E+02,-6652,-3593,4040,-631,23,782,1,7,11
7.99E+02,-6631,-3587,3999,-617,69,481,1,7,11
7.88E+02,-6913,-3273,4209,-386,-97,404,1,7,11
7.79E+02,-6916,-3260,4192,-424,-39,603,1,7,11
7.72E+02,-6647,-3288,4178,-489,279,586,1,7,11
7.63E+02,-6943,-3280,4179,-790,349,558,1,7,11
7.50E+02,-6972,-3311,4164,-819,382,583,1,7,11
7.36E+02,-7006,-3222,4141,-844,157,588,1,7,11
7.21E+02,-6803,-3205,4136,-870,157,616,1,7,11
7.09E+02,-7037,-3448,4121,-664,133,450,1,7,11
7.00E+02,-7028,-3452,4112,-716,354,502,1,7,11
6.93E+02,-6988,-3228,4097,-742,303,794,1,7,11
6.89E+02,-6988,-3248,4096,-746,264,775,1,7,11
6.88E+02,-7005,-3264,3837,-726,-47,501,1,7,11
6.90E+02,-7011,-3286,3822,-701,-96,479,1,7,11
6.94E+02,-7024,-3306,3836,-658,127,451,1,7,11
7.01E+02,-7019,-3306,4111,-827,88,412,1,7,11
7.09E+02,-7027,-3285,4103,-455,52,612,1,7,11
7.18E+02,-7033,-3255,3823,-589,26,572,1,7,11
7.26E+02,-7035,-3234,3799,-230,7,538,1,7,11
7.32E+02,-7020,-3230,3790,-154,21,238,1,7,11
7.43E+02,-7036,-3231,3796,-347,69,172,1,7,11
7.64E+02,-6804,-3207,3802,-266,121,371,1,7,11
8.01E+02,-6817,-3440,3789,71,-85,322,1,7,11
8.48E+02,-6833,-3411,3760,-127,-24,279,1,7,11
8.92E+02,-6840,-3375,3967,-94,297,-8,1,7,11
9.21E+02,-6864,-3363,3932,-100,132,-36,1,7,11
9.27E+02,-6900,-3349,3915,-106,221,-75,1,7,11
9.20E+02,-7200,-3329,3890,-116,562,-120,1,7,11
9.09E+02,-7239,-3340,3882,-112,388,72,1,7,11
9.05E+02,-7046,-3337,3852,-63,484,-307,1,7,11
9.10E+02,-7114,-3038,3554,-3,815,-183,1,7,11
9.19E+02,-7168,-3027,3543,-13,858,-232,1,7,11
9.25E+02,-7442,-3036,3543,-41,875,-249,1,7,11
9.24E+02,-7427,-3072,3529,-69,806,-250,1,7,11
9.17E+02,-7164,-3364,3528,-70,478,-518,1,7,11
9.08E+02,-7167,-3373,3524,-42,626,-529,1,7,11
9.01E+02,-7118,-3386,3493,-37,226,-532,1,7,11
8.99E+02,-7048,-3398,3497,-70,354,-537,1,7,11
9.00E+02,-7214,-3442,3517,118,-24,-539,1,7,11
9.02E+02,-6874,-3218,3542,66,-125,-558,1,7,11
9.06E+02,-6830,-3251,3562,34,50,-561,1,7,11
9.08E+02,-7035,-3281,3573,27,-268,-525,1,7,11
9.08E+02,-7008,-3295,3840,36,-285,-205,1,7,11
9.06E+02,-7003,-3585,3846,41,-276,-371,1,7,11
9.01E+02,-7017,-3603,3843,63,-258,-284,1,7,11
8.93E+02,-7021,-3596,3573,77,21,48,1,7,11
8.82E+02,-7037,-3295,3544,99,52,94,1,7,11
8.69E+02,-6785,-3289,3545,94,77,-116,1,7,11
8.56E+02,-6787,-3285,3553,83,110,-86,1,7,11
8.44E+02,-6790,-3289,3556,96,-125,-94,1,7,11
8.35E+02,-6800,-3296,3562,-123,-116,-122,1,7,11
8.30E+02,-6817,-3292,3558,-50,-95,81,1,7,11
8.30E+02,-6843,-3271,3571,292,-75,25,1,7,11
8.33E+02,-6883,-3297,3860,372,-60,-277,1,7,11
8.40E+02,-7217,-3293,3904,195,-46,-283,1,7,11
8.47E+02,-7268,-3273,3934,582,-53,-234,1,7,11
8.52E+02,-7245,-3455,3908,497,-73,91,1,7,11
8.52E+02,-7253,-3384,3936,645,-87,-118,1,7,11
8.47E+02,-7274,-3030,3932,1035,-69,-65,1,7,11
8.40E+02,-7277,-2967,3941,898,-89,-22,1,7,11
8.32E+02,-7047,-3190,3950,982,-59,274,1,7,11
8.28E+02,-7058,-3175,3739,1287,-12,322,1,7,11
8.25E+02,-7066,-2959,3809,1316,281,337,1,7,11
8.24E+02,-7099,-2955,4096,1390,298,312,1,7,11
8.24E+02,-7107,-3185,4101,1200,284,309,1,7,11
8.23E+02,-7090,-3161,4109,1223,-8,306,1,7,11
8.22E+02,-7261,-3149,4118,1203,-62,307,1,7,11
8.22E+02,-7186,-3083,4108,1191,-103,296,1,7,11
8.21E+02,-6847,-2768,3829,1180,-120,296,1,7,11
8.19E+02,-7021,-2735,3816,1166,-112,-1,1,7,11
8.16E+02,-6939,-2701,3805,1373,-83,-60,1,7,11
8.11E+02,-6640,-2692,3813,1291,-44,-97,1,7,11
8.06E+02,-6613,-2733,4096,942,263,118,1,7,11
8.02E+02,-6655,-2771,4138,1126,338,74,1,7,11
8.01E+02,-6962,-2795,4175,1069,147,86,1,7,11
8.04E+02,-7025,-2806,4207,1029,221,121,1,7,11
8.13E+02,-6826,-2806,3971,746,545,-86,1,7,11
8.27E+02,-6886,-2799,3988,731,603,-33,1,7,11
8.45E+02,-7200,-2775,4001,716,391,280,1,7,11
8.62E+02,-7232,-2753,3990,698,401,321,1,7,11
8.74E+02,-7251,-2719,4214,666,390,340,1,7,11
8.79E+02,-7258,-2942,4203,863,621,344,1,7,11
8.79E+02,-7274,-2916,4191,802,580,346,1,7,11
8.78E+02,-7258,-2882,4155,489,512,355,1,7,11
8.77E+02,-7227,-2854,4123,421,180,381,1,7,11
8.74E+02,-7203,-2824,4099,606,357,178,1,7,11
8.65E+02,-7179,-2548,3839,530,273,523,1,7,11
8.47E+02,-6899,-2538,4096,218,-34,601,1,7,11
8.20E+02,-6908,-2537,3824,184,-56,422,1,7,11
7.93E+02,-6891,-2532,3800,195,-76,775,1,7,11
7.73E+02,-6910,-2550,3816,204,-46,851,1,7,11
7.66E+02,-7192,-2557,3814,560,287,684,1,7,11
7.67E+02,-7219,-2542,3801,419,353,717,1,7,11
7.67E+02,-7256,-2528,3802,807,197,703,1,7,11
7.64E+02,-7054,-2450,3792,704,562,875,1,7,11
7.61E+02,-7160,-2302,3778,1085,414,789,1,7,11
7.63E+02,-7525,-2206,3783,1108,487,807,1,7,11
7.73E+02,-7374,-2336,3776,1133,510,854,1,7,11
7.87E+02,-7681,-1976,3756,1111,473,676,1,7,11
7.98E+02,-7737,-2139,3742,1080,412,1031,1,7,11
8.02E+02,-7750,-2096,3748,741,552,1150,1,7,11
8.02E+02,-7781,-2055,3772,675,189,988,1,7,11
8.05E+02,-7577,-1716,3797,886,319,1321,1,7,11
8.15E+02,-7593,-1910,3822,835,-83,1385,1,7,11
8.31E+02,-7616,-1840,3837,771,57,1156,1,7,11
8.49E+02,-7609,-1802,4119,441,-311,1406,1,7,11
8.62E+02,-7599,-1503,4139,392,-140,1350,1,7,11
8.68E+02,-7571,-1465,4158,606,-202,1003,1,7,11
8.71E+02,-7787,-1436,4174,558,-235,1148,1,7,11
8.75E+02,-7760,-1415,4200,523,-243,1027,1,7,11
8.85E+02,-7725,-1656,4219,253,-238,649,1,7,11
8.98E+02,-7688,-1651,4001,239,-228,782,1,7,11
9.08E+02,-7399,-1655,4025,230,-206,401,1,7,11
9.09E+02,-7369,-1647,4042,233,-175,534,1,7,11
8.97E+02,-7361,-1630,4054,234,-136,161,1,7,11
8.78E+02,-7359,-1608,4075,230,-350,317,1,7,11
8.62E+02,-7360,-1604,4087,217,-303,-7,1,7,11
8.54E+02,-7371,-1604,4089,193,-268,-64,1,7,11
8.55E+02,-7364,-1609,4083,155,4,-108,1,7,11
8.61E+02,-7354,-1622,4074,365,28,91,1,7,11
8.65E+02,-7345,-1643,4094,320,55,29,1,7,11
8.65E+02,-7355,-1658,4360,296,70,-278,1,7,11
8.62E+02,-7358,-1411,4377,291,66,-304,1,7,11
8.59E+02,-7369,-1659,4378,324,52,-302,1,7,11
8.57E+02,-7347,-1652,4356,354,24,-281,1,7,11
8.56E+02,-7341,-1640,4370,367,11,-283,1,7,11
8.53E+02,-7344,-1606,4369,378,-263,-298,1,7,11
8.44E+02,-7361,-1550,4357,370,-306,-317,1,7,11
8.32E+02,-7378,-1253,4357,323,-360,-312,1,7,11
8.19E+02,-7682,-1196,4380,-1,-135,-280,1,7,11
8.11E+02,-7690,-1207,4414,-127,-220,49,1,7,11
8.12E+02,-7740,-1181,4440,38,-536,91,1,7,11
8.17E+02,-7713,-1175,4465,-322,-614,-94,1,7,11
8.24E+02,-7690,-1170,4478,-190,-419,-63,1,7,11
8.28E+02,-7379,-1184,4235,-575,-487,-47,1,7,11
8.30E+02,-7318,-1183,4475,-439,-803,-87,1,7,11
8.32E+02,-7494,-1214,4471,-838,-841,115,1,7,11
8.37E+02,-7434,-1234,4465,-703,-832,18,1,7,11
8.43E+02,-7122,-1252,4466,-1069,-806,-321,1,7,11
8.47E+02,-7062,-1566,4232,-925,-501,-353,1,7,11
8.44E+02,-7292,-1614,4246,-982,-430,-129,1,7,11
8.34E+02,-7296,-1661,4257,-1018,-613,-134,1,7,11
8.20E+02,-7287,-1437,4225,-1003,-520,-384,1,7,11
8.09E+02,-7284,-1470,4459,-1021,-159,-373,1,7,11
8.06E+02,-7045,-1496,4425,-1322,-297,-351,1,7,11
8.10E+02,-7044,-1503,4401,-1388,84,-326,1,7,11
8.16E+02,-7048,-1515,4422,-1235,-38,-310,1,7,11
8.23E+02,-7083,-1817,4241,-1620,358,-290,1,7,11
8.28E+02,-7114,-1863,4306,-1461,201,12,1,7,11
8.32E+02,-7134,-1678,4621,-1794,516,46,1,7,11
8.35E+02,-7140,-1773,4627,-1830,530,70,1,7,11
8.36E+02,-7129,-2060,4290,-1481,253,49,1,7,11
8.36E+02,-7103,-2071,4435,-1417,248,-264,1,7,11
8.33E+02,-7096,-2071,4085,-1655,527,-341,1,7,11
8.27E+02,-7122,-2087,4023,-1417,555,-152,1,7,11
8.20E+02,-7153,-2092,4193,-1428,582,-196,1,7,11
8.15E+02,-7437,-2106,4144,-1444,606,-205,1,7,11
8.14E+02,-7459,-2145,4122,-1468,629,-187,1,7,11
8.17E+02,-7514,-1935,4117,-1456,393,-169,1,7,11
8.21E+02,-7308,-1974,4107,-1648,387,-131,1,7,11
8.25E+02,-7338,-2006,3837,-1553,613,-341,1,7,11
8.27E+02,-7363,-2039,3819,-1203,585,-304,1,7,11
8.29E+02,-7395,-2316,3806,-1356,559,-280,1,7,11
8.34E+02,-7420,-2329,3794,-994,519,-264,1,7,11
8.42E+02,-7691,-2340,3770,-1150,216,-264,1,7,11
8.50E+02,-7697,-2354,3764,-1067,171,-270,1,7,11
8.55E+02,-7681,-2377,3745,-718,376,-298,1,7,11
8.52E+02,-7409,-2392,3734,-867,338,-381,1,7,11
8.43E+02,-7378,-2351,3947,-505,307,-513,1,7,11
8.33E+02,-7361,-2319,3916,-463,290,-396,1,7,11
8.25E+02,-7333,-2315,3910,-479,267,-470,1,7,11
8.22E+02,-7549,-2350,3933,-487,-3,-505,1,7,11
8.21E+02,-7493,-2394,3926,-485,-44,-770,1,7,11
8.22E+02,-7499,-2415,3946,-447,-28,-791,1,7,11
8.21E+02,-7521,-2392,3939,-393,-31,-779,1,7,11
8.21E+02,-7519,-2384,3920,-394,-22,-494,1,7,11
8.22E+02,-7521,-2393,3913,-429,264,-452,1,7,11
8.24E+02,-7513,-2430,3906,-475,298,-414,1,7,11
8.28E+02,-7503,-2204,3879,-510,338,-392,1,7,11
8.29E+02,-7495,-2235,3857,-816,380,-637,1,7,11
8.25E+02,-7485,-2284,3555,-880,197,-624,1,7,11
8.16E+02,-7515,-2593,3545,-679,246,-619,1,7,11
8.06E+02,-7544,-2634,3550,-712,532,-619,1,7,11
7.99E+02,-7315,-2683,3561,-728,542,-625,1,7,11
7.96E+02,-7322,-2447,3540,-710,529,-390,1,7,11
7.97E+02,-7338,-2475,3533,-709,538,-421,1,7,11
7.99E+02,-7408,-2545,3847,-705,579,-453,1,7,11
8.01E+02,-7749,-2886,3917,-886,608,-475,1,7,11
8.02E+02,-7589,-2732,3731,-724,630,-495,1,7,11
8.02E+02,-7620,-2791,3724,-475,629,-802,1,7,11
8.03E+02,-7605,-2813,3941,-221,629,-661,1,7,11
8.04E+02,-7791,-2750,3565,34,388,-1109,1,7,11
8.08E+02,-7759,-2919,3699,157,444,-1375,1,7,11
8.13E+02,-7737,-2843,3325,181,478,-1648,1,7,11
8.19E+02,-7690,-2527,3223,369,470,-1895,1,7,11
8.22E+02,-7394,-2492,3404,-26,416,-2107,1,7,11
8.20E+02,-7340,-2545,3352,40,579,-2012,1,7,11
8.13E+02,-7536,-2884,3016,-369,206,-2386,1,7,11
8.04E+02,-7472,-2722,3191,-529,325,-2206,1,7,11
7.99E+02,-7166,-3122,3175,-440,-68,-2216,1,7,11
8.02E+02,-7113,-3022,3138,-806,15,-2403,1,7,11
8.09E+02,-7293,-3456,3112,-892,-151,-2027,1,7,11
8.13E+02,-7264,-3624,3140,-673,-530,-2154,1,7,11
8.12E+02,-7222,-3542,3175,-657,-427,-1766,1,7,11
8.07E+02,-6891,-3932,3182,-805,-833,-1916,1,7,11
8.04E+02,-6852,-3827,2964,-422,-663,-1844,1,7,11
8.09E+02,-6867,-4129,3013,-202,-691,-1533,1,7,11
8.19E+02,-6860,-4152,3343,-263,-710,-1421,1,7,11
8.28E+02,-6839,-4181,3394,-73,-707,-1556,1,7,11
8.28E+02,-6797,-4164,3415,129,-683,-1183,1,7,11
8.18E+02,-6992,-4128,3450,208,-896,-1352,1,7,11
8.05E+02,-6972,-4117,3282,541,-829,-1290,1,7,11
7.95E+02,-6949,-3831,3610,606,-787,-966,1,7,11
7.93E+02,-6650,-3822,3647,394,-777,-1151,1,7,11
7.96E+02,-6586,-3814,3667,409,-502,-1082,1,7,11
8.02E+02,-6759,-3823,3675,636,-483,-1047,1,7,11
8.06E+02,-6696,-3770,3668,627,-439,-1030,1,7,11
8.08E+02,-6663,-3726,3640,591,-639,-737,1,7,11
8.09E+02,-6367,-3750,3623,504,-585,-688,1,7,11
8.09E+02,-6349,-3820,3636,179,-516,-649,1,7,11
8.07E+02,-6359,-4151,3673,156,-168,-864,1,7,11
8.05E+02,-6659,-4198,3459,172,-336,-827,1,7,11
8.04E+02,-6683,-4192,3468,253,-273,-771,1,7,11
8.04E+02,-6711,-4185,3490,592,25,-454,1,7,11
8.03E+02,-6723,-4192,3533,384,33,-397,1,7,11
8.01E+02,-6747,-4155,3567,445,23,-601,1,7,11
7.99E+02,-6769,-4103,3854,459,-278,-549,1,7,11
7.94E+02,-6553,-3794,3902,423,-342,-243,1,7,11
7.87E+02,-6598,-3728,3952,618,-170,-174,1,7,11
7.78E+02,-6629,-3718,3791,507,-517,-318,1,7,11
7.66E+02,-6624,-3744,4144,144,-609,67,1,7,11
7.52E+02,-6605,-3730,4202,340,-428,-81,1,7,11
7.36E+02,-6550,-3714,3970,307,-501,-2,1,7,11
7.21E+02,-6750,-3934,4213,-64,-780,289,1,7,11
7.10E+02,-6714,-3894,4195,61,-509,300,1,7,11
7.04E+02,-6681,-3901,4219,-358,-462,304,1,7,11
7.03E+02,-6684,-3942,4023,-231,-399,297,1,7,11
7.07E+02,-6662,-3728,4048,-533,-606,294,1,7,11
7.15E+02,-6351,-3716,4005,-520,-554,274,1,7,11
7.26E+02,-6313,-3718,3971,-523,-216,-29,1,7,11
7.41E+02,-6303,-3723,4214,-526,-175,-96,1,7,11
7.58E+02,-6318,-3736,4189,-533,-357,91,1,7,11
7.75E+02,-6324,-3728,4136,-251,-303,18,1,7,11
7.89E+02,-6341,-3735,4107,-239,-261,-298,1,7,11
7.99E+02,-6359,-3764,4111,-233,27,-346,1,7,11
8.04E+02,-6397,-3789,4117,-206,55,-132,1,7,11
8.01E+02,-6691,-3809,4118,-157,58,-152,1,7,11
7.91E+02,-6730,-3807,4127,-333,66,-149,1,7,11
7.81E+02,-6752,-3808,4146,47,53,-375,1,7,11
7.77E+02,-6758,-3807,4150,-119,38,-341,1,7,11
7.84E+02,-6757,-3795,4148,-38,22,-304,1,7,11
7.98E+02,-6735,-3780,4141,272,0,-269,1,7,11
8.11E+02,-6717,-3752,4151,306,-270,-259,1,7,11
8.18E+02,-6680,-3755,4167,308,-290,4,1,7,11
8.18E+02,-6667,-3771,4187,312,-297,-268,1,7,11
8.12E+02,-6660,-3789,4213,334,-299,-287,1,7,11
8.03E+02,-6378,-3808,4219,364,-303,-304,1,7,11
7.92E+02,-6346,-3810,3974,131,-303,-343,1,7,11
7.81E+02,-6335,-3810,3990,141,-286,-132,1,7,11
7.71E+02,-6337,-3794,3993,148,3,-166,1,7,11
7.63E+02,-6363,-3786,4019,377,44,-167,1,7,11
7.57E+02,-6379,-3816,4071,346,76,-143,1,7,11
7.54E+02,-6376,-3839,4095,344,86,-378,1,7,11
7.51E+02,-6360,-4115,4355,349,90,-373,1,7,11
7.46E+02,-6335,-4107,4086,350,96,-138,1,7,11
7.37E+02,-6319,-4105,4086,317,108,-174,1,7,11
7.24E+02,-6314,-4099,4081,274,119,-215,1,7,11
7.10E+02,-6328,-3833,4077,-29,-121,-244,1,7,11
6.98E+02,-6334,-3825,4089,-84,-118,-256,1,7,11
6.87E+02,-6326,-4100,4095,105,120,-513,1,7,11
6.73E+02,-6321,-4135,4361,60,104,-521,1,7,11
6.55E+02,-6315,-4158,4357,47,93,-536,1,7,11
6.38E+02,-6296,-4164,4089,33,79,-547,1,7,11
6.31E+02,-6281,-4182,4352,11,75,-568,1,7,11
6.33E+02,-6290,-4203,4373,8,70,-579,1,7,11
6.36E+02,-6527,-4210,4364,40,48,-568,1,7,11
6.33E+02,-6512,-4209,4085,75,45,-559,1,7,11
6.28E+02,-6498,-4196,4070,101,56,-541,1,7,11
6.29E+02,-6474,-4193,4069,115,68,-523,1,7,11
6.38E+02,-6478,-4184,4076,125,89,-528,1,7,11
6.48E+02,-6475,-4177,4083,-119,105,-518,1,7,11
6.54E+02,-6476,-4182,4077,-110,116,-231,1,7,11
6.60E+02,-6471,-4187,4082,-93,-120,-181,1,7,11
6.75E+02,-6479,-4183,4356,-71,-89,-141,1,7,11
7.04E+02,-6504,-4189,4383,-55,-61,-354,1,7,11
7.40E+02,-6496,-4201,4384,-27,-57,-294,1,7,11
7.72E+02,-6485,-4204,4383,259,-49,8,1,7,11
7.94E+02,-6483,-4178,4389,287,-48,29,1,7,11
8.06E+02,-6473,-4158,4392,289,-55,44,1,7,11
8.10E+02,-6485,-4143,4391,288,-61,33,1,7,11
8.07E+02,-6506,-4109,4375,272,-52,17,1,7,11
8.00E+02,-6516,-3831,4371,-21,-48,2,1,7,11
7.89E+02,-6274,-3816,4368,-75,-44,-272,1,7,11
7.75E+02,-6519,-4107,4377,108,-60,-283,1,7,11
7.58E+02,-6518,-4149,4374,61,-69,-320,1,7,11
7.43E+02,-6285,-4171,4381,36,-69,-367,1,7,11
7.33E+02,-6304,-4165,4375,32,-71,-143,1,7,11
7.29E+02,-6340,-4174,4390,17,-66,-148,1,7,11
7.25E+02,-6373,-4178,4401,27,-74,-133,1,7,11
7.14E+02,-6366,-4176,4391,44,-99,-343,1,7,11
6.95E+02,-6304,-4187,4361,34,120,-303,1,7,11
6.78E+02,-6282,-4193,4355,6,115,-303,1,7,11
6.72E+02,-6518,-4216,4354,-282,105,-322,1,7,11
6.77E+02,-6491,-3969,4092,-302,86,-355,1,7,11
6.86E+02,-6461,-4006,4086,-319,81,-382,1,7,11
6.92E+02,-6448,-4019,4072,-302,99,-149,1,7,11
6.93E+02,-6428,-4037,4059,-300,105,-155,1,7,11
6.90E+02,-6402,-4058,4051,-296,103,-176,1,7,11
6.82E+02,-6142,-4046,4033,-278,112,-199,1,7,11
6.74E+02,-6102,-4050,4017,-294,87,-205,1,7,11
6.68E+02,-6110,-4041,4011,-306,89,-240,1,7,11
6.65E+02,-6419,-4025,4021,-311,107,-235,1,7,11
6.64E+02,-6475,-4010,4015,-301,116,-179,1,7,11
6.64E+02,-6488,-4016,4028,-306,99,-319,1,7,11
6.63E+02,-6477,-4038,4041,-289,90,68,1,7,11
6.61E+02,-6479,-4061,4071,-261,104,-66,1,7,11
6.57E+02,-6474,-4074,4084,44,121,298,1,7,11
6.51E+02,-6440,-4095,4080,93,123,375,1,7,11
6.43E+02,-6443,-4064,4064,-104,-111,373,1,7,11
6.36E+02,-6456,-4016,4049,-74,-94,362,1,7,11
6.33E+02,-6451,-4016,4053,-86,-87,340,1,7,11
6.38E+02,-6469,-4005,4053,-88,-68,291,1,7,11
6.42E+02,-6497,-3993,4063,-81,-36,-16,1,7,11
6.39E+02,-6277,-3976,4082,-75,-7,-51,1,7,11
6.26E+02,-6528,-4218,4092,-64,-11,-59,1,7,11
6.16E+02,-6278,-4202,4085,-69,-2,-83,1,7,11
6.18E+02,-6289,-4188,4066,-86,257,-105,1,7,11
6.26E+02,-6522,-4174,4046,-118,261,-128,1,7,11
6.29E+02,-6505,-4192,4046,92,-10,95,1,7,11
6.23E+02,-6507,-4181,4043,88,-16,58,1,7,11
6.13E+02,-6518,-4183,4031,75,-6,43,1,7,11
6.04E+02,-6523,-4201,4035,72,262,36,1,7,11
6.00E+02,-6279,-4195,4041,90,274,31,1,7,11
6.04E+02,-6287,-4201,4030,93,267,49,1,7,11
6.11E+02,-6307,-4206,4022,103,260,68,1,7,11
6.12E+02,-6305,-4200,4006,109,-19,95,1,7,11
6.03E+02,-6304,-4202,4004,96,-40,109,1,7,11
5.97E+02,-6298,-4207,4005,87,-65,116,1,7,11
6.07E+02,-6281,-4208,4000,93,-90,123,1,7,11
6.29E+02,-6281,-4202,4002,100,-97,126,1,7,11
6.54E+02,-6288,-4211,4022,101,-100,-120,1,7,11
6.73E+02,-6287,-4200,4019,121,-116,-102,1,7,11
6.89E+02,-6283,-4210,4022,125,-119,-81,1,7,11
7.05E+02,-6528,-4216,4026,-114,-113,-65,1,7,11
7.23E+02,-6277,-4201,4041,-97,-101,-68,1,7,11
7.40E+02,-6289,-4191,4051,-87,-95,-79,1,7,11
7.52E+02,-6291,-4189,4061,-70,-91,-85,1,7,11
7.57E+02,-6511,-4177,4036,-44,-92,-93,1,7,11
7.60E+02,-6504,-4148,4020,-36,-72,-127,1,7,11
7.64E+02,-6512,-4120,4018,-51,-55,98,1,7,11
7.69E+02,-6290,-4129,4051,-98,-34,77,1,7,11
7.71E+02,-6332,-4145,4075,-127,-40,77,1,7,11
7.66E+02,-6343,-4152,4075,-127,-65,88,1,7,11
7.53E+02,-6334,-4157,4070,-127,-86,99,1,7,11
7.37E+02,-6341,-4142,4071,-119,-81,99,1,7,11
7.26E+02,-6344,-4129,4066,-109,-83,113,1,7,11
7.21E+02,-6321,-4115,4052,-107,-94,125,1,7,11
7.13E+02,-6299,-4107,4044,-121,-98,-128,1,7,11
6.95E+02,-6289,-4116,4048,116,-86,114,1,7,11
6.69E+02,-6281,-4125,4043,117,-66,87,1,7,11
6.49E+02,-6298,-4120,4042,-128,-33,59,1,7,11
6.47E+02,-6319,-4113,4041,-125,-8,41,1,7,11
6.54E+02,-6325,-4108,4031,127,268,28,1,7,11
6.56E+02,-6332,-4115,4041,122,285,25,1,7,11
6.47E+02,-6324,-4121,4038,-123,296,26,1,7,11
6.37E+02,-6323,-4113,4041,-104,317,31,1,7,11
6.41E+02,-6307,-4111,4028,-87,332,48,1,7,11
6.54E+02,-6304,-4107,4009,-76,340,49,1,7,11
6.66E+02,-6318,-4102,4004,-79,351,47,1,7,11
6.67E+02,-6351,-3833,4014,-93,349,46,1,7,11
6.63E+02,-6373,-3828,3998,-106,322,51,1,7,11
6.58E+02,-6669,-3817,3995,-122,286,55,1,7,11
6.60E+02,-6678,-3818,3996,116,-24,79,1,7,11
6.69E+02,-6662,-3826,4003,99,-66,107,1,7,11
6.90E+02,-6394,-4097,4008,97,-89,119,1,7,11
7.19E+02,-6389,-4099,4021,98,-93,126,1,7,11
7.50E+02,-6379,-4107,4014,102,-105,127,1,7,11
7.77E+02,-6368,-4103,4009,107,-113,109,1,7,11
7.98E+02,-6366,-4106,4021,97,-109,88,1,7,11
8.17E+02,-6356,-4125,4023,103,-93,57,1,7,11
8.33E+02,-6362,-4122,4023,-121,-83,27,1,7,11
8.49E+02,-6365,-4109,4022,-92,-84,11,1,7,11
8.65E+02,-6364,-3834,4018,-75,-83,6,1,7,11
8.83E+02,-6352,-3818,4014,-73,-77,0,1,7,11
9.01E+02,-6348,-3814,4012,-81,-66,2,1,7,11
9.19E+02,-6354,-3802,4003,-85,-50,0,1,7,11
9.36E+02,-6366,-3789,4006,-100,-51,8,1,7,11
9.51E+02,-6372,-3786,4002,-120,-62,16,1,7,11
9.66E+02,-6381,-3800,4004,99,-71,19,1,7,11
9.79E+02,-6393,-3801,4018,76,-78,17,1,7,11
9.91E+02,-6393,-3804,4019,71,-91,25,1,7,11
1.00E+03,-6381,-3796,4013,70,-107,24,1,7,11
1.01E+03,-6368,-3799,4009,50,-118,27,1,7,11
1.02E+03,-6346,-3818,4014,34,-121,28,1,7,11
1.03E+03,-6334,-3836,4015,36,-114,12,1,7,11
1.03E+03,-6335,-4100,4014,60,-89,-264,1,7,11
1.03E+03,-6347,-3828,3997,92,-63,-272,1,7,11
1.04E+03,-6359,-3810,4004,97,-47,-281,1,7,11
1.04E+03,-6385,-3800,4001,82,-38,-283,1,7,11
1.03E+03,-6400,-3807,4008,68,-47,-286,1,7,11
1.03E+03,-6666,-3811,3997,57,-65,-287,1,7,11
1.02E+03,-6662,-3815,4001,44,-83,-284,1,7,11
1.02E+03,-6397,-3834,4002,25,-105,-281,1,7,11
1.01E+03,-6393,-4102,4009,10,-116,-291,1,7,11
9.95E+02,-6661,-4092,4008,22,-127,-294,1,7,11
9.76E+02,-6388,-3818,3989,34,115,-277,1,7,11
9.50E+02,-6375,-3831,3994,12,112,-263,1,7,11
9.18E+02,-6374,-4116,4013,-273,106,0,1,7,11
8.88E+02,-6372,-4140,4017,-275,97,6,1,7,11
8.66E+02,-6378,-4144,3996,-267,97,-261,1,7,11
8.54E+02,-6390,-4123,3989,-260,106,-266,1,7,11
8.51E+02,-6658,-4106,3994,-259,109,1,1,7,11
8.52E+02,-6380,-4114,3993,-261,87,23,1,7,11
8.53E+02,-6359,-4112,3985,-261,86,33,1,7,11
8.53E+02,-6346,-4120,3973,-259,88,39,1,7,11
8.52E+02,-6358,-4123,3979,3,94,44,1,7,11
8.52E+02,-6361,-4123,3991,2,87,60,1,7,11
8.53E+02,-6360,-4120,3986,8,70,73,1,7,11
8.57E+02,-6342,-4121,3978,8,42,77,1,7,11
8.65E+02,-6331,-4120,3974,-259,33,69,1,7,11
8.77E+02,-6331,-4135,3982,-282,32,50,1,7,11
8.93E+02,-6335,-4125,3983,-280,38,27,1,7,11
9.11E+02,-6345,-4110,3991,-288,37,10,1,7,11
9.32E+02,-6354,-3826,3988,-294,21,2,1,7,11
9.56E+02,-6368,-3827,4002,-317,5,-259,1,7,11
9.83E+02,-6658,-3834,4023,-334,-261,-269,1,7,11
1.01E+03,-6664,-3828,4028,-348,-294,-264,1,7,11
1.04E+03,-6398,-3815,4026,-370,-328,-261,1,7,11
1.07E+03,-6388,-3817,4028,-157,-349,5,1,7,11
1.08E+03,-6389,-3834,4041,-201,-366,14,1,7,11
1.08E+03,-6660,-3838,4035,-221,-366,24,1,7,11
1.07E+03,-6662,-4111,4028,-230,-363,54,1,7,11
1.05E+03,-6381,-4108,4021,-248,-361,84,1,7,11
1.03E+03,-6357,-4117,4026,-516,-343,112,1,7,11
1.03E+03,-6354,-4112,4039,-527,-325,-116,1,7,11
1.03E+03,-6347,-4125,4047,-553,-340,-87,1,7,11
1.03E+03,-6315,-4154,4048,-552,-354,-67,1,7,11
1.05E+03,-6285,-4170,4057,-539,-362,-68,1,7,11
1.06E+03,-6298,-4184,4072,-515,-356,-66,1,7,11
1.07E+03,-6318,-4192,4093,-219,-357,-78,1,7,11
1.08E+03,-6302,-4168,4083,-167,-379,-110,1,7,11
1.09E+03,-6514,-4165,4059,-174,-143,77,1,7,11
1.09E+03,-6497,-4136,4040,-173,-131,-264,1,7,11
1.10E+03,-6491,-4131,4037,-204,-348,-314,1,7,11
1.10E+03,-6486,-4145,4031,-234,-298,-332,1,7,11
1.10E+03,-6467,-4159,4022,-245,8,-335,1,7,11
1.10E+03,-6439,-4169,4020,-515,72,-352,1,7,11
1.10E+03,-6460,-4177,4030,-527,-112,-131,1,7,11
1.09E+03,-6495,-4175,4021,-541,-79,-139,1,7,11
1.09E+03,-6520,-4173,4005,-556,-65,-359,1,7,11
1.08E+03,-6287,-4168,3975,-565,-52,-278,1,7,11
1.07E+03,-6324,-4158,3980,-571,-33,83,1,7,11
1.05E+03,-6370,-4131,4218,-557,-32,-34,1,7,11
1.04E+03,-6666,-3826,4186,-549,-40,140,1,7,11
1.02E+03,-6691,-3791,4173,-608,-38,594,1,7,11
9.95E+02,-6716,-3785,4180,-426,-33,809,1,7,11
9.71E+02,-6741,-3806,4213,-793,-41,760,1,7,11
9.42E+02,-6730,-4121,3980,-836,-85,943,1,7,11
9.10E+02,-6687,-4138,4216,-834,-110,1016,1,7,11
8.73E+02,-6351,-4199,4189,-849,-100,964,1,7,11
8.36E+02,-6331,-4197,4163,-798,-21,1050,1,7,11
8.03E+02,-6332,-4140,4139,-504,296,640,1,7,11
7.77E+02,-6311,-4115,4105,-782,314,788,1,7,11
7.59E+02,-6343,-4109,3824,-809,356,417,1,7,11
7.50E+02,-6364,-4188,4109,-867,373,596,1,7,11
7.47E+02,-6675,-4214,4121,-831,143,234,1,7,11
7.50E+02,-6739,-4177,4102,-499,128,170,1,7,11
7.56E+02,-6762,-4159,3817,-416,364,380,1,7,11
7.63E+02,-6781,-4138,3780,-622,374,355,1,7,11
7.70E+02,-6553,-3840,3756,-587,382,348,1,7,11
7.78E+02,-6576,-3794,3725,-601,377,366,1,7,11
7.87E+02,-6612,-3773,3960,-389,375,175,1,7,11
7.95E+02,-6623,-3753,3933,-459,352,242,1,7,11
8.02E+02,-6653,-3775,3954,-810,345,591,1,7,11
8.05E+02,-6921,-3824,3747,-864,348,426,1,7,11
8.05E+02,-6968,-4105,3794,-845,358,468,1,7,11
8.06E+02,-7011,-3756,3740,-475,334,492,1,7,11
8.12E+02,-6985,-3962,3914,-452,278,499,1,7,11
8.21E+02,-6939,-3957,3909,-482,-25,458,1,7,11
8.29E+02,-6913,-3728,3921,-773,-85,617,1,7,11
8.32E+02,-6598,-3714,3902,-486,89,244,1,7,11
8.25E+02,-6783,-3945,3856,-476,1,352,1,7,11
8.11E+02,-6730,-3937,3537,-480,-319,-72,1,7,11
7.93E+02,-6396,-3721,3460,-783,-352,7,1,7,11
7.74E+02,-6372,-3714,3697,-845,-341,-215,1,7,11
7.58E+02,-6658,-3722,3664,-684,-323,-617,1,7,11
7.51E+02,-6660,-3789,3634,-1025,-329,-412,1,7,11
7.56E+02,-6399,-4115,3593,-1050,-294,-400,1,7,11
7.69E+02,-6669,-4176,3313,-761,30,-599,1,7,11
7.81E+02,-6672,-3999,3268,-700,85,-256,1,7,11
7.85E+02,-6668,-4060,3233,-849,-119,-177,1,7,11
7.81E+02,-6681,-4385,3226,-494,-65,-367,1,7,11
7.76E+02,-6753,-4386,3254,-623,-45,-310,1,7,11
7.73E+02,-6600,-4367,3292,-522,-82,35,1,7,11
7.74E+02,-6933,-4087,3314,-172,70,-107,1,7,11
7.76E+02,-6974,-4062,3619,-349,-296,266,1,7,11
7.74E+02,-6994,-4043,3682,-290,-140,141,1,7,11
7.70E+02,-7011,-4010,3478,42,-207,521,1,7,11
7.64E+02,-7023,-4221,3516,-123,-250,624,1,7,11
7.58E+02,-7016,-4147,3527,-44,-528,431,1,7,11
7.53E+02,-6990,-3798,3540,274,-567,454,1,7,11
7.50E+02,-6961,-3715,3554,290,-592,435,1,7,11
7.49E+02,-6949,-3889,3577,-2,-605,397,1,7,11
7.51E+02,-6921,-3841,3841,-68,-620,621,1,7,11
7.60E+02,-6645,-3561,3573,81,-621,604,1,7,11
7.77E+02,-6634,-3551,3561,16,-585,603,1,7,11
8.02E+02,-6596,-3566,3530,-285,-524,615,1,7,11
8.29E+02,-6581,-3583,3506,-317,-168,608,1,7,11
8.53E+02,-6553,-3884,3485,-335,-346,588,1,7,11
8.68E+02,-6552,-3920,3483,-340,-265,521,1,7,11
8.77E+02,-6554,-3943,3501,-305,44,183,1,7,11
8.82E+02,-6583,-3940,3531,-264,62,341,1,7,11
8.87E+02,-6626,-3932,3842,42,50,281,1,7,11
8.93E+02,-6927,-3903,3875,107,21,258,1,7,11
8.98E+02,-6968,-3849,3896,-97,-296,266,1,7,11
9.02E+02,-6978,-3557,3899,-89,-134,319,1,7,11
9.04E+02,-6951,-3548,3900,-117,-229,383,1,7,11
9.04E+02,-6949,-3549,3920,93,-537,177,1,7,11
9.03E+02,-6978,-3491,3911,98,-555,217,1,7,11
9.02E+02,-7004,-3475,3933,56,-560,539,1,7,11
9.02E+02,-7037,-3511,3737,34,-547,596,1,7,11
9.01E+02,-6801,-3544,3798,68,-560,393,1,7,11
9.01E+02,-7035,-3562,3828,-123,-580,412,1,7,11
9.01E+02,-7014,-3539,3839,-32,-588,386,1,7,11
8.99E+02,-6994,-3487,3828,296,-578,594,1,7,11
8.97E+02,-6994,-3690,3848,311,-571,538,1,7,11
8.92E+02,-6996,-3665,4138,298,-568,252,1,7,11
8.84E+02,-6990,-3639,4145,313,-580,245,1,7,11
8.73E+02,-6972,-3631,4165,335,-581,245,1,7,11
8.57E+02,-6929,-3622,4165,370,-583,218,1,7,11
8.36E+02,-6645,-3598,4190,160,-543,160,1,7,11
8.13E+02,-6652,-3317,4201,204,-222,368,1,7,11
7.92E+02,-6648,-3273,4204,221,-157,309,1,7,11
7.75E+02,-6646,-3246,4211,203,-359,-3,1,7,11
7.63E+02,-6650,-3206,3974,156,-326,-52,1,7,11
7.52E+02,-6929,-3441,4000,347,-300,-46,1,7,11
7.39E+02,-6925,-3449,4016,269,-303,-24,1,7,11
7.22E+02,-6943,-3202,4036,-68,-331,-13,1,7,11
7.04E+02,-6964,-3454,4054,103,-366,272,1,7,11
6.89E+02,-6987,-3439,4057,60,-132,316,1,7,11
6.76E+02,-6994,-3442,4070,14,-160,377,1,7,11
6.67E+02,-6979,-3455,4081,-272,-177,178,1,7,11
6.62E+02,-6968,-3447,4364,-306,-188,209,1,7,11
6.60E+02,-6992,-3419,4388,-325,-187,232,1,7,11
6.63E+02,-6970,-3435,4415,-356,-202,220,1,7,11
6.71E+02,-6971,-3401,4432,-371,-210,184,1,7,11
6.83E+02,-6936,-3422,4430,-178,-224,198,1,7,11
7.00E+02,-6652,-3437,4407,-218,-216,195,1,7,11
7.22E+02,-6601,-3219,4397,-244,-199,172,1,7,11
7.46E+02,-6558,-3248,4373,-239,-150,355,1,7,11
7.72E+02,-6542,-3240,4352,-216,-345,280,1,7,11
7.98E+02,-6546,-3218,4076,-196,-277,-28,1,7,11
8.24E+02,-6551,-3206,4056,-192,52,-61,1,7,11
8.50E+02,-6592,-3453,4053,-196,126,-88,1,7,11
8.75E+02,-6633,-3437,4065,-196,-87,-98,1,7,11
8.99E+02,-6926,-3427,4072,-194,-61,-100,1,7,11
9.19E+02,-6958,-3411,4071,-180,-52,-88,1,7,11
9.33E+02,-6980,-3402,4059,-171,-57,-59,1,7,11
9.40E+02,-6996,-3391,4045,-158,-80,-25,1,7,11
9.42E+02,-6999,-3392,4029,-158,-109,-1,1,7,11
9.41E+02,-7025,-3373,4014,-157,-123,260,1,7,11
9.40E+02,-7032,-3360,4005,-164,112,266,1,7,11
9.41E+02,-7025,-3356,3997,-181,98,265,1,7,11
9.43E+02,-7022,-3371,3999,-206,97,259,1,7,11
9.46E+02,-6998,-3403,4004,-226,99,-18,1,7,11
9.50E+02,-6980,-3423,3994,-212,118,-58,1,7,11
9.52E+02,-6969,-3452,3993,-193,-107,-115,1,7,11
9.53E+02,-6959,-3216,3990,-145,-51,24,1,7,11
9.51E+02,-6959,-3205,3982,-365,-12,-336,1,7,11
9.48E+02,-6984,-3431,3977,-351,273,-133,1,7,11
9.41E+02,-7007,-3428,3977,-367,269,-372,1,7,11
9.32E+02,-7027,-3430,3971,-375,259,-340,1,7,11
9.21E+02,-7037,-3425,4217,-131,-17,-290,1,7,11
9.09E+02,-7019,-3445,4208,-142,-32,11,1,7,11
8.96E+02,-7009,-3206,4212,-145,-29,38,1,7,11
8.82E+02,-7006,-3205,4208,-383,-31,49,1,7,11
8.70E+02,-7007,-3212,4208,-371,-38,63,1,7,11
8.59E+02,-7025,-3207,4197,-356,-48,74,1,7,11
8.50E+02,-6789,-3452,4195,-348,-65,85,1,7,11
8.42E+02,-6794,-3446,4187,-343,-95,98,1,7,11
8.37E+02,-7033,-3441,4177,-354,126,108,1,7,11
8.31E+02,-7016,-3445,4172,-368,95,99,1,7,11
8.24E+02,-7003,-3202,4162,-384,84,85,1,7,11
8.14E+02,-7017,-3216,4169,-129,100,69,1,7,11
8.03E+02,-7036,-3217,4175,-364,110,64,1,7,11
7.96E+02,-6792,-3222,4170,-331,119,73,1,7,11
7.97E+02,-6787,-3223,4175,-295,-123,84,1,7,11
8.06E+02,-7021,-3205,4166,-264,-112,93,1,7,11
8.18E+02,-7010,-3449,4155,1,-96,96,1,7,11
8.26E+02,-7013,-3447,4145,-263,-79,90,1,7,11
8.28E+02,-7016,-3440,4137,-269,-70,84,1,7,11
8.27E+02,-7033,-3441,4154,-291,-71,86,1,7,11
8.25E+02,-6801,-3419,4145,-275,-71,117,1,7,11
8.26E+02,-6802,-3431,4151,-283,-92,-67,1,7,11
8.29E+02,-6816,-3443,4167,-280,-92,-25,1,7,11
8.33E+02,-6814,-3447,4172,-272,-110,-8,1,7,11
8.35E+02,-6807,-3428,4155,-264,123,-9,1,7,11
8.34E+02,-6807,-3412,4144,-268,117,-19,1,7,11
8.25E+02,-6800,-3414,4133,-289,103,-32,1,7,11
8.04E+02,-7038,-3425,4131,-303,101,-65,1,7,11
7.74E+02,-6791,-3431,4141,-314,109,-96,1,7,11
7.45E+02,-7040,-3444,4147,-311,113,-119,1,7,11
7.30E+02,-6802,-3432,4148,-296,124,110,1,7,11
7.31E+02,-6812,-3433,4147,-300,108,92,1,7,11
7.37E+02,-6800,-3412,4130,-281,104,85,1,7,11
7.34E+02,-7034,-3442,4123,-299,107,83,1,7,11
7.20E+02,-7033,-3203,4138,-280,-124,30,1,7,11
7.07E+02,-6796,-3437,4132,1,-108,4,1,7,11
7.06E+02,-6790,-3453,4133,12,-99,18,1,7,11
7.16E+02,-6796,-3450,4126,22,-99,20,1,7,11
7.25E+02,-7034,-3451,4129,26,-107,36,1,7,11
7.26E+02,-7027,-3201,4133,29,-101,36,1,7,11
7.22E+02,-7025,-3441,4124,39,-100,39,1,7,11
7.25E+02,-7024,-3414,4102,52,-105,47,1,7,11
7.48E+02,-7027,-3411,4099,25,-105,58,1,7,11
7.84E+02,-7034,-3422,4118,-257,-102,68,1,7,11
8.21E+02,-6794,-3439,4134,-266,-92,75,1,7,11
8.48E+02,-6803,-3445,4136,5,-88,86,1,7,11
8.60E+02,-6796,-3449,4124,30,-79,98,1,7,11
8.65E+02,-6803,-3451,4118,44,-59,98,1,7,11
8.71E+02,-6813,-3446,4124,67,-42,98,1,7,11
8.85E+02,-6810,-3450,4129,91,-36,92,1,7,11
9.03E+02,-6808,-3438,4106,111,-31,75,1,7,11
9.17E+02,-6819,-3416,4102,114,-24,53,1,7,11
9.22E+02,-6822,-3410,4100,109,-27,37,1,7,11
9.13E+02,-6820,-3413,3837,97,-30,18,1,7,11
8.97E+02,-6809,-3413,3819,88,-37,5,1,7,11
8.82E+02,-6801,-3428,3816,74,-39,-257,1,7,11
8.75E+02,-6794,-3448,3824,70,-38,-265,1,7,11
8.73E+02,-6802,-3204,3839,83,-36,-270,1,7,11
8.71E+02,-6818,-3203,3835,100,-36,-279,1,7,11
8.63E+02,-6806,-3447,3825,-115,-45,-284,1,7,11
8.48E+02,-6797,-3448,3814,-102,-46,-295,1,7,11
8.29E+02,-6806,-3433,3823,-97,-48,-347,1,7,11
8.15E+02,-6820,-3425,3822,-101,-54,-358,1,7,11
8.08E+02,-6826,-3410,3828,-113,-74,-352,1,7,11
8.06E+02,-6831,-3415,4099,112,-88,-327,1,7,11
8.02E+02,-6838,-3428,4103,94,-98,-290,1,7,11
7.92E+02,-6838,-3432,4115,92,-98,-265,1,7,11
7.77E+02,-6848,-3423,4131,102,-95,10,1,7,11
7.60E+02,-6842,-3411,4127,109,-103,24,1,7,11
7.44E+02,-6822,-3411,4116,96,-116,40,1,7,11
7.33E+02,-6814,-3409,4112,79,-125,44,1,7,11
7.24E+02,-6803,-3402,4099,65,126,35,1,7,11
7.19E+02,-6800,-3412,4102,44,126,16,1,7,11
7.17E+02,-6801,-3423,4112,23,-125,-260,1,7,11
7.14E+02,-6804,-3425,4106,22,-121,-273,1,7,11
7.10E+02,-6810,-3437,4097,16,-118,-277,1,7,11
7.05E+02,-6805,-3435,4097,14,-124,-271,1,7,11
7.01E+02,-6805,-3447,4098,7,-123,-266,1,7,11
6.99E+02,-6792,-3452,3829,9,-127,-263,1,7,11
6.98E+02,-6794,-3204,3827,8,-127,-265,1,7,11
6.99E+02,-6808,-3447,3827,11,-126,-271,1,7,11
7.03E+02,-6809,-3453,3832,4,121,-268,1,7,11
7.12E+02,-6807,-3203,3839,3,115,5,1,7,11
7.29E+02,-6809,-3209,3832,7,113,23,1,7,11
7.54E+02,-6810,-3209,3833,18,98,45,1,7,11
7.82E+02,-6801,-3203,3822,27,92,55,1,7,11
8.10E+02,-6816,-3204,3836,21,100,60,1,7,11
8.36E+02,-6819,-3201,4103,14,89,69,1,7,11
8.58E+02,-6828,-3430,4101,32,73,112,1,7,11
8.75E+02,-6791,-3449,4100,13,58,-68,1,7,11
8.87E+02,-7038,-3216,4110,1,79,-57,1,7,11
8.92E+02,-7038,-3217,4109,11,111,-64,1,7,11
