timestamp,ax,ay,az,gx,gy,gz,Label1,Label2,Label3
7.29E+02,-8466,-777,616,353,-342,68,1,7,11
7.60E+02,-8189,-499,388,362,-349,34,1,7,11
7.78E+02,-8172,-490,627,361,-343,14,1,7,11
7.84E+02,-8150,-458,616,345,-332,9,1,7,11
7.83E+02,-8158,-470,384,-9,-300,4,1,7,11
7.77E+02,-8178,-785,450,-89,-288,19,1,7,11
7.68E+02,-8180,-850,503,-113,-304,33,1,7,11
7.59E+02,-8158,-649,781,-80,-319,44,1,7,11
7.53E+02,-8115,-693,505,-28,-320,41,1,7,11
7.50E+02,-8086,-724,479,262,-294,11,1,7,11
7.53E+02,-8119,-763,485,262,22,-285,1,7,11
7.59E+02,-8162,-1043,467,272,62,-300,1,7,11
7.69E+02,-8454,-1032,417,301,86,-298,1,7,11
7.82E+02,-8492,-742,606,327,109,-267,1,7,11
7.93E+02,-8547,-716,590,333,126,47,1,7,11
8.01E+02,-8344,-685,610,358,117,-125,1,7,11
8.01E+02,-8380,-663,386,143,74,-29,1,7,11
7.96E+02,-8395,-643,424,208,8,316,1,7,11
7.91E+02,-8384,-833,495,551,-314,379,1,7,11
7.90E+02,-8347,-806,800,621,-376,161,1,7,11
7.97E+02,-8556,-785,828,418,-200,143,1,7,11
8.06E+02,-8489,-506,843,442,-234,344,1,7,11
8.10E+02,-8167,-497,853,415,-238,-5,1,7,11
8.05E+02,-8109,-772,861,554,-213,-124,1,7,11
7.96E+02,-8092,-789,874,201,-166,21,1,7,11
7.87E+02,-8083,-816,890,348,-379,-318,1,7,11
7.83E+02,-8076,-859,645,252,-343,-364,1,7,11
7.83E+02,-8085,-645,889,-74,-308,-130,1,7,11
7.82E+02,-8085,-671,866,-96,-283,-375,1,7,11
7.79E+02,-8094,-691,841,113,5,-340,1,7,11
7.77E+02,-8128,-723,818,88,41,-273,1,7,11
7.79E+02,-8171,-754,805,78,76,70,1,7,11
7.90E+02,-8482,-1025,795,106,99,-77,1,7,11
8.04E+02,-8526,-1029,809,-90,101,293,1,7,11
8.13E+02,-8551,-762,812,258,93,150,1,7,11
8.06E+02,-8549,-737,799,368,79,255,1,7,11
7.85E+02,-8540,-706,819,217,76,586,1,7,11
7.59E+02,-8549,-663,846,604,79,639,1,7,11
7.37E+02,-8557,-847,862,499,81,418,1,7,11
7.27E+02,-8561,-791,876,643,79,442,1,7,11
7.30E+02,-8546,-478,880,1037,77,454,1,7,11
7.47E+02,-8535,-415,862,897,84,443,1,7,11
7.75E+02,-8524,-631,861,975,89,402,1,7,11
8.06E+02,-8521,-596,859,1286,90,586,1,7,11
8.33E+02,-8515,-568,846,1317,73,228,1,7,11
8.49E+02,-8524,-551,869,1322,49,359,1,7,11
8.56E+02,-8524,-250,873,1332,8,-18,1,7,11
8.56E+02,-8539,-203,878,1301,-284,125,1,7,11
8.48E+02,-8540,-169,892,986,-319,45,1,7,11
8.38E+02,-8550,-150,642,909,-346,-267,1,7,11
8.31E+02,-8550,-141,649,1088,-380,-300,1,7,11
8.30E+02,-8535,-143,648,756,-160,-329,1,7,11
8.38E+02,-8528,-140,660,689,-175,-361,1,7,11
8.49E+02,-8559,-152,682,652,-171,-134,1,7,11
8.59E+02,-8346,-145,706,657,-176,-148,1,7,11
8.66E+02,-8385,-142,721,691,-196,-153,1,7,11
8.70E+02,-8407,-379,718,748,-224,-165,1,7,11
8.70E+02,-8417,-371,712,1051,-522,-191,1,7,11
8.67E+02,-8409,-129,733,1071,-570,-245,1,7,11
8.62E+02,-8390,-165,1027,1075,-638,-588,1,7,11
8.56E+02,-8378,-217,1075,1074,-463,-457,1,7,11
8.51E+02,-8384,-552,1125,1094,-826,-848,1,7,11
8.48E+02,-8380,-391,1148,1135,-700,-727,1,7,11
8.47E+02,-8375,-499,921,935,-1097,-1113,1,7,11
8.48E+02,-8363,-859,947,1022,-994,-967,1,7,11
8.52E+02,-8337,-690,971,1390,-1403,-1307,1,7,11
8.57E+02,-8559,-750,1016,1249,-1272,-1359,1,7,11
8.60E+02,-8523,-1056,1378,1603,-1624,-1364,1,7,11
8.59E+02,-8460,-1056,1244,1476,-1447,-1317,1,7,11
8.53E+02,-8112,-724,1559,1876,-1479,-973,1,7,11
8.43E+02,-8304,-649,1621,1666,-1438,-1099,1,7,11
8.34E+02,-8245,-881,1455,1868,-1616,-684,1,7,11
8.26E+02,-7920,-880,1509,1517,-1262,-786,1,7,11
8.20E+02,-7853,-674,1527,1622,-1390,-624,1,7,11
8.19E+02,-7839,-759,1816,1003,-907,-576,1,7,11
8.21E+02,-7838,-1102,1844,743,-751,-562,1,7,11
8.29E+02,-7842,-920,1854,492,-849,-569,1,7,11
8.43E+02,-7870,-983,1854,518,-426,-578,1,7,11
8.61E+02,-7919,-1290,1873,326,-252,-557,1,7,11
8.84E+02,-8211,-1330,1902,-80,-356,-239,1,7,11
9.04E+02,-8236,-1366,1670,75,29,-153,1,7,11
9.16E+02,-8250,-1392,1701,13,-125,-316,1,7,11
9.15E+02,-8267,-1401,1727,-279,-37,29,1,7,11
9.01E+02,-8290,-1400,1755,-291,283,124,1,7,11
8.85E+02,-8300,-1379,1781,-288,325,-35,1,7,11
8.73E+02,-8311,-1331,2054,-286,366,320,1,7,11
8.72E+02,-8305,-1295,2052,-325,141,155,1,7,11
8.80E+02,-8257,-997,1772,-133,157,221,1,7,11
8.95E+02,-8230,-955,1739,-230,182,244,1,7,11
9.13E+02,-8229,-916,1688,-595,211,251,1,7,11
9.32E+02,-8249,-926,1919,-497,232,252,1,7,11
9.48E+02,-8243,-952,1889,-874,229,518,1,7,11
9.57E+02,-8249,-963,1832,-681,224,528,1,7,11
9.56E+02,-8273,-951,1508,-675,229,560,1,7,11
9.46E+02,-8311,-934,1428,-649,249,621,1,7,11
9.32E+02,-8104,-955,1411,-872,525,452,1,7,11
9.15E+02,-8142,-990,1420,-770,529,797,1,7,11
9.01E+02,-8180,-998,1449,-570,525,856,1,7,11
8.89E+02,-8472,-952,1465,-286,253,885,1,7,11
8.81E+02,-8475,-1117,1422,273,224,891,1,7,11
8.77E+02,-8461,-1044,1653,251,219,856,1,7,11
8.75E+02,-8182,-722,1644,423,230,789,1,7,11
8.75E+02,-8158,-667,1651,808,237,428,1,7,11
8.75E+02,-8129,-847,1657,652,230,557,1,7,11
8.74E+02,-8091,-769,1408,710,219,178,1,7,11
8.72E+02,-8073,-453,1414,718,212,339,1,7,11
8.70E+02,-8320,-398,1410,690,210,284,1,7,11
8.67E+02,-8305,-592,1622,871,220,263,1,7,11
8.64E+02,-8075,-556,1597,479,252,272,1,7,11
8.56E+02,-8097,-553,1573,573,527,316,1,7,11
8.42E+02,-8143,-578,1571,158,545,368,1,7,11
8.19E+02,-8167,-577,1546,305,543,173,1,7,11
7.96E+02,-8465,-560,1259,-36,553,216,1,7,11
7.78E+02,-8518,-550,1225,-103,558,523,1,7,11
7.72E+02,-8570,-540,1203,123,542,619,1,7,11
7.72E+02,-8328,-256,1166,-115,527,406,1,7,11
7.74E+02,-8336,-205,1400,-96,523,421,1,7,11
7.75E+02,-8331,-167,1377,-84,525,416,1,7,11
7.78E+02,-8570,-140,1368,-70,527,391,1,7,11
7.89E+02,-8541,-378,1359,-74,518,589,1,7,11
8.14E+02,-8528,-352,1333,-92,245,237,1,7,11
8.46E+02,-8537,-323,1331,124,232,377,1,7,11
8.75E+02,-8567,-309,1335,84,208,275,1,7,11
8.90E+02,-8323,-284,1333,71,163,-55,1,7,11
8.86E+02,-8567,8,1324,67,373,-93,1,7,11
8.74E+02,-8546,35,1304,60,332,-110,1,7,11
8.67E+02,-8538,56,1283,56,307,-122,1,7,11
8.76E+02,-8535,82,1009,53,297,126,1,7,11
8.99E+02,-8546,97,1009,49,290,122,1,7,11
9.28E+02,-8561,112,994,53,290,120,1,7,11
9.54E+02,-8335,126,984,77,291,119,1,7,11
9.70E+02,-8361,-117,964,119,275,110,1,7,11
9.76E+02,-8405,-83,933,-92,261,77,1,7,11
9.77E+02,-8444,-11,1151,-51,-18,23,1,7,11
9.76E+02,-8768,344,1138,-35,-22,-302,1,7,11
9.76E+02,-8616,233,1129,-12,-26,-361,1,7,11
9.75E+02,-9004,433,1103,267,-27,-146,1,7,11
9.70E+02,-8873,685,1047,-21,-48,-184,1,7,11
9.59E+02,-8902,955,651,71,-105,-515,1,7,11
9.40E+02,-8868,1396,815,-627,81,-466,1,7,11
9.19E+02,-9036,1154,793,-1000,-294,-1065,1,7,11
9.00E+02,-8697,970,885,-1717,-188,-1280,1,7,11
8.89E+02,-8644,881,1032,-2561,-411,-1785,1,7,11
8.84E+02,-8813,202,1141,-2913,-708,-2237,1,7,11
8.81E+02,-8419,-258,962,-2784,-1023,-2848,1,7,11
8.74E+02,-8459,-437,1007,-2732,-1566,-3102,1,7,11
8.60E+02,-8237,-1102,1337,-2859,-1513,-3038,1,7,11
8.42E+02,-8029,-1203,1179,-2654,-1895,-3418,1,7,11
8.23E+02,-7607,-1525,1548,-2390,-1687,-3214,1,7,11
8.08E+02,-7729,-2053,1418,-2065,-1675,-3440,1,7,11
7.97E+02,-7342,-1999,1513,-1446,-1869,-3337,1,7,11
7.91E+02,-7500,-2366,1830,-1339,-1474,-3191,1,7,11
7.90E+02,-7462,-2189,1877,-1044,-1256,-2735,1,7,11
7.95E+02,-7462,-2228,1894,-797,-979,-2474,1,7,11
8.03E+02,-7518,-2202,1864,-619,-893,-2421,1,7,11
8.16E+02,-7350,-2200,1846,-552,-525,-2060,1,7,11
8.32E+02,-7402,-2181,1517,-544,73,-1431,1,7,11
8.51E+02,-7730,-2197,1445,-638,148,-1356,1,7,11
8.72E+02,-7566,-2244,1640,-776,423,-1069,1,7,11
8.95E+02,-7675,-2562,1554,-665,873,-835,1,7,11
9.18E+02,-8058,-2618,1228,-1034,726,-397,1,7,11
9.39E+02,-8209,-2436,1154,-1106,746,-239,1,7,11
9.58E+02,-8102,-2509,1344,-1118,670,-335,1,7,11
9.72E+02,-8191,-2827,1018,-1084,508,76,1,7,11
9.82E+02,-8489,-2874,972,-1038,557,-58,1,7,11
9.91E+02,-8498,-2915,950,-744,338,280,1,7,11
9.98E+02,-8475,-2938,959,-704,116,327,1,7,11
1.00E+03,-8186,-2944,962,-677,-337,351,1,7,11
1.01E+03,-8124,-2920,971,-896,-249,383,1,7,11
1.02E+03,-8315,-2878,987,-870,-615,168,1,7,11
1.02E+03,-8253,-2558,997,-828,-422,233,1,7,11
1.02E+03,-8204,-2493,1012,-799,-437,571,1,7,11
1.02E+03,-7931,-2685,1019,-774,-426,402,1,7,11
1.02E+03,-8210,-2622,1291,-777,-392,476,1,7,11
1.01E+03,-8226,-2290,1023,-788,-639,804,1,7,11
1.00E+03,-8247,-2211,1002,-833,-632,848,1,7,11
9.88E+02,-8280,-2399,991,-890,-388,879,1,7,11
9.77E+02,-8288,-2342,974,-701,-442,892,1,7,11
9.70E+02,-8282,-2308,957,-1048,-509,876,1,7,11
9.68E+02,-8299,-2311,961,-919,-818,839,1,7,11
9.70E+02,-8281,-2317,958,-1015,-644,809,1,7,11
9.75E+02,-8240,-2047,1052,-1400,-705,498,1,7,11
9.80E+02,-8311,-2381,1218,-1554,-732,450,1,7,11
9.83E+02,-8117,-2397,1556,-1571,-1095,437,1,7,11
9.83E+02,-8148,-2383,1647,-1258,-1295,437,1,7,11
9.76E+02,-8172,-2341,1459,-1179,-1169,495,1,7,11
9.62E+02,-8177,-2029,1521,-1378,-1279,825,1,7,11
9.38E+02,-8186,-1953,1839,-1321,-1620,653,1,7,11
9.11E+02,-8161,-2105,1884,-1004,-1443,738,1,7,11
8.87E+02,-8137,-1748,1711,-987,-1486,1067,1,7,11
8.71E+02,-8103,-1919,2069,-967,-1530,1140,1,7,11
8.64E+02,-8310,-1822,2168,-931,-1823,925,1,7,11
8.63E+02,-8285,-1466,2021,-1141,-1856,937,1,7,11
8.65E+02,-8266,-1615,2368,-1072,-1893,934,1,7,11
8.68E+02,-8243,-1230,2431,-734,-1914,922,1,7,11
8.71E+02,-8229,-1335,2225,-671,-1909,917,1,7,11
8.72E+02,-8228,-948,2273,-655,-1879,927,1,7,11
8.72E+02,-8229,-1071,2577,-666,-1835,946,1,7,11
8.71E+02,-8201,-685,2604,-723,-1802,965,1,7,11
8.71E+02,-7924,-851,2633,-1124,-1502,961,1,7,11
8.73E+02,-7911,-796,2671,-1315,-1472,944,1,7,11
8.79E+02,-7901,-502,2457,-1279,-1461,907,1,7,11
8.82E+02,-7898,-485,2482,-1525,-1468,1120,1,7,11
8.76E+02,-7889,-483,2504,-1772,-1495,1092,1,7,11
8.56E+02,-7862,-494,2540,-2018,-1523,1082,1,7,11
8.25E+02,-7845,-817,2894,-2253,-1800,1096,1,7,11
7.94E+02,-8054,-882,2719,-2667,-1831,1120,1,7,11
7.73E+02,-8006,-698,3076,-2534,-1859,1120,1,7,11
7.69E+02,-7670,-1053,3183,-2869,-1909,1096,1,7,11
7.77E+02,-7589,-1140,3019,-2904,-1689,1024,1,7,11
7.95E+02,-7751,-975,3338,-2894,-1674,883,1,7,11
8.19E+02,-7711,-989,3044,-2868,-1849,821,1,7,11
8.44E+02,-7723,-1001,2970,-2921,-1411,794,1,7,11
8.62E+02,-7735,-1021,3168,-2785,-1186,830,1,7,11
8.69E+02,-7761,-1315,3143,-2952,-942,891,1,7,11
8.67E+02,-7797,-1328,3127,-3341,-721,714,1,7,11
8.63E+02,-7591,-1328,3132,-3441,-804,1066,1,7,11
8.61E+02,-7650,-1325,3168,-3234,-440,934,1,7,11
8.64E+02,-7960,-1325,2944,-3448,-410,1346,1,7,11
8.71E+02,-7969,-1323,2977,-3347,-450,1266,1,7,11
8.80E+02,-7944,-1321,2998,-3193,-798,1427,1,7,11
8.91E+02,-7632,-1305,3000,-2729,-662,1817,1,7,11
9.04E+02,-7804,-1000,2985,-2496,-1046,1908,1,7,11
9.20E+02,-7715,-952,3004,-2284,-914,1699,1,7,11
9.40E+02,-7366,-928,3062,-2313,-1285,1714,1,7,11
9.63E+02,-7549,-1112,3386,-1788,-1393,1686,1,7,11
9.84E+02,-7497,-746,3222,-1499,-1240,1901,1,7,11
9.98E+02,-7358,-772,3697,-1213,-1276,1842,1,7,11
1.00E+03,-7760,-570,3845,-946,-1539,1834,1,7,11
9.86E+02,-7964,-341,3767,-752,-1235,1825,1,7,11
9.65E+02,-7828,-90,4164,-648,-1204,1535,1,7,11
9.45E+02,-7884,134,4026,-642,-1404,1659,1,7,11
9.33E+02,-7912,520,4383,-1054,-1335,1207,1,7,11
9.33E+02,-8203,525,4270,-1314,-993,940,1,7,11
9.41E+02,-8203,515,4612,-1580,-953,865,1,7,11
9.52E+02,-8199,153,4677,-1860,-924,564,1,7,11
9.62E+02,-8203,-21,4728,-2117,-1126,314,1,7,11
9.69E+02,-7897,125,4701,-2021,-1092,-128,1,7,11
9.70E+02,-8020,60,4336,-2311,-1048,-288,1,7,11
9.66E+02,-7640,-330,4278,-2425,-699,-170,1,7,11
9.54E+02,-7786,-232,4470,-2205,-843,-568,1,7,11
9.38E+02,-7707,-627,4411,-2208,-786,-391,1,7,11
9.23E+02,-7387,-509,4091,-2182,-418,-810,1,7,11
9.15E+02,-7326,-642,4022,-2373,-570,-798,1,7,11
9.17E+02,-7526,-743,4202,-1997,-178,-955,1,7,11
9.27E+02,-7476,-1074,4113,-2033,-351,-1357,1,7,11
9.40E+02,-7447,-900,3801,-1889,-275,-1228,1,7,11
9.54E+02,-7482,-997,3785,-1732,58,-1601,1,7,11
9.65E+02,-7301,-1357,3785,-1637,88,-1648,1,7,11
9.72E+02,-7693,-1226,3724,-1404,123,-1470,1,7,11
9.72E+02,-8454,-2056,4400,-1153,361,-1859,1,7,11
9.64E+02,-8525,-2117,4232,-1310,233,-1488,1,7,11
9.49E+02,-7902,-1712,4025,-572,51,-1597,1,7,11
9.29E+02,-7993,-1673,4216,-346,50,-1663,1,7,11
9.06E+02,-7705,-1916,4132,-65,-293,-1424,1,7,11
8.83E+02,-7162,-1831,3956,293,-135,-1811,1,7,11
8.62E+02,-7109,-1529,3880,622,-335,-1747,1,7,11
8.45E+02,-7128,-1462,3560,481,-319,-2152,1,7,11
8.35E+02,-7144,-1645,3501,869,-314,-1992,1,7,11
8.32E+02,-7138,-1574,3706,697,-323,-2035,1,7,11
8.32E+02,-7132,-1564,3710,660,-325,-2048,1,7,11
8.34E+02,-7105,-1559,3461,881,-343,-2041,1,7,11
8.34E+02,-7140,-1638,3530,505,-350,-2047,1,7,11
8.35E+02,-7533,-1508,3914,399,-352,-2310,1,7,11
8.39E+02,-7688,-1919,3810,591,-146,-2022,1,7,11
8.48E+02,-7805,-2074,4201,576,-244,-1966,1,7,11
8.59E+02,-7578,-2008,4059,556,-390,-2145,1,7,11
8.64E+02,-7780,-2213,4409,570,-793,-2090,1,7,11
8.59E+02,-7412,-2649,4471,624,-662,-2071,1,7,11
8.41E+02,-7528,-2550,4257,439,-743,-2106,1,7,11
8.20E+02,-7136,-2899,4257,799,-766,-1926,1,7,11
8.04E+02,-7266,-2918,4461,668,-706,-1986,1,7,11
8.00E+02,-6904,-2940,4419,757,-830,-1971,1,7,11
8.06E+02,-6793,-2709,4383,1080,-396,-2154,1,7,11
8.18E+02,-6923,-2738,4094,1147,-186,-1772,1,7,11
8.34E+02,-6586,-2794,4076,982,58,-1880,1,7,11
8.52E+02,-6540,-3102,4056,1396,315,-1473,1,7,11
8.72E+02,-6783,-3145,4037,1595,566,-1568,1,7,11
8.96E+02,-6564,-3185,4028,1835,802,-1377,1,7,11
9.21E+02,-6623,-3193,4030,2124,739,-901,1,7,11
9.44E+02,-6998,-3183,4049,2193,908,-653,1,7,11
9.58E+02,-6884,-3153,4072,2816,1023,-597,1,7,11
9.58E+02,-7253,-3108,4093,2966,1323,36,1,7,11
9.46E+02,-7284,-3089,4364,3648,1298,184,1,7,11
9.30E+02,-7255,-2782,4078,4129,991,802,1,7,11
9.19E+02,-7233,-2693,4031,4346,969,1100,1,7,11
9.21E+02,-7261,-2846,3996,4811,970,1337,1,7,11
9.35E+02,-7275,-2444,4199,5306,950,1548,1,7,11
9.52E+02,-7046,-2416,4099,5820,969,1454,1,7,11
9.67E+02,-7140,-1787,3804,6443,1300,1827,1,7,11
9.73E+02,-7513,-1570,3758,6666,1362,1882,1,7,11
9.70E+02,-7356,-936,3807,6345,1396,1892,1,7,11
9.60E+02,-7406,-851,4134,6415,1375,1853,1,7,11
9.46E+02,-7723,-255,4204,5824,1366,1487,1,7,11
9.30E+02,-7773,38,4019,5365,1320,1617,1,7,11
9.14E+02,-7808,261,4087,4782,980,1214,1,7,11
8.97E+02,-7565,145,4413,4401,1136,1340,1,7,11
8.81E+02,-7571,216,4472,3496,1030,963,1,7,11
8.68E+02,-7584,254,4253,3133,651,1091,1,7,11
8.57E+02,-7587,519,4272,2268,774,710,1,7,11
8.51E+02,-7563,230,4252,1701,634,850,1,7,11
8.50E+02,-7800,153,4474,1199,251,482,1,7,11
8.54E+02,-7767,345,4410,1036,130,393,1,7,11
8.62E+02,-7759,-11,4382,408,285,605,1,7,11
8.72E+02,-7765,-114,4091,130,-80,619,1,7,11
8.82E+02,-7745,101,4058,-31,54,452,1,7,11
8.86E+02,-7700,73,3999,56,-281,793,1,7,11
8.81E+02,-7707,36,3988,-372,-295,871,1,7,11
8.64E+02,-7704,7,3996,-233,-333,726,1,7,11
8.46E+02,-7694,-273,3995,-627,-351,1061,1,7,11
8.38E+02,-7753,-295,4012,-500,-376,1111,1,7,11
8.49E+02,-7756,-280,4018,-873,-182,1148,1,7,11
8.78E+02,-7747,-279,4055,-732,-240,1142,1,7,11
9.13E+02,-7777,-264,4359,-1063,-539,1106,1,7,11
9.45E+02,-7775,47,4379,-1089,-585,1055,1,7,11
9.66E+02,-7786,89,4394,-1107,-603,744,1,7,11
9.76E+02,-7738,111,4386,-1133,-616,694,1,7,11
9.80E+02,-7706,108,4402,-900,-588,640,1,7,11
9.81E+02,-7411,116,4449,-905,-548,848,1,7,11
9.82E+02,-7386,-108,4241,-1131,-246,782,1,7,11
9.83E+02,-7349,-84,4275,-1096,-203,438,1,7,11
9.82E+02,-7339,-54,4301,-767,-168,613,1,7,11
9.79E+02,-7356,-31,4279,-737,-152,567,1,7,11
9.73E+02,-7386,-24,4231,-742,-165,596,1,7,11
9.65E+02,-7374,-49,4460,-1057,-176,440,1,7,11
9.56E+02,-7382,-120,4233,-1128,-174,829,1,7,11
9.47E+02,-7387,63,4252,-1128,-198,716,1,7,11
9.38E+02,-7335,22,4246,-1106,-238,1082,1,7,11
9.29E+02,-7519,-304,4303,-1078,-236,1136,1,7,11
9.22E+02,-7453,-310,4667,-747,-188,1088,1,7,11
9.14E+02,-7487,19,4731,-877,-370,685,1,7,11
9.06E+02,-7521,98,4516,-479,-328,506,1,7,11
8.93E+02,-7529,-61,4534,-564,-282,570,1,7,11
8.75E+02,-7322,281,4544,-179,36,149,1,7,11
8.50E+02,-7311,359,4519,-287,102,263,1,7,11
8.23E+02,-7545,207,4480,13,-114,-49,1,7,11
8.03E+02,-7333,537,4721,-282,-94,-34,1,7,11
7.95E+02,-7370,578,4631,-363,109,358,1,7,11
7.98E+02,-7318,576,4279,-550,100,558,1,7,11
8.12E+02,-7551,555,4241,-506,-117,509,1,7,11
8.36E+02,-7452,562,4465,-746,-64,659,1,7,11
8.66E+02,-7114,557,4245,-1024,274,675,1,7,11
8.99E+02,-7242,545,4297,-1574,361,826,1,7,11
9.33E+02,-7172,528,4698,-1866,526,574,1,7,11
9.63E+02,-7187,533,4592,-1784,497,290,1,7,11
9.86E+02,-7239,573,4916,-2075,746,57,1,7,11
1.00E+03,-7289,621,4911,-2070,1001,-343,1,7,11
1.01E+03,-7116,612,4874,-2100,1273,-175,1,7,11
9.99E+02,-7426,560,4519,-2124,1511,-198,1,7,11
9.85E+02,-7470,217,4628,-2160,1722,-209,1,7,11
9.71E+02,-7535,381,4450,-1947,2160,-226,1,7,11
9.66E+02,-7377,279,4044,-1997,2042,-218,1,7,11
9.75E+02,-7740,-67,4144,-2016,2367,-170,1,7,11
9.91E+02,-7575,99,3741,-2012,2359,-354,1,7,11
1.01E+03,-7636,16,3854,-1984,2027,-281,1,7,11
1.02E+03,-7969,-312,3488,-1942,1920,32,1,7,11
1.02E+03,-7811,-328,3621,-2114,1773,93,1,7,11
1.02E+03,-7906,-312,3309,-1749,1846,-90,1,7,11
1.00E+03,-8278,-292,3249,-1892,1636,265,1,7,11
9.91E+02,-8286,-278,3206,-1528,1400,380,1,7,11
9.82E+02,-8247,-292,3452,-1455,921,210,1,7,11
9.76E+02,-8234,-320,3230,-1658,732,243,1,7,11
9.69E+02,-8240,-345,3241,-1579,831,237,1,7,11
9.60E+02,-8229,-361,3226,-1226,427,223,1,7,11
9.46E+02,-7934,-361,3430,-1390,562,194,1,7,11
9.33E+02,-7889,-142,3399,-1368,229,146,1,7,11
9.22E+02,-7857,-198,3420,-1166,186,325,1,7,11
9.17E+02,-7914,-233,3443,-1227,159,-28,1,7,11
9.19E+02,-7941,-515,3201,-1256,362,-103,1,7,11
9.24E+02,-8194,-536,3437,-1248,296,106,1,7,11
9.30E+02,-7932,-570,3433,-1235,-21,92,1,7,11
9.32E+02,-7937,-600,3442,-1203,-53,109,1,7,11
9.31E+02,-8205,-583,3425,-1366,-70,-93,1,7,11
9.27E+02,-8212,-540,3420,-977,-61,-14,1,7,11
9.22E+02,-8216,-485,3412,-1077,-53,347,1,7,11
9.15E+02,-8197,-181,3410,-671,-41,192,1,7,11
9.08E+02,-7920,-133,3372,-778,-27,532,1,7,11
9.02E+02,-7888,-367,3382,-403,-6,572,1,7,11
8.98E+02,-7868,-359,3382,-565,272,565,1,7,11
8.98E+02,-7832,-362,3392,-231,281,513,1,7,11
9.00E+02,-8060,-370,3397,-153,280,158,1,7,11
9.05E+02,-8041,-141,3408,-351,268,286,1,7,11
9.14E+02,-8022,-161,3411,-300,-6,-119,1,7,11
9.25E+02,-8013,-201,3440,10,-26,-265,1,7,11
9.38E+02,-8005,-516,3451,57,-49,-133,1,7,11
9.52E+02,-8011,-548,3454,121,-79,-229,1,7,11
9.66E+02,-8008,-563,3451,-71,-108,-545,1,7,11
9.77E+02,-8022,-553,3443,-22,-127,-570,1,7,11
9.83E+02,-8057,-519,3442,279,113,-553,1,7,11
9.81E+02,-7813,-219,3416,315,100,-184,1,7,11
9.70E+02,-7815,-198,3415,306,89,-134,1,7,11
9.54E+02,-8060,-163,3408,274,90,-283,1,7,11
9.42E+02,-8060,-379,3418,-21,109,77,1,7,11
9.37E+02,-7825,-338,3426,-46,126,-78,1,7,11
9.44E+02,-7820,-315,3429,-61,-121,268,1,7,11
9.56E+02,-7814,-290,3435,-70,-116,329,1,7,11
9.68E+02,-7809,-265,3424,-71,-120,360,1,7,11
9.76E+02,-7817,30,3435,-72,127,365,1,7,11
9.78E+02,-7823,63,3442,-68,117,359,1,7,11
9.75E+02,-7822,71,3202,-81,103,345,1,7,11
9.70E+02,-7809,80,3204,-102,90,327,1,7,11
9.65E+02,-7809,93,3204,-119,88,295,1,7,11
9.62E+02,-7827,115,3205,123,101,268,1,7,11
9.57E+02,-7841,-112,3448,105,123,-2,1,7,11
9.51E+02,-7852,-82,3421,87,-110,276,1,7,11
9.42E+02,-7864,-70,3403,50,-68,313,1,7,11
9.31E+02,-7867,-78,3403,2,-32,347,1,7,11
9.23E+02,-7860,-98,3399,-298,-2,365,1,7,11
9.20E+02,-7853,-115,3387,-329,258,353,1,7,11
9.25E+02,-7863,120,3386,-361,-1,318,1,7,11
9.35E+02,-7864,110,3373,-383,-21,267,1,7,11
9.48E+02,-7866,88,3379,-150,-46,-45,1,7,11
9.61E+02,-7855,64,3384,-155,-76,-99,1,7,11
9.70E+02,-7844,36,3385,-158,-104,104,1,7,11
9.76E+02,-7821,0,3401,-145,124,44,1,7,11
9.75E+02,-7825,-284,3422,-367,106,-269,1,7,11
9.67E+02,-7813,-298,3423,-316,86,-306,1,7,11
9.52E+02,-8052,-303,3412,-269,75,-334,1,7,11
9.35E+02,-8053,-307,3410,15,77,-359,1,7,11
9.19E+02,-7811,-317,3417,34,76,-376,1,7,11
9.10E+02,-7834,-317,3416,57,78,-380,1,7,11
9.06E+02,-7857,-331,3432,70,78,-371,1,7,11
9.06E+02,-7898,-352,3437,90,72,-328,1,7,11
9.06E+02,-7922,-363,3448,-112,62,-295,1,7,11
9.06E+02,-7921,-376,3204,-74,40,-268,1,7,11
9.05E+02,-7918,-129,3215,-8,16,9,1,7,11
9.05E+02,-7915,-370,3215,334,-267,28,1,7,11
9.04E+02,-7897,-336,3439,177,-290,53,1,7,11
9.04E+02,-7880,-307,3413,258,-295,68,1,7,11
9.01E+02,-7864,-295,3399,573,-293,77,1,7,11
8.95E+02,-7846,-303,3409,624,-295,73,1,7,11
8.85E+02,-8063,-271,3380,444,-308,44,1,7,11
8.74E+02,-7825,-280,3426,420,-286,-273,1,7,11
8.67E+02,-7825,1,3450,452,-290,-316,1,7,11
8.68E+02,-7828,20,3233,446,-300,-362,1,7,11
8.78E+02,-7814,36,3256,441,-310,-133,1,7,11
8.93E+02,-8051,44,3277,413,-325,-152,1,7,11
9.10E+02,-8023,44,3289,631,-337,-184,1,7,11
9.24E+02,-7999,53,3292,593,-349,-234,1,7,11
9.35E+02,-7992,77,3291,554,-353,-536,1,7,11
9.43E+02,-8002,117,3270,254,-344,-565,1,7,11
9.48E+02,-8023,-104,3236,200,-319,-561,1,7,11
9.48E+02,-8050,-95,3217,128,-297,-533,1,7,11
9.45E+02,-8060,-112,3437,317,-283,-247,1,7,11
9.35E+02,-7846,113,3417,263,-258,-246,1,7,11
9.18E+02,-7914,76,3400,-16,9,-513,1,7,11
8.94E+02,-8236,35,3399,-11,-264,-535,1,7,11
8.63E+02,-8296,-268,3426,288,-323,-572,1,7,11
8.26E+02,-8065,-323,3200,368,-197,-636,1,7,11
7.84E+02,-8299,-347,3209,236,-636,-489,1,7,11
7.43E+02,-8234,-294,3452,621,-820,-881,1,7,11
7.08E+02,-7915,36,3208,393,-710,-759,1,7,11
6.84E+02,-7860,93,3259,572,-1058,-1109,1,7,11
6.72E+02,-8044,113,3585,162,-1117,-904,1,7,11
6.71E+02,-7986,100,3672,-44,-1135,-913,1,7,11
6.81E+02,-7675,50,3526,-264,-1136,-1128,1,7,11
7.00E+02,-7629,6,3857,-213,-1119,-1065,1,7,11
7.25E+02,-7589,-324,3936,-424,-1088,-723,1,7,11
7.53E+02,-7803,-171,3770,-873,-1054,-885,1,7,11
7.80E+02,-7754,-540,3866,-761,-1026,-800,1,7,11
8.00E+02,-7703,-391,4145,-1122,-736,-482,1,7,11
8.12E+02,-7382,-799,4130,-957,-694,-440,1,7,11
8.16E+02,-7319,-850,4110,-1308,-884,-423,1,7,11
8.14E+02,-7533,-699,3835,-1165,-786,-421,1,7,11
8.08E+02,-7499,-1092,3821,-1259,-414,-414,1,7,11
8.01E+02,-7500,-906,3835,-1580,-531,-396,1,7,11
7.95E+02,-7529,-960,4102,-1594,-138,-596,1,7,11
7.94E+02,-7525,-998,4100,-1558,-279,-248,1,7,11
7.96E+02,-7531,-994,3826,-1238,96,-141,1,7,11
7.97E+02,-7547,-978,4103,-1170,-31,-283,1,7,11
7.96E+02,-7318,-966,4144,-1382,353,81,1,7,11
7.94E+02,-7349,-943,4185,-1342,207,-82,1,7,11
7.96E+02,-7381,-908,4217,-1296,551,-10,1,7,11
8.05E+02,-7417,-1149,4016,-1283,618,283,1,7,11
8.21E+02,-7693,-907,4061,-1301,393,290,1,7,11
8.37E+02,-7709,-900,4093,-1309,401,264,1,7,11
8.48E+02,-7734,-1140,4079,-1304,398,-25,1,7,11
8.49E+02,-7713,-1109,4023,-1291,632,-42,1,7,11
8.41E+02,-7698,-1098,4218,-1318,406,-33,1,7,11
8.27E+02,-7706,-1098,4155,-1362,475,257,1,7,11
8.09E+02,-7722,-1109,4097,-1387,818,313,1,7,11
7.92E+02,-7734,-1111,3765,-1380,645,377,1,7,11
7.84E+02,-7729,-1118,3945,-1375,721,171,1,7,11
7.90E+02,-7728,-1144,3877,-1361,1058,201,1,7,11
8.05E+02,-7738,-921,3562,-1301,1131,214,1,7,11
8.21E+02,-7768,-932,3488,-952,933,200,1,7,11
8.31E+02,-7805,-898,3663,-1083,989,189,1,7,11
8.31E+02,-7606,-1091,3589,-713,1290,192,1,7,11
8.29E+02,-7671,-749,3248,-859,1307,217,1,7,11
8.30E+02,-8012,-889,3398,-512,1309,253,1,7,11
8.37E+02,-7835,-500,3011,-489,1017,557,1,7,11
8.45E+02,-7908,-623,3144,-800,972,599,1,7,11
8.47E+02,-8252,-528,2797,-666,926,397,1,7,11
8.39E+02,-8072,-242,2768,-1072,1101,478,1,7,11
8.23E+02,-8106,-250,2752,-926,742,808,1,7,11
8.12E+02,-8143,-513,2741,-979,646,855,1,7,11
8.14E+02,-8136,-527,2718,-990,796,874,1,7,11
8.31E+02,-8133,-528,2933,-961,459,847,1,7,11
8.57E+02,-8152,-523,2885,-920,412,798,1,7,11
8.82E+02,-8149,-545,2875,-1152,634,473,1,7,11
9.00E+02,-8156,-607,2940,-1118,606,633,1,7,11
9.12E+02,-8155,-395,2696,-760,565,253,1,7,11
9.19E+02,-8172,-403,2708,-881,516,363,1,7,11
9.23E+02,-8167,-394,2694,-493,205,-36,1,7,11
9.25E+02,-8123,-633,2911,-393,148,85,1,7,11
9.25E+02,-8089,-630,2876,-596,371,-314,1,7,11
9.26E+02,-8085,-634,2862,-575,346,-198,1,7,11
9.28E+02,-8106,-397,2866,-567,307,-587,1,7,11
9.31E+02,-8106,-414,2863,-553,-21,-444,1,7,11
9.36E+02,-8086,-432,2851,-551,-91,-804,1,7,11
9.40E+02,-8096,-468,2864,-563,115,-896,1,7,11
9.45E+02,-8067,-512,2881,-585,41,-714,1,7,11
9.48E+02,-8269,-840,2894,-624,-287,-1058,1,7,11
9.51E+02,-8209,-668,2912,-403,-347,-1152,1,7,11
9.52E+02,-7917,-746,2912,-433,-372,-996,1,7,11
9.51E+02,-7901,-1066,2913,-463,-380,-1332,1,7,11
9.47E+02,-7824,-1089,2821,-476,-137,-1389,1,7,11
9.39E+02,-8059,-1135,2819,-848,-339,-1199,1,7,11
9.27E+02,-7872,-959,2917,-677,-275,-1214,1,7,11
9.09E+02,-8244,-1002,2751,-658,12,-1183,1,7,11
8.90E+02,-8319,-1004,2776,-839,-275,-1360,1,7,11
8.74E+02,-8309,-1281,2763,-827,-331,-1284,1,7,11
8.64E+02,-8233,-1374,2802,-891,-147,-995,1,7,11
8.62E+02,-7864,-1227,3097,-694,-229,-1303,1,7,11
8.61E+02,-8046,-1577,3126,-763,-562,-1165,1,7,11
8.58E+02,-7962,-1420,3149,-1082,-638,-1537,1,7,11
8.48E+02,-7636,-1496,3145,-1147,-436,-1654,1,7,11
8.36E+02,-7581,-1819,3140,-974,-455,-1486,1,7,11
8.26E+02,-7782,-1881,3104,-1319,-448,-1796,1,7,11
8.22E+02,-7736,-1691,2788,-1181,-392,-1824,1,7,11
8.22E+02,-7736,-1776,2761,-1567,-554,-1809,1,7,11
8.19E+02,-7768,-2131,2752,-1422,-192,-1493,1,7,11
8.08E+02,-7560,-1958,2747,-1477,-347,-1651,1,7,11
7.88E+02,-7631,-2007,2705,-1462,3,-1251,1,7,11
7.66E+02,-7943,-2015,2917,-1414,91,-1318,1,7,11
7.49E+02,-7981,-2038,2891,-1643,-92,-1111,1,7,11
7.38E+02,-8029,-2336,2904,-1616,-61,-669,1,7,11
7.32E+02,-7818,-2365,2915,-1572,-94,-798,1,7,11
7.29E+02,-7855,-2364,2928,-1245,67,-463,1,7,11
7.26E+02,-7871,-2043,2894,-1155,-220,-619,1,7,11
7.24E+02,-7850,-2042,2897,-1168,-594,-554,1,7,11
7.23E+02,-8042,-2320,2894,-1193,-432,-213,1,7,11
7.22E+02,-7952,-2363,2905,-1215,-487,-139,1,7,11
7.21E+02,-7606,-2422,2927,-1206,-469,-322,1,7,11
7.21E+02,-7558,-2250,2715,-1171,-443,-308,1,7,11
7.21E+02,-7779,-2577,2748,-1343,-419,-324,1,7,11
7.20E+02,-7725,-2631,2765,-988,-406,-372,1,7,11
7.19E+02,-7702,-2674,2790,-1150,-637,-194,1,7,11
7.17E+02,-7698,-2435,2813,-1047,-612,-518,1,7,11
7.14E+02,-7711,-2456,3100,-694,-594,-557,1,7,11
7.10E+02,-7705,-2459,3112,-853,-588,-569,1,7,11
7.07E+02,-7699,-2474,3125,-782,-573,-562,1,7,11
7.06E+02,-7694,-2483,3146,-454,-554,-531,1,7,11
7.12E+02,-7693,-2468,3155,-386,-528,-234,1,7,11
7.34E+02,-7719,-2447,3172,-598,-233,-169,1,7,11
7.72E+02,-7731,-2438,3198,-571,-203,-341,1,7,11
8.18E+02,-7752,-2683,2968,-534,-171,11,1,7,11
8.58E+02,-7762,-2666,2984,-228,-144,111,1,7,11
8.83E+02,-7768,-2662,3012,-185,-369,-57,1,7,11
8.91E+02,-7764,-2651,3039,-384,-344,271,1,7,11
8.93E+02,-7737,-2628,3039,-315,-325,305,1,7,11
8.96E+02,-7712,-2610,3034,-268,-299,303,1,7,11
9.07E+02,-7688,-2617,3032,9,-267,262,1,7,11
9.23E+02,-7418,-2617,3030,28,26,-65,1,7,11
9.37E+02,-7414,-2587,2996,44,49,103,1,7,11
9.45E+02,-7689,-2564,2960,16,75,-279,1,7,11
9.43E+02,-7710,-2300,3193,-290,74,-325,1,7,11
9.38E+02,-7725,-2562,3185,-347,64,-344,1,7,11
9.32E+02,-7739,-2567,3185,-138,47,-334,1,7,11
9.31E+02,-7742,-2577,3174,-172,18,-299,1,7,11
9.34E+02,-7748,-2591,3178,-204,-264,5,1,7,11
9.35E+02,-7758,-2613,2951,-221,-290,69,1,7,11
9.31E+02,-7759,-2639,2969,-203,-318,-112,1,7,11
9.16E+02,-7735,-2663,2981,-153,-352,-35,1,7,11
8.94E+02,-7709,-2663,2988,-357,-369,268,1,7,11
8.72E+02,-7704,-2663,3024,-308,-369,286,1,7,11
8.56E+02,-7698,-2638,3029,8,-371,285,1,7,11
8.49E+02,-7714,-2599,3034,60,-354,275,1,7,11
8.49E+02,-7738,-2302,3034,98,-333,277,1,7,11
8.52E+02,-7762,-2257,3044,119,-306,289,1,7,11
8.55E+02,-7773,-2213,3049,-110,-281,306,1,7,11
8.56E+02,-7794,-2187,3070,-99,-260,323,1,7,11
8.56E+02,-7807,-2425,3346,-97,-262,328,1,7,11
8.52E+02,-7560,-2413,3359,-95,-271,315,1,7,11
8.44E+02,-7807,-2398,3364,-111,-299,282,1,7,11
8.35E+02,-7784,-2384,3354,120,-334,-21,1,7,11
8.25E+02,-7763,-2365,3344,71,-360,-82,1,7,11
8.16E+02,-7757,-2365,3357,-258,-375,120,1,7,11
8.06E+02,-7764,-2368,3363,-320,-129,86,1,7,11
7.91E+02,-7744,-2359,3354,-366,-152,74,1,7,11
7.72E+02,-7727,-2379,3347,-186,-157,70,1,7,11
7.53E+02,-7711,-2408,3344,-256,-160,74,1,7,11
7.42E+02,-7698,-2194,3359,-566,-156,76,1,7,11
7.41E+02,-7684,-2230,3368,-591,-145,83,1,7,11
7.48E+02,-7420,-2269,3375,-587,-374,89,1,7,11
7.57E+02,-7409,-2564,3378,-557,-335,98,1,7,11
7.65E+02,-7417,-2599,3389,-255,-283,98,1,7,11
7.74E+02,-7412,-2621,3397,-173,21,96,1,7,11
7.86E+02,-7423,-2627,3398,-336,71,88,1,7,11
8.03E+02,-7691,-2623,3408,15,111,79,1,7,11
8.23E+02,-7699,-2607,3405,100,-119,64,1,7,11
8.41E+02,-7704,-2592,3399,-92,-102,41,1,7,11
8.51E+02,-7708,-2570,3380,-49,-89,10,1,7,11
8.53E+02,-7719,-2292,3370,-35,-82,-274,1,7,11
8.50E+02,-7719,-2271,3359,-49,-88,-294,1,7,11
8.44E+02,-7724,-2264,3354,-81,-96,-307,1,7,11
8.37E+02,-7736,-2264,3355,-120,-107,-316,1,7,11
8.31E+02,-7734,-2274,3371,110,-126,-312,1,7,11
8.29E+02,-7740,-2290,3387,102,122,-302,1,7,11
8.34E+02,-7734,-2301,3395,105,113,-280,1,7,11
8.43E+02,-7717,-2571,3396,114,108,-259,1,7,11
8.54E+02,-7701,-2585,3399,-123,112,4,1,7,11
8.64E+02,-7701,-2596,3408,-102,114,2,1,7,11
8.72E+02,-7685,-2608,3410,-80,112,-265,1,7,11
8.76E+02,-7408,-2615,3396,-55,115,-283,1,7,11
8.74E+02,-7385,-2624,3390,-58,-118,-305,1,7,11
8.67E+02,-7385,-2642,3392,-56,-89,-319,1,7,11
8.57E+02,-7402,-2635,3390,-38,-53,-324,1,7,11
8.49E+02,-7692,-2606,3398,-12,-27,-303,1,7,11
8.46E+02,-7729,-2581,3392,270,-16,3,1,7,11
8.50E+02,-7751,-2296,3394,293,-23,70,1,7,11
8.56E+02,-7765,-2270,3397,292,-51,-123,1,7,11
8.61E+02,-7770,-2252,3394,278,-92,-76,1,7,11
8.63E+02,-7747,-2249,3381,-13,116,-48,1,7,11
8.62E+02,-7727,-2248,3382,-64,78,-47,1,7,11
8.61E+02,-7719,-2247,3393,-116,46,-57,1,7,11
8.62E+02,-7718,-2251,3390,92,15,-70,1,7,11
8.64E+02,-7721,-2249,3392,42,-270,-83,1,7,11
8.63E+02,-7731,-2256,3394,-272,-308,-89,1,7,11
8.57E+02,-7696,-2237,3351,-310,-372,-82,1,7,11
8.45E+02,-7711,-2252,3360,-384,-139,-75,1,7,11
8.30E+02,-7729,-2261,3379,-160,-154,-33,1,7,11
8.17E+02,-7754,-2291,3430,-149,-148,296,1,7,11
8.09E+02,-7744,-2562,3442,-288,-130,194,1,7,11
8.04E+02,-7708,-2580,3205,84,-346,535,1,7,11
8.00E+02,-7420,-2593,3227,-44,-282,578,1,7,11
7.96E+02,-7394,-2588,3261,351,45,578,1,7,11
7.90E+02,-7381,-2304,3271,231,118,539,1,7,11
7.85E+02,-7380,-2274,3289,598,-73,229,1,7,11
7.83E+02,-7377,-2251,3315,435,-14,173,1,7,11
7.81E+02,-7377,-2226,3321,779,298,129,1,7,11
7.78E+02,-7375,-2194,3594,854,357,357,1,7,11
7.70E+02,-7367,-2431,3606,668,155,352,1,7,11
7.59E+02,-7357,-2178,3625,736,214,370,1,7,11
7.46E+02,-7330,-2431,3601,1076,523,155,1,7,11
7.34E+02,-7549,-2179,3309,1137,593,209,1,7,11
7.26E+02,-7485,-2180,3262,934,421,530,1,7,11
7.24E+02,-7463,-2428,3211,976,796,593,1,7,11
7.30E+02,-7466,-2395,3417,1013,669,418,1,7,11
7.43E+02,-7474,-2366,3390,1288,1058,791,1,7,11
7.64E+02,-7525,-2042,3381,1337,954,678,1,7,11
7.88E+02,-7382,-1951,3383,1161,1369,1131,1,7,11
8.15E+02,-7716,-2097,3346,1266,1227,1385,1,7,11
8.42E+02,-7748,-1743,3028,1608,1583,1632,1,7,11
8.67E+02,-7795,-1897,2951,1438,1441,1838,1,7,11
8.88E+02,-7605,-1531,3102,1533,1814,1717,1,7,11
9.04E+02,-7942,-1420,2749,1854,1664,1759,1,7,11
9.14E+02,-8024,-1583,2924,1882,1729,1708,1,7,11
9.19E+02,-7854,-1266,2881,1898,1752,1826,1,7,11
9.18E+02,-8208,-1198,2830,1700,1732,1630,1,7,11
9.14E+02,-8305,-1374,2537,1786,1666,1159,1,7,11
9.08E+02,-8124,-1294,2492,2155,1824,966,1,7,11
9.02E+02,-8165,-964,2437,2005,1453,1060,1,7,11
8.97E+02,-8187,-1151,2635,2354,1590,658,1,7,11
8.93E+02,-8451,-1092,2585,2411,1211,781,1,7,11
8.93E+02,-8451,-1046,2298,2184,1342,398,1,7,11
8.95E+02,-8450,-730,2264,2206,959,541,1,7,11
8.95E+02,-8450,-683,2235,2201,1092,192,1,7,11
8.90E+02,-8171,-896,2209,2177,721,136,1,7,11
8.76E+02,-8145,-877,2186,2382,874,355,1,7,11
8.54E+02,-8123,-866,2419,2338,788,339,1,7,11
8.27E+02,-8105,-839,2409,2043,457,343,1,7,11
8.01E+02,-8101,-826,2401,1977,617,369,1,7,11
7.78E+02,-8114,-816,2424,1939,558,157,1,7,11
7.60E+02,-8131,-805,2189,2172,241,223,1,7,11
7.48E+02,-8142,-776,2187,2171,176,551,1,7,11
7.41E+02,-8158,-475,2195,2160,374,623,1,7,11
7.35E+02,-8155,-432,2201,2133,303,446,1,7,11
7.27E+02,-8140,-640,2205,2085,-19,772,1,7,11
7.15E+02,-8145,-596,2238,1762,-72,835,1,7,11
7.04E+02,-8133,-550,2272,1696,125,882,1,7,11
6.97E+02,-8119,-238,2287,1899,71,649,1,7,11
6.93E+02,-8093,-181,2287,1822,24,643,1,7,11
6.91E+02,-8075,-376,2294,1475,-262,869,1,7,11
6.88E+02,-8313,-331,2569,1627,-281,826,1,7,11
6.85E+02,-8298,-301,2586,1264,-294,777,1,7,11
6.81E+02,-8286,-282,2601,1407,-299,472,1,7,11
6.79E+02,-8267,-261,2611,1306,-296,424,1,7,11
6.80E+02,-8257,-257,2630,946,-277,637,1,7,11
6.85E+02,-8231,-260,2638,1116,0,593,1,7,11
6.98E+02,-8220,-268,2639,1052,41,552,1,7,11
7.22E+02,-8221,-259,2644,764,86,527,1,7,11
7.60E+02,-8225,10,2639,741,-118,525,1,7,11
8.08E+02,-8233,30,2636,742,-67,545,1,7,11
8.58E+02,-8249,44,2635,751,-24,594,1,7,11
9.02E+02,-8247,73,2630,1028,268,398,1,7,11
9.33E+02,-8256,109,2610,1052,308,464,1,7,11
9.51E+02,-8269,-101,2597,1079,347,793,1,7,11
9.56E+02,-8284,-47,2584,1103,373,873,1,7,11
9.50E+02,-8289,268,2564,1113,135,689,1,7,11
9.35E+02,-8306,332,2296,1100,142,740,1,7,11
9.14E+02,-8074,144,2292,1072,136,1025,1,7,11
8.93E+02,-8089,214,2280,1035,367,1045,1,7,11
8.75E+02,-8108,551,2278,720,325,1044,1,7,11
8.62E+02,-8111,598,2277,666,271,1028,1,7,11
8.53E+02,-8106,390,2286,868,-82,714,1,7,11
8.46E+02,-8093,424,2281,817,112,665,1,7,11
8.42E+02,-8082,457,2277,774,65,867,1,7,11
8.40E+02,-8066,477,2278,463,26,817,1,7,11
8.40E+02,-8317,496,2290,432,7,773,1,7,11
8.40E+02,-8292,507,2560,412,-266,484,1,7,11
8.41E+02,-8272,772,2569,401,-261,441,1,7,11
8.42E+02,-8262,794,2568,401,5,400,1,7,11
8.42E+02,-8255,806,2576,396,20,618,1,7,11
8.40E+02,-8254,819,2581,400,35,587,1,7,11
8.32E+02,-8252,829,2578,403,47,564,1,7,11
8.15E+02,-8260,833,2583,402,54,544,1,7,11
7.89E+02,-8263,841,2587,409,56,528,1,7,11
7.61E+02,-8264,865,2583,415,47,514,1,7,11
7.39E+02,-8291,892,2592,421,42,252,1,7,11
7.25E+02,-8311,675,2591,427,22,516,1,7,11
7.18E+02,-8317,715,2591,429,-258,531,1,7,11
7.14E+02,-8069,763,2589,441,-282,550,1,7,11
7.14E+02,-8069,1052,2586,442,-305,571,1,7,11
7.19E+02,-8309,1084,2599,437,-331,581,1,7,11
7.33E+02,-8303,1119,2618,422,-351,565,1,7,11
7.55E+02,-8305,898,2634,406,-369,539,1,7,11
7.84E+02,-8300,927,2643,632,-131,249,1,7,11
8.19E+02,-8288,959,2651,601,-147,207,1,7,11
8.57E+02,-8276,987,2658,562,-158,163,1,7,11
8.91E+02,-8277,1018,2671,522,-158,366,1,7,11
9.17E+02,-8275,1299,2438,230,-162,327,1,7,11
9.30E+02,-8265,1329,2451,183,-163,293,1,7,11
9.31E+02,-8257,1333,2465,132,-162,269,1,7,11
9.27E+02,-8234,1328,2480,339,-162,-7,1,7,11
9.27E+02,-8214,1333,2494,292,-154,-45,1,7,11
9.34E+02,-8212,1337,2506,-2,-149,-83,1,7,11
9.48E+02,-8209,1342,2509,-37,-143,-118,1,7,11
9.65E+02,-8213,1353,2521,-65,-135,102,1,7,11
9.80E+02,-8212,1371,2530,-101,-133,65,1,7,11
9.92E+02,-8208,1396,2529,102,-130,16,1,7,11
1.00E+03,-8220,1158,2543,34,-382,-286,1,7,11
1.01E+03,-8222,1162,2556,-312,-136,-328,1,7,11
1.01E+03,-8229,1155,2836,-157,-142,-380,1,7,11
1.01E+03,-8230,1396,2862,-517,-165,-162,1,7,11
1.01E+03,-8232,1361,2907,-628,-183,-204,1,7,11
1.01E+03,-8212,1330,2932,-467,-215,-236,1,7,11
1.00E+03,-7931,1296,2941,-834,-237,-531,1,7,11
1.00E+03,-7922,1016,2941,-692,-239,-573,1,7,11
1.00E+03,-7935,981,2697,-1071,-226,-600,1,7,11
9.98E+02,-8193,950,2696,-929,-206,-606,1,7,11
9.96E+02,-7932,928,2936,-1293,-174,-596,1,7,11
9.92E+02,-8198,906,2917,-1400,-380,-579,1,7,11
9.88E+02,-8195,1139,2901,-1251,-329,-558,1,7,11
9.83E+02,-8205,1122,2896,-1598,-280,-555,1,7,11
9.76E+02,-8215,1109,2884,-1411,7,-556,1,7,11
9.67E+02,-8227,1083,2871,-1468,31,-560,1,7,11
9.56E+02,-8217,1038,2864,-1517,46,-573,1,7,11
9.42E+02,-8205,730,2846,-1815,58,-604,1,7,11
9.23E+02,-7936,667,2836,-1856,65,-394,1,7,11
9.02E+02,-7929,846,2843,-1894,64,-448,1,7,11
8.81E+02,-7925,499,2860,-1916,49,-497,1,7,11
8.66E+02,-7933,423,2872,-1674,27,-807,1,7,11
8.59E+02,-8202,600,2888,-1676,-266,-849,1,7,11
8.58E+02,-8211,517,2903,-1666,-316,-870,1,7,11
8.60E+02,-8219,190,2907,-1911,-369,-871,1,7,11
8.59E+02,-8230,128,2922,-1901,-171,-846,1,7,11
8.54E+02,-8236,335,2927,-1896,-235,-800,1,7,11
8.49E+02,-8252,293,2700,-1908,-553,-489,1,7,11
8.47E+02,-8276,267,2739,-1915,-625,-422,1,7,11
8.49E+02,-8293,-13,2774,-1668,-453,-607,1,7,11
8.53E+02,-8304,-29,2815,-1677,-799,-546,1,7,11
8.55E+02,-8066,271,3116,-1682,-895,-252,1,7,11
8.52E+02,-8124,332,3157,-1735,-1046,-256,1,7,11
8.45E+02,-8152,130,2952,-2073,-916,-552,1,7,11
8.36E+02,-8167,167,2998,-1953,-1319,-390,1,7,11
8.29E+02,-8138,180,3043,-2391,-1239,-795,1,7,11
8.26E+02,-8099,173,3352,-2603,-1410,-753,1,7,11
8.28E+02,-8295,148,3403,-2823,-1835,-987,1,7,11
8.35E+02,-8217,360,3451,-2799,-1731,-1238,1,7,11
8.47E+02,-7872,274,3252,-3043,-2114,-1486,1,7,11
8.62E+02,-8033,-88,3588,-3266,-1955,-1722,1,7,11
8.77E+02,-7943,54,3664,-3704,-2018,-1937,1,7,11
8.89E+02,-7597,-324,3491,-3853,-2046,-2366,1,7,11
8.98E+02,-7762,-237,3845,-3750,-2048,-2256,1,7,11
9.05E+02,-7403,-399,3936,-3839,-2031,-2625,1,7,11
9.12E+02,-7549,-819,3764,-4156,-1980,-2463,1,7,11
9.22E+02,-7450,-730,3833,-4196,-2156,-2539,1,7,11
9.31E+02,-7100,-914,4184,-3995,-2052,-2854,1,7,11
9.35E+02,-7295,-1371,4037,-4038,-1672,-2907,1,7,11
9.30E+02,-7246,-1569,4370,-4041,-1811,-2931,1,7,11
9.12E+02,-7214,-1491,4421,-4021,-1428,-2936,1,7,11
8.88E+02,-7187,-1887,4460,-3979,-1277,-2928,1,7,11
8.67E+02,-7176,-2055,4240,-4198,-1363,-2881,1,7,11
8.56E+02,-6911,-1969,4246,-4121,-935,-2540,1,7,11
8.55E+02,-6902,-2383,4479,-3723,-767,-2677,1,7,11
8.62E+02,-6905,-2273,4433,-3558,-855,-2268,1,7,11
8.72E+02,-6904,-2682,4382,-3613,-429,-2360,1,7,11
8.81E+02,-7217,-2546,4353,-3369,-252,-1945,1,7,11
8.91E+02,-7271,-2887,4072,-3075,-374,-1779,1,7,11
9.00E+02,-7042,-2702,4046,-2526,-283,-1881,1,7,11
9.10E+02,-7293,-2767,4026,-2211,39,-1497,1,7,11
9.21E+02,-7276,-3077,3987,-2142,92,-1419,1,7,11
9.30E+02,-7239,-3117,4212,-1838,-120,-1658,1,7,11
9.37E+02,-7194,-3165,4163,-1549,-84,-1436,1,7,11
9.40E+02,-6910,-2953,4120,-1285,-52,-1518,1,7,11
9.38E+02,-6889,-2973,3820,-1036,-21,-1888,1,7,11
9.34E+02,-6902,-2991,3790,-818,290,-1758,1,7,11
9.28E+02,-7183,-3017,3790,-624,346,-2113,1,7,11
9.21E+02,-7205,-3052,3789,-189,148,-1932,1,7,11
9.13E+02,-7228,-3341,3785,-260,213,-1987,1,7,11
9.06E+02,-7258,-3402,3798,-91,550,-2028,1,7,11
9.02E+02,-7269,-3231,3806,335,623,-2318,1,7,11
9.00E+02,-7275,-3604,3814,252,435,-2367,1,7,11
9.01E+02,-7241,-3708,3789,449,497,-2181,1,7,11
9.04E+02,-7193,-3564,3748,893,825,-2292,1,7,11
9.09E+02,-6870,-3952,3958,1056,660,-2452,1,7,11
9.13E+02,-6789,-3832,3915,962,766,-2920,1,7,11
9.13E+02,-6964,-3990,3875,1400,1149,-2946,1,7,11
9.07E+02,-6652,-4375,3842,1626,1285,-3280,1,7,11
8.93E+02,-6569,-4480,3537,1822,1369,-3564,1,7,11
8.75E+02,-6540,-4321,3530,1781,1217,-3809,1,7,11
8.59E+02,-6779,-4624,3507,2042,1276,-3988,1,7,11
8.47E+02,-6716,-4657,3459,2563,1550,-4362,1,7,11
8.41E+02,-6393,-4715,3654,2527,1575,-4441,1,7,11
8.38E+02,-6326,-4506,3602,2720,1593,-4276,1,7,11
8.36E+02,-6493,-4522,3274,3135,1597,-4622,1,7,11
8.32E+02,-6412,-4518,3227,2952,1595,-4713,1,7,11
8.28E+02,-6102,-4543,3237,3189,1580,-4515,1,7,11
8.24E+02,-6031,-4567,3240,3161,1275,-4545,1,7,11
8.21E+02,-6220,-4876,3265,3087,1195,-4561,1,7,11
8.19E+02,-6154,-4961,3315,2739,1320,-4585,1,7,11
8.20E+02,-5809,-4768,3617,2893,1125,-4570,1,7,11
8.26E+02,-6012,-4840,3673,2680,711,-4546,1,7,11
8.36E+02,-5922,-5168,3462,2286,803,-4510,1,7,11
8.51E+02,-5542,-5236,3484,2393,395,-4515,1,7,11
8.72E+02,-5680,-5057,3530,1955,538,-4559,1,7,11
8.97E+02,-5300,-5112,3556,1775,178,-4877,1,7,11
9.23E+02,-5444,-5457,3863,1803,358,-4950,1,7,11
9.49E+02,-5086,-5288,3920,1593,291,-4775,1,7,11
9.70E+02,-5239,-5641,3716,1364,-34,-4862,1,7,11
9.85E+02,-5135,-5747,3789,1148,-123,-5226,1,7,11
9.93E+02,-4784,-5563,3830,708,36,-5082,1,7,11
9.95E+02,-4942,-5604,4107,822,-301,-5392,1,7,11
9.89E+02,-4556,-5917,4150,633,-377,-5403,1,7,11
9.76E+02,-4658,-5969,4164,206,-199,-5114,1,7,11
9.61E+02,-4234,-5819,4205,258,-517,-5073,1,7,11
9.45E+02,-4086,-6157,3974,112,-559,-5025,1,7,11
9.31E+02,-4205,-6267,4015,-309,-588,-5210,1,7,11
9.22E+02,-3803,-6417,4062,-203,-392,-5139,1,7,11
9.16E+02,-3887,-6294,4091,-565,-477,-4840,1,7,11
9.13E+02,-3469,-6392,4088,-638,-792,-4843,1,7,11
9.13E+02,-3613,-6743,4372,-463,-831,-5129,1,7,11
9.14E+02,-3263,-6606,4420,-799,-883,-5152,1,7,11
9.13E+02,-3411,-6633,4408,-804,-717,-5174,1,7,11
9.09E+02,-3031,-6938,4395,-854,-1065,-5152,1,7,11
9.00E+02,-3167,-6785,4402,-647,-1143,-4835,1,7,11
8.87E+02,-2760,-6797,4094,-876,-965,-4983,1,7,11
8.71E+02,-2840,-6801,4022,-875,-1004,-4574,1,7,11
8.53E+02,-2683,-6873,3999,-667,-977,-4632,1,7,11
8.38E+02,-2303,-7202,3991,-888,-910,-4391,1,7,11
8.28E+02,-2418,-7233,4220,-820,-1084,-4106,1,7,11
8.29E+02,-1971,-7253,4153,-460,-665,-3639,1,7,11
8.38E+02,-2151,-7052,4173,-441,-795,-3356,1,7,11
8.51E+02,-2091,-7086,4176,-636,-456,-3074,1,7,11
8.62E+02,-1737,-7123,4158,-609,-428,-2823,1,7,11
8.71E+02,-1666,-7428,4149,-603,-424,-2635,1,7,11
8.77E+02,-1857,-7146,4132,-607,-450,-2210,1,7,11
8.82E+02,-1794,-7167,4148,-398,-777,-2037,1,7,11
8.87E+02,-1454,-7496,4171,-421,-875,-2110,1,7,11
8.91E+02,-1613,-7317,4195,-406,-705,-1680,1,7,11
8.89E+02,-1231,-7337,4172,-578,-1043,-1527,1,7,11
8.76E+02,-1361,-7323,4133,-519,-1092,-1410,1,7,11
8.53E+02,-998,-7549,4102,-244,-1123,-1592,1,7,11
8.29E+02,-915,-7297,4110,-543,-1126,-1538,1,7,11
8.14E+02,-1100,-7332,4134,-576,-1118,-1234,1,7,11
8.18E+02,-1030,-7356,4138,-557,-1094,-1189,1,7,11
8.36E+02,-701,-7377,4128,-546,-1056,-1400,1,7,11
8.58E+02,-666,-7363,4121,-248,-739,-1353,1,7,11
8.79E+02,-644,-7345,4130,-221,-678,-1023,1,7,11
8.93E+02,-867,-7326,4121,-204,-649,-938,1,7,11
9.02E+02,-836,-7552,4118,-204,-885,-1108,1,7,11
9.07E+02,-809,-7319,4138,-240,-876,-1035,1,7,11
9.11E+02,-777,-7329,4144,-245,-888,-704,1,7,11
9.13E+02,-468,-7340,4132,-234,-662,-886,1,7,11
9.11E+02,-430,-7339,4098,-246,-685,-832,1,7,11
9.05E+02,-401,-7354,3839,-536,-707,-783,1,7,11
8.94E+02,-620,-7376,3838,-561,-738,-487,1,7,11
8.82E+02,-584,-7377,3825,-565,-1030,-450,1,7,11
8.72E+02,-563,-7389,3827,-579,-1052,-417,1,7,11
8.68E+02,-256,-7405,3818,-576,-1064,-621,1,7,11
8.70E+02,-218,-7689,3807,-562,-1062,-601,1,7,11
8.75E+02,-180,-7711,3789,-534,-1039,-600,1,7,11
8.82E+02,-158,-7420,3771,-222,-742,-606,1,7,11
8.89E+02,-134,-7389,3756,-207,-714,-607,1,7,11
8.92E+02,-349,-7371,3744,-223,-700,-612,1,7,11
8.88E+02,-326,-7410,3756,-255,-679,-616,1,7,11
8.75E+02,-286,-7708,3759,-256,-649,-603,1,7,11
8.56E+02,-273,-7716,3757,-226,-850,-592,1,7,11
8.37E+02,-272,-7721,3758,-188,-794,-557,1,7,11
8.24E+02,12,-7701,3736,-138,-492,-524,1,7,11
8.20E+02,31,-7417,3719,-362,-442,-251,1,7,11
8.17E+02,50,-7408,3721,-364,-401,-251,1,7,11
8.09E+02,42,-7404,3736,-357,-625,-525,1,7,11
7.92E+02,25,-7411,3749,-359,-603,-538,1,7,11
7.73E+02,18,-7409,3744,-342,-599,-537,1,7,11
7.60E+02,23,-7406,3724,-341,-604,-531,1,7,11
7.59E+02,40,-7684,3714,-357,-605,-524,1,7,11
7.67E+02,67,-7687,3956,-359,-602,-517,1,7,11
7.76E+02,91,-7692,3949,-363,-598,-520,1,7,11
7.83E+02,107,-7697,3936,-351,-591,-525,1,7,11
7.89E+02,-126,-7681,3917,-353,-591,-515,1,7,11
7.96E+02,-107,-7723,3935,-382,-588,-515,1,7,11
8.07E+02,-78,-7724,3921,-367,-585,-246,1,7,11
8.21E+02,-47,-7724,3910,-362,-573,-218,1,7,11
8.35E+02,-16,-7726,3893,-357,-558,-186,1,7,11
8.49E+02,-4,-7736,3892,-350,-535,-166,1,7,11
8.60E+02,-1,-7745,3917,-337,-523,-148,1,7,11
8.70E+02,-14,-7724,3920,-312,-513,-134,1,7,11
8.83E+02,-15,-7715,3915,-311,-515,-362,1,7,11
9.00E+02,-5,-7705,3892,-308,-521,-344,1,7,11
9.17E+02,274,-7694,3867,-327,-524,-342,1,7,11
9.31E+02,289,-7685,3865,-351,-519,-339,1,7,11
9.37E+02,295,-7700,3851,-366,-531,-335,1,7,11
9.32E+02,320,-7714,3847,-372,-551,-316,1,7,11
9.21E+02,340,-7754,3864,-376,-558,-297,1,7,11
9.10E+02,348,-7758,3851,-344,-555,-267,1,7,11
9.04E+02,353,-7760,3848,-309,-532,0,1,7,11
9.04E+02,373,-7748,3845,-276,-254,12,1,7,11
9.09E+02,382,-7738,3842,-267,-221,14,1,7,11
9.14E+02,381,-7707,3557,-261,-189,11,1,7,11
9.18E+02,142,-7711,3538,-282,-171,-261,1,7,11
9.20E+02,144,-7741,3543,-321,-150,-280,1,7,11
9.21E+02,149,-7773,3548,-344,-134,-310,1,7,11
9.20E+02,149,-7790,3553,-338,-373,-315,1,7,11
9.19E+02,158,-7795,3545,-298,-356,-310,1,7,11
9.16E+02,166,-7779,3544,-259,-335,-300,1,7,11
9.07E+02,180,-7744,3522,35,-325,-297,1,7,11
8.93E+02,184,-7741,3527,41,-315,-299,1,7,11
8.74E+02,187,-7728,3509,44,-293,-301,1,7,11
8.57E+02,198,-7743,3520,29,-272,-295,1,7,11
8.49E+02,205,-7748,3512,19,22,-289,1,7,11
8.54E+02,221,-7747,3509,28,61,-290,1,7,11
8.67E+02,218,-7754,3521,30,104,-307,1,7,11
8.84E+02,197,-7752,3523,48,-115,-310,1,7,11
9.00E+02,184,-7735,3518,74,-86,-308,1,7,11
9.13E+02,176,-7709,3504,77,-77,-305,1,7,11
9.18E+02,165,-7712,3508,66,-61,-305,1,7,11
9.15E+02,147,-7728,3528,26,-47,-304,1,7,11
9.01E+02,148,-7726,3528,12,-56,-293,1,7,11
8.82E+02,147,-7717,3518,1,-74,-284,1,7,11
8.64E+02,149,-7727,3512,-276,-84,-276,1,7,11
8.55E+02,165,-7738,3501,-297,-105,-269,1,7,11
8.55E+02,182,-7756,3501,-299,-110,-270,1,7,11
8.58E+02,187,-7781,3507,-287,-106,-276,1,7,11
8.57E+02,179,-7798,3519,4,-94,-284,1,7,11
8.49E+02,172,-7774,3509,51,-92,-287,1,7,11
8.38E+02,175,-7752,3521,67,-96,-285,1,7,11
8.28E+02,178,-7745,3539,68,-108,-282,1,7,11
8.24E+02,194,-7727,3545,76,125,-280,1,7,11
8.27E+02,208,-7703,3545,75,111,-276,1,7,11
8.32E+02,209,-7711,3556,50,104,-260,1,7,11
8.36E+02,200,-7703,3557,45,101,26,1,7,11
8.35E+02,199,-7719,3571,33,90,58,1,7,11
8.30E+02,210,-7723,3564,32,77,78,1,7,11
8.18E+02,227,-7729,3561,33,68,85,1,7,11
8.01E+02,237,-7733,3557,28,78,79,1,7,11
7.84E+02,248,-7732,3530,32,92,73,1,7,11
7.75E+02,251,-7755,3533,18,107,58,1,7,11
7.77E+02,240,-7784,3564,21,-119,31,1,7,11
7.90E+02,201,-7784,3574,59,-92,16,1,7,11
8.10E+02,164,-7761,3582,99,-81,16,1,7,11
8.34E+02,156,-7725,3564,120,-97,28,1,7,11
8.59E+02,161,-7688,3547,115,-112,27,1,7,11
8.81E+02,162,-7693,3553,84,-124,22,1,7,11
8.98E+02,156,-7691,3549,73,118,22,1,7,11
9.08E+02,154,-7686,3558,63,101,35,1,7,11
9.10E+02,164,-7707,3550,40,76,58,1,7,11
9.07E+02,167,-7744,3568,30,59,75,1,7,11
8.99E+02,170,-7762,3572,57,45,102,1,7,11
8.86E+02,181,-7749,3567,100,43,-121,1,7,11
8.67E+02,179,-7736,3586,113,55,-115,1,7,11
8.41E+02,164,-7703,3569,-127,68,-114,1,7,11
8.08E+02,153,-7682,3571,111,65,-113,1,7,11
7.75E+02,146,-7695,3579,86,62,-124,1,7,11
7.48E+02,142,-7692,3841,73,49,117,1,7,11
7.32E+02,140,-7690,3845,56,39,104,1,7,11
7.29E+02,137,-7690,3858,37,20,94,1,7,11
7.40E+02,156,-7696,3845,23,-267,92,1,7,11
7.63E+02,178,-7697,3840,6,-295,89,1,7,11
7.93E+02,199,-7705,3577,-270,-315,87,1,7,11
8.21E+02,210,-7718,3580,-282,-314,94,1,7,11
8.41E+02,222,-7725,3581,-283,-307,116,1,7,11
8.52E+02,239,-7724,3561,-274,-288,-106,1,7,11
8.56E+02,255,-7743,3562,-281,17,-64,1,7,11
8.54E+02,529,-7761,3555,-283,68,-26,1,7,11
8.48E+02,528,-7747,3546,-261,-128,-23,1,7,11
8.38E+02,248,-7732,3543,0,-82,-4,1,7,11
8.27E+02,242,-7735,3545,6,-27,296,1,7,11
8.15E+02,254,-7762,3544,10,281,344,1,7,11
8.06E+02,230,-7751,3533,32,345,364,1,7,11
8.03E+02,202,-7743,3530,27,135,141,1,7,11
8.06E+02,163,-7742,3542,29,180,171,1,7,11
8.14E+02,383,-7744,3551,30,198,203,1,7,11
8.22E+02,359,-7742,3551,46,212,247,1,7,11
8.27E+02,344,-7728,3574,51,228,535,1,7,11
8.28E+02,302,-7732,3842,36,245,555,1,7,11
8.27E+02,258,-7735,3858,40,237,586,1,7,11
8.25E+02,-19,-7731,3859,58,214,631,1,7,11
8.21E+02,-20,-7697,3582,76,186,446,1,7,11
8.15E+02,267,-7402,3556,59,170,797,1,7,11
8.03E+02,268,-7370,3543,1,181,658,1,7,11
7.87E+02,282,-7385,3578,-338,236,1077,1,7,11
7.69E+02,-16,-7695,3892,-164,565,985,1,7,11
7.56E+02,-70,-7750,3878,-158,637,1190,1,7,11
7.51E+02,-106,-7731,3861,-363,431,1613,1,7,11
7.51E+02,82,-7779,3844,-341,776,1476,1,7,11
7.53E+02,5,-7557,3852,-303,873,1853,1,7,11
7.54E+02,-354,-7579,3909,19,690,1741,1,7,11
7.51E+02,-211,-7576,3921,106,681,1949,1,7,11
7.43E+02,-563,-7795,3885,-13,646,2217,1,7,11
7.27E+02,-637,-7806,3920,331,658,2503,1,7,11
7.07E+02,-777,-7763,3955,191,763,2775,1,7,11
6.88E+02,-658,-7734,3722,530,1122,3012,1,7,11
6.72E+02,-760,-7398,3721,639,968,3249,1,7,11
6.63E+02,-1123,-7353,3748,443,1348,3510,1,7,11
6.64E+02,-1019,-7306,3770,478,1232,3800,1,7,11
6.70E+02,-1159,-7298,3784,509,1616,4092,1,7,11
6.76E+02,-1549,-7538,3777,797,1465,4329,1,7,11
6.75E+02,-1429,-7546,3754,842,1799,4488,1,7,11
6.75E+02,-1853,-7549,3955,854,1823,4557,1,7,11
6.84E+02,-1787,-7428,3871,689,1841,4731,1,7,11
7.06E+02,-2119,-7128,3879,719,1707,4318,1,7,11
7.34E+02,-2645,-7155,3902,742,2156,4445,1,7,11
7.64E+02,-2697,-7080,3925,1114,1995,4049,1,7,11
7.89E+02,-2952,-7198,3924,982,1965,3998,1,7,11
8.11E+02,-3381,-6857,3945,1288,2094,4355,1,7,11
8.31E+02,-3262,-6829,3734,1325,1674,4235,1,7,11
8.50E+02,-3652,-7005,3783,1159,1490,4608,1,7,11
8.65E+02,-3710,-6615,3762,1252,1541,4673,1,7,11
8.72E+02,-3561,-6716,3776,1244,1176,4666,1,7,11
8.69E+02,-3715,-6352,3822,1174,1348,4693,1,7,11
8.57E+02,-3814,-6296,4135,1304,973,4725,1,7,11
8.38E+02,-4168,-6463,4166,924,1130,4700,1,7,11
8.18E+02,-4037,-6405,3990,1026,1063,4660,1,7,11
7.99E+02,-4353,-6055,4005,669,706,4327,1,7,11
7.83E+02,-4440,-6205,4018,794,656,4437,1,7,11
7.70E+02,-4300,-5850,4044,422,643,4014,1,7,11
7.61E+02,-4643,-6005,4014,569,858,3829,1,7,11
7.56E+02,-4685,-5919,4203,178,822,3886,1,7,11
7.56E+02,-4510,-5570,4126,273,843,3665,1,7,11
7.61E+02,-4881,-5521,3820,100,659,3226,1,7,11
7.70E+02,-4767,-5715,3780,-270,755,3071,1,7,11
7.82E+02,-5180,-5676,3751,-369,1122,3191,1,7,11
7.95E+02,-5110,-5358,3723,-136,973,3089,1,7,11
8.07E+02,-5491,-5307,3911,-154,1288,2766,1,7,11
8.11E+02,-5650,-5499,3868,-172,1355,2696,1,7,11
8.04E+02,-5743,-5440,3548,-182,1334,2920,1,7,11
7.87E+02,-5624,-5410,3532,-206,1340,2849,1,7,11
7.66E+02,-5813,-5101,3523,-150,1338,2510,1,7,11
7.45E+02,-6180,-5054,3495,-318,967,2678,1,7,11
7.29E+02,-6262,-5018,3473,30,1089,2605,1,7,11
7.22E+02,-6269,-5034,3476,118,706,2569,1,7,11
7.28E+02,-6256,-5011,3471,-20,844,2200,1,7,11
7.42E+02,-6249,-5221,3478,340,770,2035,1,7,11
7.55E+02,-6206,-5192,3481,179,428,2123,1,7,11
7.60E+02,-6153,-5162,3486,246,627,1907,1,7,11
7.60E+02,-6165,-4812,3492,586,623,1421,1,7,11
7.61E+02,-6190,-4765,3506,404,629,1196,1,7,11
7.71E+02,-6243,-4950,3518,770,639,900,1,7,11
7.84E+02,-6031,-4877,3524,835,404,749,1,7,11
7.92E+02,-6051,-4578,3528,868,417,891,1,7,11
7.86E+02,-6088,-4531,3541,650,442,792,1,7,11
7.66E+02,-6112,-4502,3560,669,456,461,1,7,11
7.46E+02,-6132,-4722,3572,701,466,635,1,7,11
7.35E+02,-6137,-4688,3580,727,475,554,1,7,11
7.39E+02,-6419,-4639,3844,750,499,215,1,7,11
7.50E+02,-6433,-4346,3852,756,773,158,1,7,11
7.63E+02,-6456,-4325,3856,747,801,362,1,7,11
7.77E+02,-6476,-4305,3862,744,818,325,1,7,11
7.91E+02,-6480,-4297,3874,726,810,295,1,7,11
8.07E+02,-6496,-4273,3871,720,792,-5,1,7,11
8.25E+02,-6273,-4248,3893,697,498,-52,1,7,11
8.43E+02,-6302,-4470,3911,675,448,-95,1,7,11
8.60E+02,-6322,-4443,3922,648,393,-117,1,7,11
8.76E+02,-6324,-4406,3903,875,589,-115,1,7,11
8.88E+02,-6312,-4382,3888,836,536,-93,1,7,11
8.92E+02,-6302,-4366,3876,779,252,-64,1,7,11
8.87E+02,-6316,-4373,3899,471,240,-23,1,7,11
8.73E+02,-6342,-4357,3909,449,233,263,1,7,11
8.55E+02,-6356,-4069,3901,428,206,276,1,7,11
8.38E+02,-6376,-4041,3887,392,183,297,1,7,11
8.28E+02,-6664,-4022,3892,591,167,347,1,7,11
8.24E+02,-6699,-3992,3892,545,137,142,1,7,11
8.23E+02,-6717,-4200,3880,239,344,182,1,7,11
8.23E+02,-6728,-4179,3876,196,315,208,1,7,11
8.27E+02,-6735,-4151,3866,128,285,217,1,7,11
8.35E+02,-6731,-4145,3857,309,261,211,1,7,11
8.51E+02,-6761,-4132,3860,-17,-15,190,1,7,11
8.73E+02,-6768,-4131,3866,-73,-56,178,1,7,11
8.96E+02,-6777,-4120,3863,-122,-94,159,1,7,11
9.13E+02,-6536,-4125,3869,90,-121,149,1,7,11
9.17E+02,-6551,-4112,3872,65,113,139,1,7,11
9.10E+02,-6560,-4113,3883,29,89,134,1,7,11
8.98E+02,-6563,-4143,3892,6,61,378,1,7,11
8.89E+02,-6559,-4144,3915,23,37,338,1,7,11
8.86E+02,-6565,-4149,3923,41,18,288,1,7,11
8.90E+02,-6540,-4143,3902,56,-270,-22,1,7,11
8.99E+02,-6734,-4163,3910,19,-295,-78,1,7,11
9.14E+02,-6698,-4189,3924,-273,-292,100,1,7,11
9.30E+02,-6687,-4215,3952,-287,-286,21,1,7,11
9.47E+02,-6398,-4220,3947,-294,-278,-308,1,7,11
9.61E+02,-6381,-3976,3957,-313,-266,-371,1,7,11
9.70E+02,-6381,-3985,3721,-336,-258,-166,1,7,11
9.72E+02,-6363,-4006,3732,-364,-280,-202,1,7,11
9.68E+02,-6330,-4018,3957,-140,-295,-247,1,7,11
9.60E+02,-6347,-4033,3717,-182,-290,-574,1,7,11
9.47E+02,-6347,-4037,3964,-207,-301,-389,1,7,11
9.31E+02,-6360,-4055,3715,-237,-302,-467,1,7,11
9.17E+02,-6370,-4055,3963,-252,-332,-814,1,7,11
9.07E+02,-6358,-4045,3930,-529,-371,-893,1,7,11
9.02E+02,-6371,-4046,3921,-569,-383,-670,1,7,11
9.01E+02,-6377,-4073,3930,-598,-144,-641,1,7,11
9.02E+02,-6376,-4091,3919,-602,-166,-843,1,7,11
9.00E+02,-6356,-4362,3907,-620,-195,-772,1,7,11
8.97E+02,-6341,-4386,3898,-615,-197,-437,1,7,11
8.96E+02,-6334,-4421,3914,-620,-191,-612,1,7,11
8.98E+02,-6309,-4431,3899,-582,-172,-530,1,7,11
9.05E+02,-6279,-4463,3894,-549,-141,-193,1,7,11
9.13E+02,-6284,-4459,3889,-253,-349,-145,1,7,11
9.15E+02,-6299,-4451,3897,-222,-306,-328,1,7,11
9.06E+02,-6309,-4473,3899,-200,-276,-272,1,7,11
8.83E+02,-6296,-4467,3899,-160,-262,15,1,7,11
8.56E+02,-6310,-4464,3891,-148,34,46,1,7,11
8.34E+02,-6315,-4446,3888,-384,63,106,1,7,11
8.23E+02,-6309,-4457,3895,-380,84,-73,1,7,11
8.22E+02,-6305,-4454,3888,-362,99,269,1,7,11
8.25E+02,-6294,-4462,3894,-349,127,363,1,7,11
8.27E+02,-6297,-4460,3886,-322,-101,185,1,7,11
8.28E+02,-6307,-4440,3860,-316,-83,247,1,7,11
8.31E+02,-6522,-4432,3842,-332,-79,540,1,7,11
8.39E+02,-6287,-4439,3849,-362,-37,546,1,7,11
8.53E+02,-6307,-4455,3861,-137,-30,548,1,7,11
8.69E+02,-6336,-4238,3877,-166,-54,558,1,7,11
8.81E+02,-6341,-4233,3880,-152,-113,591,1,7,11
8.87E+02,-6378,-4438,3855,-336,91,605,1,7,11
8.86E+02,-6384,-4432,3862,-313,-262,603,1,7,11
8.83E+02,-6389,-4384,3861,-298,-340,538,1,7,11
8.78E+02,-6677,-4064,3884,-289,-134,201,1,7,11
8.76E+02,-6707,-4050,3874,-310,-162,154,1,7,11
8.75E+02,-6629,-4066,3582,-330,-197,373,1,7,11
8.76E+02,-6313,-4094,3563,-368,-156,268,1,7,11
8.77E+02,-6311,-4376,3571,-157,-303,110,1,7,11
8.78E+02,-6306,-4408,3851,-176,61,-360,1,7,11
8.80E+02,-6295,-4473,3882,-161,-113,-228,1,7,11
8.82E+02,-6328,-4407,3867,-380,-49,-638,1,7,11
8.84E+02,-6350,-4399,3857,-346,-31,-428,1,7,11
8.85E+02,-6345,-4428,3583,-135,-22,-421,1,7,11
8.84E+02,-6357,-4466,3853,-161,-38,-408,1,7,11
8.78E+02,-6330,-4253,3576,-145,-88,-408,1,7,11
8.71E+02,-6323,-4280,3573,-374,-106,-438,1,7,11
8.66E+02,-6337,-4272,3562,-351,-112,-449,1,7,11
8.66E+02,-6352,-4282,3570,-341,111,-434,1,7,11
8.72E+02,-6340,-4293,3550,-320,67,-416,1,7,11
8.80E+02,-6339,-4305,3553,-304,31,-422,1,7,11
8.85E+02,-6344,-4303,3561,-287,-268,-431,1,7,11
8.82E+02,-6333,-4310,3571,-273,-333,-428,1,7,11
8.75E+02,-6338,-4304,3571,1,-130,-428,1,7,11
8.66E+02,-6334,-4292,3579,14,-190,-407,1,7,11
8.61E+02,-6308,-4307,3845,0,-255,-399,1,7,11
8.62E+02,-6273,-4332,3854,-273,-563,-416,1,7,11
8.61E+02,-6512,-4327,3874,-281,-601,-459,1,7,11
8.53E+02,-6468,-4619,3886,-303,-640,-507,1,7,11
8.32E+02,-6436,-4624,3873,-317,-397,-842,1,7,11
8.05E+02,-6407,-4645,3885,-356,-637,-668,1,7,11
7.83E+02,-6135,-4686,3899,-382,-611,-759,1,7,11
7.76E+02,-6107,-4729,3920,-142,-589,-1115,1,7,11
7.83E+02,-6066,-4533,3947,-135,-583,-961,1,7,11
7.96E+02,-6268,-4584,3959,-359,-581,-1329,1,7,11
8.09E+02,-6232,-4895,3716,-326,-573,-1190,1,7,11
8.19E+02,-6191,-4955,3738,-276,-575,-1569,1,7,11
8.26E+02,-6168,-4965,3747,69,-576,-1431,1,7,11
8.30E+02,-6146,-4746,3766,119,-581,-1512,1,7,11
8.34E+02,-5868,-4783,3781,-83,-614,-1823,1,7,11
8.38E+02,-5810,-4831,3783,-38,-421,-1866,1,7,11
8.42E+02,-5761,-5159,3807,-5,-490,-1670,1,7,11
8.47E+02,-5920,-5233,3783,312,-839,-1758,1,7,11
8.52E+02,-5570,-5046,3779,362,-646,-2160,1,7,11
8.56E+02,-5740,-5427,4107,213,-678,-2400,1,7,11
8.59E+02,-5670,-5261,4187,606,-699,-2272,1,7,11
8.61E+02,-5343,-5312,3994,788,-715,-2615,1,7,11
8.63E+02,-5492,-5288,4022,724,-701,-2447,1,7,11
8.63E+02,-5455,-5489,4352,1113,-876,-2548,1,7,11
8.63E+02,-5412,-5430,4403,941,-794,-2851,1,7,11
8.62E+02,-5100,-5110,4446,971,-474,-2885,1,7,11
8.61E+02,-5089,-5072,4244,916,-390,-2895,1,7,11
8.60E+02,-5056,-5050,4291,1095,-594,-2858,1,7,11
8.58E+02,-4998,-5056,4334,683,-583,-2818,1,7,11
8.56E+02,-5190,-5074,4627,769,-599,-2537,1,7,11
8.54E+02,-5139,-5091,4654,587,-622,-2518,1,7,11
8.53E+02,-4826,-5404,4678,141,-423,-2495,1,7,11
8.52E+02,-4757,-5466,4679,-50,-503,-2505,1,7,11
8.51E+02,-4912,-5251,4671,21,-845,-2534,1,7,11
8.50E+02,-4563,-5644,4688,-205,-685,-2878,1,7,11
8.49E+02,-4712,-5717,4679,-447,-1035,-2690,1,7,11
8.48E+02,-4634,-5513,4678,-841,-1109,-2781,1,7,11
8.47E+02,-4326,-5595,4696,-714,-928,-3089,1,7,11
8.46E+02,-4226,-5945,4666,-1058,-1000,-3079,1,7,11
8.46E+02,-4364,-6011,4627,-1135,-1304,-2781,1,7,11
8.46E+02,-3975,-5879,4629,-972,-1314,-2736,1,7,11
8.46E+02,-4120,-6203,4618,-998,-1286,-2715,1,7,11
8.46E+02,-3753,-6033,4613,-1286,-979,-2934,1,7,11
8.47E+02,-3920,-6126,4609,-1298,-922,-2913,1,7,11
8.47E+02,-3557,-6458,4342,-1286,-1145,-2915,1,7,11
8.48E+02,-3701,-6525,4324,-1024,-1120,-2693,1,7,11
8.50E+02,-3614,-6328,4319,-1017,-1079,-2733,1,7,11
8.52E+02,-3292,-6390,4316,-1022,-1067,-2776,1,7,11
8.55E+02,-3426,-6729,4267,-1020,-1090,-3079,1,7,11
8.57E+02,-3350,-6780,4235,-1007,-1111,-3086,1,7,11
8.60E+02,-2996,-6598,4457,-991,-1127,-2803,1,7,11
8.63E+02,-3172,-6922,4431,-961,-1120,-2775,1,7,11
8.67E+02,-3077,-7036,4388,-926,-1121,-2723,1,7,11
8.72E+02,-2924,-6817,4359,-1118,-1102,-2897,1,7,11
8.77E+02,-2829,-6872,4088,-1054,-1046,-2531,1,7,11
8.81E+02,-2454,-7210,4085,-755,-750,-2660,1,7,11
8.84E+02,-2618,-7254,4076,-667,-690,-2299,1,7,11
8.87E+02,-2286,-7272,4055,-805,-860,-2197,1,7,11
8.88E+02,-2204,-7283,4056,-440,-796,-2282,1,7,11
8.90E+02,-2413,-7225,4045,-559,-457,-2170,1,7,11
8.91E+02,-2353,-7233,4074,-564,-458,-2050,1,7,11
8.92E+02,-2009,-7249,4087,-563,-771,-1691,1,7,11
8.93E+02,-1921,-7263,4072,-564,-830,-1873,1,7,11
8.93E+02,-2110,-7275,4039,-568,-855,-1820,1,7,11
8.93E+02,-2079,-7272,4009,-585,-823,-1800,1,7,11
8.92E+02,-2092,-7278,4008,-625,-772,-1528,1,7,11
8.90E+02,-2071,-7074,4001,-417,-492,-1474,1,7,11
8.87E+02,-1786,-7161,4015,-458,-465,-1433,1,7,11
8.83E+02,-1747,-7467,4014,-425,-449,-1647,1,7,11
8.80E+02,-1682,-7486,3978,-605,-422,-1586,1,7,11
8.78E+02,-1875,-7466,4183,-528,-385,-1537,1,7,11
8.77E+02,-1838,-7431,4170,-215,-577,-1244,1,7,11
8.76E+02,-1811,-7147,4177,-204,-539,-1222,1,7,11
8.75E+02,-1813,-7149,4211,-239,-526,-1223,1,7,11
8.72E+02,-1519,-7163,3975,-515,-559,-1199,1,7,11
8.68E+02,-1461,-7153,3968,-535,-591,-1196,1,7,11
8.62E+02,-1660,-7437,4216,-575,-613,-1171,1,7,11
8.55E+02,-1604,-7458,4196,-589,-629,-1393,1,7,11
8.48E+02,-1563,-7460,4189,-604,-640,-1374,1,7,11
8.43E+02,-1266,-7480,4188,-625,-405,-1344,1,7,11
8.40E+02,-1190,-7506,4171,-634,-426,-1313,1,7,11
8.37E+02,-1358,-7303,4148,-640,-427,-1020,1,7,11
8.35E+02,-1297,-7341,4146,-618,-394,-971,1,7,11
8.33E+02,-984,-7360,4124,-553,-606,-903,1,7,11
8.30E+02,-911,-7358,4104,-245,-555,-1099,1,7,11
8.27E+02,-1140,-7356,4096,-217,-245,-1054,1,7,11
8.24E+02,-1107,-7359,3828,-196,-206,-1026,1,7,11
8.20E+02,-1073,-7358,3821,-181,-170,-742,1,7,11
8.16E+02,-1047,-7367,3811,-162,-382,-700,1,7,11
8.11E+02,-1038,-7375,3814,-136,-336,-669,1,7,11
8.07E+02,-1042,-7388,3816,-372,-299,-891,1,7,11
8.02E+02,-1061,-7338,3803,-318,-266,-851,1,7,11
7.97E+02,-1049,-7327,3807,-299,-270,-839,1,7,11
7.93E+02,-1029,-7355,3831,-336,-290,-822,1,7,11
7.89E+02,-748,-7360,3821,-352,-308,-818,1,7,11
7.85E+02,-725,-7365,3832,-363,-326,-804,1,7,11
7.81E+02,-687,-7364,3814,-356,-347,-778,1,7,11
7.77E+02,-655,-7362,3807,-343,-377,-510,1,7,11
7.73E+02,-881,-7379,3799,-341,-132,-494,1,7,11
7.68E+02,-857,-7391,3793,-341,-136,-478,1,7,11
7.61E+02,-821,-7371,3786,-305,-137,-471,1,7,11
7.54E+02,-783,-7376,3790,-307,-379,-462,1,7,11
7.47E+02,-502,-7379,3803,-313,-356,-459,1,7,11
7.41E+02,-490,-7336,3797,-309,-334,-464,1,7,11
7.34E+02,-447,-7324,3789,-350,-314,-459,1,7,11
7.27E+02,-399,-7344,3773,-383,-286,-448,1,7,11
7.19E+02,-609,-7382,3771,-146,18,-449,1,7,11
7.11E+02,-597,-7417,3770,-154,71,-442,1,7,11
7.04E+02,-617,-7697,3766,-138,116,-430,1,7,11
7.01E+02,-634,-7704,3751,-359,-122,-394,1,7,11
6.99E+02,-634,-7714,3751,-341,115,-617,1,7,11
6.99E+02,-632,-7738,3765,-309,76,-590,1,7,11
7.00E+02,-630,-7725,3753,-265,20,-560,1,7,11
7.01E+02,-629,-7718,3755,14,-288,-521,1,7,11
7.01E+02,-621,-7695,3739,40,-336,-217,1,7,11
7.00E+02,-587,-7403,3720,49,-374,-172,1,7,11
6.99E+02,-557,-7410,3730,18,-132,-140,1,7,11
6.99E+02,-538,-7416,3742,7,-380,-377,1,7,11
7.03E+02,-522,-7422,3747,7,-353,-373,1,7,11
7.12E+02,-252,-7410,3740,19,-323,-373,1,7,11
7.28E+02,-247,-7415,3746,15,-286,-131,1,7,11
7.45E+02,-250,-7419,3743,27,-266,-162,1,7,11
7.57E+02,-515,-7417,3749,43,15,-181,1,7,11
7.65E+02,-522,-7377,3740,57,19,-191,1,7,11
7.70E+02,-252,-7377,3740,37,9,-189,1,7,11
7.76E+02,-231,-7391,3747,19,-257,-187,1,7,11
7.86E+02,-217,-7401,3760,18,-263,-180,1,7,11
8.03E+02,-206,-7411,3775,23,-270,-167,1,7,11
8.24E+02,-199,-7399,3761,39,-273,-157,1,7,11
8.44E+02,-193,-7373,3757,44,-266,-131,1,7,11
8.63E+02,-179,-7375,3765,16,-260,-362,1,7,11
8.81E+02,-164,-7410,3786,-267,-259,-349,1,7,11
9.01E+02,-136,-7392,3758,12,-257,-332,1,7,11
9.21E+02,-359,-7385,3721,2,12,-327,1,7,11
9.40E+02,-338,-7403,3954,-284,42,-336,1,7,11
9.55E+02,-325,-7701,3951,-298,76,-344,1,7,11
9.68E+02,-335,-7732,3951,-287,113,-351,1,7,11
9.80E+02,-359,-7753,3958,7,-115,-337,1,7,11
9.89E+02,-370,-7758,3722,56,-101,-312,1,7,11
9.96E+02,-378,-7731,3736,116,-99,-289,1,7,11
9.99E+02,-383,-7695,3733,-101,-108,-262,1,7,11
1.00E+03,-129,-7409,3737,-93,-125,5,1,7,11
1.00E+03,-134,-7390,3747,-104,114,5,1,7,11
1.00E+03,-379,-7385,3762,127,92,1,1,7,11
1.00E+03,-379,-7381,3770,112,80,-270,1,7,11
1.00E+03,-379,-7363,3768,92,68,-280,1,7,11
1.00E+03,-362,-7364,3770,59,53,-286,1,7,11
9.98E+02,-345,-7385,3782,23,51,-293,1,7,11
9.88E+02,-334,-7395,3780,2,54,-292,1,7,11
9.70E+02,-322,-7403,3776,-265,62,-298,1,7,11
9.52E+02,-321,-7403,3770,-270,80,-306,1,7,11
9.38E+02,-310,-7408,3776,-274,92,-311,1,7,11
9.30E+02,-312,-7684,3796,-272,108,-313,1,7,11
9.23E+02,-314,-7417,3796,15,123,-307,1,7,11
9.15E+02,-298,-7368,3766,38,-118,-292,1,7,11
9.01E+02,-268,-7346,3724,14,-95,-273,1,7,11
8.80E+02,-258,-7371,3967,-287,-62,-274,1,7,11
8.53E+02,-285,-7415,3732,-313,-32,-273,1,7,11
8.26E+02,-315,-7697,3726,-297,-23,7,1,7,11
8.02E+02,-342,-7697,3714,-268,-25,34,1,7,11
7.81E+02,-357,-7701,3721,0,-36,72,1,7,11
7.65E+02,-368,-7693,3724,18,-49,109,1,7,11
7.53E+02,-359,-7696,3730,21,-66,-128,1,7,11
7.43E+02,-347,-7689,3731,35,-78,-126,1,7,11
7.35E+02,-336,-7413,3730,42,-76,121,1,7,11
7.27E+02,-339,-7412,3734,33,-66,96,1,7,11
7.18E+02,-365,-7414,3731,28,-47,61,1,7,11
7.06E+02,-369,-7419,3735,21,-42,37,1,7,11
6.93E+02,-369,-7410,3733,21,-42,15,1,7,11
6.81E+02,-365,-7404,3720,19,-47,-259,1,7,11
6.73E+02,-368,-7421,3723,-259,-53,-287,1,7,11
6.68E+02,-370,-7690,3728,-261,-66,-305,1,7,11
6.67E+02,-380,-7423,3732,5,-87,-318,1,7,11
6.68E+02,-373,-7410,3716,5,-123,-319,1,7,11
6.71E+02,-353,-7407,3951,-257,103,-318,1,7,11
6.74E+02,-347,-7685,3946,-284,89,-314,1,7,11
6.79E+02,-327,-7701,3930,-290,85,-298,1,7,11
6.83E+02,-288,-7717,3908,-282,98,-278,1,7,11
6.88E+02,-280,-7736,3892,-272,-128,-276,1,7,11
6.93E+02,-282,-7761,3915,8,-95,-265,1,7,11
6.99E+02,-294,-7765,3926,57,-68,-258,1,7,11
7.06E+02,-312,-7747,3941,94,-50,7,1,7,11
7.13E+02,-344,-7721,3957,124,-41,18,1,7,11
7.21E+02,-377,-7424,3966,-120,-52,28,1,7,11
7.29E+02,-382,-7404,3712,124,-83,45,1,7,11
7.37E+02,-374,-7390,3959,107,-119,42,1,7,11
7.44E+02,-373,-7390,3954,64,108,31,1,7,11
7.51E+02,-369,-7401,3958,36,84,33,1,7,11
7.60E+02,-370,-7420,3952,17,64,36,1,7,11
7.71E+02,-349,-7701,3941,8,46,47,1,7,11
7.85E+02,-324,-7708,3919,18,42,53,1,7,11
8.05E+02,-329,-7714,3911,24,46,52,1,7,11
8.30E+02,-322,-7715,3908,37,52,51,1,7,11
8.57E+02,-317,-7742,3910,51,50,40,1,7,11
8.85E+02,-327,-7745,3918,85,54,37,1,7,11
9.11E+02,-338,-7725,3915,108,56,46,1,7,11
9.31E+02,-335,-7721,3926,121,54,69,1,7,11
9.45E+02,-331,-7716,3933,-123,47,84,1,7,11
9.55E+02,-327,-7700,3948,-117,40,97,1,7,11
9.62E+02,-327,-7692,3958,-120,29,110,1,7,11
9.67E+02,-322,-7686,3966,-122,14,115,1,7,11
9.71E+02,-316,-7414,3967,-128,10,114,1,7,11
9.77E+02,-311,-7392,3955,117,8,113,1,7,11
9.83E+02,-295,-7420,3715,83,8,113,1,7,11
9.91E+02,-297,-7702,3736,65,15,115,1,7,11
9.98E+02,-303,-7700,3732,78,22,119,1,7,11
1.01E+03,-310,-7685,3739,98,30,123,1,7,11
1.02E+03,-314,-7415,3729,112,40,-108,1,7,11
1.02E+03,-307,-7396,3727,110,54,-90,1,7,11
1.03E+03,-309,-7399,3737,94,73,-82,1,7,11
1.03E+03,-319,-7392,3746,84,101,-62,1,7,11
1.03E+03,-311,-7386,3743,79,117,-40,1,7,11
1.02E+03,-313,-7386,3742,71,-122,-13,1,7,11
1.02E+03,-322,-7406,3753,40,-95,319,1,7,11
1.01E+03,-335,-7683,3756,51,-86,147,1,7,11
1.01E+03,-338,-7709,3759,84,-60,521,1,7,11
1.00E+03,-319,-7702,3745,-119,-15,602,1,7,11
9.87E+02,-330,-7715,3746,-90,296,632,1,7,11
9.62E+02,-347,-7718,3750,-63,330,384,1,7,11
9.26E+02,-374,-7720,3772,-35,365,397,1,7,11
8.88E+02,-137,-7705,3770,266,380,404,1,7,11
8.57E+02,-190,-7424,3782,297,132,397,1,7,11
8.31E+02,-216,-7686,3792,308,368,416,1,7,11
8.04E+02,-256,-7418,3810,330,353,444,1,7,11
7.74E+02,-545,-7391,3817,367,317,483,1,7,11
7.44E+02,-573,-7381,4096,134,270,823,1,7,11
7.20E+02,-588,-7363,4097,147,-36,673,1,7,11
7.04E+02,-583,-7360,3826,136,-81,766,1,7,11
6.95E+02,-601,-7377,3834,383,-92,1082,1,7,11
6.90E+02,-387,-7343,3826,175,-66,1114,1,7,11
6.87E+02,-413,-7325,3819,169,-42,1094,1,7,11
6.83E+02,-423,-7341,3812,130,-12,1046,1,7,11
6.78E+02,-795,-7329,4113,366,328,722,1,7,11
6.74E+02,-655,-7526,4130,372,345,673,1,7,11
6.69E+02,-694,-7513,4142,331,337,651,1,7,11
6.66E+02,-712,-7541,4140,281,359,881,1,7,11
6.65E+02,-719,-7300,4141,258,145,859,1,7,11
6.66E+02,-705,-7327,4143,-6,193,872,1,7,11
6.68E+02,-716,-7323,4126,279,513,671,1,7,11
6.70E+02,-740,-7344,4136,301,580,1028,1,7,11
6.74E+02,-759,-7373,4152,335,394,905,1,7,11
6.79E+02,-1076,-7390,4193,144,496,1326,1,7,11
6.85E+02,-1143,-7368,4213,235,840,1546,1,7,11
6.91E+02,-946,-7298,4211,587,677,1807,1,7,11
6.98E+02,-1004,-7522,3975,385,1036,2108,1,7,11
7.07E+02,-1314,-7525,4001,413,1145,2419,1,7,11
7.16E+02,-1177,-7511,4041,480,1003,2456,1,7,11
7.28E+02,-1559,-7438,4046,836,1341,2775,1,7,11
7.41E+02,-1442,-7141,4054,893,1178,3381,1,7,11
7.59E+02,-1869,-7106,4045,716,1537,3481,1,7,11
7.83E+02,-1776,-7274,4023,1027,1596,4098,1,7,11
8.11E+02,-1963,-7238,4055,757,1655,4427,1,7,11
8.37E+02,-2260,-7195,4093,1033,1439,4488,1,7,11
8.53E+02,-2593,-7181,4075,1050,1443,4820,1,7,11
8.59E+02,-2467,-6894,4064,1059,1415,5085,1,7,11
8.53E+02,-2904,-6875,4049,1046,1625,5294,1,7,11
8.36E+02,-2785,-6877,4069,767,1585,5331,1,7,11
8.12E+02,-3200,-6821,4071,1029,1277,5294,1,7,11
7.84E+02,-3385,-6980,4074,1060,1243,5459,1,7,11
7.57E+02,-3290,-6589,4055,1079,1180,5071,1,7,11
7.27E+02,-3487,-6723,4055,1054,1393,5194,1,7,11
6.94E+02,-3931,-6323,4030,767,1340,4852,1,7,11
6.55E+02,-4139,-6440,4022,716,1317,4805,1,7,11
6.16E+02,-4363,-6059,4043,650,1305,4800,1,7,11
5.85E+02,-4613,-6179,4072,853,1299,4846,1,7,11
5.66E+02,-4605,-5777,4093,818,1281,5215,1,7,11
5.57E+02,-4823,-5606,4378,797,977,5376,1,7,11
5.55E+02,-5215,-5694,4373,777,1148,5332,1,7,11
5.57E+02,-5010,-5313,4353,426,1057,5532,1,7,11
5.60E+02,-5031,-5265,4370,545,752,5909,1,7,11
5.63E+02,-5079,-5428,4405,223,741,5927,1,7,11
5.66E+02,-5097,-5107,4409,160,706,5615,1,7,11
5.70E+02,-5383,-5042,4413,374,710,5692,1,7,11
5.74E+02,-5487,-5199,4425,380,759,5467,1,7,11
5.79E+02,-5347,-5123,4465,143,1056,5192,1,7,11
5.86E+02,-5538,-4740,4233,220,1098,4897,1,7,11
5.95E+02,-5945,-4573,4461,584,1106,4690,1,7,11
6.04E+02,-5863,-4640,4417,441,1146,4295,1,7,11
6.08E+02,-6047,-4421,4382,779,920,4246,1,7,11
6.05E+02,-6454,-4219,4354,817,921,4250,1,7,11
5.93E+02,-6379,-3765,4077,827,942,4284,1,7,11
5.76E+02,-6536,-3569,4064,816,906,4617,1,7,11
5.70E+02,-6646,-3590,4000,776,1095,4688,1,7,11
5.89E+02,-6656,-3239,4010,624,728,4500,1,7,11
6.25E+02,-6928,-3029,3988,196,868,4654,1,7,11
6.54E+02,-6959,-3169,3998,125,447,4292,1,7,11
6.64E+02,-6987,-3079,4029,-377,578,4410,1,7,11
6.61E+02,-7031,-2726,4032,-563,209,3983,1,7,11
6.55E+02,-6858,-2903,4039,-451,149,3826,1,7,11
6.51E+02,-7213,-2546,4030,-792,382,3946,1,7,11
6.49E+02,-7289,-2468,4025,-843,378,3574,1,7,11
6.47E+02,-7083,-2666,4023,-870,381,3704,1,7,11
6.47E+02,-7120,-2619,4012,-866,382,3302,1,7,11
6.47E+02,-7133,-2304,4006,-838,362,3380,1,7,11
6.48E+02,-7159,-2243,4009,-802,355,3162,1,7,11
6.48E+02,-7442,-2180,4010,-481,330,2924,1,7,11
6.48E+02,-7470,-2356,3998,-402,294,2679,1,7,11
6.47E+02,-7489,-2038,3988,-586,263,2198,1,7,11
6.46E+02,-7500,-1962,3976,-527,-28,1975,1,7,11
6.44E+02,-7498,-2166,3974,-247,-63,1746,1,7,11
6.42E+02,-7507,-2113,4223,-223,-89,1518,1,7,11
6.39E+02,-7521,-2060,4210,-198,-111,1577,1,7,11
6.37E+02,-7522,-1754,4192,-198,-125,1153,1,7,11
6.35E+02,-7541,-1728,4199,-212,-127,1014,1,7,11
6.32E+02,-7310,-1709,4214,-210,124,908,1,7,11
6.29E+02,-7327,-1677,4202,-203,114,1085,1,7,11
6.26E+02,-7336,-1910,4192,-202,101,1037,1,7,11
6.23E+02,-7363,-1900,4209,-203,101,1036,1,7,11
6.23E+02,-7354,-1875,4196,-191,68,1048,1,7,11
6.28E+02,-7346,-1850,4180,-190,41,1050,1,7,11
6.36E+02,-7358,-1806,4171,-189,29,1046,1,7,11
6.41E+02,-7351,-1516,4160,-196,3,1055,1,7,11
6.45E+02,-7349,-1486,4167,-206,-271,1046,1,7,11
6.47E+02,-7357,-1430,4184,-200,-296,1058,1,7,11
6.49E+02,-7364,-1633,4190,-179,-313,1079,1,7,11
6.49E+02,-7363,-1591,4184,-132,-322,1101,1,7,11
6.50E+02,-7379,-1278,4192,-347,-313,1119,1,7,11
6.50E+02,-7385,-1240,4207,-306,-304,1147,1,7,11
6.49E+02,-7397,-1182,4211,12,-277,915,1,7,11
6.44E+02,-7387,-1379,4200,61,0,936,1,7,11
6.35E+02,-7380,-1313,4190,84,51,945,1,7,11
6.30E+02,-7395,-998,4183,92,125,955,1,7,11
6.37E+02,-7418,-948,4194,96,-64,943,1,7,11
6.54E+02,-7688,-903,4212,102,-19,900,1,7,11
6.70E+02,-7707,-1110,4213,111,265,1095,1,7,11
6.76E+02,-7730,-1067,4218,111,284,766,1,7,11
6.72E+02,-7745,-1036,3968,113,282,668,1,7,11
6.66E+02,-7762,-743,3969,117,273,815,1,7,11
6.62E+02,-7768,-708,4213,112,-5,447,1,7,11
6.61E+02,-7773,-691,4219,93,-24,593,1,7,11
6.63E+02,-7783,-677,4223,75,-45,230,1,7,11
6.68E+02,-7778,-667,4216,62,-82,131,1,7,11
6.77E+02,-7780,-665,3969,35,-116,292,1,7,11
6.91E+02,-7784,-668,4206,19,102,-49,1,7,11
7.06E+02,-7788,-677,4200,-272,65,127,1,7,11
7.17E+02,-7799,-684,4188,-303,23,54,1,7,11
7.22E+02,-7795,-695,4163,-332,-273,-259,1,7,11
7.21E+02,-7779,-723,4145,-356,-301,-297,1,7,11
7.17E+02,-7770,-750,4134,-371,-303,-328,1,7,11
7.11E+02,-7753,-1034,4136,-132,-293,-349,1,7,11
7.02E+02,-7735,-1054,4132,-381,-272,-351,1,7,11
6.92E+02,-7708,-1069,4117,-363,20,-347,1,7,11
6.79E+02,-7689,-1083,4107,-347,77,-322,1,7,11
6.66E+02,-7410,-1110,4104,-340,-116,-272,1,7,11
6.57E+02,-7386,-1132,3831,-335,-51,23,1,7,11
6.58E+02,-7393,-1148,3829,-336,277,55,1,7,11
6.72E+02,-7424,-1152,3825,-325,348,77,1,7,11
6.99E+02,-7714,-1148,3824,-302,134,92,1,7,11
7.39E+02,-7740,-1125,3818,-275,157,114,1,7,11
7.79E+02,-7763,-1106,3799,3,170,-110,1,7,11
7.99E+02,-7770,-1100,3769,17,178,-85,1,7,11
7.76E+02,-7780,-1094,3758,28,175,-84,1,7,11
7.15E+02,-7792,-1090,3739,35,164,-103,1,7,11
6.55E+02,-7790,-1102,3730,50,150,127,1,7,11
6.36E+02,-7778,-1091,3713,77,134,83,1,7,11
6.50E+02,-7766,-1060,3947,97,373,41,1,7,11
6.70E+02,-7751,-1069,3922,97,362,8,1,7,11
6.77E+02,-7749,-1073,3908,84,361,-293,1,7,11
6.81E+02,-7755,-1088,3900,58,363,-339,1,7,11
6.95E+02,-7761,-1091,3893,47,357,-379,1,7,11
7.25E+02,-7761,-1093,3878,36,351,-155,1,7,11
7.62E+02,-7765,-1090,3847,24,362,-181,1,7,11
7.96E+02,-7797,-1088,3577,2,128,-197,1,7,11
8.20E+02,-7574,-1089,3578,-280,140,-196,1,7,11
8.35E+02,-7601,-1109,3572,-315,145,-197,1,7,11
8.43E+02,-7637,-1137,3577,-351,142,-210,1,7,11
8.44E+02,-7654,-908,3576,-130,378,-233,1,7,11
8.41E+02,-7953,-907,3582,-171,361,-532,1,7,11
8.34E+02,-8000,-945,3864,-213,339,-562,1,7,11
8.25E+02,-8047,-971,3895,-197,309,-590,1,7,11
8.13E+02,-7828,-986,3925,-159,265,-613,1,7,11
7.99E+02,-7848,-1014,3935,-363,-50,-624,1,7,11
7.85E+02,-7815,-1299,3910,-302,-115,-638,1,7,11
7.73E+02,-8031,-1333,3917,-273,93,-421,1,7,11
7.65E+02,-8005,-1390,3942,9,52,-470,1,7,11
7.59E+02,-7965,-1180,3713,62,9,-790,1,7,11
7.55E+02,-7955,-1207,3738,125,-305,-868,1,7,11
7.50E+02,-7646,-1253,3755,-77,-130,-698,1,7,11
7.43E+02,-7566,-1266,3757,-12,-196,-1069,1,7,11
7.34E+02,-7785,-1538,3777,285,-218,-928,1,7,11
7.25E+02,-7741,-1555,3791,340,-235,-1019,1,7,11
7.20E+02,-7685,-1583,3812,360,-251,-1355,1,7,11
7.15E+02,-7399,-1626,4109,355,-252,-1173,1,7,11
7.10E+02,-7365,-1433,4157,348,-526,-1220,1,7,11
7.01E+02,-7327,-1482,4195,351,-525,-1553,1,7,11
6.89E+02,-7315,-1502,4212,374,-524,-1628,1,7,11
6.76E+02,-7312,-1505,3976,355,-524,-1443,1,7,11
6.62E+02,-7301,-1536,4011,293,-526,-1498,1,7,11
6.49E+02,-7306,-1841,4045,-40,-524,-1808,1,7,11
6.37E+02,-7541,-1903,4075,-125,-556,-1843,1,7,11
6.26E+02,-7520,-1700,4081,51,-591,-1894,1,7,11
6.18E+02,-7469,-1764,4357,-303,-630,-1682,1,7,11
6.19E+02,-7164,-2107,4397,-140,-404,-1739,1,7,11
6.38E+02,-7112,-1970,4427,-218,-448,-2117,1,7,11
6.77E+02,-7100,-2030,4428,-550,-459,-2172,1,7,11
7.22E+02,-7092,-2342,4441,-572,-465,-1939,1,7,11
7.62E+02,-7066,-2374,4430,-585,-469,-1924,1,7,11
7.95E+02,-7045,-2425,4430,-618,-455,-2141,1,7,11
8.20E+02,-7281,-2220,4443,-632,-418,-2065,1,7,11
8.39E+02,-7286,-2258,4449,-625,-624,-1686,1,7,11
8.51E+02,-7255,-2569,4466,-607,-569,-1531,1,7,11
8.55E+02,-7229,-2634,4230,-580,-250,-1652,1,7,11
8.52E+02,-7221,-2684,4234,-518,-185,-1552,1,7,11
8.43E+02,-7226,-2447,4240,-197,-383,-1223,1,7,11
8.30E+02,-7218,-2463,4235,-149,-328,-1170,1,7,11
8.16E+02,-7214,-2499,4229,-134,-279,-1390,1,7,11
8.01E+02,-6907,-2547,4474,-132,1,-1403,1,7,11
7.85E+02,-6882,-2849,4464,-144,14,-1210,1,7,11
7.66E+02,-6850,-2876,4438,-143,-261,-1588,1,7,11
7.41E+02,-6829,-2879,4394,-162,-278,-1486,1,7,11
7.10E+02,-6814,-2900,4368,-220,-292,-1888,1,7,11
6.83E+02,-6831,-2927,4360,-561,-307,-1789,1,7,11
6.75E+02,-6834,-2743,4379,-388,-351,-2167,1,7,11
6.92E+02,-6820,-3081,4393,-442,-138,-2012,1,7,11
7.19E+02,-6810,-3143,4387,-460,-169,-2333,1,7,11
7.36E+02,-6799,-3000,4410,-499,-198,-2363,1,7,11
7.33E+02,-6988,-3344,4398,-494,-249,-2384,1,7,11
7.26E+02,-6939,-3443,4374,-787,-526,-2395,1,7,11
7.34E+02,-6608,-3269,4076,-794,-566,-2378,1,7,11
7.62E+02,-6551,-3314,4016,-837,-567,-2363,1,7,11
8.00E+02,-6563,-3655,4025,-676,-537,-2045,1,7,11
8.36E+02,-6575,-3511,4067,-753,-543,-1952,1,7,11
8.57E+02,-6530,-3566,4039,-1046,-604,-2110,1,7,11
8.67E+02,-6554,-3876,4030,-1085,-629,-1732,1,7,11
8.69E+02,-6742,-3949,3999,-1130,-447,-1838,1,7,11
8.70E+02,-6714,-3786,4011,-925,-468,-1483,1,7,11
8.72E+02,-6685,-3814,3991,-905,-473,-1631,1,7,11
8.75E+02,-6683,-4104,3973,-1139,-466,-1258,1,7,11
8.79E+02,-6671,-4139,4215,-1121,-499,-1160,1,7,11
8.83E+02,-6385,-4206,4192,-1094,-778,-1324,1,7,11
8.88E+02,-6347,-4021,4183,-1052,-493,-995,1,7,11
8.93E+02,-6306,-4094,4178,-713,-439,-948,1,7,11
8.99E+02,-6517,-4387,4154,-845,-628,-927,1,7,11
9.04E+02,-6489,-4430,4159,-466,-547,-929,1,7,11
9.07E+02,-6463,-4474,4172,-592,-211,-938,1,7,11
9.05E+02,-6413,-4270,4198,-210,-149,-957,1,7,11
8.96E+02,-6107,-4297,4195,-311,-350,-1017,1,7,11
8.82E+02,-6053,-4335,4219,68,-284,-1375,1,7,11
8.66E+02,-6051,-4637,4008,-70,24,-1278,1,7,11
8.53E+02,-6063,-4609,4046,286,45,-1426,1,7,11
8.43E+02,-6049,-4611,4074,370,43,-1509,1,7,11
8.35E+02,-6032,-4336,4082,175,22,-1840,1,7,11
8.26E+02,-6239,-4626,4364,192,-261,-1867,1,7,11
8.14E+02,-6162,-4643,4363,218,-295,-1893,1,7,11
8.02E+02,-5844,-4682,4385,219,-310,-1914,1,7,11
7.95E+02,-5777,-4731,4408,205,-335,-1917,1,7,11
7.94E+02,-5960,-4539,4433,191,-363,-1916,1,7,11
7.96E+02,-5889,-4599,4459,186,-129,-1677,1,7,11
7.96E+02,-5562,-4901,4468,200,-140,-1700,1,7,11
7.87E+02,-5505,-4949,4227,222,-137,-1737,1,7,11
7.73E+02,-5716,-4990,4234,512,-130,-1772,1,7,11
7.63E+02,-5658,-4774,4234,523,-133,-2072,1,7,11
7.65E+02,-5639,-4825,4249,516,-368,-2136,1,7,11
7.78E+02,-5642,-4858,4259,523,-336,-1938,1,7,11
7.97E+02,-5637,-5127,4257,540,-310,-1979,1,7,11
8.12E+02,-5368,-5140,4252,529,-288,-1991,1,7,11
8.21E+02,-5343,-5158,4264,242,-269,-1978,1,7,11
8.28E+02,-5311,-5185,4275,192,0,-1976,1,7,11
8.36E+02,-5302,-5207,4295,160,21,-1967,1,7,11
8.47E+02,-5275,-5220,4303,136,24,-1953,1,7,11
8.57E+02,-5490,-4995,4313,359,18,-1943,1,7,11
8.64E+02,-5440,-4999,4301,326,18,-1936,1,7,11
8.63E+02,-5118,-5055,4291,-1,21,-1927,1,7,11
8.54E+02,-5022,-5081,4288,-84,22,-1943,1,7,11
8.43E+02,-5163,-5110,4272,111,40,-2043,1,7,11
8.32E+02,-4838,-5426,4290,-293,78,-2376,1,7,11
8.26E+02,-4791,-5254,4319,-137,104,-2209,1,7,11
8.24E+02,-4756,-5314,4319,-195,114,-2564,1,7,11
8.27E+02,-4974,-5361,4320,-251,109,-2644,1,7,11
8.36E+02,-4905,-5687,4306,-574,86,-2459,1,7,11
8.48E+02,-4594,-5753,4303,-635,73,-2828,1,7,11
8.63E+02,-4539,-5557,4315,-430,49,-2693,1,7,11
8.79E+02,-4515,-5907,4345,-478,51,-2774,1,7,11
8.94E+02,-4493,-5990,4617,-464,22,-3076,1,7,11
9.10E+02,-4694,-5776,4618,-432,-317,-3128,1,7,11
9.26E+02,-4644,-5842,4660,-420,-156,-3169,1,7,11
9.42E+02,-4347,-6166,4694,-628,-536,-3178,1,7,11
9.57E+02,-4262,-6189,4687,-545,-440,-3138,1,7,11
9.64E+02,-4424,-6200,4655,-238,-838,-2803,1,7,11
9.59E+02,-4036,-6225,4611,-219,-706,-2942,1,7,11
9.39E+02,-4134,-6256,4316,-515,-1042,-2839,1,7,11
9.07E+02,-3718,-6083,4288,-583,-1075,-2495,1,7,11
8.68E+02,-3556,-6411,4257,-401,-1097,-2469,1,7,11
8.28E+02,-3688,-6449,4224,-477,-1087,-2505,1,7,11
7.90E+02,-3614,-6502,4243,-836,-1068,-2537,1,7,11
7.58E+02,-3285,-6321,4262,-665,-1082,-2554,1,7,11
7.34E+02,-3203,-6678,4286,-732,-1125,-2824,1,7,11
7.19E+02,-3366,-6743,4271,-733,-907,-2847,1,7,11
7.10E+02,-3068,-6537,4274,-725,-1145,-2865,1,7,11
7.04E+02,-3012,-6574,4274,-692,-1119,-2832,1,7,11
7.04E+02,-3196,-6600,4275,-660,-1109,-2517,1,7,11
7.15E+02,-3097,-6615,4251,-890,-1100,-2463,1,7,11
7.39E+02,-2776,-6648,4238,-647,-1053,-2662,1,7,11
7.73E+02,-2750,-6970,4278,-687,-729,-2594,1,7,11
8.09E+02,-2724,-7036,4325,-692,-691,-2245,1,7,11
8.39E+02,-2909,-6792,4305,-882,-689,-2406,1,7,11
8.62E+02,-2876,-7033,4285,-850,-676,-2329,1,7,11
8.79E+02,-2826,-7040,4258,-817,-677,-1965,1,7,11
8.92E+02,-2496,-6785,4469,-508,-679,-2101,1,7,11
9.03E+02,-2646,-6827,4440,-500,-685,-1743,1,7,11
9.12E+02,-2255,-6855,4397,-483,-710,-1681,1,7,11
9.22E+02,-2359,-6911,4091,-487,-734,-1905,1,7,11
9.31E+02,-1971,-7209,4044,-499,-724,-1672,1,7,11
9.41E+02,-2144,-7245,4025,-510,-685,-1708,1,7,11
9.49E+02,-2100,-7284,4025,-504,-882,-1722,1,7,11
9.53E+02,-2070,-7070,4024,-483,-830,-1699,1,7,11
9.50E+02,-1779,-7117,4053,-450,-782,-1910,1,7,11
9.42E+02,-1711,-7168,4063,-396,-493,-1853,1,7,11
9.30E+02,-1877,-7462,4046,-583,-444,-1798,1,7,11
9.16E+02,-1811,-7482,4039,-526,-623,-1515,1,7,11
9.04E+02,-1804,-7492,4050,-217,-522,-1481,1,7,11
8.93E+02,-1803,-7508,4080,-161,-182,-1417,1,7,11
8.83E+02,-1796,-7455,4081,-327,-130,-1607,1,7,11
8.73E+02,-1795,-7162,4094,-294,-358,-1537,1,7,11
8.62E+02,-1514,-7147,4352,-290,-360,-1198,1,7,11
8.49E+02,-1487,-7104,4352,-308,-129,-1390,1,7,11
8.31E+02,-1448,-7099,4360,-366,-188,-1019,1,7,11
8.08E+02,-1434,-7114,4366,-132,-232,-919,1,7,11
7.81E+02,-1638,-7149,4369,-141,-546,-1049,1,7,11
7.56E+02,-1568,-7449,4369,-383,-589,-672,1,7,11
7.35E+02,-1204,-7459,4086,-334,-620,-826,1,7,11
7.20E+02,-1376,-7440,4049,-304,-606,-506,1,7,11
7.13E+02,-1296,-7440,4027,-308,-573,-462,1,7,11
7.12E+02,-1006,-7166,4015,-322,-247,-454,1,7,11
7.13E+02,-985,-7159,4025,-349,-169,-460,1,7,11
7.11E+02,-997,-7158,4048,-377,-357,-471,1,7,11
7.02E+02,-1007,-7428,4057,-145,-313,-478,1,7,11
6.96E+02,-1008,-7443,4069,-164,-294,-506,1,7,11
6.99E+02,-1016,-7430,4044,-190,-290,-805,1,7,11
7.13E+02,-1008,-7440,4028,-231,-296,-840,1,7,11
7.28E+02,-1001,-7467,4024,-518,-307,-880,1,7,11
7.35E+02,-1004,-7520,4047,-529,-322,-654,1,7,11
7.33E+02,-1008,-7525,4045,-226,-356,-673,1,7,11
7.31E+02,-960,-7536,4018,-197,-174,-682,1,7,11
7.35E+02,-1143,-7538,4222,-194,-520,-717,1,7,11
7.46E+02,-1083,-7305,4212,-228,-608,-757,1,7,11
7.60E+02,-755,-7344,3968,-224,-437,-1050,1,7,11
7.73E+02,-727,-7343,4201,-183,-467,-1077,1,7,11
7.83E+02,-678,-7332,4166,-149,-426,-1033,1,7,11
7.89E+02,-894,-7330,4174,-373,-572,-707,1,7,11
7.89E+02,-851,-7351,4196,-322,-190,-882,1,7,11
7.83E+02,-849,-7338,4212,11,-331,-830,1,7,11
7.69E+02,-839,-7548,4206,63,-277,-798,1,7,11
7.48E+02,-855,-7540,4223,62,-270,-801,1,7,11
7.23E+02,-880,-7521,3980,40,-308,-804,1,7,11
7.02E+02,-869,-7492,3983,15,-383,-794,1,7,11
6.96E+02,-832,-7508,3999,-307,-205,-769,1,7,11
7.01E+02,-505,-7513,3988,-356,-522,-493,1,7,11
7.09E+02,-431,-7514,4212,-155,-552,-486,1,7,11
7.10E+02,-385,-7537,4201,-218,-545,-476,1,7,11
7.06E+02,-608,-7323,4213,-526,-521,-465,1,7,11
7.08E+02,-592,-7348,4212,-528,-243,-450,1,7,11
7.21E+02,-552,-7355,4182,-242,-231,-433,1,7,11
7.40E+02,-520,-7374,4150,-214,-195,-419,1,7,11
7.54E+02,-243,-7404,4144,-198,-143,-406,1,7,11
7.54E+02,-249,-7409,4143,-149,-338,-389,1,7,11
7.49E+02,-239,-7392,4134,-353,-301,-620,1,7,11
7.52E+02,-241,-7362,4115,-319,-280,-599,1,7,11
7.72E+02,-246,-7353,4116,-319,-275,-562,1,7,11
8.00E+02,-224,-7381,4125,-318,-292,-528,1,7,11
8.22E+02,-211,-7384,4113,-284,-298,-237,1,7,11
8.22E+02,-193,-7368,4099,-261,-298,-196,1,7,11
8.03E+02,-202,-7383,4119,-260,-281,-148,1,7,11
7.82E+02,-200,-7402,4140,9,-280,-345,1,7,11
7.78E+02,-187,-7388,4128,48,-290,-294,1,7,11
7.91E+02,-151,-7369,4103,64,-294,0,1,7,11
8.08E+02,-369,-7371,4098,54,-279,15,1,7,11
8.12E+02,-361,-7375,4119,59,7,11,1,7,11
7.96E+02,-359,-7377,4128,64,35,2,1,7,11
7.71E+02,-380,-7364,4135,63,67,-263,1,7,11
7.53E+02,-136,-7374,4149,55,87,-260,1,7,11
7.51E+02,-144,-7361,4154,61,98,2,1,7,11
7.58E+02,-143,-7362,4151,63,105,13,1,7,11
7.67E+02,-143,-7355,4142,57,109,15,1,7,11
7.73E+02,-143,-7359,4147,39,117,4,1,7,11
7.74E+02,-164,-7355,4159,26,113,-260,1,7,11
7.75E+02,-166,-7330,4146,21,102,2,1,7,11
7.76E+02,-161,-7330,4133,-269,88,6,1,7,11
7.77E+02,-153,-7378,4136,-315,80,-257,1,7,11
7.79E+02,-159,-7408,4151,-311,73,-271,1,7,11
7.82E+02,-162,-7407,4139,-286,64,-275,1,7,11
7.86E+02,-164,-7411,4133,-267,65,-276,1,7,11
7.92E+02,-160,-7409,4133,4,76,-268,1,7,11
7.99E+02,-149,-7406,4125,32,88,-262,1,7,11
8.06E+02,-131,-7379,3836,67,104,-263,1,7,11
8.14E+02,-366,-7347,3813,82,120,-279,1,7,11
8.22E+02,-359,-7344,3807,61,-107,-299,1,7,11
8.30E+02,-383,-7349,3817,46,-85,-309,1,7,11
8.38E+02,-138,-7386,3833,38,-77,-297,1,7,11
8.47E+02,-163,-7402,4107,65,-60,-270,1,7,11
8.55E+02,-181,-7400,4114,97,-54,22,1,7,11
8.63E+02,-188,-7347,4099,-126,-65,60,1,7,11
8.69E+02,-201,-7352,4115,105,-92,86,1,7,11
8.72E+02,-211,-7346,4116,85,-119,104,1,7,11
8.69E+02,-206,-7342,4117,71,106,109,1,7,11
8.60E+02,-191,-7340,4121,56,86,108,1,7,11
8.43E+02,-181,-7345,4118,37,70,98,1,7,11
8.25E+02,-176,-7354,4125,17,67,84,1,7,11
8.13E+02,-153,-7386,4116,7,64,72,1,7,11
8.10E+02,-146,-7405,4117,20,80,52,1,7,11
8.14E+02,-144,-7407,4117,42,106,39,1,7,11
8.20E+02,-148,-7394,4111,68,-125,30,1,7,11
8.24E+02,-149,-7385,4117,80,-112,20,1,7,11
8.23E+02,-159,-7377,4127,90,-110,2,1,7,11
8.19E+02,-159,-7362,4126,101,-116,-268,1,7,11
8.12E+02,-172,-7339,4137,94,-118,-275,1,7,11
8.04E+02,-165,-7328,4137,85,122,-269,1,7,11
7.98E+02,-170,-7331,4157,66,107,-259,1,7,11
7.97E+02,-149,-7326,4142,59,80,9,1,7,11
8.00E+02,-139,-7327,4124,37,66,14,1,7,11
7.99E+02,-383,-7342,4124,8,65,31,1,7,11
7.87E+02,-376,-7351,4118,4,74,46,1,7,11
7.59E+02,-368,-7370,4116,-261,82,54,1,7,11
7.28E+02,-358,-7399,4114,4,93,65,1,7,11
7.10E+02,-373,-7410,4120,28,110,65,1,7,11
7.12E+02,-139,-7396,4121,69,127,80,1,7,11
7.23E+02,-143,-7373,4098,88,-127,105,1,7,11
7.32E+02,-145,-7366,4105,83,-123,124,1,7,11
7.36E+02,-153,-7362,4106,76,-117,-127,1,7,11
7.42E+02,-161,-7342,4107,71,-111,126,1,7,11
7.58E+02,-173,-7342,4123,58,-109,125,1,7,11
7.89E+02,-188,-7357,4127,32,-127,118,1,7,11
8.24E+02,-191,-7370,4138,19,104,110,1,7,11
8.56E+02,-178,-7358,4130,31,76,106,1,7,11
8.76E+02,-155,-7351,4120,31,48,102,1,7,11
8.84E+02,-146,-7363,4115,18,32,100,1,7,11
8.82E+02,-143,-7378,4112,3,27,110,1,7,11
8.74E+02,-135,-7368,4109,-260,24,-126,1,7,11
8.61E+02,-368,-7366,4101,4,23,-101,1,7,11
8.49E+02,-360,-7392,4118,-273,35,-70,1,7,11
8.44E+02,-346,-7412,4122,-270,55,-39,1,7,11
8.47E+02,-344,-7422,4117,19,91,-15,1,7,11
8.56E+02,-346,-7398,4101,51,-108,270,1,7,11
8.64E+02,-343,-7384,4098,58,-55,303,1,7,11
8.67E+02,-365,-7374,4103,55,268,329,1,7,11
8.63E+02,-151,-7373,4128,59,325,367,1,7,11
8.56E+02,-177,-7357,4124,72,359,161,1,7,11
8.49E+02,-199,-7345,4113,62,376,206,1,7,11
8.45E+02,-222,-7343,4107,44,383,513,1,7,11
8.41E+02,-250,-7350,3837,28,381,566,1,7,11
8.32E+02,-538,-7351,3835,26,381,621,1,7,11
8.16E+02,-587,-7371,4104,24,380,433,1,7,11
7.97E+02,-386,-7386,4106,47,338,505,1,7,11
7.79E+02,-418,-7704,4108,78,290,852,1,7,11
7.66E+02,-444,-7729,3826,-84,266,709,1,7,11
7.60E+02,-407,-7739,3799,319,-8,1094,1,7,11
7.57E+02,-411,-7756,3829,164,284,917,1,7,11
7.55E+02,-455,-7697,4120,545,305,1010,1,7,11
7.55E+02,-798,-7367,4198,402,349,1395,1,7,11
7.59E+02,-862,-7549,4019,480,134,1570,1,7,11
7.70E+02,-857,-7473,4040,507,367,1494,1,7,11
7.83E+02,-875,-7159,4055,499,374,1919,1,7,11
7.94E+02,-678,-7126,4086,416,172,1787,1,7,11
7.94E+02,-751,-7093,4362,602,515,1925,1,7,11
7.85E+02,-1074,-7105,4395,519,589,2336,1,7,11
7.71E+02,-901,-7124,4415,167,413,2233,1,7,11
7.59E+02,-1285,-7074,4399,378,449,2622,1,7,11
7.52E+02,-1397,-7103,4365,333,457,2522,1,7,11
7.48E+02,-1545,-7099,4088,303,829,2872,1,7,11
7.45E+02,-1659,-7081,4086,300,651,2728,1,7,11
7.44E+02,-1809,-7071,4094,285,706,3110,1,7,11
7.47E+02,-1711,-7090,4365,285,689,3022,1,7,11
7.54E+02,-2098,-7106,4084,327,890,3225,1,7,11
7.67E+02,-1967,-7107,4053,133,860,3642,1,7,11
7.83E+02,-2033,-7120,4034,199,825,3500,1,7,11
8.02E+02,-2336,-7147,4041,231,818,3562,1,7,11
8.19E+02,-2185,-7159,4075,558,847,3556,1,7,11
8.31E+02,-2296,-7133,4384,398,857,3536,1,7,11
8.33E+02,-2620,-7137,4390,787,864,3514,1,7,11
8.22E+02,-2293,-7234,4067,970,793,3215,1,7,11
8.04E+02,-2671,-6803,4368,931,720,3009,1,7,11
7.91E+02,-2833,-6947,4427,1133,952,3154,1,7,11
7.92E+02,-2725,-6632,4471,1105,1396,3075,1,7,11
8.03E+02,-3122,-6534,4225,1129,1555,2742,1,7,11
8.19E+02,-3033,-6659,4230,1126,1459,2701,1,7,11
8.33E+02,-3242,-6286,4242,1080,1872,2735,1,7,11
8.42E+02,-3711,-6450,4259,1025,1728,3085,1,7,11
8.49E+02,-3908,-6116,4269,725,1791,2962,1,7,11
8.58E+02,-3782,-6090,4246,652,1780,3348,1,7,11
8.71E+02,-4153,-6215,4417,865,1743,3367,1,7,11
8.82E+02,-4073,-5870,4385,482,1759,3403,1,7,11
8.86E+02,-4230,-5856,4372,401,1780,3217,1,7,11
8.75E+02,-4626,-5832,4374,591,1761,3208,1,7,11
8.52E+02,-4734,-5870,4422,544,1671,3386,1,7,11
8.29E+02,-4553,-5841,4410,597,1527,2982,1,7,11
8.20E+02,-4897,-5783,4404,633,1654,2813,1,7,11
8.29E+02,-4961,-6007,4399,387,1238,2889,1,7,11
8.47E+02,-4970,-5974,4394,423,1326,2665,1,7,11
8.61E+02,-4978,-5896,4364,471,929,2385,1,7,11
8.60E+02,-4970,-5567,4363,504,1121,2079,1,7,11
8.47E+02,-4785,-5756,4373,783,1128,1466,1,7,11
8.31E+02,-4851,-5685,4389,818,1124,1361,1,7,11
8.20E+02,-5215,-5342,4405,856,912,1044,1,7,11
8.18E+02,-5067,-5264,4408,887,961,830,1,7,11
8.16E+02,-5446,-5438,4402,646,1290,464,1,7,11
8.07E+02,-5280,-5099,4380,658,1364,440,1,7,11
7.87E+02,-5351,-5056,4384,883,1169,469,1,7,11
7.63E+02,-5673,-5054,4387,855,1178,781,1,7,11
7.43E+02,-5706,-5067,4373,842,1376,843,1,7,11
7.29E+02,-5716,-5071,4357,811,998,870,1,7,11
7.23E+02,-5513,-5060,4362,787,1144,879,1,7,11
7.20E+02,-5567,-5017,4354,771,741,879,1,7,11
7.21E+02,-5556,-5239,4073,493,805,644,1,7,11
7.25E+02,-5512,-5248,4062,418,639,675,1,7,11
7.30E+02,-5677,-5042,4065,562,227,670,1,7,11
7.39E+02,-5357,-5023,4067,246,333,817,1,7,11
7.55E+02,-5640,-5019,4091,174,-14,428,1,7,11
7.83E+02,-5662,-5218,4066,137,-114,554,1,7,11
8.20E+02,-5653,-5201,4076,304,58,162,1,7,11
8.57E+02,-5648,-5196,4077,-38,11,309,1,7,11
8.82E+02,-5634,-5197,4352,-121,-275,-32,1,7,11
8.85E+02,-5376,-5222,4379,69,-288,-78,1,7,11
8.72E+02,-5353,-5230,4380,33,-302,-123,1,7,11
8.51E+02,-5320,-5226,4366,5,-326,61,1,7,11
8.32E+02,-5301,-5226,4376,-289,-329,-279,1,7,11
8.21E+02,-5299,-5247,4408,-349,-326,-356,1,7,11
8.15E+02,-5310,-5012,4434,-137,-324,-152,1,7,11
8.14E+02,-5311,-5026,4439,-142,-340,-188,1,7,11
8.15E+02,-5301,-5053,4456,-154,-337,-207,1,7,11
8.17E+02,-5268,-5066,4455,-130,-342,-193,1,7,11
8.19E+02,-5498,-5092,4444,-362,-353,-177,1,7,11
8.21E+02,-5496,-5067,4430,-313,-337,-226,1,7,11
8.19E+02,-5441,-5066,4397,-306,-344,-547,1,7,11
8.11E+02,-5402,-5084,4386,-330,-308,-632,1,7,11
7.95E+02,-5420,-5096,4390,-345,-276,-434,1,7,11
7.71E+02,-5416,-5392,4397,-367,-294,-443,1,7,11
7.45E+02,-5439,-5426,4404,-345,-298,-445,1,7,11
7.25E+02,-5474,-5436,4423,-306,-333,-423,1,7,11
7.15E+02,-5495,-5422,4437,21,-131,-403,1,7,11
7.12E+02,-5253,-5429,4431,62,-185,-640,1,7,11
7.11E+02,-5490,-5429,4402,94,-224,-423,1,7,11
7.12E+02,-5474,-5428,4400,94,-209,-507,1,7,11
7.15E+02,-5455,-5422,4408,79,-191,-854,1,7,11
7.20E+02,-5439,-5425,4428,65,-175,-676,1,7,11
7.26E+02,-5415,-5435,4454,74,-157,-703,1,7,11
7.27E+02,-5073,-5263,4476,89,-133,-1041,1,7,11
7.20E+02,-5072,-5443,4462,122,-375,-1141,1,7,11
7.06E+02,-5036,-5260,4244,65,-383,-1126,1,7,11
6.92E+02,-5243,-5285,4235,47,-381,-1121,1,7,11
6.82E+02,-5237,-5311,4253,13,-384,-1127,1,7,11
6.76E+02,-5215,-5349,4278,-270,-383,-1139,1,7,11
6.75E+02,-5216,-5363,4302,13,-354,-1144,1,7,11
6.78E+02,-5220,-5363,4313,54,-335,-1113,1,7,11
6.84E+02,-5184,-5373,4292,86,-334,-1063,1,7,11
6.92E+02,-5149,-5649,4281,116,-293,-767,1,7,11
6.95E+02,-5137,-5376,4279,-106,4,-741,1,7,11
6.92E+02,-4836,-5651,4274,127,4,-744,1,7,11
6.83E+02,-4805,-5691,4292,84,-259,-1050,1,7,11
6.70E+02,-4790,-5673,4283,73,-273,-1127,1,7,11
6.59E+02,-4788,-5696,4293,24,-308,-944,1,7,11
6.58E+02,-4744,-5712,4272,-274,-371,-1013,1,7,11
6.68E+02,-4973,-5724,4264,-333,-148,-1340,1,7,11
6.80E+02,-4958,-5748,4273,-141,-165,-1388,1,7,11
6.90E+02,-4939,-5513,4290,-178,-185,-1160,1,7,11
6.95E+02,-4892,-5554,4298,-196,-209,-1157,1,7,11
6.95E+02,-4568,-5585,4287,-209,-223,-1171,1,7,11
6.92E+02,-4510,-5614,4284,-217,-212,-1190,1,7,11
6.90E+02,-4679,-5940,4300,-240,-206,-1201,1,7,11
6.91E+02,-4621,-5962,4276,-227,-196,-1253,1,7,11
6.95E+02,-4280,-6016,4273,-523,-198,-1577,1,7,11
6.98E+02,-4234,-5799,4278,-535,-185,-1662,1,7,11
7.00E+02,-4409,-5870,4284,-561,-198,-1468,1,7,11
7.02E+02,-4378,-6182,4298,-553,-182,-1813,1,7,11
7.03E+02,-4080,-6201,4286,-255,-168,-1872,1,7,11
7.04E+02,-4062,-6226,4302,-241,-384,-1889,1,7,11
7.06E+02,-4061,-6266,4316,-216,-342,-1866,1,7,11
7.08E+02,-4034,-6047,4320,-177,-332,-1819,1,7,11
7.07E+02,-3996,-6074,4312,-129,-325,-1527,1,7,11
7.05E+02,-4216,-6096,4302,-344,-318,-1481,1,7,11
7.02E+02,-4165,-6102,4283,-316,-310,-1468,1,7,11
6.96E+02,-4130,-6125,4265,-306,-280,-1499,1,7,11
6.88E+02,-4100,-6401,4258,-313,-257,-1794,1,7,11
6.77E+02,-3823,-6404,4261,-301,19,-1827,1,7,11
6.64E+02,-3787,-6428,4274,-312,37,-1827,1,7,11
6.48E+02,-3716,-6459,4287,-313,26,-1845,1,7,11
6.33E+02,-3869,-6494,4279,-303,10,-1905,1,7,11
6.20E+02,-3492,-6290,4273,-335,-257,-1733,1,7,11
6.09E+02,-3666,-6306,4262,-375,16,-2145,1,7,11
5.98E+02,-3679,-6277,4263,-157,64,-2025,1,7,11
5.87E+02,-3698,-6308,4275,-223,87,-2325,1,7,11
5.73E+02,-3699,-6367,4282,-527,60,-2352,1,7,11
5.54E+02,-3658,-6391,4253,-513,-270,-2388,1,7,11
5.31E+02,-3631,-6683,4479,-580,-347,-2220,1,7,11
5.07E+02,-3602,-6736,4232,-617,-187,-2587,1,7,11
4.87E+02,-3317,-6777,4470,-386,-554,-2685,1,7,11
4.69E+02,-3242,-6557,4463,-403,-440,-2491,1,7,11
4.54E+02,-3411,-6606,4472,-410,-857,-2538,1,7,11
4.41E+02,-3024,-6604,4438,-406,-758,-2844,1,7,11
4.30E+02,-3177,-6633,4425,-437,-1129,-2882,1,7,11
4.21E+02,-2804,-6925,4401,-497,-970,-2866,1,7,11
4.12E+02,-2706,-6949,4417,-783,-1002,-2834,1,7,11
4.04E+02,-2817,-6964,4388,-825,-1291,-2526,1,7,11
3.96E+02,-2500,-6802,4447,-862,-971,-2440,1,7,11
3.89E+02,-2650,-6873,4463,-846,-991,-2619,1,7,11
3.82E+02,-2278,-6879,4425,-791,-989,-2574,1,7,11
3.80E+02,-2397,-6890,4374,-770,-964,-2252,1,7,11
3.84E+02,-2038,-7188,4371,-799,-1144,-2196,1,7,11
3.99E+02,-1973,-7256,4395,-818,-1065,-2402,1,7,11
4.26E+02,-2159,-7296,4384,-769,-740,-2332,1,7,11
4.64E+02,-2095,-7057,4090,-454,-692,-1978,1,7,11
5.05E+02,-1772,-7105,4088,-414,-641,-2111,1,7,11
5.28E+02,-1673,-7126,4061,-609,-863,-1733,1,7,11
5.28E+02,-1874,-7110,4043,-567,-813,-1908,1,7,11
5.15E+02,-1831,-7112,4051,-562,-772,-1801,1,7,11
4.98E+02,-1523,-7140,4058,-541,-491,-1416,1,7,11
4.83E+02,-1450,-7427,4042,-241,-470,-1547,1,7,11
4.73E+02,-1656,-7165,4030,-194,-430,-1186,1,7,11
4.65E+02,-1614,-7439,4046,-167,-402,-1346,1,7,11
4.58E+02,-1558,-7456,4060,-157,-387,-1006,1,7,11
4.52E+02,-1249,-7480,4060,-142,-638,-956,1,7,11
4.53E+02,-1189,-7481,4033,-380,-613,-912,1,7,11
4.61E+02,-1153,-7471,4019,-372,-547,-1128,1,7,11
4.74E+02,-1390,-7502,4036,-380,-218,-1072,1,7,11
4.92E+02,-1379,-7511,4043,-349,-146,-750,1,7,11
5.12E+02,-1345,-7494,4016,-312,-354,-680,1,7,11
5.33E+02,-1308,-7473,3990,-305,-308,-884,1,7,11
5.49E+02,-1286,-7479,3988,-328,-266,-843,1,7,11
5.59E+02,-1284,-7488,4002,-344,24,-823,1,7,11
5.65E+02,-1294,-7470,3976,-356,32,-793,1,7,11
5.69E+02,-1312,-7473,3968,-366,18,-503,1,7,11
5.73E+02,-1300,-7492,4222,-384,-277,-460,1,7,11
5.78E+02,-1282,-7544,3975,-384,-331,-428,1,7,11
5.82E+02,-1006,-7527,4198,-337,-145,-407,1,7,11
5.85E+02,-965,-7515,4169,-322,-207,-391,1,7,11
5.85E+02,-950,-7548,4178,-340,-253,-396,1,7,11
5.82E+02,-936,-7301,4188,-323,-532,-387,1,7,11
5.78E+02,-927,-7313,4204,-286,-535,-620,1,7,11
5.72E+02,-900,-7308,4210,9,-545,-589,1,7,11
5.67E+02,-1108,-7305,4218,34,-549,-566,1,7,11
5.65E+02,-1074,-7551,3972,43,-553,-576,1,7,11
5.67E+02,-1034,-7549,3982,33,-568,-594,1,7,11
5.77E+02,-735,-7536,4223,29,-575,-620,1,7,11
5.95E+02,-692,-7538,3971,12,-571,-388,1,7,11
6.13E+02,-669,-7547,3991,-260,-557,-419,1,7,11
6.22E+02,-896,-7310,3992,-264,-548,-445,1,7,11
6.20E+02,-880,-7314,4008,-270,-530,-478,1,7,11
6.06E+02,-853,-7540,3994,2,-526,-484,1,7,11
5.82E+02,-818,-7544,3988,-267,-254,-484,1,7,11
5.49E+02,-804,-7308,4012,-275,-238,-484,1,7,11
5.21E+02,-783,-7313,4020,-261,-226,-479,1,7,11
5.10E+02,-502,-7300,4012,10,-218,-460,1,7,11
5.13E+02,-453,-7530,3984,15,-221,-430,1,7,11
5.19E+02,-403,-7513,4212,-271,-219,-402,1,7,11
5.26E+02,-625,-7522,4184,-314,-192,-618,1,7,11
5.34E+02,-604,-7308,4183,-347,-152,-579,1,7,11
5.44E+02,-599,-7346,4190,-347,-375,-532,1,7,11
5.54E+02,-590,-7368,4182,-326,-346,-220,1,7,11
5.61E+02,-594,-7390,4180,-301,-321,-170,1,7,11
5.63E+02,-585,-7401,4172,-269,-308,-131,1,7,11
5.60E+02,-565,-7386,4173,27,-298,-362,1,7,11
5.55E+02,-549,-7392,4171,42,-278,-355,1,7,11
5.50E+02,-563,-7381,4183,68,9,-364,1,7,11
5.48E+02,-563,-7360,4192,89,25,-365,1,7,11
5.51E+02,-571,-7359,4203,82,42,-130,1,7,11
5.58E+02,-564,-7347,4208,89,50,-135,1,7,11
5.68E+02,-569,-7333,4210,96,62,-145,1,7,11
5.78E+02,-566,-7319,4214,96,53,-151,1,7,11
5.86E+02,-572,-7550,4215,85,54,-160,1,7,11
5.91E+02,-573,-7539,3969,51,60,-157,1,7,11
5.94E+02,-561,-7542,3975,18,62,-151,1,7,11
5.93E+02,-541,-7548,3969,-260,69,-151,1,7,11
5.81E+02,-532,-7539,4216,-269,84,-153,1,7,11
5.47E+02,-530,-7549,4210,-281,101,-155,1,7,11
5.00E+02,-523,-7302,4214,-289,111,-149,1,7,11
4.72E+02,-532,-7325,3976,-298,122,-140,1,7,11
4.72E+02,-531,-7351,3968,-289,126,-382,1,7,11
4.71E+02,-515,-7343,4195,-260,-119,-361,1,7,11
4.70E+02,-231,-7349,4196,5,-106,-341,1,7,11
4.87E+02,-226,-7379,4199,12,-77,-328,1,7,11
5.07E+02,-239,-7369,4197,41,-56,-317,1,7,11
5.17E+02,-252,-7338,4180,61,-43,-293,1,7,11
5.22E+02,-518,-7322,4183,53,-35,-270,1,7,11
5.24E+02,-533,-7323,4197,33,-27,-257,1,7,11
5.26E+02,-552,-7312,4189,27,-55,5,1,7,11
5.28E+02,-550,-7314,4182,5,-85,8,1,7,11
5.31E+02,-544,-7330,4194,-263,-106,9,1,7,11
5.33E+02,-539,-7337,4205,-262,-125,-257,1,7,11
5.36E+02,-545,-7329,4190,5,117,-257,1,7,11
5.39E+02,-543,-7331,4188,12,108,15,1,7,11
5.42E+02,-537,-7330,4177,5,106,35,1,7,11
5.45E+02,-540,-7354,4201,-262,105,52,1,7,11
5.47E+02,-543,-7367,4209,-269,97,62,1,7,11
5.48E+02,-551,-7341,4201,12,63,68,1,7,11
5.42E+02,-541,-7324,4192,20,45,93,1,7,11
5.27E+02,-533,-7552,4179,14,35,116,1,7,11
5.17E+02,-526,-7313,4191,-273,30,-118,1,7,11
5.25E+02,-523,-7327,4191,-284,29,-112,1,7,11
5.32E+02,-538,-7332,4183,-286,46,-114,1,7,11
5.12E+02,-534,-7346,4171,-277,59,-109,1,7,11
4.86E+02,-529,-7363,4176,-271,70,-123,1,7,11
4.88E+02,-541,-7385,4195,-258,74,96,1,7,11
5.11E+02,-565,-7369,4202,36,65,55,1,7,11
5.33E+02,-577,-7340,4205,63,49,18,1,7,11
5.49E+02,-571,-7309,4194,71,33,-269,1,7,11
5.62E+02,-561,-7317,4205,45,21,-297,1,7,11
5.72E+02,-556,-7318,4222,35,10,-316,1,7,11
5.81E+02,-529,-7320,4218,27,-262,-314,1,7,11
5.87E+02,-256,-7316,4212,24,-265,-311,1,7,11
5.89E+02,-235,-7336,4223,8,-260,-298,1,7,11
5.85E+02,-209,-7336,4208,8,10,-281,1,7,11
5.73E+02,-199,-7359,4210,-257,31,-258,1,7,11
5.52E+02,-195,-7364,4206,5,56,26,1,7,11
5.30E+02,-210,-7358,4205,13,76,55,1,7,11
5.23E+02,-220,-7345,4208,23,85,90,1,7,11
5.30E+02,-202,-7330,4183,22,84,123,1,7,11
5.46E+02,-208,-7339,4195,-258,93,-115,1,7,11
5.68E+02,-228,-7358,4208,4,115,-91,1,7,11
5.93E+02,-240,-7336,4190,29,-117,-68,1,7,11
6.20E+02,-524,-7334,4193,29,-88,-47,1,7,11
6.54E+02,-550,-7344,4203,29,-65,-31,1,7,11
7.01E+02,-582,-7339,4208,44,-59,-29,1,7,11
7.61E+02,-594,-7328,4196,49,-70,-34,1,7,11
8.13E+02,-617,-7314,4180,43,-81,-59,1,7,11
8.41E+02,-638,-7323,4187,24,-94,-86,1,7,11
8.56E+02,-408,-7339,4202,22,-120,-125,1,7,11
8.68E+02,-415,-7341,4210,40,93,95,1,7,11
8.86E+02,-400,-7322,4191,59,53,51,1,7,11
9.03E+02,-627,-7302,4180,61,21,14,1,7,11
9.12E+02,-579,-7547,4167,57,-264,-277,1,7,11
9.14E+02,-549,-7551,4160,34,-272,-305,1,7,11
9.10E+02,-534,-7319,4161,13,-264,-314,1,7,11
9.03E+02,-540,-7331,4165,6,18,-304,1,7,11
8.95E+02,-536,-7318,4158,16,47,-280,1,7,11
8.88E+02,-539,-7333,4169,1,73,-259,1,7,11
8.82E+02,-557,-7360,4202,3,91,11,1,7,11
8.77E+02,-561,-7338,4186,37,87,23,1,7,11
8.73E+02,-546,-7308,4168,44,70,15,1,7,11
8.69E+02,-548,-7547,4166,15,49,-258,1,7,11
8.61E+02,-536,-7304,4164,-277,9,-274,1,7,11
8.49E+02,-529,-7315,4157,-299,-283,-282,1,7,11
8.30E+02,-527,-7351,4161,-323,-306,-268,1,7,11
8.11E+02,-252,-7377,4152,-323,-318,11,1,7,11
7.98E+02,-228,-7401,4153,-309,-313,36,1,7,11
7.91E+02,-210,-7405,4143,-281,-297,56,1,7,11
7.89E+02,-200,-7410,4143,-266,-267,60,1,7,11
7.88E+02,-211,-7405,4147,18,21,50,1,7,11
7.88E+02,-224,-7387,4158,31,45,37,1,7,11
7.89E+02,-229,-7376,4146,45,52,30,1,7,11
7.91E+02,-238,-7366,4139,45,53,17,1,7,11
7.94E+02,-237,-7362,4136,49,51,4,1,7,11
7.97E+02,-233,-7349,4133,56,48,-266,1,7,11
8.01E+02,-234,-7325,4123,63,43,-260,1,7,11
8.03E+02,-223,-7336,4116,47,26,19,1,7,11
8.06E+02,-205,-7363,4130,39,15,47,1,7,11
8.09E+02,-193,-7381,4136,59,0,81,1,7,11
8.11E+02,-180,-7392,4131,78,-260,116,1,7,11
8.13E+02,-178,-7374,4131,100,12,-98,1,7,11
8.11E+02,-185,-7362,4130,107,43,-36,1,7,11
8.05E+02,-174,-7366,4137,120,61,282,1,7,11
7.93E+02,-163,-7368,4131,122,89,327,1,7,11
7.80E+02,-187,-7345,4123,-124,-125,140,1,7,11
7.70E+02,-213,-7334,4125,112,-104,193,1,7,11
7.62E+02,-239,-7339,4134,87,-96,250,1,7,11
7.56E+02,-525,-7336,4138,62,-94,561,1,7,11
7.53E+02,-531,-7352,4145,46,-97,621,1,7,11
7.54E+02,-538,-7363,4147,54,-91,398,1,7,11
7.62E+02,-545,-7361,4154,56,-70,427,1,7,11
7.77E+02,-564,-7348,4154,82,-41,456,1,7,11
7.96E+02,-576,-7341,4147,76,-8,485,1,7,11
8.13E+02,-593,-7326,4144,84,282,772,1,7,11
8.24E+02,-612,-7328,4151,82,310,821,1,7,11
8.28E+02,-638,-7334,4163,82,327,874,1,7,11
8.24E+02,-403,-7349,4180,95,333,670,1,7,11
8.10E+02,-429,-7318,4169,120,320,731,1,7,11
7.89E+02,-434,-7320,4156,124,300,1083,1,7,11
7.67E+02,-441,-7322,4150,125,285,929,1,7,11
7.49E+02,-449,-7328,4150,-125,269,1291,1,7,11
7.38E+02,-465,-7314,4142,-108,265,1400,1,7,11
7.31E+02,-506,-7305,4146,-97,265,1238,1,7,11
7.27E+02,-809,-7326,4173,-102,271,1611,1,7,11
7.26E+02,-879,-7330,4187,-81,295,1491,1,7,11
7.25E+02,-695,-7325,4220,-49,313,1917,1,7,11
7.23E+02,-1032,-7336,4001,-28,321,2131,1,7,11
7.21E+02,-1151,-7339,4048,279,353,2344,1,7,11
7.19E+02,-1300,-7300,4360,365,151,2287,1,7,11
7.17E+02,-1397,-7540,4368,178,196,2494,1,7,11
7.15E+02,-1237,-7475,4384,236,525,2700,1,7,11
7.16E+02,-1634,-7123,4423,243,591,3189,1,7,11
7.20E+02,-1514,-7095,4462,211,611,3219,1,7,11
7.30E+02,-1695,-7238,4472,229,390,3528,1,7,11
7.47E+02,-2161,-7183,4441,525,424,4115,1,7,11
7.65E+02,-2309,-6867,4406,533,485,4453,1,7,11
7.82E+02,-2195,-6819,4390,250,810,4521,1,7,11
7.95E+02,-2590,-7023,4413,181,855,4809,1,7,11
8.03E+02,-2536,-6956,4429,130,883,5085,1,7,11
8.09E+02,-2781,-6888,4446,330,889,5373,1,7,11
8.13E+02,-3042,-6757,4405,359,869,5947,1,7,11
8.18E+02,-3256,-6682,4368,356,838,6036,1,7,11
8.25E+02,-3705,-6365,4066,329,823,6380,1,7,11
8.32E+02,-3912,-6299,4060,294,833,6978,1,7,11
8.38E+02,-4056,-6118,4005,259,788,7533,1,7,11
8.40E+02,-4396,-6071,3999,-25,490,7708,1,7,11
8.39E+02,-4296,-6222,3988,-40,500,7627,1,7,11
8.37E+02,-4506,-5852,4017,-40,797,8002,1,7,11
8.35E+02,-4983,-5970,4023,293,824,7836,1,7,11
8.33E+02,-5128,-5720,3975,170,807,7869,1,7,11
8.31E+02,-5028,-5556,4210,532,851,8063,1,7,11
8.29E+02,-5262,-5433,3985,576,701,7571,1,7,11
8.25E+02,-5353,-5024,4220,623,697,7316,1,7,11
8.20E+02,-5717,-4833,4194,610,695,7185,1,7,11
8.14E+02,-5579,-4891,4139,576,717,6710,1,7,11
8.08E+02,-6001,-4482,4153,222,757,6170,1,7,11
8.01E+02,-5861,-4333,4149,140,754,5633,1,7,11
7.94E+02,-6247,-4431,4159,322,1059,4822,1,7,11
7.89E+02,-6444,-3997,4198,300,911,4308,1,7,11
7.86E+02,-6344,-4117,4208,316,980,4157,1,7,11
7.85E+02,-6530,-3721,4223,379,1298,3545,1,7,11
7.87E+02,-6967,-3579,3976,203,1289,3288,1,7,11
7.91E+02,-6812,-3701,4205,533,939,3384,1,7,11
7.98E+02,-6888,-3612,4195,564,1072,3024,1,7,11
8.07E+02,-6898,-3268,4165,590,676,3195,1,7,11
8.19E+02,-7180,-3418,4155,606,838,3086,1,7,11
8.32E+02,-7207,-3351,4200,586,497,2750,1,7,11
8.47E+02,-7233,-3016,3992,592,420,2917,1,7,11
8.63E+02,-7275,-3172,4038,611,589,2834,1,7,11
8.79E+02,-7243,-3084,4042,618,220,2498,1,7,11
8.93E+02,-7203,-2717,4027,613,148,2632,1,7,11
9.04E+02,-7261,-2838,4038,614,155,2221,1,7,11
9.10E+02,-7085,-2442,4044,593,158,2347,1,7,11
9.13E+02,-7071,-2634,4039,549,360,1985,1,7,11
9.11E+02,-7078,-2250,4010,234,333,2060,1,7,11
9.05E+02,-7108,-2406,4004,145,351,1905,1,7,11
8.96E+02,-7149,-2047,3999,328,136,1520,1,7,11
8.85E+02,-7168,-1996,3996,-2,174,1424,1,7,11
8.72E+02,-7442,-1986,3992,-56,222,1587,1,7,11
8.59E+02,-7440,-1961,4208,-68,516,1225,1,7,11
8.46E+02,-7456,-1970,4206,-92,588,1359,1,7,11
8.38E+02,-7496,-1952,4204,-74,409,982,1,7,11
8.38E+02,-7547,-1955,4207,-57,461,1127,1,7,11
8.50E+02,-7333,-1945,4192,-3,487,1029,1,7,11
8.72E+02,-7362,-1923,4156,302,496,683,1,7,11
8.97E+02,-7391,-1925,4143,326,500,850,1,7,11
9.19E+02,-7409,-1927,4118,350,477,497,1,7,11
9.29E+02,-7688,-2167,3822,128,450,397,1,7,11
9.28E+02,-7720,-2141,3789,149,419,572,1,7,11
9.16E+02,-7745,-2119,3747,159,393,254,1,7,11
8.93E+02,-7759,-2096,3965,169,611,206,1,7,11
8.62E+02,-7754,-2100,3932,155,562,153,1,7,11
8.31E+02,-7731,-2116,3913,133,512,345,1,7,11
8.09E+02,-7732,-2132,3895,371,212,-2,1,7,11
8.01E+02,-7724,-2138,3868,360,158,-93,1,7,11
8.01E+02,-7695,-2148,3578,358,359,84,1,7,11
7.98E+02,-7409,-2174,3566,354,331,14,1,7,11
7.85E+02,-7383,-1948,3550,365,320,-310,1,7,11
7.66E+02,-7359,-1966,3538,140,319,-374,1,7,11
7.49E+02,-7334,-1978,3511,164,342,-180,1,7,11
7.41E+02,-7359,-1993,3524,210,142,-218,1,7,11
7.39E+02,-7350,-1989,3524,543,183,-213,1,7,11
7.39E+02,-7324,-1980,3502,625,220,-190,1,7,11
7.35E+02,-7547,-1974,3471,443,529,-149,1,7,11
7.29E+02,-7545,-1972,3702,507,605,-367,1,7,11
7.23E+02,-7534,-1962,3683,820,412,-333,1,7,11
7.18E+02,-7543,-1935,3656,864,491,-328,1,7,11
7.17E+02,-7322,-2154,3632,646,832,-324,1,7,11
7.20E+02,-7369,-2101,3592,678,654,-309,1,7,11
7.27E+02,-7403,-1787,3297,682,724,-269,1,7,11
7.32E+02,-7693,-1742,3260,664,1036,54,1,7,11
7.30E+02,-7719,-1708,3223,870,1062,118,1,7,11
7.19E+02,-7753,-1670,3425,811,1071,-95,1,7,11
7.12E+02,-7773,-1895,3360,474,1056,-54,1,7,11
7.17E+02,-7792,-1873,3046,622,1036,-31,1,7,11
7.39E+02,-7569,-1863,3015,234,764,-21,1,7,11
7.66E+02,-7577,-1886,3005,344,715,-22,1,7,11
7.88E+02,-7556,-1898,2978,-52,887,-62,1,7,11
7.98E+02,-7788,-1684,2965,30,807,-121,1,7,11
8.02E+02,-7792,-1762,2997,-144,484,82,1,7,11
8.04E+02,-7778,-2106,3026,-529,399,37,1,7,11
8.10E+02,-7794,-1947,3069,-599,596,10,1,7,11
8.18E+02,-7554,-2018,3370,-607,548,35,1,7,11
8.23E+02,-7567,-2350,3415,-576,255,103,1,7,11
8.22E+02,-7593,-2411,3218,-242,236,-74,1,7,11
8.18E+02,-7607,-2406,3231,-348,213,261,1,7,11
8.13E+02,-7586,-2356,3211,61,194,343,1,7,11
8.11E+02,-7580,-2044,3213,-98,221,160,1,7,11
8.10E+02,-7586,-1969,3455,-3,243,244,1,7,11
8.02E+02,-7570,-2133,3429,333,516,586,1,7,11
7.80E+02,-7805,-1768,3379,129,543,395,1,7,11
7.44E+02,-7761,-1689,3049,379,580,446,1,7,11
7.11E+02,-7743,-1880,2966,322,639,465,1,7,11
6.97E+02,-7713,-1843,3123,-41,429,454,1,7,11
7.04E+02,-7723,-1807,2752,56,488,412,1,7,11
7.17E+02,-7774,-1527,2892,-378,814,635,1,7,11
7.22E+02,-7622,-1501,2553,-558,642,621,1,7,11
7.19E+02,-7999,-1504,2512,-462,703,404,1,7,11
7.16E+02,-7880,-1503,2485,-788,726,472,1,7,11
7.22E+02,-8242,-1502,2467,-779,704,834,1,7,11
7.36E+02,-8294,-1475,2440,-444,890,675,1,7,11
7.54E+02,-8307,-1452,2686,-599,800,752,1,7,11
7.70E+02,-8309,-1427,2683,-212,444,1036,1,7,11
7.82E+02,-8284,-1624,2673,-328,576,757,1,7,11
7.90E+02,-8250,-1571,2680,59,209,699,1,7,11
7.91E+02,-8234,-1260,2448,-68,382,881,1,7,11
7.87E+02,-8207,-1217,2477,306,309,808,1,7,11
7.79E+02,-7918,-1185,2499,165,-5,473,1,7,11
7.66E+02,-7886,-1161,2508,529,-38,389,1,7,11
7.53E+02,-7844,-1371,2456,625,-34,516,1,7,11
7.43E+02,-7826,-1370,2683,411,273,152,1,7,11
7.43E+02,-7845,-1374,2678,397,323,289,1,7,11
7.49E+02,-7891,-1372,2663,630,367,-76,1,7,11
7.55E+02,-7922,-1367,2619,607,132,95,1,7,11
7.52E+02,-8208,-1403,2624,550,153,36,1,7,11
7.40E+02,-8230,-1168,2624,533,160,-261,1,7,11
7.21E+02,-8245,-1166,2632,542,149,-281,1,7,11
7.00E+02,-8256,-1399,2634,573,135,-292,1,7,11
6.80E+02,-8244,-1375,2618,615,361,-283,1,7,11
6.62E+02,-8248,-1339,2597,395,349,-275,1,7,11
6.49E+02,-8287,-1322,2620,411,346,4,1,7,11
6.45E+02,-8307,-1318,2653,430,315,41,1,7,11
6.54E+02,-8083,-1322,2433,459,282,63,1,7,11
6.72E+02,-8112,-1302,2449,509,-30,69,1,7,11
6.84E+02,-8112,-1302,2483,793,-88,66,1,7,11
6.78E+02,-8105,-1309,2527,830,110,47,1,7,11
6.63E+02,-8084,-1313,2544,845,33,-257,1,7,11
6.60E+02,-8084,-1342,2829,833,-275,-329,1,7,11
6.87E+02,-8305,-1346,2836,833,-323,-149,1,7,11
7.28E+02,-8270,-1372,2853,793,-338,-234,1,7,11
7.62E+02,-8220,-1389,2834,507,-338,-551,1,7,11
7.71E+02,-7898,-1154,2554,440,-313,-615,1,7,11
7.66E+02,-7840,-1177,2523,612,-260,-432,1,7,11
7.62E+02,-8059,-1201,2484,254,74,-512,1,7,11
7.73E+02,-7818,-1227,2469,162,-83,-824,1,7,11
7.93E+02,-7855,-1227,2441,349,267,-828,1,7,11
8.12E+02,-7894,-1252,2434,286,345,-786,1,7,11
8.20E+02,-7925,-1537,2687,257,138,-465,1,7,11
8.16E+02,-7916,-1576,2678,-10,135,-402,1,7,11
8.03E+02,-7912,-1616,2671,-11,367,-387,1,7,11
7.84E+02,-8200,-1658,2447,-2,315,-398,1,7,11
7.65E+02,-8215,-1429,2457,300,-29,-434,1,7,11
7.51E+02,-8195,-1490,2499,331,123,-480,1,7,11
7.46E+02,-7914,-1795,2537,135,31,-806,1,7,11
7.52E+02,-7886,-1823,2831,209,-293,-881,1,7,11
7.62E+02,-7839,-1848,2862,540,-350,-699,1,7,11
7.71E+02,-8040,-1892,2906,590,-383,-768,1,7,11
7.77E+02,-7991,-1673,2936,391,-133,-1083,1,7,11
7.83E+02,-7946,-1714,2708,435,-372,-1119,1,7,11
7.93E+02,-7663,-1724,2710,485,-337,-1147,1,7,11
8.09E+02,-7650,-1750,2727,775,-286,-1151,1,7,11
8.22E+02,-7654,-1733,2715,846,18,-900,1,7,11
8.27E+02,-7671,-1738,2744,864,76,-1128,1,7,11
8.19E+02,-7944,-1709,2722,667,120,-1092,1,7,11
8.03E+02,-7957,-1733,2748,667,-105,-1054,1,7,11
7.86E+02,-7977,-1707,2744,746,-83,-1038,1,7,11
7.78E+02,-8015,-1914,2718,1051,-47,-756,1,7,11
7.76E+02,-8035,-1699,2763,1051,-17,-684,1,7,11
7.81E+02,-8060,-1783,3099,1110,267,-836,1,7,11
7.88E+02,-7892,-1791,3179,1296,275,-498,1,7,11
7.98E+02,-7907,-2059,2964,1257,-48,-410,1,7,11
8.10E+02,-7898,-2085,3002,1456,-113,-637,1,7,11
8.26E+02,-7846,-2065,2976,1679,74,-631,1,7,11
8.43E+02,-8003,-1762,3160,2103,17,-629,1,7,11
8.56E+02,-7953,-1747,3150,2160,41,-392,1,7,11
8.59E+02,-7669,-1729,3159,1942,90,-390,1,7,11
8.50E+02,-7641,-1704,3160,1981,-128,-639,1,7,11
8.36E+02,-7594,-1911,3141,2023,-80,-635,1,7,11
8.24E+02,-7585,-1832,3113,2311,267,-625,1,7,11
8.24E+02,-7601,-1489,3078,2308,134,-572,1,7,11
8.34E+02,-7628,-1662,2783,2032,533,-219,1,7,11
8.47E+02,-7661,-1590,2759,1970,411,-369,1,7,11
8.57E+02,-7943,-1544,2728,2139,779,-239,1,7,11
8.57E+02,-7978,-1274,2739,2048,877,54,1,7,11
8.49E+02,-8038,-1263,2743,1706,694,67,1,7,11
8.31E+02,-7839,-1252,2732,1917,733,63,1,7,11
8.06E+02,-7862,-1234,2702,1898,731,54,1,7,11
7.79E+02,-7886,-1223,2935,1889,719,38,1,7,11
7.56E+02,-7910,-1215,2928,1870,702,19,1,7,11
7.45E+02,-8208,-1191,2907,1857,674,-21,1,7,11
7.44E+02,-8236,-1201,2919,1832,891,-323,1,7,11
7.50E+02,-8246,-1219,2689,1509,768,-131,1,7,11
7.62E+02,-8233,-1246,2740,1474,445,-172,1,7,11
7.77E+02,-8231,-1542,2787,1456,626,-214,1,7,11
7.95E+02,-8208,-1542,2805,1455,536,-518,1,7,11
8.15E+02,-8202,-1542,3089,1440,205,-578,1,7,11
8.33E+02,-8207,-1261,3114,1425,128,-622,1,7,11
8.49E+02,-7933,-1233,3102,1414,291,-630,1,7,11
8.60E+02,-7911,-1210,3107,1632,-30,-619,1,7,11
8.65E+02,-7897,-1189,3121,1574,-85,-587,1,7,11
8.64E+02,-7847,-1190,3130,1259,109,-540,1,7,11
8.61E+02,-8059,-1205,3150,1183,66,-241,1,7,11
8.56E+02,-8003,-1210,3144,1384,26,-207,1,7,11
8.53E+02,-7979,-1230,3143,1296,27,-183,1,7,11
8.55E+02,-7958,-1219,3138,960,23,-143,1,7,11
8.67E+02,-7661,-1225,3123,1087,33,-353,1,7,11
8.87E+02,-7653,-1235,3110,686,55,-325,1,7,11
9.10E+02,-7642,-1254,3097,788,77,-293,1,7,11
9.28E+02,-7658,-1260,3084,583,120,-274,1,7,11
9.36E+02,-7662,-1254,2806,213,-99,13,1,7,11
9.34E+02,-7948,-1245,2803,372,-33,37,1,7,11
9.23E+02,-7966,-1247,2793,284,289,84,1,7,11
9.09E+02,-7996,-1261,2799,-32,370,120,1,7,11
8.92E+02,-8024,-1272,2798,-64,170,-94,1,7,11
8.76E+02,-8041,-1264,2771,-82,201,-56,1,7,11
8.63E+02,-8043,-1556,2743,117,211,-26,1,7,11
8.55E+02,-7819,-1547,2722,75,231,-22,1,7,11
8.51E+02,-7860,-1557,2728,18,243,-6,1,7,11
8.48E+02,-7893,-1583,2738,-272,227,257,1,7,11
8.42E+02,-7904,-1631,2760,-303,181,-13,1,7,11
8.32E+02,-7910,-1655,2780,-300,374,-79,1,7,11
8.18E+02,-7921,-1656,2777,-279,300,82,1,7,11
8.04E+02,-7933,-1636,2766,12,-30,-273,1,7,11
7.89E+02,-7913,-1617,2745,19,-108,-352,1,7,11
7.73E+02,-7903,-1607,2748,5,96,-156,1,7,11
7.51E+02,-7871,-1617,2763,-269,41,-189,1,7,11
7.24E+02,-7837,-1639,2781,-283,-263,-205,1,7,11
7.00E+02,-8058,-1662,2801,-276,-304,-203,1,7,11
6.87E+02,-8018,-1660,2799,2,-343,-200,1,7,11
6.90E+02,-7991,-1654,2791,9,-349,-198,1,7,11
7.01E+02,-7975,-1639,2781,11,-325,-177,1,7,11
7.12E+02,-7943,-1650,2768,-258,-277,-134,1,7,11
7.18E+02,-7680,-1630,2733,-266,62,-345,1,7,11
7.24E+02,-7940,-1651,2731,-305,-101,-287,1,7,11
7.32E+02,-7961,-1664,2716,-296,-9,0,1,7,11
7.44E+02,-7989,-1420,2695,-277,331,27,1,7,11
7.53E+02,-8011,-1417,2926,23,151,31,1,7,11
7.55E+02,-8046,-1659,2919,56,215,18,1,7,11
7.52E+02,-7817,-1656,2903,99,252,25,1,7,11
7.54E+02,-7853,-1645,2895,-123,532,-259,1,7,11
7.69E+02,-7895,-1618,2918,-71,532,-324,1,7,11
7.98E+02,-8206,-1571,2915,-20,238,-137,1,7,11
8.33E+02,-8221,-1262,2888,269,182,-172,1,7,11
8.66E+02,-8235,-1212,2870,-11,148,-184,1,7,11
8.88E+02,-8211,-1196,2857,-76,364,-382,1,7,11
9.02E+02,-8206,-1158,2851,121,348,-283,1,7,11
9.10E+02,-8202,-1167,2898,26,338,124,1,7,11
9.16E+02,-7919,-1207,2926,-312,309,298,1,7,11
9.21E+02,-7847,-1263,2926,-144,261,171,1,7,11
9.20E+02,-7820,-1577,2924,-244,-8,214,1,7,11
9.12E+02,-7813,-1606,2916,-576,-34,194,1,7,11
8.93E+02,-7837,-1619,2910,-629,-55,371,1,7,11
8.68E+02,-7849,-1643,2892,-408,-83,278,1,7,11
8.44E+02,-7873,-1409,2874,-417,-106,-86,1,7,11
8.31E+02,-7868,-1439,2854,-396,125,79,1,7,11
8.30E+02,-7862,-1449,2837,-599,111,-270,1,7,11
8.34E+02,-7858,-1450,2557,-528,107,-344,1,7,11
8.32E+02,-7854,-1457,2543,-202,115,-143,1,7,11
8.19E+02,-7848,-1467,2536,-384,122,-181,1,7,11
8.03E+02,-7850,-1479,2529,-311,-119,-203,1,7,11
7.92E+02,-7849,-1499,2530,20,-115,-212,1,7,11
7.94E+02,-7851,-1509,2525,103,-107,-216,1,7,11
8.02E+02,-7864,-1513,2532,-71,-94,-209,1,7,11
8.05E+02,-7875,-1523,2556,-6,-92,-194,1,7,11
7.93E+02,-7879,-1531,2845,321,-109,-171,1,7,11
7.70E+02,-7862,-1802,2860,367,124,-149,1,7,11
7.52E+02,-7867,-1798,2862,149,98,-148,1,7,11
7.53E+02,-7821,-1528,2863,187,95,-164,1,7,11
7.70E+02,-7851,-1528,2881,188,86,-186,1,7,11
7.90E+02,-7843,-1529,2898,199,98,-193,1,7,11
8.00E+02,-7830,-1794,2910,209,77,-179,1,7,11
7.96E+02,-7820,-1534,2908,230,81,-188,1,7,11
7.86E+02,-7824,-1515,2904,526,90,-172,1,7,11
7.78E+02,-7842,-1493,2909,556,111,-148,1,7,11
7.75E+02,-7839,-1485,2900,590,123,-352,1,7,11
7.76E+02,-7846,-1465,2892,614,-128,-308,1,7,11
7.80E+02,-7834,-1451,2873,638,118,-284,1,7,11
7.84E+02,-7837,-1456,2887,630,112,-301,1,7,11
7.89E+02,-7859,-1434,2902,384,110,-313,1,7,11
7.96E+02,-7854,-1423,2923,400,79,-295,1,7,11
8.05E+02,-7848,-1663,2939,424,30,-264,1,7,11
8.15E+02,-7814,-1660,2939,452,1,36,1,7,11
8.28E+02,-8042,-1648,2940,493,19,57,1,7,11
8.43E+02,-8050,-1628,2699,796,48,55,1,7,11
8.56E+02,-8045,-1608,2722,832,53,36,1,7,11
8.64E+02,-8044,-1581,2736,859,48,-268,1,7,11
8.63E+02,-8037,-1562,2746,858,48,-328,1,7,11
8.51E+02,-7819,-1578,2788,808,52,-129,1,7,11
8.35E+02,-7831,-1563,2794,787,17,-176,1,7,11
8.24E+02,-7813,-1577,2794,463,-283,-200,1,7,11
8.24E+02,-8030,-1590,2768,638,-316,-225,1,7,11
8.30E+02,-8010,-1636,2776,528,-321,-245,1,7,11
8.39E+02,-8027,-1433,2807,171,-317,-254,1,7,11
8.46E+02,-8034,-1465,2814,378,-324,-244,1,7,11
8.48E+02,-8024,-1507,3072,331,-317,-212,1,7,11
8.48E+02,-8036,-1798,3076,304,-285,-176,1,7,11
8.47E+02,-8036,-1832,3074,302,-262,-372,1,7,11
8.46E+02,-8045,-1862,3076,323,21,-329,1,7,11
8.43E+02,-8053,-1884,3082,369,38,-295,1,7,11
8.35E+02,-8046,-1887,2808,177,59,0,1,7,11
8.21E+02,-8048,-1871,2798,248,93,39,1,7,11
8.07E+02,-7813,-1854,2807,597,-126,85,1,7,11
8.01E+02,-7812,-1833,3073,448,-108,-110,1,7,11
8.09E+02,-8022,-1833,3080,802,-111,-55,1,7,11
8.29E+02,-7986,-1826,3106,651,-101,-54,1,7,11
8.53E+02,-7961,-1799,3125,762,-94,-106,1,7,11
8.71E+02,-7958,-1507,3161,1134,-85,71,1,7,11
8.80E+02,-7947,-1452,3185,988,-90,-264,1,7,11
8.81E+02,-7939,-1418,2953,1331,-92,-333,1,7,11
8.80E+02,-7664,-1637,2959,1163,-84,-140,1,7,11
8.79E+02,-7653,-1599,2951,1232,-51,-194,1,7,11
8.81E+02,-7630,-1538,3155,1539,-2,-236,1,7,11
8.82E+02,-7634,-1223,3129,1276,348,-526,1,7,11
8.82E+02,-7670,-1162,3120,1238,197,-524,1,7,11
8.79E+02,-7989,-1371,3115,1175,547,-226,1,7,11
8.71E+02,-8032,-1351,3102,1355,615,-188,1,7,11
8.57E+02,-7822,-1356,3092,954,399,-163,1,7,11
8.36E+02,-7864,-1391,3091,1085,631,-154,1,7,11
8.10E+02,-7879,-1187,3075,694,566,-169,1,7,11
7.82E+02,-7881,-1235,2800,824,234,-213,1,7,11
7.54E+02,-7876,-1537,2768,466,161,-523,1,7,11
7.31E+02,-7848,-1571,2734,639,354,-576,1,7,11
7.16E+02,-7829,-1614,2714,575,329,-616,1,7,11
7.11E+02,-7828,-1660,2712,547,332,-629,1,7,11
7.14E+02,-7819,-1449,2718,562,341,-626,1,7,11
7.20E+02,-7819,-1482,2716,618,352,-618,1,7,11
7.26E+02,-8060,-1518,2714,430,340,-611,1,7,11
7.33E+02,-8046,-1524,2694,770,323,-621,1,7,11
7.46E+02,-8055,-1795,2942,833,312,-631,1,7,11
7.69E+02,-8042,-1509,2890,642,279,-627,1,7,11
7.99E+02,-8038,-1491,2859,649,263,-615,1,7,11
8.30E+02,-8039,-1487,2833,886,-5,-578,1,7,11
8.57E+02,-8031,-1480,2532,833,-17,-540,1,7,11
8.77E+02,-8043,-1488,2519,487,-9,-246,1,7,11
8.88E+02,-7810,-1498,2495,632,-4,-205,1,7,11
8.85E+02,-7832,-1525,2481,243,-3,-172,1,7,11
8.69E+02,-7871,-1808,2481,352,258,-135,1,7,11
8.48E+02,-7906,-1828,2477,-51,-14,-342,1,7,11
8.35E+02,-7921,-1854,2476,52,-39,-284,1,7,11
8.38E+02,-7912,-1896,2491,-373,-79,30,1,7,11
8.56E+02,-7892,-1684,2503,-536,-128,81,1,7,11
8.77E+02,-7863,-1729,2530,-448,74,122,1,7,11
8.90E+02,-7898,-2088,2856,-689,81,-111,1,7,11
8.88E+02,-8496,-2185,3189,-955,-88,-31,1,7,11
8.76E+02,-7891,-1981,2932,-736,-172,136,1,7,11
8.61E+02,-7837,-2360,2726,-1287,-358,345,1,7,11
8.51E+02,-7891,-2421,2767,-996,-334,223,1,7,11
8.46E+02,-7996,-2362,2916,-924,-169,571,1,7,11
8.44E+02,-7665,-2042,2885,-1133,-150,386,1,7,11
8.42E+02,-7664,-2019,2890,-1044,-139,505,1,7,11
8.39E+02,-7670,-1960,2872,-869,-145,894,1,7,11
8.38E+02,-7942,-2102,2825,-417,-135,1041,1,7,11
8.41E+02,-7962,-1731,2544,-255,-366,931,1,7,11
8.48E+02,-8006,-1891,2551,-131,-342,1322,1,7,11
8.59E+02,-8047,-1768,2556,-271,-334,1161,1,7,11
8.71E+02,-7910,-1443,2545,75,-331,1175,1,7,11
8.83E+02,-8299,-1613,2828,-126,-326,1374,1,7,11
8.92E+02,-8162,-1257,2859,-98,-339,1306,1,7,11
8.97E+02,-8488,-1355,2857,-63,-129,991,1,7,11
8.97E+02,-8474,-940,2864,-82,-195,940,1,7,11
8.93E+02,-8460,-1073,2928,101,-251,1135,1,7,11
8.85E+02,-8183,-739,2737,36,-603,1095,1,7,11
8.80E+02,-8066,-695,2764,-306,-500,1040,1,7,11
8.80E+02,-8232,-694,3073,-193,-882,678,1,7,11
8.87E+02,-7897,-702,3120,-604,-753,823,1,7,11
8.96E+02,-7829,-715,3124,-782,-1104,457,1,7,11
9.03E+02,-8025,-710,3128,-721,-900,398,1,7,11
9.02E+02,-7965,-706,3161,-942,-917,393,1,7,11
8.95E+02,-7672,-729,2981,-1392,-904,433,1,7,11
8.88E+02,-7674,-727,3053,-1248,-1136,768,1,7,11
8.85E+02,-7945,-688,3357,-1280,-1114,891,1,7,11
8.88E+02,-7978,-859,3371,-1552,-1080,1024,1,7,11
8.94E+02,-8017,-477,3365,-1569,-1038,931,1,7,11
8.97E+02,-8048,-590,3369,-1655,-721,1350,1,7,11
8.94E+02,-8046,-210,3385,-1804,-675,1250,1,7,11
8.84E+02,-8021,-147,3441,-1772,-644,1610,1,7,11
8.72E+02,-7982,-374,3262,-2018,-641,1646,1,7,11
8.61E+02,-7673,-366,3316,-2263,-659,1628,1,7,11
8.55E+02,-7613,-364,3613,-2518,-675,1567,1,7,11
8.51E+02,-7799,-371,3626,-2774,-677,1252,1,7,11
8.45E+02,-7720,-368,3627,-3038,-655,1203,1,7,11
8.34E+02,-7395,-156,3658,-3586,-863,1168,1,7,11
8.21E+02,-7342,-224,3704,-3574,-805,1154,1,7,11
8.11E+02,-7308,-554,3476,-3770,-492,1398,1,7,11
8.07E+02,-7544,-623,3491,-4154,-433,1400,1,7,11
8.11E+02,-7551,-396,3493,-3976,-605,1159,1,7,11
8.20E+02,-7340,-390,3473,-3988,-251,1211,1,7,11
8.30E+02,-7401,-590,3690,-4215,-133,1566,1,7,11
8.40E+02,-7733,-516,3667,-4185,0,1455,1,7,11
8.49E+02,-7579,-184,3672,-4134,-115,1879,1,7,11
8.55E+02,-7955,-384,3675,-3803,270,1786,1,7,11
8.57E+02,-8047,-332,3652,-3967,356,2173,1,7,11
8.56E+02,-7825,-309,3600,-3897,150,1972,1,7,11
8.50E+02,-7828,-277,3270,-3842,182,1921,1,7,11
8.40E+02,-7823,17,3453,-3562,207,1774,1,7,11
8.27E+02,-7824,27,3390,-3579,221,1822,1,7,11
8.13E+02,-8058,-257,3353,-3874,213,1591,1,7,11
8.03E+02,-8049,-321,3340,-3907,198,1364,1,7,11
7.98E+02,-8036,-154,3389,-3912,166,901,1,7,11
7.96E+02,-8037,-242,3210,-3859,374,721,1,7,11
7.95E+02,-8055,-604,3584,-3489,304,835,1,7,11
7.94E+02,-7879,-640,3683,-3241,-33,470,1,7,11
7.93E+02,-8203,-637,3518,-3053,-99,493,1,7,11
7.94E+02,-8238,-385,3580,-3153,85,826,1,7,11
7.99E+02,-8236,-632,3560,-2752,14,659,1,7,11
8.07E+02,-8234,-608,3498,-2927,-276,736,1,7,11
8.17E+02,-8219,-582,3644,-2916,-276,1048,1,7,11
