timestamp,ax,ay,az,gx,gy,gz,Label1,Label2,Label3
9.65E+02,-7676,-1769,2387,448,54,-1057,1,7,11
9.44E+02,-7665,-2057,2320,454,-113,-1131,1,7,11
9.25E+02,-7677,-2078,2005,457,-25,-1147,1,7,11
9.13E+02,-7987,-2115,1979,439,323,-1115,1,7,11
9.10E+02,-7839,-2162,1981,427,134,-1035,1,7,11
9.14E+02,-8206,-1926,1984,448,142,-651,1,7,11
9.19E+02,-8271,-1925,1977,462,356,-505,1,7,11
9.22E+02,-8303,-2150,1971,458,293,-611,1,7,11
9.22E+02,-8111,-2126,2011,413,-28,-221,1,7,11
9.23E+02,-8140,-2068,2318,384,115,-323,1,7,11
9.26E+02,-8132,-1721,2363,601,-260,76,1,7,11
9.33E+02,-8117,-1884,2176,555,-362,-33,1,7,11
9.43E+02,-8077,-1803,2269,235,-210,356,1,7,11
9.51E+02,-8274,-1501,2638,161,-556,195,1,7,11
9.52E+02,-7909,-1483,2456,376,-395,248,1,7,11
9.45E+02,-8004,-1490,2494,355,-450,217,1,7,11
9.32E+02,-7650,-1795,2553,333,-417,342,1,7,11
9.15E+02,-7610,-1859,2842,350,-607,-95,1,7,11
8.98E+02,-7807,-1676,2819,132,-556,-303,1,7,11
8.82E+02,-7570,-1778,2526,164,-207,-537,1,7,11
8.68E+02,-7631,-2121,2487,235,-370,-457,1,7,11
8.56E+02,-7665,-2163,2676,596,-297,-809,1,7,11
8.47E+02,-7949,-2173,2604,435,36,-845,1,7,11
8.42E+02,-7967,-2168,2274,509,-121,-815,1,7,11
8.44E+02,-8010,-2141,2211,814,-10,-482,1,7,11
8.53E+02,-8027,-2070,2420,837,346,-631,1,7,11
8.71E+02,-8058,-1704,2402,819,184,-515,1,7,11
8.93E+02,-7854,-1867,2415,487,515,-384,1,7,11
9.18E+02,-8195,-1824,2254,626,543,1,1,7,11
9.43E+02,-8243,-1532,2587,564,223,-120,1,7,11
9.64E+02,-8257,-1470,2626,525,383,-36,1,7,11
9.77E+02,-8263,-1422,2652,211,286,266,1,7,11
9.78E+02,-8194,-1639,2642,145,-65,289,1,7,11
9.64E+02,-7866,-1608,2616,303,-97,260,1,7,11
9.44E+02,-7839,-1631,2595,-75,-75,-56,1,7,11
9.25E+02,-8045,-1427,2300,66,-51,123,1,7,11
9.16E+02,-8024,-1525,2269,-306,-5,2,1,7,11
9.21E+02,-7817,-1892,2257,-378,299,-130,1,7,11
9.30E+02,-7866,-1771,2259,-147,292,-238,1,7,11
9.37E+02,-7927,-2070,2264,-152,-9,-579,1,7,11
9.35E+02,-8194,-2135,2267,-131,-106,-617,1,7,11
9.22E+02,-7864,-2152,2224,-350,51,-631,1,7,11
8.99E+02,-8036,-2147,2209,-341,14,-397,1,7,11
8.70E+02,-8004,-2138,2251,-341,72,-409,1,7,11
8.37E+02,-8022,-2073,2255,-312,118,-624,1,7,11
8.07E+02,-7811,-1736,2262,-294,-105,-544,1,7,11
7.86E+02,-7860,-1698,2279,-342,-102,-185,1,7,11
7.77E+02,-7914,-1725,2562,-162,-127,-340,1,7,11
7.76E+02,-7927,-1779,2300,-246,85,-270,1,7,11
7.74E+02,-8202,-2111,2575,-594,65,-276,1,7,11
7.65E+02,-7910,-2161,2300,-390,42,-307,1,7,11
7.50E+02,-7845,-1938,2278,-438,41,-373,1,7,11
7.37E+02,-7814,-1988,2278,-483,71,-190,1,7,11
7.28E+02,-8064,-2308,2573,-502,77,-249,1,7,11
7.25E+02,-7829,-2383,2624,-476,33,-566,1,7,11
7.27E+02,-8049,-2180,2632,-389,-323,-613,1,7,11
7.31E+02,-7972,-2214,2627,-562,-149,-428,1,7,11
7.37E+02,-7606,-2227,2614,-235,-188,-505,1,7,11
7.43E+02,-7773,-2221,2587,-172,-149,-844,1,7,11
7.48E+02,-7765,-2211,2591,-130,-303,-654,1,7,11
7.57E+02,-7802,-2200,2594,-335,48,-663,1,7,11
7.73E+02,-7582,-2202,2579,-273,118,-877,1,7,11
7.98E+02,-7608,-2189,2281,54,-70,-801,1,7,11
8.28E+02,-7676,-2196,2272,104,271,-442,1,7,11
8.59E+02,-7995,-2225,2282,-107,325,-562,1,7,11
8.87E+02,-8048,-2261,2262,-64,347,-181,1,7,11
9.12E+02,-7874,-2294,2260,-27,360,-344,1,7,11
9.35E+02,-7899,-2288,2237,292,319,15,1,7,11
9.56E+02,-7875,-2257,2202,330,270,98,1,7,11
9.73E+02,-7875,-2221,2195,333,-22,-80,1,7,11
9.86E+02,-7888,-2211,2243,307,-80,-8,1,7,11
9.94E+02,-7883,-2223,2286,303,68,299,1,7,11
9.95E+02,-7850,-2427,2590,342,-312,315,1,7,11
9.89E+02,-8024,-2388,2599,372,-181,307,1,7,11
9.77E+02,-7639,-2044,2589,379,-522,284,1,7,11
9.59E+02,-7767,-1921,2590,-97,-213,-125,1,7,11
9.35E+02,-7789,-2139,2612,26,-156,62,1,7,11
9.10E+02,-7559,-2126,2614,-373,-359,4,1,7,11
8.88E+02,-7652,-1932,2642,-548,-285,-286,1,7,11
8.75E+02,-8008,-2044,2674,-421,7,-285,1,7,11
8.73E+02,-8022,-2389,2643,-471,4,-272,1,7,11
8.75E+02,-8016,-2215,2597,-783,40,-294,1,7,11
8.76E+02,-8056,-2293,2599,-810,99,-323,1,7,11
8.68E+02,-8032,-2302,2298,-774,124,-317,1,7,11
8.52E+02,-8050,-2292,2264,-487,-89,-268,1,7,11
8.35E+02,-7835,-2299,2579,-443,-71,59,1,7,11
8.22E+02,-7851,-2567,2636,-390,112,-93,1,7,11
8.17E+02,-8044,-2268,2645,-466,-262,-11,1,7,11
8.16E+02,-7947,-2193,2673,-379,-342,269,1,7,11
8.16E+02,-7635,-2392,2478,-333,-139,272,1,7,11
8.14E+02,-7571,-2349,2513,-312,-195,-3,1,7,11
8.07E+02,-7800,-2318,2546,-320,-227,-55,1,7,11
7.96E+02,-7761,-2019,2528,-302,-248,-99,1,7,11
7.79E+02,-7716,-1950,2486,-290,-194,123,1,7,11
7.64E+02,-7745,-2175,2473,-330,-330,125,1,7,11
7.60E+02,-7567,-1968,2478,-148,55,-90,1,7,11
7.75E+02,-7939,-2310,2504,-199,-115,-56,1,7,11
8.03E+02,-8051,-2388,2517,-195,-93,-40,1,7,11
8.37E+02,-7822,-2382,2458,-136,-118,-23,1,7,11
8.69E+02,-7850,-2341,2674,-147,-98,-29,1,7,11
8.96E+02,-7909,-2041,2437,-182,-61,272,1,7,11
9.17E+02,-7881,-1974,2676,-191,-59,371,1,7,11
9.35E+02,-7843,-1923,2641,-203,-35,215,1,7,11
9.50E+02,-8053,-2136,2615,-233,-5,558,1,7,11
9.63E+02,-8046,-2117,2623,-546,280,598,1,7,11
9.74E+02,-7820,-2107,2652,-602,261,605,1,7,11
9.83E+02,-8047,-2078,2655,-640,-96,606,1,7,11
9.89E+02,-8007,-2053,2642,-450,54,574,1,7,11
9.93E+02,-7671,-1760,2593,-784,-291,542,1,7,11
9.93E+02,-7642,-1731,2286,-654,-305,219,1,7,11
9.92E+02,-7661,-1694,2217,-1060,-281,168,1,7,11
9.88E+02,-7665,-1678,2379,-1006,15,140,1,7,11
9.81E+02,-7942,-1706,2307,-1237,90,128,1,7,11
9.74E+02,-7998,-2061,2021,-1467,-82,130,1,7,11
9.65E+02,-7842,-1953,2311,-1865,-31,147,1,7,11
9.56E+02,-7922,-2357,2363,-1869,-43,185,1,7,11
9.47E+02,-8204,-2229,2399,-1488,-111,225,1,7,11
9.37E+02,-8198,-2589,2413,-1274,88,234,1,7,11
9.25E+02,-8199,-2625,2187,-991,62,220,1,7,11
9.09E+02,-7896,-2590,2408,-655,39,210,1,7,11
8.91E+02,-8055,-2244,2354,-606,60,193,1,7,11
8.75E+02,-8041,-2430,2361,-381,-124,155,1,7,11
8.62E+02,-8064,-2389,2399,55,-84,133,1,7,11
8.53E+02,-7860,-2383,2206,-48,124,346,1,7,11
8.46E+02,-7875,-2379,2260,342,4,275,1,7,11
8.39E+02,-7917,-2392,2613,175,-151,-98,1,7,11
8.29E+02,-7843,-2371,2627,531,-628,41,1,7,11
8.21E+02,-7958,-2037,2582,574,-772,-378,1,7,11
8.17E+02,-7622,-1975,2563,527,-773,-536,1,7,11
8.22E+02,-7611,-1927,2593,184,-425,-635,1,7,11
8.34E+02,-7631,-2155,2627,366,-566,-402,1,7,11
8.50E+02,-7678,-1936,2677,312,-134,-566,1,7,11
8.66E+02,-7959,-1976,2673,333,-278,-214,1,7,11
8.80E+02,-7953,-2011,2624,355,75,-137,1,7,11
8.91E+02,-7968,-2329,2572,332,-89,-376,1,7,11
9.01E+02,-8048,-2404,2583,281,259,-152,1,7,11
9.09E+02,-7868,-2178,2566,306,276,-157,1,7,11
9.16E+02,-7843,-2368,2206,379,-3,-362,1,7,11
9.22E+02,-7839,-2030,2373,378,293,-275,1,7,11
9.29E+02,-7873,-1992,2367,294,341,117,1,7,11
9.35E+02,-8207,-2016,2197,-50,324,266,1,7,11
9.42E+02,-8266,-2336,2577,-89,-65,139,1,7,11
9.49E+02,-8271,-2380,2468,-37,-294,215,1,7,11
9.57E+02,-8232,-2400,2878,333,-569,234,1,7,11
9.65E+02,-8042,-2363,2936,512,-857,229,1,7,11
9.73E+02,-7798,-2033,2932,390,-735,133,1,7,11
9.81E+02,-7346,-1958,2922,457,-687,-26,1,7,11
9.90E+02,-7491,-2172,2920,472,-485,14,1,7,11
9.97E+02,-7489,-2124,2691,493,-190,-196,1,7,11
1.00E+03,-7345,-2063,2707,801,-121,-598,1,7,11
1.01E+03,-7730,-1729,2940,885,158,-622,1,7,11
1.01E+03,-7573,-1918,2850,674,401,-577,1,7,11
1.01E+03,-7937,-1898,2510,892,872,-251,1,7,11
1.01E+03,-8032,-1679,2684,789,767,-196,1,7,11
1.01E+03,-7889,-1731,2602,400,1100,-184,1,7,11
1.01E+03,-8230,-1755,2273,521,1077,-188,1,7,11
1.02E+03,-8289,-1750,2188,370,735,-189,1,7,11
1.02E+03,-8309,-1733,2346,-43,858,-143,1,7,11
1.02E+03,-8261,-1722,1992,33,464,-310,1,7,11
1.01E+03,-8219,-1773,1967,-171,614,27,1,7,11
9.99E+02,-8221,-1973,2340,-577,524,100,1,7,11
9.83E+02,-8237,-2044,2395,-605,133,-102,1,7,11
9.69E+02,-8219,-2181,2249,-522,-52,-88,1,7,11
9.63E+02,-8194,-2291,2615,-338,4,-114,1,7,11
9.66E+02,-7836,-2600,2678,-73,-207,94,1,7,11
9.75E+02,-7652,-2576,2664,208,-610,6,1,7,11
9.87E+02,-7797,-2253,2656,432,-600,-135,1,7,11
9.97E+02,-7805,-2426,2684,849,-233,-252,1,7,11
1.01E+03,-7626,-2330,2488,718,-380,-564,1,7,11
1.01E+03,-8020,-2119,2554,1149,-281,-163,1,7,11
1.01E+03,-8053,-2071,2844,910,-280,-286,1,7,11
1.01E+03,-7822,-1779,2873,897,-284,77,1,7,11
1.01E+03,-7814,-1762,2880,1119,-312,-105,1,7,11
1.01E+03,-8034,-1759,2865,1053,-334,-89,1,7,11
1.00E+03,-8043,-1774,2888,709,-325,-126,1,7,11
1.00E+03,-8031,-1765,2890,662,-328,97,1,7,11
1.00E+03,-7979,-1744,2865,889,-325,59,1,7,11
1.00E+03,-7955,-1736,2833,873,-281,21,1,7,11
1.01E+03,-7666,-1683,2502,891,48,6,1,7,11
1.01E+03,-7995,-1913,2508,857,-84,-266,1,7,11
1.01E+03,-8050,-1671,2532,842,-37,33,1,7,11
1.01E+03,-7832,-1713,2855,825,-57,56,1,7,11
9.94E+02,-7840,-1774,2698,864,123,74,1,7,11
9.72E+02,-8053,-1789,2727,663,1,55,1,7,11
9.41E+02,-7654,-2063,2721,726,-136,-267,1,7,11
9.12E+02,-7762,-2035,2942,755,-173,-149,1,7,11
8.94E+02,-7430,-1725,2931,743,-343,-568,1,7,11
8.95E+02,-7784,-1682,2694,681,96,-469,1,7,11
9.12E+02,-7647,-1682,2733,841,260,-472,1,7,11
9.38E+02,-7992,-1695,2768,498,363,-417,1,7,11
9.67E+02,-8056,-1728,2806,429,167,-605,1,7,11
9.95E+02,-8023,-1727,2777,405,157,-532,1,7,11
1.02E+03,-8017,-1740,2754,610,187,-251,1,7,11
1.04E+03,-8039,-1740,2750,570,217,-225,1,7,11
1.06E+03,-8035,-1699,2703,554,228,-185,1,7,11
1.07E+03,-8016,-1900,2895,533,247,-384,1,7,11
1.08E+03,-7977,-1848,2816,241,531,-309,1,7,11
1.09E+03,-7991,-1874,2531,153,582,3,1,7,11
1.08E+03,-8045,-1680,2537,344,608,39,1,7,11
1.07E+03,-7852,-1736,2550,329,572,42,1,7,11
1.05E+03,-7884,-1788,2846,327,224,18,1,7,11
1.03E+03,-7876,-2111,2891,331,342,-291,1,7,11
1.01E+03,-8051,-2157,2884,337,-71,-376,1,7,11
1.00E+03,-7973,-1967,2880,292,72,-533,1,7,11
1.00E+03,-7624,-2001,2841,263,-260,-458,1,7,11
1.01E+03,-7807,-1975,2536,-31,-257,-653,1,7,11
1.02E+03,-7568,-1953,2514,-108,74,-1045,1,7,11
1.04E+03,-7619,-1967,2514,53,-104,-1073,1,7,11
1.05E+03,-7940,-2028,2526,-258,-38,-1032,1,7,11
1.07E+03,-8000,-2316,2535,12,276,-689,1,7,11
1.07E+03,-8048,-2349,2537,52,314,-829,1,7,11
1.07E+03,-8044,-2383,2506,87,327,-448,1,7,11
1.06E+03,-8054,-2425,2496,78,350,-621,1,7,11
1.03E+03,-7824,-2196,2506,99,350,-559,1,7,11
1.01E+03,-8054,-2412,2466,-96,335,-237,1,7,11
9.93E+02,-8010,-2340,2669,-69,342,-164,1,7,11
9.86E+02,-7986,-2321,2662,-117,369,-340,1,7,11
9.86E+02,-8020,-2367,2458,71,371,-273,1,7,11
9.88E+02,-8058,-2186,2534,56,296,19,1,7,11
9.88E+02,-7988,-2229,2848,-127,70,-272,1,7,11
9.83E+02,-7607,-2233,2836,-99,-330,-358,1,7,11
9.74E+02,-7712,-2247,2534,-121,-149,-239,1,7,11
9.63E+02,-7401,-2263,2507,83,-362,-410,1,7,11
9.52E+02,-7697,-2263,2487,48,-268,-794,1,7,11
9.42E+02,-7554,-2242,2475,42,95,-836,1,7,11
9.33E+02,-7942,-2203,2475,63,-72,-502,1,7,11
9.23E+02,-8042,-2406,2473,113,-24,-544,1,7,11
9.12E+02,-7820,-2383,2480,-106,-4,-272,1,7,11
9.00E+02,-8030,-2402,2478,-80,-13,-16,1,7,11
8.86E+02,-7983,-2186,2480,-90,-2,373,1,7,11
8.72E+02,-7996,-2202,2500,-79,271,140,1,7,11
8.57E+02,-7980,-2387,2480,-40,265,382,1,7,11
8.45E+02,-7956,-2019,2686,-41,273,369,1,7,11
8.35E+02,-7982,-1959,2676,-128,305,383,1,7,11
8.30E+02,-8060,-1984,2473,9,302,165,1,7,11
8.28E+02,-7858,-2319,2819,-328,-61,180,1,7,11
8.29E+02,-7822,-2383,2855,-326,12,148,1,7,11
8.32E+02,-8006,-2427,2882,-310,-149,306,1,7,11
8.35E+02,-7619,-2190,2886,-284,-521,-79,1,7,11
8.40E+02,-7719,-2184,2851,-262,-546,20,1,7,11
8.44E+02,-7376,-2430,2541,-260,-204,-152,1,7,11
8.50E+02,-7385,-2407,2501,4,-285,-543,1,7,11
8.56E+02,-7747,-2377,2482,41,-105,-586,1,7,11
8.63E+02,-7613,-2338,2459,102,294,-513,1,7,11
8.70E+02,-7976,-2311,2452,-88,135,-348,1,7,11
8.78E+02,-7821,-2046,2460,-37,190,114,1,7,11
8.87E+02,-7858,-2319,2481,-10,154,298,1,7,11
8.96E+02,-7844,-2350,2488,-8,320,132,1,7,11
9.05E+02,-7842,-2364,2517,-33,-46,372,1,7,11
9.13E+02,-7843,-2358,2550,-72,87,302,1,7,11
9.21E+02,-7811,-2317,2558,-125,-283,-30,1,7,11
9.29E+02,-7990,-2044,2850,-260,-350,-100,1,7,11
9.37E+02,-7951,-2333,2870,-284,-312,-102,1,7,11
9.44E+02,-7628,-2341,2882,-270,-257,-112,1,7,11
9.51E+02,-7661,-2410,2709,-265,67,77,1,7,11
9.58E+02,-7799,-2193,2943,-65,-340,-157,1,7,11
9.64E+02,-7723,-2196,2894,-71,-373,-537,1,7,11
9.68E+02,-7699,-2199,2833,-112,-346,-410,1,7,11
9.71E+02,-7757,-2189,2538,88,-269,-498,1,7,11
9.70E+02,-7557,-2419,2504,53,65,-491,1,7,11
9.64E+02,-7611,-2388,2463,30,-108,-394,1,7,11
9.53E+02,-7942,-2380,2442,-257,-16,-231,1,7,11
9.38E+02,-8013,-2390,2446,-269,303,-290,1,7,11
9.24E+02,-8064,-2387,2472,-259,333,-101,1,7,11
9.15E+02,-7847,-2388,2512,13,306,314,1,7,11
9.16E+02,-7825,-2371,2522,49,-24,187,1,7,11
9.25E+02,-8036,-2337,2508,69,-99,251,1,7,11
9.38E+02,-8000,-2307,2520,67,125,524,1,7,11
9.50E+02,-7980,-2006,2529,80,123,523,1,7,11
9.57E+02,-7946,-1957,2503,105,-120,517,1,7,11
9.61E+02,-7649,-1925,2470,109,-69,244,1,7,11
9.62E+02,-7636,-1932,2686,95,271,207,1,7,11
9.65E+02,-7637,-1966,2635,82,355,145,1,7,11
9.68E+02,-7957,-1998,2604,53,180,296,1,7,11
9.71E+02,-7824,-2306,2614,23,195,-75,1,7,11
9.69E+02,-7927,-2370,2628,7,357,93,1,7,11
9.60E+02,-8233,-2184,2640,10,-90,29,1,7,11
9.43E+02,-8211,-2252,2634,24,-324,-283,1,7,11
9.26E+02,-8203,-2600,2678,34,-547,-360,1,7,11
9.13E+02,-7837,-2667,2686,98,-777,-164,1,7,11
9.13E+02,-7937,-2461,2432,-88,-670,-517,1,7,11
9.24E+02,-7564,-2493,2435,-14,-692,-627,1,7,11
9.42E+02,-7754,-2479,2447,345,-876,-461,1,7,11
9.62E+02,-7738,-2437,2463,190,-495,-507,1,7,11
9.81E+02,-7758,-2657,2481,532,-604,-487,1,7,11
9.98E+02,-7780,-2624,2497,612,-221,-407,1,7,11
1.01E+03,-7570,-2616,2526,406,-370,-565,1,7,11
1.02E+03,-7616,-2612,2554,440,-306,-219,1,7,11
1.03E+03,-7658,-2608,2834,454,-297,-149,1,7,11
1.04E+03,-7938,-2579,2852,443,-333,-343,1,7,11
1.04E+03,-7944,-2299,2872,397,-137,-281,1,7,11
1.04E+03,-7943,-2269,2888,586,-212,42,1,7,11
1.04E+03,-7642,-2225,2881,522,-544,114,1,7,11
1.03E+03,-7643,-2182,2902,172,-575,-82,1,7,11
1.02E+03,-7639,-2385,2917,341,-594,-3,1,7,11
1.02E+03,-7636,-2326,2943,-10,-585,330,1,7,11
1.01E+03,-7643,-2020,2722,-91,-562,173,1,7,11
1.02E+03,-7612,-2001,2748,101,-541,535,1,7,11
1.02E+03,-7597,-2000,2775,62,-245,608,1,7,11
1.03E+03,-7558,-2000,2785,47,-190,386,1,7,11
1.04E+03,-7569,-2001,2809,46,-373,626,1,7,11
1.04E+03,-7557,-1983,2813,76,-318,603,1,7,11
1.04E+03,-7584,-1968,2810,98,-263,566,1,7,11
1.03E+03,-7592,-1950,2797,127,28,546,1,7,11
1.01E+03,-7612,-1940,2798,-99,65,531,1,7,11
9.75E+02,-7629,-1953,2768,-53,96,520,1,7,11
9.43E+02,-7613,-1961,2745,-23,100,245,1,7,11
9.16E+02,-7588,-1945,2708,269,117,200,1,7,11
9.04E+02,-7598,-2162,2920,295,-102,146,1,7,11
9.05E+02,-7610,-2122,2867,284,-85,366,1,7,11
9.16E+02,-7649,-2117,2840,-42,-92,330,1,7,11
9.31E+02,-7939,-2122,2821,-107,119,309,1,7,11
9.44E+02,-7981,-2128,2837,79,58,286,1,7,11
9.54E+02,-8012,-2135,2880,35,-278,293,1,7,11
9.61E+02,-8026,-2130,2932,13,-364,318,1,7,11
9.64E+02,-8038,-2099,2749,19,-191,371,1,7,11
9.63E+02,-8055,-2053,3138,32,-532,184,1,7,11
9.59E+02,-8057,-1749,2982,41,-629,252,1,7,11
9.51E+02,-8037,-1905,3040,46,-486,554,1,7,11
9.39E+02,-7956,-1826,3344,37,-843,568,1,7,11
9.25E+02,-7628,-1428,3419,-186,-879,234,1,7,11
9.15E+02,-7638,-1635,3453,-566,-858,228,1,7,11
9.13E+02,-7642,-1598,3217,-424,-825,517,1,7,11
9.26E+02,-7629,-1556,3226,-525,-776,582,1,7,11
9.50E+02,-7596,-1272,3213,-874,-452,411,1,7,11
9.75E+02,-7573,-1273,3216,-713,-614,496,1,7,11
9.90E+02,-7791,-1557,3200,-1054,-534,826,1,7,11
9.84E+02,-7765,-1618,3439,-1142,-197,846,1,7,11
9.62E+02,-7771,-1447,3431,-960,-375,812,1,7,11
9.37E+02,-7784,-1528,3414,-1005,-313,488,1,7,11
9.22E+02,-7797,-1848,3392,-1024,0,389,1,7,11
9.28E+02,-7802,-1897,3366,-1287,63,550,1,7,11
9.51E+02,-7795,-1707,3339,-1281,122,217,1,7,11
9.82E+02,-7790,-1787,3330,-991,-67,147,1,7,11
1.01E+03,-7794,-2121,3333,-914,-2,338,1,7,11
1.03E+03,-7803,-1935,3338,-1051,290,264,1,7,11
1.04E+03,-7564,-1979,3336,-642,310,-74,1,7,11
1.04E+03,-7574,-1975,3065,-484,298,119,1,7,11
1.04E+03,-7570,-1979,3065,-609,267,66,1,7,11
1.03E+03,-7560,-1995,3333,-240,-42,10,1,7,11
1.02E+03,-7562,-2012,3360,-138,-107,-314,1,7,11
1.01E+03,-7561,-2043,3373,-302,58,-145,1,7,11
1.00E+03,-7778,-2305,3370,61,-304,-242,1,7,11
9.92E+02,-7571,-2038,3395,-102,-350,-602,1,7,11
9.83E+02,-7625,-1966,3404,297,-142,-598,1,7,11
9.73E+02,-7668,-2082,3424,177,-173,-513,1,7,11
9.63E+02,-7983,-1916,3230,536,-178,-330,1,7,11
9.53E+02,-8048,-1481,3586,607,-192,-78,1,7,11
9.43E+02,-8051,-1584,3704,624,-241,178,1,7,11
9.34E+02,-8018,-1215,3840,593,-557,627,1,7,11
9.24E+02,-7669,-1369,3942,529,-632,466,1,7,11
9.16E+02,-7571,-1297,3746,169,-409,448,1,7,11
9.10E+02,-7761,-970,3783,271,-639,602,1,7,11
9.09E+02,-7769,-936,4117,69,-570,201,1,7,11
9.14E+02,-7805,-936,4126,-130,-520,324,1,7,11
9.23E+02,-7558,-977,4110,-571,-242,-42,1,7,11
9.34E+02,-7579,-995,3839,-489,-208,125,1,7,11
9.42E+02,-7555,-1286,3764,-644,-174,74,1,7,11
9.44E+02,-7807,-1333,3954,-1050,-360,40,1,7,11
9.42E+02,-7566,-1395,3895,-921,-280,53,1,7,11
9.43E+02,-7596,-1218,3865,-1282,49,99,1,7,11
9.50E+02,-7614,-1573,3567,-1330,91,-82,1,7,11
9.68E+02,-7576,-1417,3484,-1327,100,-6,1,7,11
9.92E+02,-7791,-1846,3686,-1290,115,277,1,7,11
1.02E+03,-7782,-1695,3648,-945,-113,262,1,7,11
1.03E+03,-7799,-1772,3598,-1064,-78,-46,1,7,11
1.04E+03,-7578,-2084,3311,-641,-49,-76,1,7,11
1.03E+03,-7572,-2094,3270,-579,-25,-74,1,7,11
1.02E+03,-7564,-2102,3239,-378,269,-72,1,7,11
1.01E+03,-7806,-2098,3217,82,306,-68,1,7,11
9.96E+02,-7771,-1791,3404,288,337,-72,1,7,11
9.88E+02,-7783,-1737,3369,174,145,-114,1,7,11
9.85E+02,-7577,-1706,3373,542,187,116,1,7,11
9.87E+02,-7647,-1718,3387,633,181,79,1,7,11
9.96E+02,-7675,-1737,3408,482,360,23,1,7,11
1.01E+03,-7630,-1720,3423,845,257,-355,1,7,11
1.02E+03,-7633,-1715,3223,644,-74,-539,1,7,11
1.04E+03,-7633,-1687,3255,705,90,-455,1,7,11
1.05E+03,-7618,-1892,3292,723,5,-870,1,7,11
1.05E+03,-7615,-1849,3612,703,-301,-731,1,7,11
1.06E+03,-7630,-1802,3456,669,-314,-1034,1,7,11
1.06E+03,-7625,-1536,3569,891,-334,-747,1,7,11
1.05E+03,-7795,-1523,3891,884,-366,-665,1,7,11
1.04E+03,-7707,-1796,3929,844,-352,-863,1,7,11
1.02E+03,-7375,-1822,3936,793,-298,-833,1,7,11
1.00E+03,-7314,-1836,3907,460,26,-837,1,7,11
9.75E+02,-7310,-1842,3869,609,123,-866,1,7,11
9.43E+02,-7378,-1839,3862,235,-43,-862,1,7,11
9.13E+02,-7708,-1826,3583,381,260,-814,1,7,11
8.89E+02,-7775,-1806,3542,284,267,-477,1,7,11
8.78E+02,-7788,-1505,3459,-62,-2,-635,1,7,11
8.75E+02,-7801,-1473,3649,72,274,-569,1,7,11
8.77E+02,-7605,-1452,3611,-313,309,-247,1,7,11
8.77E+02,-7646,-1450,3312,-194,311,-176,1,7,11
8.75E+02,-7661,-1462,3261,-580,299,-366,1,7,11
8.70E+02,-7952,-1491,3235,-437,302,-299,1,7,11
8.64E+02,-7942,-1515,3455,-776,296,29,1,7,11
8.57E+02,-7957,-1798,3424,-836,311,86,1,7,11
8.48E+02,-7964,-1823,3387,-868,314,-109,1,7,11
8.35E+02,-7937,-1846,3336,-885,293,-54,1,7,11
8.18E+02,-7953,-1915,3066,-666,283,-41,1,7,11
7.98E+02,-7941,-1733,3042,-666,-29,-42,1,7,11
7.83E+02,-7654,-2087,3018,-669,-109,-100,1,7,11
7.79E+02,-7588,-1952,3007,-663,73,36,1,7,11
7.86E+02,-7598,-2341,3032,-866,47,-379,1,7,11
7.98E+02,-7581,-2185,3039,-478,5,-518,1,7,11
8.11E+02,-7565,-2253,3038,-540,-277,-402,1,7,11
8.21E+02,-7557,-2563,3030,-298,-286,-496,1,7,11
8.26E+02,-7800,-2596,3011,-25,-286,-813,1,7,11
8.27E+02,-7801,-2626,3007,234,-284,-858,1,7,11
8.24E+02,-7789,-2637,3000,487,-298,-896,1,7,11
8.18E+02,-7743,-2610,2964,709,-323,-680,1,7,11
8.12E+02,-7715,-2594,2951,1112,-318,-731,1,7,11
8.07E+02,-7699,-2588,2978,956,-308,-768,1,7,11
8.04E+02,-7713,-2588,3026,1283,-300,-1059,1,7,11
8.00E+02,-7705,-2575,3070,1345,-306,-1070,1,7,11
7.95E+02,-7711,-2299,3381,1383,-297,-1067,1,7,11
7.87E+02,-7692,-2257,3427,1405,-289,-1032,1,7,11
7.80E+02,-7705,-2198,3249,1394,3,-726,1,7,11
7.75E+02,-7776,-2405,3630,1368,31,-890,1,7,11
7.73E+02,-7782,-2333,3476,1357,-274,-486,1,7,11
7.74E+02,-7710,-2006,3557,1316,-355,-595,1,7,11
7.78E+02,-7341,-1925,3908,969,-216,-201,1,7,11
7.84E+02,-7548,-2155,3952,745,-546,-181,1,7,11
7.93E+02,-7512,-2140,3720,792,-627,-209,1,7,11
8.04E+02,-7514,-2156,3732,551,-441,-535,1,7,11
8.15E+02,-7514,-1921,3737,315,-770,-610,1,7,11
8.22E+02,-7508,-1937,3728,98,-828,-428,1,7,11
8.22E+02,-7509,-1929,3942,-344,-847,-467,1,7,11
8.15E+02,-7528,-2176,3908,-249,-826,-460,1,7,11
8.08E+02,-7317,-2157,3889,-637,-771,-388,1,7,11
8.10E+02,-7338,-2155,3867,-485,-461,-249,1,7,11
8.31E+02,-7348,-2158,3576,-807,-393,-332,1,7,11
8.64E+02,-7349,-2169,3561,-860,-562,103,1,7,11
8.99E+02,-7338,-1942,3548,-896,-216,258,1,7,11
9.27E+02,-7330,-1972,3519,-656,-377,370,1,7,11
9.39E+02,-7363,-2046,3519,-891,61,235,1,7,11
9.40E+02,-7474,-2610,3507,-90,299,165,1,7,11
9.32E+02,-7474,-2681,3705,133,174,260,1,7,11
9.21E+02,-7510,-2669,3624,628,579,98,1,7,11
9.10E+02,-7333,-2610,3594,814,467,-294,1,7,11
9.01E+02,-7684,-2267,3316,716,807,-335,1,7,11
8.95E+02,-7730,-2416,3273,1072,800,-290,1,7,11
8.93E+02,-7778,-2363,3281,1071,492,42,1,7,11
8.97E+02,-7779,-2366,3306,1038,635,127,1,7,11
9.05E+02,-7736,-2376,3304,743,254,-86,1,7,11
9.16E+02,-7704,-2416,3325,686,153,-88,1,7,11
9.29E+02,-7406,-2196,3636,890,309,-122,1,7,11
9.44E+02,-7318,-2299,3497,865,111,-276,1,7,11
9.60E+02,-7540,-2621,3576,657,66,-144,1,7,11
9.75E+02,-7513,-2629,3891,762,57,-527,1,7,11
9.88E+02,-7484,-2591,3924,1148,85,-639,1,7,11
9.96E+02,-7478,-2264,3932,1011,-98,-458,1,7,11
9.96E+02,-7517,-2184,3946,1358,-1,-481,1,7,11
9.85E+02,-7545,-2326,3948,1178,330,-440,1,7,11
9.64E+02,-7343,-1965,3960,1191,137,-628,1,7,11
9.41E+02,-7348,-2116,3718,1156,141,-540,1,7,11
9.23E+02,-7374,-1789,3747,1310,370,-222,1,7,11
9.16E+02,-7395,-1719,3795,926,287,-163,1,7,11
9.22E+02,-7394,-1912,3809,1031,-98,-380,1,7,11
9.35E+02,-7374,-1852,3796,846,24,-357,1,7,11
9.51E+02,-7354,-1515,3770,385,-324,-342,1,7,11
9.66E+02,-7392,-1439,3746,162,-357,-313,1,7,11
9.79E+02,-7423,-1622,3727,-78,-380,6,1,7,11
9.88E+02,-7698,-1572,3959,-327,-151,93,1,7,11
9.94E+02,-7739,-1559,3939,-567,-148,-67,1,7,11
9.95E+02,-7798,-1551,3924,-497,-137,305,1,7,11
9.91E+02,-7593,-1278,3897,-893,-145,194,1,7,11
9.82E+02,-7627,-1555,3913,-1025,-172,588,1,7,11
9.70E+02,-7606,-1618,3910,-1105,-221,446,1,7,11
9.55E+02,-7560,-1463,3926,-1147,-256,476,1,7,11
9.39E+02,-7725,-1882,3966,-1146,-541,397,1,7,11
9.28E+02,-7415,-1730,3745,-1110,-571,361,1,7,11
9.24E+02,-7385,-2083,3777,-1058,-598,105,1,7,11
9.29E+02,-7348,-2164,3793,-727,-418,-151,1,7,11
9.39E+02,-7310,-1974,3801,-859,-451,-635,1,7,11
9.51E+02,-7545,-2040,3822,-773,-441,-808,1,7,11
9.61E+02,-7526,-2354,3823,-417,-397,-896,1,7,11
9.67E+02,-7503,-2403,3815,-574,-566,-658,1,7,11
9.67E+02,-7470,-2194,3814,-219,-218,-867,1,7,11
9.63E+02,-7134,-2242,3783,-148,-133,-803,1,7,11
9.52E+02,-7081,-2569,3744,-360,-282,-771,1,7,11
9.37E+02,-7045,-2628,3956,-317,79,-490,1,7,11
9.21E+02,-7076,-2435,3944,-300,-66,-494,1,7,11
9.07E+02,-7122,-2498,3940,-265,266,-469,1,7,11
8.97E+02,-7152,-2558,3939,61,292,-419,1,7,11
8.92E+02,-7135,-2877,3920,-102,284,-621,1,7,11
8.93E+02,-7137,-2929,3926,-2,292,-601,1,7,11
9.00E+02,-7144,-2711,3941,365,284,-606,1,7,11
9.11E+02,-7429,-2939,3952,253,265,-628,1,7,11
9.26E+02,-7488,-2872,3738,625,-22,-390,1,7,11
9.43E+02,-7536,-2492,3776,474,-89,-612,1,7,11
9.59E+02,-7361,-2592,3835,786,114,-554,1,7,11
9.71E+02,-7399,-2427,4169,806,14,-170,1,7,11
9.78E+02,-7366,-2308,3991,776,-373,-283,1,7,11
9.74E+02,-7525,-1966,4032,461,-249,82,1,7,11
9.59E+02,-7133,-2161,4048,616,-613,124,1,7,11
9.35E+02,-7288,-2132,4060,209,-398,62,1,7,11
9.11E+02,-7225,-2104,4051,303,-394,-300,1,7,11
8.94E+02,-7203,-2095,4030,101,-607,-167,1,7,11
8.89E+02,-7239,-2137,4014,-374,-540,-516,1,7,11
8.94E+02,-7054,-1934,4004,-567,-215,-553,1,7,11
9.06E+02,-7436,-2014,4030,-480,-165,-541,1,7,11
9.24E+02,-7507,-2348,4047,-840,-202,-202,1,7,11
9.43E+02,-7516,-2427,4053,-896,-537,-346,1,7,11
9.60E+02,-7480,-2250,4056,-650,-606,30,1,7,11
9.71E+02,-7444,-2606,4083,-866,-631,-128,1,7,11
9.74E+02,-7083,-2627,4016,-458,-628,-8,1,7,11
9.68E+02,-7193,-2644,4172,-603,-532,314,1,7,11
9.54E+02,-6896,-2456,4140,-527,-323,334,1,7,11
9.33E+02,-7180,-2507,4104,-138,-114,330,1,7,11
9.08E+02,-7226,-2510,3791,17,303,309,1,7,11
8.83E+02,-7097,-2474,3750,-97,175,308,1,7,11
8.64E+02,-7185,-2450,3747,290,512,347,1,7,11
8.56E+02,-7493,-2668,3745,164,527,182,1,7,11
8.61E+02,-7495,-2613,3745,586,233,221,1,7,11
8.75E+02,-7510,-2289,3777,392,220,218,1,7,11
8.93E+02,-7547,-2205,3839,429,196,197,1,7,11
9.11E+02,-7312,-2341,4165,459,162,186,1,7,11
9.27E+02,-7334,-1948,3970,460,371,196,1,7,11
9.39E+02,-7357,-2084,4043,428,320,223,1,7,11
9.44E+02,-7305,-1693,4079,636,-6,518,1,7,11
9.41E+02,-7499,-1534,4362,537,-39,512,1,7,11
9.32E+02,-7444,-1446,4411,329,-75,194,1,7,11
9.19E+02,-7082,-1425,4425,68,-125,326,1,7,11
9.05E+02,-7269,-1444,4424,-229,119,119,1,7,11
8.92E+02,-7273,-1502,4416,-781,-99,-375,1,7,11
8.84E+02,-7082,-1826,4408,-1032,-41,-575,1,7,11
8.84E+02,-7444,-1902,4395,-984,267,-435,1,7,11
8.95E+02,-7512,-1734,4083,-1388,270,-434,1,7,11
9.13E+02,-7499,-2103,4006,-1268,-5,-631,1,7,11
9.35E+02,-7529,-2015,3970,-1622,259,-572,1,7,11
9.58E+02,-7516,-2430,4186,-1626,-17,-233,1,7,11
9.77E+02,-7475,-2584,4138,-1574,-44,-184,1,7,11
9.92E+02,-7490,-2484,4107,-1214,-40,-173,1,7,11
9.99E+02,-7480,-2836,3800,-1286,-56,-152,1,7,11
9.98E+02,-7427,-2882,3731,-1076,-58,-137,1,7,11
9.88E+02,-7146,-2923,3914,-873,-2,-378,1,7,11
9.74E+02,-7090,-2940,3571,-410,323,-348,1,7,11
9.62E+02,-7099,-2733,3516,-245,178,-348,1,7,11
9.56E+02,-7133,-2764,3471,-326,517,-336,1,7,11
9.59E+02,-7157,-2770,3670,99,564,-331,1,7,11
9.68E+02,-7440,-2772,3628,-22,588,-324,1,7,11
9.79E+02,-7446,-2735,3323,349,590,-308,1,7,11
9.86E+02,-7168,-2903,3275,176,588,-302,1,7,11
9.89E+02,-7448,-2495,3255,182,628,-327,1,7,11
9.86E+02,-7485,-2590,3253,340,405,-342,1,7,11
9.80E+02,-7509,-2177,3274,-111,434,-357,1,7,11
9.72E+02,-7303,-2306,3322,-138,468,-366,1,7,11
9.61E+02,-7351,-1980,3646,-447,477,-335,1,7,11
9.49E+02,-7373,-1995,3468,-757,454,-269,1,7,11
9.36E+02,-7390,-2309,3558,-1008,399,66,1,7,11
9.23E+02,-7403,-2377,3896,-1175,578,-109,1,7,11
9.11E+02,-7397,-2431,3718,-1257,233,-38,1,7,11
9.02E+02,-7394,-2190,3778,-1267,147,288,1,7,11
8.96E+02,-7364,-2191,3822,-1255,319,349,1,7,11
8.95E+02,-7330,-2190,4101,-1229,-10,381,1,7,11
8.98E+02,-7511,-2405,3788,-1173,-59,139,1,7,11
9.02E+02,-7466,-2354,3726,-1173,-32,346,1,7,11
9.05E+02,-7488,-2318,3916,-1229,292,282,1,7,11
9.05E+02,-7309,-2038,3858,-1577,370,-27,1,7,11
9.01E+02,-7682,-1986,3533,-1415,176,-34,1,7,11
8.90E+02,-7725,-2169,3686,-1517,193,287,1,7,11
8.71E+02,-7733,-2145,3606,-1919,219,381,1,7,11
8.49E+02,-7717,-2175,3248,-2064,248,242,1,7,11
8.31E+02,-7709,-1997,3220,-1937,531,580,1,7,11
8.23E+02,-7708,-2408,3359,-2011,531,617,1,7,11
8.25E+02,-7403,-2273,3001,-2045,248,600,1,7,11
8.38E+02,-7414,-2433,3180,-2335,249,247,1,7,11
8.58E+02,-7752,-2854,3124,-2334,542,374,1,7,11
8.85E+02,-7748,-2710,2797,-1984,534,276,1,7,11
9.13E+02,-7790,-2803,2736,-2071,543,-58,1,7,11
9.37E+02,-7561,-3131,2935,-1866,597,-90,1,7,11
9.54E+02,-7790,-3184,2861,-1603,636,-62,1,7,11
9.61E+02,-7739,-2990,2557,-1329,412,-30,1,7,11
9.60E+02,-7726,-3329,2543,-1081,449,-47,1,7,11
9.50E+02,-7727,-3404,2556,-810,441,110,1,7,11
9.34E+02,-7757,-3237,2857,-554,625,-268,1,7,11
9.15E+02,-7746,-3277,2871,-278,219,-130,1,7,11
8.97E+02,-7406,-3258,2853,278,178,-256,1,7,11
8.83E+02,-7325,-3223,2850,623,45,-390,1,7,11
8.77E+02,-7322,-3450,2918,782,0,-772,1,7,11
8.73E+02,-7368,-3394,2748,686,-295,-826,1,7,11
8.66E+02,-7378,-3046,3095,1094,-348,-806,1,7,11
8.52E+02,-7376,-3194,3186,969,-129,-473,1,7,11
8.31E+02,-7416,-3107,3065,1306,-139,-615,1,7,11
8.07E+02,-7419,-2733,3440,1393,-183,-213,1,7,11
7.86E+02,-7417,-2878,3296,1181,-213,-348,1,7,11
7.71E+02,-7400,-2505,3653,1179,-255,16,1,7,11
7.61E+02,-7358,-2681,3484,1385,-567,91,1,7,11
7.57E+02,-7543,-2583,3522,1321,-623,-124,1,7,11
7.60E+02,-7426,-2226,3521,922,-388,120,1,7,11
7.69E+02,-7111,-2420,3524,700,-584,57,1,7,11
7.82E+02,-7149,-2407,3533,422,-219,-280,1,7,11
7.98E+02,-7151,-2404,3534,133,-157,-339,1,7,11
8.18E+02,-7152,-2180,3540,65,-345,-160,1,7,11
8.41E+02,-7090,-2242,3509,-231,-321,-216,1,7,11
8.65E+02,-7065,-2601,3500,-796,-283,-566,1,7,11
8.87E+02,-7147,-2472,3517,-1064,-258,-403,1,7,11
9.05E+02,-7446,-2552,3523,-989,-321,-447,1,7,11
9.15E+02,-7450,-2841,3487,-1382,-154,-457,1,7,11
9.18E+02,-7433,-2877,3463,-1259,-191,-429,1,7,11
9.18E+02,-7440,-2913,3695,-1597,-155,-612,1,7,11
9.16E+02,-7131,-2889,3638,-1599,-317,-232,1,7,11
9.15E+02,-7079,-2844,3295,-1580,-127,-339,1,7,11
9.17E+02,-7057,-2859,3242,-1585,146,63,1,7,11
9.22E+02,-7100,-2931,3208,-1550,457,-64,1,7,11
9.32E+02,-7117,-2741,3397,-1171,744,312,1,7,11
9.47E+02,-7157,-2814,3069,-1012,1286,369,1,7,11
9.65E+02,-7494,-3135,3008,-1041,1553,158,1,7,11
9.86E+02,-7315,-3169,3188,-506,1493,206,1,7,11
1.01E+03,-7383,-3199,3144,-189,1889,253,1,7,11
1.02E+03,-7424,-3199,3079,-74,1701,556,1,7,11
1.04E+03,-7681,-3147,2750,586,1719,582,1,7,11
1.04E+03,-7711,-2780,2922,718,1743,572,1,7,11
1.03E+03,-7977,-2741,2926,961,2105,526,1,7,11
1.01E+03,-8107,-2708,2754,1167,2122,546,1,7,11
9.89E+02,-8452,-2467,2775,1656,1673,619,1,7,11
9.65E+02,-8449,-2410,3072,1485,1512,392,1,7,11
9.49E+02,-8161,-2120,3151,1421,1590,466,1,7,11
9.44E+02,-8243,-1674,2969,1202,1335,799,1,7,11
9.48E+02,-8045,-1894,3061,1128,1086,775,1,7,11
9.58E+02,-7611,-1697,3403,814,868,625,1,7,11
9.74E+02,-7407,-1791,3428,582,426,339,1,7,11
9.91E+02,-7139,-2096,3355,139,574,-327,1,7,11
1.01E+03,-7041,-1943,3045,-101,401,-839,1,7,11
1.02E+03,-7051,-2310,3165,-277,805,-1294,1,7,11
1.02E+03,-7074,-2400,3051,-151,705,-1429,1,7,11
1.01E+03,-7313,-2575,2710,-253,923,-2088,1,7,11
1.00E+03,-7685,-2685,2869,-545,1370,-2154,1,7,11
9.90E+02,-7772,-2558,2521,-548,1221,-2154,1,7,11
9.84E+02,-7621,-2718,2469,-561,1553,-2092,1,7,11
9.84E+02,-7623,-3123,2648,-549,1193,-1739,1,7,11
9.89E+02,-7754,-3014,2281,-249,1018,-1691,1,7,11
9.98E+02,-7337,-3426,2186,-231,1115,-1702,1,7,11
1.01E+03,-7161,-3325,2334,-220,732,-1767,1,7,11
1.02E+03,-7275,-3481,1951,-200,660,-2135,1,7,11
1.03E+03,-7220,-3902,2118,-184,655,-2009,1,7,11
1.04E+03,-7239,-3779,1786,-360,687,-2336,1,7,11
1.03E+03,-7070,-4123,1726,37,734,-2308,1,7,11
1.02E+03,-7145,-4173,1681,-29,760,-2139,1,7,11
1.01E+03,-7447,-4197,1887,170,1038,-1850,1,7,11
9.90E+02,-7455,-4224,1857,628,1056,-1233,1,7,11
9.72E+02,-7165,-4007,1838,839,1073,-1123,1,7,11
9.55E+02,-7086,-4026,1805,1099,1081,-788,1,7,11
9.41E+02,-7221,-4001,1442,1379,1094,-514,1,7,11
9.32E+02,-6854,-4221,1273,1629,910,-315,1,7,11
9.28E+02,-6868,-4193,1362,1798,1348,66,1,7,11
9.29E+02,-7257,-4188,997,1877,1570,-111,1,7,11
9.34E+02,-7481,-4200,935,1916,1502,-64,1,7,11
9.41E+02,-7681,-4173,1125,1706,1855,261,1,7,11
9.51E+02,-7791,-3823,1034,1744,1881,360,1,7,11
9.60E+02,-7663,-3733,728,1720,1674,236,1,7,11
9.65E+02,-8000,-3893,701,1683,1672,434,1,7,11
9.64E+02,-8040,-3567,709,1857,1893,875,1,7,11
9.57E+02,-7996,-3523,702,1523,1504,765,1,7,11
9.46E+02,-7601,-3483,875,1427,1591,1063,1,7,11
9.36E+02,-7692,-3707,779,1276,1175,723,1,7,11
9.32E+02,-7331,-3459,481,1319,1318,776,1,7,11
9.35E+02,-7304,-3491,491,1124,947,516,1,7,11
9.46E+02,-7552,-3501,484,729,1050,-4,1,7,11
9.60E+02,-7316,-3516,502,868,884,8,1,7,11
9.77E+02,-7355,-3530,803,789,453,-180,1,7,11
9.94E+02,-7399,-3530,854,471,525,-566,1,7,11
1.01E+03,-7414,-3520,654,405,325,-389,1,7,11
1.01E+03,-7412,-3550,696,563,-99,-449,1,7,11
1.00E+03,-7732,-3880,751,178,37,-512,1,7,11
9.82E+02,-7805,-3731,1079,299,-327,-817,1,7,11
9.60E+02,-7763,-3787,1091,-37,-219,-842,1,7,11
9.46E+02,-7409,-4116,1053,108,-552,-651,1,7,11
9.46E+02,-7334,-4193,765,-259,-546,-712,1,7,11
9.60E+02,-7513,-3997,716,-359,-231,-1038,1,7,11
9.84E+02,-7487,-4066,680,-175,-380,-1057,1,7,11
1.01E+03,-7434,-4371,835,-195,-287,-743,1,7,11
1.03E+03,-7449,-4449,784,-195,86,-885,1,7,11
1.05E+03,-7486,-4312,501,-384,-74,-441,1,7,11
1.07E+03,-7319,-4394,769,-270,-7,-229,1,7,11
1.07E+03,-7775,-4697,811,-100,269,17,1,7,11
1.07E+03,-7584,-4687,865,133,-60,289,1,7,11
1.06E+03,-7592,-4646,687,384,37,542,1,7,11
1.04E+03,-7553,-4309,763,641,-161,488,1,7,11
1.02E+03,-7742,-4424,1060,900,-386,651,1,7,11
9.87E+02,-7688,-3996,1107,1210,-647,677,1,7,11
9.55E+02,-7357,-3803,1130,1620,-746,678,1,7,11
9.21E+02,-7378,-3867,951,1472,-723,668,1,7,11
8.85E+02,-7416,-3636,1297,1845,-666,741,1,7,11
8.49E+02,-7741,-3423,1161,1909,-839,1127,1,7,11
8.15E+02,-7579,-2988,1564,1705,-772,1322,1,7,11
7.85E+02,-7680,-3087,1474,1767,-495,1556,1,7,11
7.60E+02,-8008,-2940,1883,2101,-772,1803,1,7,11
7.41E+02,-8036,-2525,1772,1922,-821,2051,1,7,11
7.28E+02,-8012,-2652,1926,1950,-889,1999,1,7,11
7.23E+02,-7949,-2295,2325,1951,-713,2395,1,7,11
7.25E+02,-7665,-2225,2193,2165,-1039,2422,1,7,11
7.34E+02,-7643,-2396,2297,2115,-1114,2367,1,7,11
7.51E+02,-7579,-2031,2617,1775,-919,1983,1,7,11
7.74E+02,-7561,-1932,2685,1886,-905,2053,1,7,11
8.03E+02,-7558,-2082,2493,1475,-1101,1892,1,7,11
8.37E+02,-7555,-1733,2551,1567,-1025,1517,1,7,11
8.74E+02,-7608,-1689,2900,1379,-670,1425,1,7,11
9.09E+02,-7680,-1671,2743,986,-878,1642,1,7,11
9.40E+02,-7668,-1892,2812,903,-657,1635,1,7,11
9.65E+02,-7617,-1876,3118,1071,-707,1617,1,7,11
9.84E+02,-7560,-1677,2967,697,-1037,1541,1,7,11
9.98E+02,-7734,-1710,2960,699,-1077,1237,1,7,11
1.01E+03,-7352,-1791,3171,674,-1094,1395,1,7,11
1.01E+03,-7332,-1964,3173,878,-1030,942,1,7,11
1.02E+03,-7383,-2428,3153,893,-713,708,1,7,11
1.02E+03,-7409,-2584,3074,726,-669,450,1,7,11
1.01E+03,-7782,-2466,2771,1060,-837,180,1,7,11
1.01E+03,-7666,-2818,2762,925,-783,265,1,7,11
1.00E+03,-8038,-2835,2762,1357,-771,-39,1,7,11
9.91E+02,-7826,-2513,2760,1570,-798,303,1,7,11
9.77E+02,-7823,-2668,2774,1524,-822,242,1,7,11
9.59E+02,-8029,-2269,2803,1725,-851,503,1,7,11
9.39E+02,-7953,-2322,3095,1920,-871,1034,1,7,11
9.19E+02,-7644,-2051,3130,2352,-867,1305,1,7,11
9.00E+02,-7595,-1448,3151,2225,-855,1574,1,7,11
8.86E+02,-7595,-1318,3181,2265,-810,1834,1,7,11
8.75E+02,-7603,-680,2976,2194,-507,2119,1,7,11
8.71E+02,-7619,-616,3337,2005,-454,2386,1,7,11
8.73E+02,-7589,-382,3206,1757,-433,2624,1,7,11
8.79E+02,-7801,30,3597,1482,-394,2490,1,7,11
8.85E+02,-7806,-107,3528,1192,-600,2464,1,7,11
8.89E+02,-7594,-76,3757,1130,-595,2576,1,7,11
8.89E+02,-7656,-43,4199,845,-418,2336,1,7,11
8.89E+02,-7659,275,4032,573,-824,2052,1,7,11
8.93E+02,-7645,345,4080,260,-695,1491,1,7,11
9.02E+02,-7609,188,4079,-334,-766,1233,1,7,11
9.16E+02,-7588,559,4047,-433,-745,1302,1,7,11
9.32E+02,-7595,402,3993,-1046,-649,967,1,7,11
9.46E+02,-7575,429,4197,-1406,-773,983,1,7,11
9.56E+02,-7787,387,4143,-1465,-616,1294,1,7,11
9.63E+02,-7724,536,3831,-1710,-200,1324,1,7,11
9.66E+02,-7713,371,3779,-2137,-296,1011,1,7,11
9.67E+02,-7752,-54,3956,-1950,82,1144,1,7,11
9.64E+02,-7780,60,3855,-1960,-99,719,1,7,11
9.60E+02,-7584,-332,3533,-1946,-34,779,1,7,11
9.56E+02,-7658,-193,3486,-2110,283,620,1,7,11
9.52E+02,-7991,-247,3694,-1912,357,530,1,7,11
9.50E+02,-7827,-235,3660,-1639,197,526,1,7,11
9.49E+02,-7897,-215,3660,-1345,518,592,1,7,11
9.51E+02,-8197,-210,3684,-1038,524,412,1,7,11
9.53E+02,-7920,-206,3710,-448,210,459,1,7,11
9.57E+02,-7899,-199,3475,-359,132,436,1,7,11
9.62E+02,-8006,-160,3677,-50,263,388,1,7,11
9.66E+02,-7619,-190,3632,357,-48,233,1,7,11
9.69E+02,-7599,-529,3649,173,-18,302,1,7,11
9.70E+02,-7654,-620,3653,241,269,-113,1,7,11
9.67E+02,-7950,-435,3657,583,276,50,1,7,11
9.58E+02,-8016,-778,3646,416,278,27,1,7,11
9.43E+02,-8035,-858,3615,794,266,91,1,7,11
9.24E+02,-8034,-646,3623,660,273,-86,1,7,11
9.05E+02,-8063,-675,3630,1053,285,256,1,7,11
8.91E+02,-7816,-671,3613,973,265,341,1,7,11
8.83E+02,-8059,-893,3599,1172,-27,147,1,7,11
8.81E+02,-8037,-835,3597,1602,-67,168,1,7,11
8.84E+02,-8003,-500,3596,1510,-92,144,1,7,11
8.90E+02,-7984,-391,3592,1669,-101,309,1,7,11
8.97E+02,-7960,-251,3296,2076,-95,248,1,7,11
9.06E+02,-7997,-322,3249,1939,-68,-77,1,7,11
9.15E+02,-8023,-68,3421,2024,-23,-98,1,7,11
9.24E+02,-7814,147,3373,1997,268,-102,1,7,11
9.30E+02,-7831,558,3341,2096,289,-71,1,7,11
9.33E+02,-7817,400,3365,1865,277,-53,1,7,11
9.30E+02,-7820,418,3449,1553,251,-88,1,7,11
9.23E+02,-7810,394,3307,979,-74,92,1,7,11
9.17E+02,-8063,606,3690,685,74,-272,1,7,11
9.16E+02,-8042,558,3538,429,-58,-376,1,7,11
9.26E+02,-7966,554,3844,218,-181,-190,1,7,11
9.44E+02,-7630,525,3864,147,-236,-242,1,7,11
9.67E+02,-7560,236,3881,29,-238,-531,1,7,11
9.89E+02,-7775,190,3859,-222,-207,-553,1,7,11
1.01E+03,-7792,166,3576,-452,-384,-550,1,7,11
1.02E+03,-7613,185,3552,-651,-264,-239,1,7,11
1.03E+03,-7950,218,3529,-1082,-105,-368,1,7,11
1.03E+03,-8030,536,3517,-958,-71,59,1,7,11
1.03E+03,-7850,611,3501,-1299,-26,-7,1,7,11
1.03E+03,-7844,389,3482,-1355,-42,153,1,7,11
1.03E+03,-7817,604,3484,-1181,-125,207,1,7,11
1.03E+03,-7823,249,3503,-1277,57,164,1,7,11
1.03E+03,-8045,157,3493,-1583,-315,319,1,7,11
1.02E+03,-7970,325,3489,-1597,-169,-90,1,7,11
1.02E+03,-7654,-58,3493,-1638,-239,-267,1,7,11
1.01E+03,-7608,75,3502,-1605,-252,-185,1,7,11
9.94E+02,-7568,-267,3477,-1232,-195,-577,1,7,11
9.81E+02,-7581,-351,3482,-1346,-315,-428,1,7,11
9.67E+02,-7641,-169,3511,-1126,106,-462,1,7,11
9.56E+02,-7673,-183,3510,-839,-20,-442,1,7,11
9.48E+02,-7659,-213,3495,-573,328,-408,1,7,11
9.44E+02,-7671,-553,3494,-352,156,-422,1,7,11
9.43E+02,-7652,-637,3462,-113,202,-460,1,7,11
9.42E+02,-7651,-432,3662,373,515,-797,1,7,11
9.41E+02,-7666,-481,3313,582,577,-858,1,7,11
9.38E+02,-7957,-787,3227,772,407,-874,1,7,11
9.35E+02,-8008,-823,3403,718,768,-823,1,7,11
9.31E+02,-7837,-817,3340,950,893,-453,1,7,11
9.26E+02,-7886,-776,3006,1193,720,-525,1,7,11
9.18E+02,-7893,-793,2961,1633,751,-332,1,7,11
9.07E+02,-7840,-878,3198,1510,720,56,1,7,11
8.90E+02,-7839,-755,2966,1878,671,60,1,7,11
8.69E+02,-7889,-899,3027,1756,847,-295,1,7,11
8.51E+02,-8220,-1132,3023,1945,465,-166,1,7,11
8.39E+02,-8306,-1037,3019,2367,610,-518,1,7,11
8.38E+02,-8081,-887,2993,2253,248,-226,1,7,11
8.44E+02,-8308,-776,2989,2564,133,-330,1,7,11
8.55E+02,-8264,-419,2980,2292,304,103,1,7,11
8.66E+02,-8206,-548,2958,2244,-47,319,1,7,11
8.75E+02,-7898,-146,3180,2430,-83,148,1,7,11
8.76E+02,-7843,29,3139,2310,-104,193,1,7,11
8.66E+02,-7818,-49,3105,2114,-96,199,1,7,11
8.45E+02,-7833,372,3099,1864,-97,188,1,7,11
8.22E+02,-7820,247,3087,1596,-119,178,1,7,11
8.07E+02,-8058,601,3085,1324,126,153,1,7,11
8.06E+02,-8046,443,3091,1075,-123,128,1,7,11
8.16E+02,-8056,778,3148,835,-105,369,1,7,11
8.34E+02,-7847,839,2994,617,-91,371,1,7,11
8.54E+02,-7905,867,3366,172,-128,146,1,7,11
8.74E+02,-7920,884,3220,274,32,182,1,7,11
8.92E+02,-7900,645,3323,-120,-347,177,1,7,11
9.04E+02,-7872,658,3638,5,-215,130,1,7,11
9.13E+02,-7847,673,3663,-136,-556,315,1,7,11
9.19E+02,-7847,699,3683,-559,-603,-14,1,7,11
9.27E+02,-7821,698,3681,-492,-634,-53,1,7,11
9.39E+02,-8035,654,3670,-697,-637,-80,1,7,11
9.55E+02,-7991,842,3650,-1134,-606,-99,1,7,11
9.70E+02,-7966,769,3632,-1021,-556,-113,1,7,11
9.83E+02,-7953,426,3612,-1380,-251,-117,1,7,11
9.89E+02,-7989,558,3615,-1181,-199,-117,1,7,11
9.88E+02,-8003,209,3591,-1153,-160,-98,1,7,11
9.82E+02,-8002,157,3299,-1341,-363,-79,1,7,11
9.69E+02,-7977,350,3269,-1287,-297,-66,1,7,11
9.51E+02,-7972,259,3288,-963,30,-58,1,7,11
9.29E+02,-7975,-70,3285,-1096,91,-60,1,7,11
9.08E+02,-7966,-96,3258,-663,-107,-66,1,7,11
8.90E+02,-7971,-45,3202,-458,-10,-70,1,7,11
8.76E+02,-8006,262,3394,-523,376,-47,1,7,11
8.68E+02,-7999,286,3062,-376,247,-9,1,7,11
8.64E+02,-8002,310,2997,-264,396,-5,1,7,11
8.66E+02,-8043,345,3190,103,786,-4,1,7,11
8.70E+02,-7853,364,3136,-63,895,-14,1,7,11
8.71E+02,-7915,355,3098,-10,705,-9,1,7,11
8.65E+02,-8245,306,3073,261,715,269,1,7,11
8.52E+02,-8314,-18,3073,259,883,285,1,7,11
8.37E+02,-8106,-80,3096,258,769,305,1,7,11
8.25E+02,-8133,76,3156,-4,622,324,1,7,11
8.21E+02,-8152,-279,2956,308,194,345,1,7,11
8.25E+02,-8083,-328,2967,171,261,376,1,7,11
8.37E+02,-8275,-380,3007,547,-124,370,1,7,11
8.55E+02,-8210,-173,3060,427,27,367,1,7,11
8.78E+02,-7931,-214,3368,840,-307,332,1,7,11
9.04E+02,-7888,-196,3360,1038,-370,312,1,7,11
9.28E+02,-7900,-359,3344,976,-377,304,1,7,11
9.49E+02,-7897,55,3029,1388,-380,357,1,7,11
9.67E+02,-7880,-68,2996,1198,-379,194,1,7,11
9.82E+02,-7853,274,2977,1193,-135,532,1,7,11
9.94E+02,-7821,330,2966,1405,-156,566,1,7,11
1.00E+03,-7810,131,2968,1358,-174,544,1,7,11
1.01E+03,-7821,217,2959,1314,-188,238,1,7,11
1.01E+03,-7835,576,3198,1004,-203,187,1,7,11
1.01E+03,-7853,500,2944,927,-225,152,1,7,11
1.00E+03,-7845,814,3193,1095,-522,142,1,7,11
9.93E+02,-7857,684,2959,733,-551,144,1,7,11
9.80E+02,-7860,1029,2996,868,-600,178,1,7,11
9.66E+02,-7865,1096,3065,484,-403,220,1,7,11
9.51E+02,-7875,908,3400,628,-492,534,1,7,11
9.35E+02,-7864,969,3221,524,-860,606,1,7,11
9.18E+02,-8057,1022,3285,141,-742,414,1,7,11
9.02E+02,-7972,1311,3590,-23,-1116,428,1,7,11
8.87E+02,-7656,1330,3645,48,-937,402,1,7,11
8.74E+02,-7645,1376,3701,-378,-958,619,1,7,11
8.64E+02,-7605,1190,3458,-525,-954,614,1,7,11
8.59E+02,-7571,1268,3456,-419,-1145,612,1,7,11
8.61E+02,-7565,1562,3481,-836,-1027,621,1,7,11
8.67E+02,-7572,1541,3498,-710,-654,627,1,7,11
8.73E+02,-7588,1238,3520,-1052,-803,598,1,7,11
8.77E+02,-7621,1166,3550,-1101,-457,522,1,7,11
8.79E+02,-7655,1358,3566,-1102,-407,168,1,7,11
8.83E+02,-7626,1012,3581,-1098,-404,300,1,7,11
8.96E+02,-7590,1147,3872,-1083,-411,-108,1,7,11
9.18E+02,-7581,754,3917,-1033,-412,-266,1,7,11
9.45E+02,-7781,657,3921,-680,-417,-142,1,7,11
9.66E+02,-7714,817,3911,-836,-629,-515,1,7,11
9.75E+02,-7721,465,3916,-478,-515,-593,1,7,11
9.66E+02,-7697,614,3926,-635,-144,-616,1,7,11
9.45E+02,-7563,204,3889,-323,-109,-589,1,7,11
9.24E+02,-7668,251,3581,-110,291,-222,1,7,11
9.10E+02,-8030,526,3580,312,169,-309,1,7,11
9.08E+02,-7839,518,3883,212,227,13,1,7,11
9.10E+02,-7845,250,3919,387,157,352,1,7,11
9.09E+02,-7851,213,3750,838,-9,163,1,7,11
8.99E+02,-7831,192,3838,1065,17,360,1,7,11
8.82E+02,-8031,239,4136,1297,-249,-63,1,7,11
8.64E+02,-7660,622,4113,1224,-465,-278,1,7,11
8.51E+02,-7804,832,3791,1589,-822,-234,1,7,11
8.46E+02,-7722,1072,3759,1568,-795,-392,1,7,11
8.44E+02,-7707,1324,3753,1174,-448,-462,1,7,11
8.40E+02,-7724,1165,3773,980,-591,-454,1,7,11
8.33E+02,-7750,1210,3800,1037,-514,-385,1,7,11
8.23E+02,-7762,1211,3836,732,-207,-532,1,7,11
8.16E+02,-7757,1196,4122,538,-211,-226,1,7,11
8.13E+02,-7743,1161,4163,337,-240,-224,1,7,11
8.16E+02,-7708,1341,4209,-123,-560,-253,1,7,11
8.19E+02,-7413,962,3991,-314,-393,-581,1,7,11
8.21E+02,-7373,1095,4020,-211,-469,-416,1,7,11
8.20E+02,-7317,740,4030,-594,-510,-504,1,7,11
8.15E+02,-7488,890,4013,-460,-506,-814,1,7,11
8.07E+02,-7462,774,4004,-813,-413,-826,1,7,11
7.96E+02,-7489,406,4004,-866,-524,-512,1,7,11
7.83E+02,-7547,551,4002,-868,-361,-389,1,7,11
7.69E+02,-7365,188,3986,-827,55,-222,1,7,11
7.54E+02,-7697,347,4214,-499,-43,-287,1,7,11
7.40E+02,-7742,-8,4197,-424,357,-112,1,7,11
7.28E+02,-7780,-90,4184,-584,214,266,1,7,11
7.20E+02,-7577,126,4152,-215,562,328,1,7,11
7.17E+02,-7654,-94,4101,-337,619,362,1,7,11
7.19E+02,-7980,278,3774,55,388,134,1,7,11
7.28E+02,-8050,179,3955,-104,633,175,1,7,11
7.44E+02,-7832,587,3896,-55,578,237,1,7,11
7.67E+02,-7839,481,3846,-27,239,552,1,7,11
7.96E+02,-7821,893,3572,-15,134,591,1,7,11
8.31E+02,-8025,759,3574,-33,257,607,1,7,11
8.71E+02,-7960,1107,3848,-52,105,604,1,7,11
9.14E+02,-7622,905,3876,-90,-285,571,1,7,11
9.56E+02,-7580,927,3934,121,-377,525,1,7,11
9.92E+02,-7784,937,3726,85,-204,223,1,7,11
1.02E+03,-7753,919,3785,39,-255,161,1,7,11
1.03E+03,-7723,905,3836,4,-526,351,1,7,11
1.02E+03,-7690,908,4128,-276,-219,286,1,7,11
1.02E+03,-7696,927,4158,-293,-362,-13,1,7,11
1.01E+03,-7703,968,4179,-317,17,-20,1,7,11
9.98E+02,-7747,966,4216,-370,124,-18,1,7,11
9.92E+02,-7806,911,4017,-175,-91,-25,1,7,11
9.89E+02,-7801,1075,4055,-220,107,-77,1,7,11
9.89E+02,-7766,696,4084,-515,16,43,1,7,11
9.92E+02,-7719,879,4070,-244,-296,-382,1,7,11
9.96E+02,-7415,855,4010,-228,-293,-544,1,7,11
9.99E+02,-7364,865,4170,-229,29,-389,1,7,11
9.98E+02,-7363,867,3828,-514,-103,-425,1,7,11
9.92E+02,-7361,856,3726,-552,288,-393,1,7,11
9.82E+02,-7413,823,3903,-598,163,-597,1,7,11
9.70E+02,-7710,813,3545,-617,253,-251,1,7,11
9.56E+02,-7781,821,3468,-397,597,-160,1,7,11
9.41E+02,-7638,833,3672,-447,401,-296,1,7,11
9.27E+02,-8036,874,3695,-470,411,101,1,7,11
9.13E+02,-7879,664,3514,-466,571,270,1,7,11
8.99E+02,-7898,705,3578,-440,144,169,1,7,11
8.87E+02,-7885,746,3933,-414,-47,514,1,7,11
8.79E+02,-7818,1070,3743,-637,21,539,1,7,11
8.75E+02,-7994,1148,3818,-389,-131,227,1,7,11
8.78E+02,-7943,976,4142,-435,-235,128,1,7,11
8.88E+02,-7609,1295,4179,-773,-576,282,1,7,11
9.03E+02,-7796,1008,4007,-665,-628,-96,1,7,11
9.25E+02,-7742,1141,4376,-1069,-414,22,1,7,11
9.50E+02,-7414,712,4474,-911,-450,-151,1,7,11
9.76E+02,-7341,827,4264,-934,-455,-602,1,7,11
9.98E+02,-7519,470,4241,-927,-418,-774,1,7,11
1.01E+03,-7465,399,4425,-939,-562,-896,1,7,11
1.02E+03,-7453,595,4080,-986,-136,-686,1,7,11
1.02E+03,-7476,545,3993,-1303,66,-650,1,7,11
1.01E+03,-7546,241,4180,-1389,263,-807,1,7,11
1.01E+03,-7385,193,4145,-1217,148,-402,1,7,11
1.01E+03,-7732,150,4145,-1543,198,-224,1,7,11
1.00E+03,-7753,383,4128,-1571,150,-283,1,7,11
1.00E+03,-7767,343,4135,-1593,349,-126,1,7,11
1.01E+03,-7736,316,4161,-1576,262,270,1,7,11
1.02E+03,-7732,286,4194,-1270,-46,346,1,7,11
1.03E+03,-7748,296,4212,-1404,-72,158,1,7,11
1.04E+03,-7749,355,4189,-999,-66,227,1,7,11
1.05E+03,-7773,165,4197,-1140,-12,546,1,7,11
1.05E+03,-7801,196,3982,-1061,302,602,1,7,11
1.05E+03,-7555,236,3998,-702,346,628,1,7,11
1.05E+03,-7573,552,3987,-850,147,613,1,7,11
1.05E+03,-7596,611,4220,-775,208,579,1,7,11
1.05E+03,-7599,408,4193,-475,521,527,1,7,11
1.05E+03,-7577,461,4135,-456,571,208,1,7,11
1.05E+03,-7797,771,3798,-465,385,135,1,7,11
1.05E+03,-7781,776,3733,-783,476,305,1,7,11
1.06E+03,-7558,429,3719,-658,833,-92,1,7,11
1.06E+03,-7599,568,3737,-729,838,64,1,7,11
1.06E+03,-7653,139,3784,-1031,502,-300,1,7,11
1.06E+03,-7663,-37,3824,-765,615,-168,1,7,11
1.04E+03,-7648,80,4103,-713,192,-560,1,7,11
1.01E+03,-7620,12,4117,-882,294,-411,1,7,11
9.85E+02,-7597,5,4104,-507,-75,-452,1,7,11
9.63E+02,-7570,48,3827,-399,114,-415,1,7,11
9.52E+02,-7784,119,3783,-563,90,-564,1,7,11
9.53E+02,-7757,-73,3758,-232,126,-168,1,7,11
9.63E+02,-7720,284,3716,-132,-68,4,1,7,11
9.77E+02,-7695,131,3918,-308,304,-91,1,7,11
9.93E+02,-7709,210,3868,-258,197,324,1,7,11
1.01E+03,-7774,538,3570,22,611,203,1,7,11
1.02E+03,-7628,604,3545,28,479,569,1,7,11
1.02E+03,-8005,402,3536,21,787,399,1,7,11
1.02E+03,-7851,436,3556,2,504,444,1,7,11
1.02E+03,-7895,468,3546,-268,416,454,1,7,11
1.01E+03,-7915,768,3544,-291,575,412,1,7,11
9.94E+02,-7899,808,3546,-322,228,594,1,7,11
9.83E+02,-7851,842,3541,-361,149,243,1,7,11
9.77E+02,-8048,852,3515,-163,352,140,1,7,11
9.74E+02,-7987,844,3496,-226,341,285,1,7,11
9.78E+02,-7960,489,3501,-569,371,91,1,7,11
9.90E+02,-7954,629,3536,-389,138,-37,1,7,11
1.01E+03,-7938,225,3581,-441,381,-176,1,7,11
1.02E+03,-7943,316,3889,-457,352,-580,1,7,11
1.04E+03,-7948,-99,3937,-418,302,-461,1,7,11
1.05E+03,-7667,62,3967,-579,-37,-830,1,7,11
1.06E+03,-7647,9,3720,-203,84,-658,1,7,11
1.06E+03,-7602,-273,3961,-354,41,-687,1,7,11
1.06E+03,-7579,-259,3934,3,-264,-686,1,7,11
1.06E+03,-7804,33,3913,75,-268,-894,1,7,11
1.05E+03,-7796,72,3895,-128,8,-818,1,7,11
1.04E+03,-7793,124,3881,-99,51,-463,1,7,11
1.03E+03,-7799,-59,3850,-90,-121,-606,1,7,11
1.03E+03,-7560,272,3575,-103,-86,-549,1,7,11
1.02E+03,-7595,361,3550,110,-4,-180,1,7,11
1.02E+03,-7640,179,3531,48,329,-251,1,7,11
1.01E+03,-7937,234,3531,-305,145,122,1,7,11
1.02E+03,-7982,530,3543,-144,205,-31,1,7,11
1.02E+03,-8009,556,3561,-513,244,304,1,7,11
1.03E+03,-8017,570,3569,-619,253,344,1,7,11
1.03E+03,-8010,570,3571,-477,250,324,1,7,11
1.02E+03,-7997,579,3555,-843,518,279,1,7,11
9.91E+02,-7960,593,3520,-686,543,-39,1,7,11
9.60E+02,-7676,583,3468,-1055,600,-111,1,7,11
9.32E+02,-7644,557,3656,-920,433,82,1,7,11
9.19E+02,-7650,243,3610,-1299,800,11,1,7,11
9.24E+02,-7675,178,3291,-1395,657,-312,1,7,11
9.42E+02,-7961,360,3239,-1212,749,-378,1,7,11
9.63E+02,-8024,300,3219,-1262,1081,-185,1,7,11
9.79E+02,-8054,-23,3220,-1557,1122,-246,1,7,11
9.84E+02,-8049,-102,3222,-1584,1098,-581,1,7,11
9.84E+02,-8001,77,3204,-1596,1062,-433,1,7,11
9.83E+02,-7980,-266,3441,-1610,1062,-830,1,7,11
9.87E+02,-7985,-331,3409,-1602,1074,-697,1,7,11
9.97E+02,-7997,-143,3377,-1578,1075,-1045,1,7,11
1.01E+03,-8028,-192,3330,-1537,1069,-1089,1,7,11
1.01E+03,-8050,-228,3033,-1186,1041,-1080,1,7,11
1.00E+03,-7814,-246,2983,-1363,763,-768,1,7,11
9.82E+02,-7847,-528,2957,-1289,746,-677,1,7,11
9.57E+02,-7884,-575,3179,-962,722,-818,1,7,11
9.37E+02,-7932,-605,3132,-1133,699,-434,1,7,11
9.30E+02,-8227,-385,3110,-1077,674,-572,1,7,11
9.37E+02,-8299,-439,3133,-767,895,-217,1,7,11
9.53E+02,-8082,-445,3121,-668,825,-381,1,7,11
9.69E+02,-8095,-408,3083,-822,504,-301,1,7,11
9.80E+02,-8097,-611,2789,-485,471,45,1,7,11
9.85E+02,-8072,-572,2748,-432,446,-111,1,7,11
9.83E+02,-8294,-555,2720,-403,439,-37,1,7,11
9.76E+02,-8260,-564,2706,-638,440,-4,1,7,11
9.66E+02,-8244,-583,2700,-611,452,-22,1,7,11
9.54E+02,-8229,-608,2694,-581,446,-76,1,7,11
9.43E+02,-8230,-391,2943,-561,432,92,1,7,11
9.34E+02,-8244,-424,2943,-533,402,-257,1,7,11
9.31E+02,-8247,-438,2935,-245,607,-348,1,7,11
9.32E+02,-8244,-455,2938,-229,545,-179,1,7,11
9.37E+02,-8221,-480,2932,-217,217,-249,1,7,11
9.43E+02,-8198,-506,2914,-196,150,-566,1,7,11
9.51E+02,-7900,-773,2883,-174,346,-613,1,7,11
9.59E+02,-7896,-512,2850,-151,325,-399,1,7,11
9.65E+02,-7912,-485,2554,-377,311,-396,1,7,11
9.68E+02,-7933,-459,2516,-361,307,-606,1,7,11
9.68E+02,-7933,-475,2477,-375,296,-527,1,7,11
9.63E+02,-7924,-499,2672,-371,296,-194,1,7,11
9.52E+02,-7929,-506,2616,-354,320,-383,1,7,11
9.35E+02,-8209,-769,2573,-348,364,-322,1,7,11
9.15E+02,-8289,-783,2580,-355,159,-264,1,7,11
8.99E+02,-8141,-800,2627,-342,150,126,1,7,11
8.97E+02,-8179,-803,2645,-289,361,-57,1,7,11
9.11E+02,-8192,-471,2652,58,327,257,1,7,11
9.37E+02,-8185,-633,2664,115,295,305,1,7,11
9.67E+02,-8164,-566,2440,114,265,340,1,7,11
9.93E+02,-8121,-527,2482,77,-48,341,1,7,11
1.01E+03,-8077,-529,2531,27,-104,288,1,7,11
1.01E+03,-8294,-522,2838,-263,102,-63,1,7,11
1.01E+03,-8266,-527,2891,-303,62,69,1,7,11
9.97E+02,-8228,-550,2916,-347,32,-315,1,7,11
9.79E+02,-7923,-585,2691,-139,16,-186,1,7,11
9.58E+02,-7851,-624,2933,-195,23,-570,1,7,11
9.41E+02,-8053,-426,2905,-518,77,-452,1,7,11
9.31E+02,-8038,-480,2866,-581,-97,-827,1,7,11
9.31E+02,-8055,-799,2552,-388,-7,-642,1,7,11
9.36E+02,-8061,-878,2478,-454,325,-654,1,7,11
9.44E+02,-7824,-716,2672,-503,146,-870,1,7,11
9.50E+02,-7847,-766,2583,-505,227,-778,1,7,11
9.52E+02,-7888,-1063,2241,-499,569,-634,1,7,11
9.48E+02,-8194,-1106,2420,-499,399,-178,1,7,11
9.35E+02,-8270,-1141,2371,-476,478,54,1,7,11
9.12E+02,-8116,-1111,2328,-404,821,326,1,7,11
8.83E+02,-8491,-768,2329,-583,884,394,1,7,11
8.58E+02,-8548,-689,2358,-531,873,755,1,7,11
8.44E+02,-8536,-889,2420,-516,806,1332,1,7,11
8.43E+02,-8485,-868,2240,-254,447,1538,1,7,11
8.50E+02,-8140,-813,2298,-210,585,1587,1,7,11
8.60E+02,-8094,-458,2603,-160,236,1207,1,7,11
8.67E+02,-8300,-570,2624,-381,150,973,1,7,11
8.71E+02,-8304,-163,2669,-138,361,664,1,7,11
8.74E+02,-8065,-283,2677,-185,313,613,1,7,11
8.78E+02,-8082,63,2435,-526,271,326,1,7,11
8.82E+02,-8090,74,2451,-625,-34,79,1,7,11
8.86E+02,-8317,55,2685,-451,-83,-130,1,7,11
8.91E+02,-8271,14,2634,-778,-110,-560,1,7,11
8.95E+02,-8233,-305,2567,-848,-106,-426,1,7,11
8.98E+02,-8229,-138,2241,-658,-79,-496,1,7,11
8.99E+02,-8224,-248,2414,-694,-57,-498,1,7,11
8.97E+02,-8211,-637,2324,-701,-32,-459,1,7,11
8.93E+02,-7929,-508,1972,-673,261,-396,1,7,11
8.87E+02,-7922,-875,2140,-884,336,-596,1,7,11
8.81E+02,-8203,-693,2077,-813,181,-523,1,7,11
8.77E+02,-8290,-740,1782,-480,556,-181,1,7,11
8.74E+02,-8100,-730,1777,-387,637,-313,1,7,11
8.75E+02,-8153,-687,2050,-574,436,76,1,7,11
8.79E+02,-8157,-862,2063,-534,465,-74,1,7,11
8.89E+02,-8114,-488,2068,-549,502,-20,1,7,11
9.02E+02,-8090,-631,2106,-394,838,-27,1,7,11
9.16E+02,-8068,-552,2168,-809,665,-59,1,7,11
9.32E+02,-8295,-255,1957,-732,747,-113,1,7,11
9.44E+02,-8291,-245,1998,-920,1083,64,1,7,11
9.50E+02,-8317,-254,2038,-1339,1147,-287,1,7,11
9.46E+02,-8121,-541,2336,-1209,920,-131,1,7,11
9.28E+02,-8187,-572,2360,-1279,1142,-206,1,7,11
9.01E+02,-8491,-623,2373,-1558,1041,-252,1,7,11
8.75E+02,-8493,-433,2342,-1543,881,-528,1,7,11
8.57E+02,-8485,-499,2025,-1246,460,-555,1,7,11
8.50E+02,-8480,-820,1955,-1173,558,-576,1,7,11
8.48E+02,-8461,-870,2137,-1344,154,-575,1,7,11
8.47E+02,-8154,-652,1784,-999,278,-550,1,7,11
8.42E+02,-8122,-690,1688,-930,-48,-255,1,7,11
8.33E+02,-8110,-721,1864,-1114,-71,-186,1,7,11
8.23E+02,-8137,-751,1815,-1057,-49,-344,1,7,11
8.15E+02,-8187,-765,1514,-741,-10,45,1,7,11
8.09E+02,-8481,-758,1502,-680,279,-43,1,7,11
8.05E+02,-8469,-735,1453,-878,297,377,1,7,11
8.02E+02,-8479,-709,1409,-847,337,242,1,7,11
8.00E+02,-8487,-673,1641,-822,362,591,1,7,11
7.99E+02,-8488,-644,1639,-817,378,637,1,7,11
7.98E+02,-8494,-658,1654,-823,359,400,1,7,11
7.97E+02,-8464,-672,1415,-808,313,391,1,7,11
7.95E+02,-8186,-674,1421,-773,273,605,1,7,11
7.92E+02,-8174,-893,1432,-472,-8,554,1,7,11
7.91E+02,-8186,-854,1484,-440,-32,514,1,7,11
7.94E+02,-8192,-804,1510,-414,-63,244,1,7,11
8.06E+02,-8458,-788,1525,-395,-97,255,1,7,11
8.27E+02,-8191,-503,1800,-628,125,531,1,7,11
8.52E+02,-8186,-469,1826,-598,97,554,1,7,11
8.77E+02,-8155,-426,1838,-565,71,574,1,7,11
8.96E+02,-8167,-635,1863,-539,64,581,1,7,11
9.11E+02,-8167,-585,1877,-248,39,593,1,7,11
9.23E+02,-8185,-544,1667,-228,16,578,1,7,11
9.35E+02,-8182,-254,1692,-203,-278,544,1,7,11
9.47E+02,-8178,-231,1720,-181,-310,217,1,7,11
9.59E+02,-8452,-216,1768,-174,-335,375,1,7,11
9.68E+02,-8454,-199,2077,-170,-374,257,1,7,11
9.73E+02,-8192,-192,2105,-159,-169,124,1,7,11
9.73E+02,-8188,-193,2158,-146,-214,-263,1,7,11
9.68E+02,-8452,-204,1969,-383,-254,-362,1,7,11
9.60E+02,-8464,-232,2038,-342,-540,-165,1,7,11
9.49E+02,-8464,-252,2336,-270,-580,-164,1,7,11
9.37E+02,-8106,-547,2314,106,-637,-383,1,7,11
9.26E+02,-8243,-405,2020,106,-633,-153,1,7,11
9.19E+02,-7892,-777,1988,67,-568,-522,1,7,11
9.17E+02,-7863,-887,1942,4,-208,-435,1,7,11
9.21E+02,-7851,-717,2131,-354,-350,-873,1,7,11
9.28E+02,-7907,-756,2058,-229,54,-1031,1,7,11
9.36E+02,-8233,-751,1723,-617,-52,-1071,1,7,11
9.45E+02,-8307,-728,1899,-512,340,-742,1,7,11
9.52E+02,-8098,-710,1818,-665,207,-810,1,7,11
9.58E+02,-8100,-724,1494,-1068,567,-551,1,7,11
9.62E+02,-8076,-768,1448,-916,415,-286,1,7,11
9.64E+02,-8075,-1072,1421,-942,785,-43,1,7,11
9.62E+02,-8094,-1090,1409,-1142,888,169,1,7,11
9.58E+02,-8121,-1089,1422,-764,705,607,1,7,11
9.50E+02,-8164,-1078,1428,-833,744,486,1,7,11
9.41E+02,-8457,-1052,1437,-593,746,834,1,7,11
9.32E+02,-8481,-737,1436,-334,716,868,1,7,11
9.30E+02,-8516,-665,1445,-88,666,832,1,7,11
9.37E+02,-8546,-827,1441,132,846,498,1,7,11
9.53E+02,-8568,-476,1444,552,490,391,1,7,11
9.73E+02,-8321,-634,1436,399,633,535,1,7,11
9.95E+02,-8565,-571,1448,428,520,166,1,7,11
1.01E+03,-8526,-520,1428,412,161,306,1,7,11
1.03E+03,-8468,-509,1414,611,350,-70,1,7,11
1.04E+03,-8166,-244,1647,528,327,75,1,7,11
1.04E+03,-8137,-242,1635,175,341,-271,1,7,11
1.05E+03,-8133,-252,1628,321,375,-330,1,7,11
1.05E+03,-8135,-526,1615,-26,155,-350,1,7,11
1.05E+03,-8130,-535,1597,-103,178,-346,1,7,11
1.06E+03,-8129,-573,1546,80,199,-344,1,7,11
1.06E+03,-8147,-615,1249,13,213,-341,1,7,11
1.06E+03,-8170,-415,1214,-304,213,-354,1,7,11
1.07E+03,-8191,-442,1192,-357,199,-361,1,7,11
1.07E+03,-8468,-461,1162,-155,182,-361,1,7,11
1.07E+03,-8495,-473,1154,-205,166,-343,1,7,11
1.07E+03,-8517,-492,1390,-233,145,-295,1,7,11
1.07E+03,-8523,-505,1371,-250,380,16,1,7,11
1.07E+03,-8544,-508,1367,-516,369,66,1,7,11
1.07E+03,-8557,-511,1360,-514,345,109,1,7,11
1.06E+03,-8552,-780,1349,-247,311,-118,1,7,11
1.05E+03,-8539,-780,1338,-215,272,-96,1,7,11
1.04E+03,-8513,-793,1326,-167,-23,-86,1,7,11
1.03E+03,-8496,-824,1318,-372,-54,-82,1,7,11
1.03E+03,-8486,-868,1325,-316,-80,-84,1,7,11
1.02E+03,-8489,-888,1346,22,-101,-87,1,7,11
1.02E+03,-8454,-881,1355,124,-118,-79,1,7,11
1.02E+03,-8449,-856,1372,-36,-108,-73,1,7,11
1.02E+03,-8184,-813,1397,311,-97,-54,1,7,11
1.02E+03,-8184,-488,1154,133,-78,-29,1,7,11
1.02E+03,-8451,-421,1182,194,-51,-5,1,7,11
1.02E+03,-8456,-615,1195,230,-28,282,1,7,11
1.01E+03,-8185,-545,1194,253,-21,283,1,7,11
9.91E+02,-8454,-233,1208,235,261,-2,1,7,11
9.70E+02,-8499,-209,1248,206,266,-44,1,7,11
9.51E+02,-8516,-181,1268,200,-26,-87,1,7,11
9.38E+02,-8501,-150,1256,197,-76,108,1,7,11
9.33E+02,-8506,-140,1246,178,-114,45,1,7,11
9.35E+02,-8511,-148,1231,152,96,-261,1,7,11
9.40E+02,-8494,-174,1198,371,39,-297,1,7,11
9.45E+02,-8481,-203,1160,341,7,-326,1,7,11
9.49E+02,-8466,-241,1390,321,-270,-331,1,7,11
9.53E+02,-8457,-525,1366,312,-275,-304,1,7,11
9.58E+02,-8453,-574,1348,303,-267,-258,1,7,11
9.63E+02,-8461,-612,1341,312,1,57,1,7,11
9.67E+02,-8464,-639,1344,331,13,126,1,7,11
9.70E+02,-8461,-405,1326,337,27,-64,1,7,11
9.69E+02,-8459,-430,1329,334,47,-3,1,7,11
9.61E+02,-8471,-429,1340,352,76,306,1,7,11
9.51E+02,-8473,-414,1343,373,99,358,1,7,11
9.43E+02,-8471,-391,1363,128,119,143,1,7,11
9.42E+02,-8486,-622,1391,131,-125,158,1,7,11
9.52E+02,-8488,-585,1403,140,120,148,1,7,11
9.69E+02,-8488,-542,1165,151,95,365,1,7,11
9.88E+02,-8480,-227,1178,154,68,308,1,7,11
1.00E+03,-8499,-189,1217,128,41,-11,1,7,11
1.01E+03,-8525,-170,1536,366,2,-56,1,7,11
1.01E+03,-8536,-155,1578,371,-311,-87,1,7,11
1.00E+03,-8530,-149,1605,143,-371,-109,1,7,11
9.95E+02,-8505,-137,1602,166,-165,117,1,7,11
9.89E+02,-8483,-129,1600,155,-191,73,1,7,11
9.80E+02,-8491,-130,1601,128,-200,23,1,7,11
9.67E+02,-8495,-376,1599,367,-214,-265,1,7,11
9.47E+02,-8467,-367,1583,345,-230,-282,1,7,11
9.19E+02,-8191,-353,1570,324,-223,-292,1,7,11
8.90E+02,-8174,-358,1553,287,-207,-288,1,7,11
8.67E+02,-8154,-383,1540,-14,-182,-286,1,7,11
8.56E+02,-8152,-167,1268,-57,-146,-292,1,7,11
8.60E+02,-8165,-212,1252,-78,-369,-300,1,7,11
8.74E+02,-8180,-239,1243,-85,-333,-307,1,7,11
8.96E+02,-8453,-520,1220,-86,-305,-297,1,7,11
9.23E+02,-8490,-577,1212,-76,-283,-269,1,7,11
9.51E+02,-8525,-411,1217,-33,-285,36,1,7,11
9.74E+02,-8559,-791,1255,326,-324,87,1,7,11
9.88E+02,-8573,-892,1549,535,-145,-127,1,7,11
9.91E+02,-8555,-695,1571,817,-240,-105,1,7,11
9.85E+02,-8526,-686,1581,1121,-571,-89,1,7,11
9.73E+02,-8506,-895,1598,1396,-626,-62,1,7,11
9.58E+02,-8484,-792,1633,1628,-394,-18,1,7,11
9.43E+02,-8479,-413,1661,1534,-389,297,1,7,11
9.29E+02,-8477,-529,1444,1887,-385,372,1,7,11
9.18E+02,-8472,-135,1503,1912,-640,190,1,7,11
9.13E+02,-8471,-261,1520,1864,-637,255,1,7,11
9.14E+02,-8466,93,1825,1484,-392,555,1,7,11
9.20E+02,-8459,-95,1875,1574,-410,569,1,7,11
9.31E+02,-8451,-49,1672,1382,-438,541,1,7,11
9.45E+02,-8192,-40,1739,937,-472,230,1,7,11
9.60E+02,-8185,-49,2048,1037,-774,160,1,7,11
9.71E+02,-8163,-75,2124,655,-821,292,1,7,11
9.75E+02,-8132,-79,2157,817,-857,-48,1,7,11
9.69E+02,-8101,-100,1944,466,-876,120,1,7,11
9.57E+02,-8311,124,1975,638,-890,33,1,7,11
9.42E+02,-8289,95,2009,575,-869,-305,1,7,11
9.28E+02,-8281,55,2305,519,-829,-363,1,7,11
9.19E+02,-8289,26,2308,244,-784,-140,1,7,11
9.15E+02,-8294,6,2044,247,-480,-142,1,7,11
9.18E+02,-8284,-286,2028,255,-437,-133,1,7,11
9.27E+02,-8255,-304,1994,539,-391,-129,1,7,11
9.41E+02,-8237,-303,1969,588,-551,-141,1,7,11
9.58E+02,-8239,-296,1940,601,-514,-156,1,7,11
9.75E+02,-8268,-276,2161,613,-167,-159,1,7,11
9.88E+02,-8285,19,2118,616,-299,-136,1,7,11
9.96E+02,-8314,40,2090,585,43,-357,1,7,11
9.99E+02,-8088,60,2067,538,82,-329,1,7,11
9.96E+02,-8144,75,2054,236,-101,-267,1,7,11
9.85E+02,-8191,71,2051,189,-54,62,1,7,11
9.70E+02,-8470,46,1790,152,-38,-110,1,7,11
9.55E+02,-8489,21,2059,147,-44,-39,1,7,11
9.45E+02,-8503,4,2077,183,-58,271,1,7,11
9.44E+02,-8510,-273,2111,248,-92,315,1,7,11
9.50E+02,-8512,-293,2155,589,121,320,1,7,11
9.59E+02,-8511,-309,1951,448,58,316,1,7,11
9.69E+02,-8497,-326,2002,835,-273,294,1,7,11
9.76E+02,-8461,-336,2040,721,-364,259,1,7,11
9.82E+02,-8166,-349,2328,1118,-197,-49,1,7,11
9.86E+02,-8138,-335,2337,999,-518,124,1,7,11
9.90E+02,-8107,-307,2341,1377,-567,84,1,7,11
9.93E+02,-8088,-270,2353,1208,-588,58,1,7,11
9.94E+02,-8068,26,2358,1260,-585,59,1,7,11
9.93E+02,-8314,69,2360,1279,-568,78,1,7,11
9.89E+02,-8304,-123,2362,1263,-515,109,1,7,11
9.81E+02,-8308,-69,2375,1205,-214,-114,1,7,11
9.73E+02,-8065,-26,2388,1371,-188,-84,1,7,11
9.67E+02,-8089,259,2412,1007,-175,-62,1,7,11
9.65E+02,-8091,293,2423,899,-180,-42,1,7,11
9.69E+02,-8105,319,2424,1032,-190,-27,1,7,11
9.78E+02,-8112,329,2425,643,-204,-13,1,7,11
9.90E+02,-8133,302,2192,509,-215,-9,1,7,11
1.00E+03,-8138,265,2211,412,-244,-8,1,7,11
1.02E+03,-8139,-39,2245,595,-530,-33,1,7,11
1.03E+03,-8143,-90,2271,561,-563,-65,1,7,11
1.03E+03,-8118,-107,2276,583,-600,-99,1,7,11
1.02E+03,-8093,-124,2270,598,-617,111,1,7,11
9.90E+02,-8300,112,2259,625,-625,70,1,7,11
9.61E+02,-8270,103,2241,409,-598,14,1,7,11
9.38E+02,-8268,116,2235,461,-560,-295,1,7,11
9.32E+02,-8260,-106,2196,781,-531,-324,1,7,11
9.42E+02,-8274,-75,2421,820,-237,-334,1,7,11
9.64E+02,-8312,-58,2409,839,-214,-320,1,7,11
9.88E+02,-8089,-57,2411,849,-220,-297,1,7,11
1.01E+03,-8109,-40,2417,856,-246,-274,1,7,11
1.02E+03,-8129,-25,2186,850,-529,8,1,7,11
1.03E+03,-8148,256,2227,827,-564,43,1,7,11
1.03E+03,-8136,276,2278,793,-624,97,1,7,11
1.03E+03,-8116,291,2572,494,-424,-111,1,7,11
1.03E+03,-8095,331,2616,466,-470,-67,1,7,11
1.03E+03,-8068,383,2655,426,-505,-25,1,7,11
1.02E+03,-8285,157,2432,633,-775,285,1,7,11
9.99E+02,-8253,162,2472,584,-506,339,1,7,11
9.76E+02,-8237,150,2526,550,-468,381,1,7,11
9.47E+02,-8231,136,2834,549,-423,148,1,7,11
9.15E+02,-8206,380,2873,572,-389,150,1,7,11
8.81E+02,-7921,381,2879,599,-605,378,1,7,11
8.49E+02,-7907,139,2877,612,-551,332,1,7,11
8.25E+02,-7877,151,2855,615,-230,274,1,7,11
8.13E+02,-7854,205,2823,624,-136,-44,1,7,11
8.15E+02,-7856,234,2547,616,-283,-85,1,7,11
8.31E+02,-7860,516,2518,600,65,-101,1,7,11
8.60E+02,-7871,547,2481,583,-116,-98,1,7,11
9.01E+02,-7906,557,2452,554,-71,-89,1,7,11
9.49E+02,-8197,568,2676,514,-69,-72,1,7,11
9.96E+02,-8224,574,2650,198,-104,-60,1,7,11
1.04E+03,-8278,587,2653,134,105,-39,1,7,11
1.07E+03,-8072,616,2677,299,1,265,1,7,11
1.09E+03,-8085,401,2445,256,-336,327,1,7,11
1.11E+03,-8107,476,2474,-34,-144,134,1,7,11
1.11E+03,-8128,819,2526,-71,-189,203,1,7,11
1.12E+03,-8152,641,2837,-115,-241,522,1,7,11
1.12E+03,-8148,698,2884,102,-570,578,1,7,11
1.12E+03,-8110,726,2921,36,-633,593,1,7,11
1.11E+03,-8076,739,2705,-291,-424,571,1,7,11
1.09E+03,-8273,755,2724,-365,-448,513,1,7,11
1.06E+03,-8216,750,2744,-210,-443,169,1,7,11
1.03E+03,-7922,731,2768,-578,-408,316,1,7,11
9.99E+02,-7886,702,2791,-427,-621,-44,1,7,11
9.76E+02,-7872,654,2803,-797,-569,113,1,7,11
9.64E+02,-7849,841,2807,-663,-530,33,1,7,11
9.61E+02,-7846,506,3077,-1053,-229,-302,1,7,11
9.65E+02,-7848,429,3102,-944,-192,-364,1,7,11
9.75E+02,-7836,586,3149,-1363,-172,-161,1,7,11
9.89E+02,-7816,210,2947,-1249,-156,-200,1,7,11
1.00E+03,-8046,350,2974,-1594,-380,-215,1,7,11
1.01E+03,-8022,-3,2990,-1626,-321,-202,1,7,11
1.01E+03,-8037,-93,3006,-1593,28,-156,1,7,11
1.00E+03,-8051,109,2994,-1220,124,-311,1,7,11
9.89E+02,-7814,76,2990,-1315,-38,72,1,7,11
9.74E+02,-7850,52,2999,-1119,298,-43,1,7,11
9.65E+02,-7868,41,3010,-883,331,340,1,7,11
9.63E+02,-7865,89,2996,-609,339,179,1,7,11
9.64E+02,-7875,-64,2965,-353,336,242,1,7,11
9.64E+02,-7885,325,3197,98,322,537,1,7,11
9.61E+02,-7912,221,3174,-32,297,564,1,7,11
9.55E+02,-7933,632,3163,280,261,594,1,7,11
9.48E+02,-8201,789,3153,280,-30,638,1,7,11
9.43E+02,-8205,665,3160,-34,-42,425,1,7,11
9.44E+02,-8208,750,3193,117,-40,451,1,7,11
9.48E+02,-7916,1053,2951,15,-34,453,1,7,11
9.53E+02,-7878,1088,3197,-343,262,404,1,7,11
9.55E+02,-7848,1105,3168,-193,343,577,1,7,11
9.53E+02,-7839,1095,3137,-567,197,213,1,7,11
9.49E+02,-7840,1063,3100,-421,565,353,1,7,11
9.44E+02,-7852,763,2784,-772,410,-13,1,7,11
9.42E+02,-7880,703,2726,-859,490,-113,1,7,11
9.45E+02,-7906,880,2922,-680,792,60,1,7,11
9.52E+02,-7929,779,2862,-740,814,-270,1,7,11
9.65E+02,-8235,445,2543,-759,822,-321,1,7,11
9.83E+02,-8262,628,2491,-747,798,-341,1,7,11
1.01E+03,-8287,535,2472,-711,492,-344,1,7,11
1.03E+03,-8302,184,2461,-896,420,-335,1,7,11
1.05E+03,-8074,362,2464,-793,589,-325,1,7,11
1.06E+03,-8320,299,2466,-390,225,-311,1,7,11
1.07E+03,-8296,274,2462,-233,136,-307,1,7,11
1.07E+03,-8292,270,2483,-335,322,-299,1,7,11
1.07E+03,-8280,299,2490,73,267,-271,1,7,11
1.06E+03,-8269,336,2500,-50,-28,20,1,7,11
1.06E+03,-8240,128,2504,326,-50,61,1,7,11
1.05E+03,-8231,189,2517,166,-50,85,1,7,11
1.05E+03,-8217,562,2528,522,-55,103,1,7,11
1.04E+03,-8232,407,2529,540,-68,105,1,7,11
1.04E+03,-8227,494,2528,244,-95,105,1,7,11
1.04E+03,-8210,817,2535,162,-117,98,1,7,11
1.03E+03,-8199,870,2542,310,-118,84,1,7,11
1.03E+03,-8208,662,2537,-57,-90,82,1,7,11
1.03E+03,-8231,715,2525,82,-55,106,1,7,11
1.03E+03,-8281,740,2540,-313,-12,-105,1,7,11
1.02E+03,-8074,741,2838,-178,260,-36,1,7,11
1.02E+03,-8081,737,2855,-525,-20,285,1,7,11
1.01E+03,-8320,719,2845,-609,-49,317,1,7,11
1.00E+03,-8291,701,2830,-437,-65,316,1,7,11
9.90E+02,-8268,686,2556,-779,-61,291,1,7,11
9.81E+02,-8251,663,2535,-867,-36,258,1,7,11
9.76E+02,-8233,882,2515,-688,259,-27,1,7,11
9.75E+02,-8221,824,2489,-760,302,-57,1,7,11
9.79E+02,-8206,493,2461,-1071,341,-95,1,7,11
9.84E+02,-8205,407,2437,-1099,382,114,1,7,11
9.92E+02,-8217,575,2675,-1097,156,69,1,7,11
9.99E+02,-8245,215,2667,-1058,168,28,1,7,11
1.00E+03,-8267,356,2672,-734,150,-260,1,7,11
1.00E+03,-8295,-24,2438,-879,365,-300,1,7,11
9.90E+02,-8286,-121,2435,-446,289,-335,1,7,11
9.72E+02,-8264,83,2669,-248,-25,-379,1,7,11
9.50E+02,-8262,68,2662,-300,-45,-151,1,7,11
9.28E+02,-8266,101,2653,-89,-45,-135,1,7,11
9.10E+02,-8278,-99,2644,368,-40,-327,1,7,11
8.96E+02,-8276,-20,2638,548,-41,25,1,7,11
8.88E+02,-8283,319,2630,450,-42,-124,1,7,11
8.84E+02,-8290,178,2617,849,-53,-12,1,7,11
8.86E+02,-8310,569,2615,693,-66,348,1,7,11
8.90E+02,-8075,459,2594,738,-101,197,1,7,11
8.96E+02,-8069,863,2569,720,98,543,1,7,11
9.00E+02,-8303,734,2300,879,44,605,1,7,11
9.02E+02,-8316,1077,2597,459,15,627,1,7,11
9.01E+02,-8068,1115,2639,524,-295,625,1,7,11
8.97E+02,-8316,1138,2663,347,-367,593,1,7,11
8.89E+02,-8303,900,2446,-76,-173,539,1,7,11
8.78E+02,-8310,1107,2499,10,-218,221,1,7,11
8.68E+02,-8301,1066,2534,-376,-523,163,1,7,11
8.58E+02,-8268,1037,2550,-209,-554,356,1,7,11
8.52E+02,-8237,1018,2548,-521,-542,293,1,7,11
8.51E+02,-8200,732,2550,-567,-235,-15,1,7,11
8.56E+02,-7929,714,2545,-613,-148,-63,1,7,11
8.68E+02,-8195,710,2528,-631,-303,-90,1,7,11
8.87E+02,-8208,720,2492,-390,88,-94,1,7,11
9.10E+02,-8222,713,2461,-426,-106,-88,1,7,11
9.37E+02,-8227,691,2674,-474,-76,-88,1,7,11
9.67E+02,-8225,895,2653,-776,-63,-108,1,7,11
9.99E+02,-8258,829,2645,-793,-57,117,1,7,11
1.03E+03,-8283,507,2656,-772,-70,97,1,7,11
1.06E+03,-8301,421,2684,-477,-112,73,1,7,11
1.09E+03,-8065,568,2488,-405,71,43,1,7,11
1.11E+03,-8075,205,2554,-539,-290,-259,1,7,11
1.12E+03,-8303,143,2847,-371,-159,-315,1,7,11
1.12E+03,-8259,135,2879,61,-249,-378,1,7,11
1.11E+03,-8220,152,2901,-29,-553,-160,1,7,11
1.09E+03,-8197,210,2915,370,-555,-158,1,7,11
1.06E+03,-7922,515,2941,231,-540,-365,1,7,11
1.03E+03,-7884,553,2725,597,-513,-295,1,7,11
1.01E+03,-7866,589,2731,463,-216,32,1,7,11
1.01E+03,-7843,393,2747,840,-167,98,1,7,11
1.01E+03,-7844,494,2735,687,-363,-104,1,7,11
1.02E+03,-7841,867,2701,731,-316,-45,1,7,11
1.02E+03,-7842,728,2929,696,-275,260,1,7,11
1.02E+03,-7854,1066,2901,852,22,302,1,7,11
1.02E+03,-7880,1127,2886,456,63,334,1,7,11
1.02E+03,-7930,932,2906,568,91,367,1,7,11
1.02E+03,-8228,981,2909,179,89,160,1,7,11
1.02E+03,-8257,1002,2915,292,74,209,1,7,11
1.01E+03,-8301,1280,2941,-97,52,250,1,7,11
1.01E+03,-8320,1302,2717,41,0,541,1,7,11
9.95E+02,-8294,1290,2737,-330,-331,546,1,7,11
9.75E+02,-8255,1010,2747,-196,-144,250,1,7,11
9.52E+02,-8209,974,2758,-583,-190,170,1,7,11
9.29E+02,-7918,949,2759,-444,-189,317,1,7,11
9.12E+02,-7882,926,2769,-799,-145,-32,1,7,11
9.02E+02,-7852,904,2761,-873,-317,-89,1,7,11
8.99E+02,-7846,1125,2753,-670,40,-111,1,7,11
9.03E+02,-7835,1060,2739,-706,-123,-121,1,7,11
9.15E+02,-7841,726,2708,-704,-53,111,1,7,11
9.30E+02,-7877,655,2879,-860,303,55,1,7,11
9.45E+02,-7895,872,2860,-814,331,50,1,7,11
9.57E+02,-8193,800,2865,-496,342,53,1,7,11
9.64E+02,-8215,456,2885,-400,307,51,1,7,11
9.68E+02,-8222,620,2899,-255,-2,23,1,7,11
9.71E+02,-8239,540,2924,-340,-58,-288,1,7,11
9.78E+02,-8236,231,2690,112,-125,-351,1,7,11
9.90E+02,-8257,209,2720,314,78,-160,1,7,11
1.01E+03,-8252,228,2728,529,32,-189,1,7,11
1.02E+03,-8241,526,2742,484,-259,-180,1,7,11
1.05E+03,-8213,591,2752,668,-285,-148,1,7,11
1.07E+03,-7922,392,2735,1063,-297,-371,1,7,11
1.09E+03,-7881,460,2712,904,-312,-357,1,7,11
1.10E+03,-7862,811,2935,961,-310,-355,1,7,11
1.09E+03,-7842,669,2887,978,-293,-329,1,7,11
1.06E+03,-7834,1048,2872,951,7,-272,1,7,11
1.02E+03,-7867,920,2879,1145,91,-123,1,7,11
9.79E+02,-7894,935,2914,757,-128,-31,1,7,11
9.45E+02,-7903,916,2709,692,-126,270,1,7,11
9.28E+02,-7905,923,2749,662,115,-5,1,7,11
9.27E+02,-7915,960,2776,890,106,-66,1,7,11
9.38E+02,-8222,991,2812,837,93,120,1,7,11
9.57E+02,-8242,1015,3101,776,49,75,1,7,11
9.79E+02,-8228,1283,3106,446,0,37,1,7,11
1.00E+03,-7936,1019,3093,612,-296,-263,1,7,11
1.03E+03,-7897,998,2815,247,-300,-321,1,7,11
1.05E+03,-7874,984,2780,139,-269,-375,1,7,11
1.07E+03,-7867,1011,2726,288,52,-142,1,7,11
1.08E+03,-7871,1320,2922,-87,-109,-370,1,7,11
1.08E+03,-7900,1347,2869,8,-11,-294,1,7,11
1.07E+03,-7916,1310,2851,-178,311,64,1,7,11
1.05E+03,-7932,989,2828,-579,349,-105,1,7,11
1.02E+03,-8193,943,2551,-408,358,-44,1,7,11
9.92E+02,-7927,907,2519,-455,362,-13,1,7,11
9.67E+02,-8195,1132,2495,-482,371,-2,1,7,11
9.51E+02,-8222,1082,2501,-489,372,256,1,7,11
9.41E+02,-8243,1024,2521,-446,359,-9,1,7,11
9.34E+02,-8285,686,2832,-623,321,-55,1,7,11
9.25E+02,-8308,831,2907,-256,-30,-128,1,7,11
9.11E+02,-8304,450,2727,-373,88,5,1,7,11
8.97E+02,-8254,609,2755,58,-317,-158,1,7,11
8.87E+02,-7918,554,2757,-13,-156,-605,1,7,11
8.86E+02,-7884,554,2756,154,-178,-782,1,7,11
8.92E+02,-7854,586,2737,557,-156,-879,1,7,11
9.05E+02,-7834,609,2711,415,-360,-895,1,7,11
9.22E+02,-7818,604,2943,779,-287,-845,1,7,11
9.42E+02,-7820,604,2912,649,50,-770,1,7,11
9.61E+02,-7838,637,2881,1040,120,-427,1,7,11
9.77E+02,-7866,445,2838,1151,-92,-593,1,7,11
9.87E+02,-7919,806,2557,974,-76,-229,1,7,11
9.92E+02,-8236,662,2558,996,-107,-356,1,7,11
9.89E+02,-8253,756,2817,981,52,44,1,7,11
9.79E+02,-8236,1096,2832,942,-320,-97,1,7,11
9.62E+02,-8217,929,2857,1142,-168,-19,1,7,11
9.46E+02,-8211,1003,2905,1065,-236,284,1,7,11
9.36E+02,-8234,1322,2714,728,-532,320,1,7,11
9.38E+02,-8248,1382,2795,650,-564,348,1,7,11
9.53E+02,-8226,1167,3137,810,-575,342,1,7,11
9.76E+02,-8225,1192,3193,467,-562,311,1,7,11
1.00E+03,-7914,1218,2952,400,-561,264,1,7,11
1.03E+03,-7838,1236,2963,564,-524,108,1,7,11
1.05E+03,-8028,1207,2947,179,-180,-271,1,7,11
1.08E+03,-8013,1185,3162,288,-340,-149,1,7,11
1.09E+03,-8016,1158,3089,-128,-231,-251,1,7,11
1.10E+03,-8052,1376,2770,-315,-105,-571,1,7,11
1.10E+03,-7860,1335,2714,-256,-1,-575,1,7,11
1.09E+03,-8194,980,2916,-550,316,-524,1,7,11
1.07E+03,-8241,941,2908,-713,322,-178,1,7,11
1.05E+03,-8254,1116,2885,-1080,292,-339,1,7,11
1.03E+03,-8261,761,2886,-1141,-1,-258,1,7,11
1.00E+03,-8276,650,2937,-1149,-53,54,1,7,11
9.76E+02,-8280,792,2754,-1093,117,72,1,7,11
9.54E+02,-8276,387,3113,-725,4,33,1,7,11
9.37E+02,-8224,238,2958,-820,-138,-320,1,7,11
9.23E+02,-7883,353,3027,-622,-520,-222,1,7,11
9.14E+02,-8009,282,3038,-132,-587,-424,1,7,11
9.09E+02,-7672,260,3042,61,-546,-890,1,7,11
9.06E+02,-7637,-20,3037,-55,-200,-1034,1,7,11
9.03E+02,-7634,-15,2988,341,-345,-1095,1,7,11
8.97E+02,-7676,290,3161,215,43,-1058,1,7,11
8.87E+02,-7988,378,3074,579,-80,-655,1,7,11
8.74E+02,-8054,219,2745,637,306,-431,1,7,11
8.58E+02,-7867,603,2936,413,142,-147,1,7,11
8.44E+02,-8195,483,2915,433,200,-104,1,7,11
8.32E+02,-8225,681,2895,484,193,198,1,7,11
8.29E+02,-8257,1102,2904,490,142,454,1,7,11
8.40E+02,-8268,974,2932,468,301,648,1,7,11
8.65E+02,-8307,1320,2755,411,-68,737,1,7,11
9.01E+02,-8308,1387,3076,607,36,741,1,7,11
9.39E+02,-8276,1185,3126,522,-366,647,1,7,11
9.75E+02,-8238,1240,3165,142,-204,487,1,7,11
1.00E+03,-8235,1543,2989,-18,-254,578,1,7,11
1.02E+03,-7918,1581,3041,75,-551,204,1,7,11
1.04E+03,-7827,1575,3335,-368,-551,348,1,7,11
1.05E+03,-7999,1542,3342,-547,-226,-14,1,7,11
1.06E+03,-7678,1268,3055,-453,-348,-109,1,7,11
1.06E+03,-7649,1268,2993,-884,95,68,1,7,11
1.07E+03,-7672,1277,3172,-1079,317,28,1,7,11
1.06E+03,-7984,1270,3090,-1295,517,52,1,7,11
1.06E+03,-8028,1210,2743,-1265,405,111,1,7,11
1.05E+03,-7834,1371,2923,-1477,498,-89,1,7,11
1.04E+03,-7883,1019,2856,-1895,787,-50,1,7,11
1.04E+03,-8199,925,2548,-1757,785,-32,1,7,11
1.03E+03,-8236,1104,2517,-2070,496,-10,1,7,11
1.03E+03,-8275,765,2496,-2076,441,271,1,7,11
1.04E+03,-8293,675,2499,-1776,624,297,1,7,11
1.04E+03,-8299,853,2517,-1667,534,309,1,7,11
1.04E+03,-8294,506,2552,-1509,179,290,1,7,11
1.03E+03,-8277,408,2864,-1562,329,-17,1,7,11
1.02E+03,-8251,573,2895,-1321,-27,-93,1,7,11
1.01E+03,-8209,236,2917,-1071,-107,64,1,7,11
1.00E+03,-7924,156,2937,-833,106,-306,1,7,11
9.96E+02,-7917,339,2688,-580,95,-150,1,7,11
9.91E+02,-7933,311,2697,-306,105,-207,1,7,11
9.87E+02,-8210,308,2716,-29,116,-202,1,7,11
9.83E+02,-8229,306,2747,250,122,-141,1,7,11
9.78E+02,-8226,326,2762,801,105,-296,1,7,11
9.74E+02,-8189,382,2764,1095,89,57,1,7,11
9.70E+02,-7900,233,2739,1260,101,-88,1,7,11
9.67E+02,-7885,626,2730,1485,-119,-31,1,7,11
9.64E+02,-7898,774,2714,1905,-80,285,1,7,11
9.59E+02,-7900,646,2710,1740,-73,352,1,7,11
9.49E+02,-7876,743,2690,1772,-96,136,1,7,11
9.33E+02,-7851,1087,2929,1759,-117,136,1,7,11
9.11E+02,-7845,900,2922,1690,121,356,1,7,11
8.89E+02,-7844,957,2907,1841,105,312,1,7,11
8.72E+02,-7855,1020,2873,1456,94,280,1,7,11
8.63E+02,-7883,1347,2837,1553,104,285,1,7,11
8.61E+02,-7915,1155,2825,1351,111,324,1,7,11
8.62E+02,-8220,1211,2848,1130,112,382,1,7,11
8.65E+02,-8252,1277,2891,678,69,221,1,7,11
8.70E+02,-8244,1616,2910,504,4,584,1,7,11
8.82E+02,-8228,1452,2907,585,-305,425,1,7,11
9.05E+02,-8220,1793,2925,135,-327,501,1,7,11
9.39E+02,-8243,1869,2727,-74,-339,805,1,7,11
9.78E+02,-8215,1912,2768,-263,-132,831,1,7,11
1.01E+03,-7892,1666,2798,-184,-183,793,1,7,11
1.03E+03,-7811,1833,3105,-637,-221,429,1,7,11
1.04E+03,-7982,1430,3160,-786,-245,513,1,7,11
1.02E+03,-7643,1264,3188,-865,-226,290,1,7,11
1.00E+03,-7624,1335,2948,-887,-151,65,1,7,11
9.76E+02,-7636,917,3198,-829,-307,-355,1,7,11
9.56E+02,-7675,1045,3166,-459,61,-191,1,7,11
9.43E+02,-7985,680,3141,-571,-93,-208,1,7,11
9.37E+02,-8031,814,3139,-146,-32,-162,1,7,11
9.39E+02,-8064,458,3122,52,-11,-350,1,7,11
9.47E+02,-7820,417,2808,278,-20,-261,1,7,11
9.57E+02,-7852,414,2752,225,-13,95,1,7,11
9.64E+02,-7878,420,2697,394,-15,-12,1,7,11
9.62E+02,-7908,471,2918,789,-7,169,1,7,11
9.50E+02,-7927,785,2896,649,-5,388,1,7,11
9.31E+02,-8204,832,2896,1027,-8,868,1,7,11
9.09E+02,-8194,659,2891,922,-33,1076,1,7,11
8.86E+02,-7916,1030,2863,1332,-57,974,1,7,11
8.65E+02,-7906,958,2817,1252,-60,1342,1,7,11
8.45E+02,-7897,1583,2468,1662,-38,1216,1,7,11
8.27E+02,-7892,1449,2443,1500,-31,1254,1,7,11
8.13E+02,-7874,1668,2670,1794,-28,1568,1,7,11
8.05E+02,-7835,2129,2636,1535,-38,1576,1,7,11
8.06E+02,-8047,2046,2630,1474,-49,1261,1,7,11
8.15E+02,-8015,2195,2650,1616,-55,1391,1,7,11
8.30E+02,-8034,2297,2469,1194,-69,963,1,7,11
8.46E+02,-8062,2611,2840,1023,114,1044,1,7,11
8.60E+02,-7824,2649,2695,1126,-265,860,1,7,11
8.70E+02,-7814,2438,2766,744,-166,442,1,7,11
8.79E+02,-8014,2474,2808,844,-569,547,1,7,11
8.87E+02,-7945,2482,3081,629,-422,148,1,7,11
8.94E+02,-7569,2493,2812,367,-477,268,1,7,11
8.97E+02,-7750,2498,2791,73,-432,-120,1,7,11
8.94E+02,-7704,2513,2745,-208,-560,70,1,7,11
8.83E+02,-7728,2558,2692,-453,-355,77,1,7,11
8.66E+02,-7566,2826,2921,-684,122,-100,1,7,11
8.49E+02,-7660,2526,2869,-1109,291,276,1,7,11
8.36E+02,-7993,2476,2858,-998,374,350,1,7,11
8.30E+02,-8017,2599,2847,-1380,355,312,1,7,11
8.31E+02,-8042,2200,2825,-1209,298,-125,1,7,11
8.40E+02,-8027,2016,2545,-1244,-57,-247,1,7,11
8.56E+02,-8037,2171,2538,-1250,89,-498,1,7,11
8.77E+02,-7827,2116,2551,-1192,59,-886,1,7,11
8.99E+02,-7858,2059,2850,-1370,21,-643,1,7,11
9.21E+02,-7816,1720,2899,-1022,-310,-838,1,7,11
9.40E+02,-8011,1861,2694,-932,-369,-790,1,7,11
9.53E+02,-7944,1504,2740,-1079,-163,-769,1,7,11
9.60E+02,-7647,1426,2776,-721,-181,-780,1,7,11
9.59E+02,-7650,1653,2789,-892,-170,-789,1,7,11
9.51E+02,-7971,1656,3072,-858,-131,-496,1,7,11
9.45E+02,-8051,1660,3129,-875,-370,-391,1,7,11
9.46E+02,-7823,1640,3191,-665,-136,-238,1,7,11
9.62E+02,-7816,1587,2987,-722,-165,-342,1,7,11
9.88E+02,-8038,1564,3013,-750,-189,39,1,7,11
1.02E+03,-7968,1572,3010,-765,-189,125,1,7,11
1.04E+03,-7664,1609,3002,-1035,-384,-69,1,7,11
1.06E+03,-7663,1658,2977,-1035,-283,278,1,7,11
1.06E+03,-7676,1486,3188,-763,103,170,1,7,11
1.05E+03,-7994,1535,2944,-1030,-12,607,1,7,11
1.04E+03,-8011,1823,2980,-748,329,821,1,7,11
1.03E+03,-7978,1882,3005,-692,356,734,1,7,11
1.02E+03,-7662,1701,3029,-890,365,1084,1,7,11
1.01E+03,-7626,1765,3061,-864,364,1102,1,7,11
1.00E+03,-7576,2068,3367,-869,339,1061,1,7,11
1.00E+03,-7761,2110,3399,-886,320,720,1,7,11
1.01E+03,-7423,2133,3416,-679,337,855,1,7,11
1.02E+03,-7378,2123,3445,-1036,164,440,1,7,11
1.03E+03,-7320,2103,3442,-1150,519,528,1,7,11
1.03E+03,-7309,2139,3406,-1009,425,360,1,7,11
1.04E+03,-7389,1955,3349,-1405,872,262,1,7,11
1.03E+03,-7730,2046,2992,-1580,1035,264,1,7,11
1.03E+03,-7601,2372,3175,-1823,936,324,1,7,11
1.01E+03,-7960,2387,3121,-2079,1023,177,1,7,11
9.96E+02,-8014,2365,2794,-2039,1305,527,1,7,11
9.75E+02,-7812,2320,2726,-2209,1302,568,1,7,11
9.52E+02,-7886,2005,2925,-2595,1015,557,1,7,11
9.26E+02,-8217,2131,2902,-2686,1096,202,1,7,11
9.02E+02,-8197,1768,2876,-2457,644,346,1,7,11
8.83E+02,-7853,1901,2834,-2622,454,-48,1,7,11
8.76E+02,-8003,1526,2535,-2220,595,47,1,7,11
8.84E+02,-8004,1410,2539,-2031,597,-373,1,7,11
8.99E+02,-8053,1568,2551,-1774,630,-215,1,7,11
9.11E+02,-7809,1175,2818,-1506,629,-521,1,7,11
9.09E+02,-7831,1008,2824,-1240,632,-578,1,7,11
8.88E+02,-7894,1139,2559,-929,619,-622,1,7,11
8.56E+02,-8195,1110,2505,-868,570,-636,1,7,11
8.21E+02,-8266,1137,2438,-592,250,-590,1,7,11
7.91E+02,-8320,909,2646,-378,155,-192,1,7,11
7.68E+02,-8087,947,2619,56,296,7,1,7,11
7.53E+02,-8091,1002,2611,-32,-97,-21,1,7,11
7.46E+02,-8080,1318,2638,133,13,183,1,7,11
7.47E+02,-8297,1177,2675,585,-154,613,1,7,11
7.56E+02,-8236,1583,2466,778,-556,499,1,7,11
7.72E+02,-7934,1522,2517,694,-415,866,1,7,11
7.93E+02,-7839,1734,2819,1078,-779,700,1,7,11
8.18E+02,-7987,1926,2872,1133,-846,726,1,7,11
8.46E+02,-7589,2345,2922,1125,-879,698,1,7,11
8.75E+02,-7685,2204,2943,1035,-836,853,1,7,11
9.04E+02,-7723,2247,3088,827,-402,411,1,7,11
9.33E+02,-7573,2201,3046,607,-554,517,1,7,11
9.59E+02,-7630,2405,3207,215,-550,140,1,7,11
9.84E+02,-7603,2345,3294,336,-588,278,1,7,11
1.01E+03,-7767,1982,3619,-111,-589,-117,1,7,11
1.03E+03,-7420,2144,3662,-314,-519,-276,1,7,11
1.05E+03,-7381,2117,3658,-240,-359,-163,1,7,11
1.07E+03,-7376,2156,3607,-419,-127,-209,1,7,11
1.09E+03,-7392,1961,3276,-881,172,-152,1,7,11
1.11E+03,-7694,2026,3433,-1097,505,4,1,7,11
1.12E+03,-7736,2341,2958,-1192,970,319,1,7,11
1.12E+03,-7763,2349,2807,-1431,1248,220,1,7,11
1.12E+03,-7598,2340,2930,-1675,1485,561,1,7,11
1.11E+03,-7980,2038,2827,-2161,1868,602,1,7,11
1.10E+03,-8056,1949,2464,-2364,1875,584,1,7,11
1.10E+03,-7870,2105,2629,-2265,1819,248,1,7,11
1.09E+03,-7907,1751,2272,-2609,1464,149,1,7,11
1.09E+03,-7933,1665,2194,-2667,1611,288,1,7,11
1.08E+03,-8198,1800,2384,-2682,1232,-60,1,7,11
1.06E+03,-8205,1424,2331,-2614,1387,-118,1,7,11
1.04E+03,-8241,1558,2307,-2224,1296,121,1,7,11
1.02E+03,-8274,1201,2020,-1999,938,-118,1,7,11
1.00E+03,-8299,1368,2008,-1723,1071,-83,1,7,11
9.94E+02,-8310,1295,1990,-1655,676,-39,1,7,11
9.97E+02,-8314,1008,1977,-1300,791,257,1,7,11
1.01E+03,-8102,1023,1975,-672,396,292,1,7,11
1.02E+03,-8118,1351,1957,-554,239,350,1,7,11
1.03E+03,-8128,1206,1958,32,334,167,1,7,11
1.02E+03,-8129,1622,2035,288,-96,247,1,7,11
1.01E+03,-8096,1445,2362,236,-300,567,1,7,11
9.98E+02,-8318,1513,2195,423,-526,596,1,7,11
9.83E+02,-8301,1853,2302,852,-487,581,1,7,11
9.71E+02,-8252,1726,2645,1045,-704,570,1,7,11
9.62E+02,-7902,1922,2452,986,-1147,573,1,7,11
9.55E+02,-8015,2375,2485,1375,-1015,593,1,7,11
9.51E+02,-7577,2562,2534,1164,-1316,590,1,7,11
9.46E+02,-7557,2616,2726,1315,-1110,521,1,7,11
9.39E+02,-7558,2577,3170,1140,-733,215,1,7,11
9.26E+02,-7741,2281,2998,722,-661,378,1,7,11
9.04E+02,-7708,2211,3336,813,-801,-57,1,7,11
8.76E+02,-7728,2415,3404,635,-413,20,1,7,11
8.51E+02,-7714,2414,3408,209,-563,-352,1,7,11
8.36E+02,-7696,2419,3388,-14,-172,-131,1,7,11
8.37E+02,-7707,2410,3388,0,7,-340,1,7,11
8.49E+02,-7725,2431,3371,-217,-42,36,1,7,11
8.66E+02,-7722,2195,3060,-419,173,-62,1,7,11
8.81E+02,-7711,2218,2982,-879,407,344,1,7,11
8.95E+02,-7704,2251,3123,-1072,642,212,1,7,11
9.07E+02,-7740,2272,2749,-1015,1131,538,1,7,11
9.19E+02,-7571,2298,2862,-1198,1327,570,1,7,11
9.32E+02,-7662,2272,2464,-1635,1191,568,1,7,11
9.46E+02,-7995,2194,2586,-1529,1241,519,1,7,11
9.62E+02,-7817,2388,2195,-1858,1247,169,1,7,11
9.80E+02,-7865,2341,2320,-1883,1212,313,1,7,11
9.99E+02,-7935,2021,1988,-1888,1406,-74,1,7,11
1.02E+03,-8227,1942,1941,-1838,1295,75,1,7,11
1.03E+03,-8255,2118,2165,-1461,914,-266,1,7,11
1.04E+03,-8291,1773,1925,-1562,1037,-329,1,7,11
1.04E+03,-8302,1705,1941,-1354,870,-370,1,7,11
1.03E+03,-8284,1910,1972,-1136,445,-176,1,7,11
1.02E+03,-8298,1892,2041,-667,538,-231,1,7,11
1.01E+03,-8276,1907,2368,-459,339,-255,1,7,11
1.01E+03,-8224,1679,2426,-519,-123,-518,1,7,11
1.01E+03,-7881,1737,2180,-317,-315,-229,1,7,11
1.02E+03,-8042,2061,2426,110,-176,-188,1,7,11
1.02E+03,-8012,2108,2206,-31,-194,-136,1,7,11
1.01E+03,-8039,2106,2277,303,-180,-330,1,7,11
9.90E+02,-8059,2083,2622,380,-183,-278,1,7,11
9.71E+02,-7869,1678,2823,178,-188,-266,1,7,11
9.51E+02,-7830,1825,2917,521,-235,-317,1,7,11
9.32E+02,-8018,1471,2702,594,-528,-188,1,7,11
9.15E+02,-7985,1662,2733,626,-236,-609,1,7,11
8.98E+02,-7992,1410,2758,612,-143,-480,1,7,11
8.81E+02,-8010,1522,2744,622,-278,-490,1,7,11
8.64E+02,-8012,1906,2688,620,115,-622,1,7,11
8.48E+02,-7978,1774,2871,556,358,-165,1,7,11
8.33E+02,-7660,2153,2521,373,563,46,1,7,11
8.20E+02,-7606,2037,2436,209,795,-36,1,7,11
8.10E+02,-7617,2417,2607,7,767,334,1,7,11
8.04E+02,-7646,2274,2259,-219,949,146,1,7,11
8.01E+02,-7954,2600,2413,-461,1338,178,1,7,11
8.04E+02,-7995,2644,2328,-695,1167,164,1,7,11
8.12E+02,-8025,2604,2026,-925,1217,342,1,7,11
8.25E+02,-8059,2256,1994,-1093,1226,-37,1,7,11
8.42E+02,-8062,2391,1960,-1196,1184,66,1,7,11
8.63E+02,-7829,2022,1931,-1222,1392,-356,1,7,11
8.86E+02,-7845,1946,2128,-1175,1328,-234,1,7,11
9.11E+02,-7871,2118,2079,-1370,1016,-594,1,7,11
9.36E+02,-7898,2056,1768,-1017,962,-386,1,7,11
9.60E+02,-8195,1762,1739,-906,912,-393,1,7,11
9.84E+02,-8202,1740,1689,-765,1088,-613,1,7,11
1.01E+03,-8245,1695,1917,-894,1029,-567,1,7,11
1.02E+03,-8280,1866,1673,-786,688,-253,1,7,11
1.03E+03,-8082,1467,1697,-422,843,-225,1,7,11
1.04E+03,-8094,1611,1680,-602,432,-212,1,7,11
1.03E+03,-8067,1538,1671,-134,553,-248,1,7,11
1.01E+03,-8111,1200,1678,-314,216,-547,1,7,11
9.97E+02,-8124,1386,1916,-255,134,-541,1,7,11
9.83E+02,-8136,1314,1919,21,342,-517,1,7,11
9.73E+02,-8138,1285,1678,47,316,-211,1,7,11
9.66E+02,-8131,1325,1694,119,308,-378,1,7,11
9.63E+02,-8111,1195,1905,-8,321,34,1,7,11
9.62E+02,-8097,1615,1851,327,367,-24,1,7,11
9.62E+02,-8095,1478,1844,341,186,165,1,7,11
9.62E+02,-8100,1847,1868,350,245,560,1,7,11
9.59E+02,-8071,1704,1887,372,252,616,1,7,11
9.52E+02,-8285,2073,1879,137,234,582,1,7,11
9.40E+02,-8247,1920,1861,133,212,227,1,7,11
9.26E+02,-8210,1972,1863,340,190,339,1,7,11
9.10E+02,-7922,1972,1859,303,145,-71,1,7,11
8.93E+02,-7856,1955,1800,293,343,33,1,7,11
8.77E+02,-8062,1924,1472,275,311,-372,1,7,11
8.62E+02,-7814,2127,1435,-27,319,-245,1,7,11
8.50E+02,-7869,2055,1466,-78,322,-571,1,7,11
8.39E+02,-7907,1724,1483,-84,274,-565,1,7,11
8.28E+02,-7900,1854,1482,-90,-30,-528,1,7,11
8.15E+02,-7910,1812,1533,-109,-34,-234,1,7,11
7.98E+02,-8230,1450,1859,120,-19,-194,1,7,11
7.80E+02,-8288,1624,1912,-118,-29,-380,1,7,11
7.64E+02,-8092,1558,1707,-108,-39,-316,1,7,11
7.50E+02,-8137,1236,1754,-107,-55,-261,1,7,11
7.40E+02,-8165,1170,1730,-116,-83,25,1,7,11
7.38E+02,-8091,1389,1688,118,-113,22,1,7,11
7.43E+02,-8313,1185,1909,58,-63,-288,1,7,11
7.56E+02,-8286,1277,1826,34,293,9,1,7,11
7.77E+02,-8305,1611,1494,-264,381,107,1,7,11
8.04E+02,-8077,1412,1439,-335,202,-1,1,7,11
8.28E+02,-8091,1477,1650,-329,513,150,1,7,11
8.41E+02,-8100,1827,1621,-280,543,526,1,7,11
8.38E+02,-8319,1714,1573,43,548,605,1,7,11
8.24E+02,-8312,2130,1543,84,562,634,1,7,11
8.12E+02,-8313,2033,1265,104,553,392,1,7,11
8.12E+02,-8074,2409,1546,88,528,631,1,7,11
8.23E+02,-8066,2223,1584,87,195,595,1,7,11
8.42E+02,-8255,2249,1616,94,340,512,1,7,11
8.61E+02,-7920,2220,1640,100,-15,368,1,7,11
8.77E+02,-7881,2409,1428,110,-93,-76,1,7,11
8.90E+02,-7844,2354,1438,-105,92,-270,1,7,11
8.97E+02,-7833,2037,1454,-90,57,-212,1,7,11
9.00E+02,-7836,1956,1464,-85,44,-628,1,7,11
8.99E+02,-7820,1926,1426,-53,52,-486,1,7,11
8.98E+02,-8037,1922,1620,-52,103,-824,1,7,11
8.98E+02,-8061,2151,1585,-99,-38,-879,1,7,11
9.02E+02,-7889,2105,1591,120,328,-873,1,7,11
9.10E+02,-8219,1775,1590,90,141,-828,1,7,11
9.18E+02,-8257,1919,1599,65,169,-780,1,7,11
9.25E+02,-8272,1527,1618,39,177,-783,1,7,11
9.30E+02,-8084,1648,1633,25,199,-835,1,7,11
9.32E+02,-8165,1259,1653,-257,190,-883,1,7,11
9.31E+02,-8485,1394,1413,-298,157,-677,1,7,11
9.26E+02,-8504,1335,1444,-331,367,-707,1,7,11
9.17E+02,-8474,1369,1414,-319,320,-688,1,7,11
9.04E+02,-8168,1199,1617,-336,322,-862,1,7,11
8.86E+02,-8085,1583,1592,-543,208,-566,1,7,11
8.68E+02,-8283,1614,1588,-630,576,-178,1,7,11
8.52E+02,-8253,1442,1575,-429,457,-339,1,7,11
8.40E+02,-8208,1802,1538,-475,840,-270,1,7,11
8.33E+02,-7925,1876,1257,-815,717,3,1,7,11
8.33E+02,-7910,1669,1241,-653,1099,-288,1,7,11
8.39E+02,-7921,1696,1227,-730,954,-130,1,7,11
8.47E+02,-8200,1695,1174,-1030,1294,-514,1,7,11
8.53E+02,-8210,1669,1353,-1058,1343,-636,1,7,11
8.59E+02,-8222,1867,1283,-1104,1391,-817,1,7,11
8.64E+02,-8248,1793,944,-920,1405,-656,1,7,11
8.69E+02,-8279,1452,1125,-956,1397,-730,1,7,11
8.74E+02,-8071,1617,1078,-990,1368,-1039,1,7,11
8.79E+02,-8164,1235,1078,-1009,1304,-1062,1,7,11
8.85E+02,-8186,1405,1029,-932,909,-1027,1,7,11
8.90E+02,-8463,1347,729,-1094,1040,-732,1,7,11
8.91E+02,-8466,1289,701,-751,668,-682,1,7,11
8.89E+02,-8512,984,712,-669,832,-896,1,7,11
8.84E+02,-8321,977,726,-804,470,-827,1,7,11
8.80E+02,-8335,994,720,-426,599,-469,1,7,11
8.82E+02,-8346,984,743,-594,236,-631,1,7,11
8.90E+02,-8350,933,765,-536,153,-559,1,7,11
9.05E+02,-8342,1104,1074,-237,325,-541,1,7,11
9.25E+02,-8330,1057,1104,-177,265,-584,1,7,11
9.49E+02,-8364,763,1142,-154,-11,-398,1,7,11
9.75E+02,-8350,1027,919,-138,-53,-441,1,7,11
9.98E+02,-8545,1074,898,-135,-55,-444,1,7,11
1.01E+03,-8501,1117,1126,-178,256,-407,1,7,11
1.02E+03,-8172,1130,1081,-516,340,-608,1,7,11
1.01E+03,-8315,896,1028,-591,201,-569,1,7,11
1.00E+03,-8254,942,724,-404,627,-567,1,7,11
9.90E+02,-8241,979,672,-459,796,-545,1,7,11
9.89E+02,-8275,988,892,-503,682,-527,1,7,11
9.95E+02,-8089,987,867,-502,1030,-248,1,7,11
9.96E+02,-8155,973,852,-451,1055,-238,1,7,11
9.76E+02,-8191,957,814,-608,755,-523,1,7,11
9.25E+02,-8180,925,507,-525,670,-602,1,7,11
8.53E+02,-8153,1104,454,-227,833,-488,1,7,11
7.94E+02,-8097,726,417,-202,479,-690,1,7,11
7.82E+02,-8110,857,420,-165,413,-932,1,7,11
8.22E+02,-8132,511,625,-330,604,-1379,1,7,11
8.90E+02,-8147,472,559,32,576,-1223,1,7,11
9.57E+02,-8171,458,244,109,573,-1212,1,7,11
9.95E+02,-8183,453,191,-84,592,-1365,1,7,11
9.98E+02,-8477,460,149,-20,622,-937,1,7,11
9.79E+02,-8533,489,144,303,638,-722,1,7,11
9.52E+02,-8529,809,372,142,598,-475,1,7,11
9.30E+02,-8518,884,358,193,571,-517,1,7,11
9.15E+02,-8510,660,136,205,545,-325,1,7,11
9.06E+02,-8487,650,188,201,514,63,1,7,11
9.00E+02,-8482,862,232,214,229,121,1,7,11
8.93E+02,-8466,815,521,230,214,111,1,7,11
8.82E+02,-8498,498,605,229,241,22,1,7,11
8.66E+02,-8380,417,403,232,520,-146,1,7,11
8.39E+02,-8444,627,457,218,237,-530,1,7,11
8.07E+02,-8423,586,483,179,177,-392,1,7,11
7.77E+02,-8356,568,477,364,130,-779,1,7,11
7.56E+02,-8502,613,415,289,380,-880,1,7,11
7.44E+02,-8173,402,603,-101,199,-689,1,7,11
7.41E+02,-8150,423,559,-316,578,-685,1,7,11
7.42E+02,-8144,440,513,-540,451,-871,1,7,11
7.47E+02,-8117,454,213,-816,818,-493,1,7,11
7.51E+02,-8086,452,170,-686,669,-616,1,7,11
7.52E+02,-8085,418,381,-760,1034,-243,1,7,11
7.52E+02,-8117,393,316,-755,1105,-151,1,7,11
7.57E+02,-8179,625,-2,-706,1141,-361,1,7,11
7.69E+02,-8516,591,-29,-880,1121,-343,1,7,11
7.88E+02,-8524,554,-71,-501,746,-335,1,7,11
8.10E+02,-8506,521,123,-636,866,-373,1,7,11
8.32E+02,-8484,231,51,-541,478,-167,1,7,11
8.51E+02,-8496,187,5,-228,624,-229,1,7,11
8.69E+02,-8493,178,-312,-150,518,-513,1,7,11
8.86E+02,-8486,173,-132,-345,181,-253,1,7,11
9.03E+02,-8476,180,-212,-283,381,-215,1,7,11
9.20E+02,-8522,182,-250,19,359,-158,1,7,11
9.38E+02,-8352,192,-246,76,326,-326,1,7,11
9.53E+02,-8420,208,-216,-87,-30,51,1,7,11
9.64E+02,-8705,231,-157,286,79,-94,1,7,11
9.71E+02,-8713,255,-339,164,-346,-4,1,7,11
9.74E+02,-8411,534,3,562,-525,305,1,7,11
9.74E+02,-8567,551,85,426,-414,291,1,7,11
9.73E+02,-8469,560,-87,785,-502,-43,1,7,11
9.72E+02,-8104,547,-13,860,-791,80,1,7,11
9.68E+02,-8285,244,347,893,-491,-381,1,7,11
9.61E+02,-8318,187,137,893,-640,-624,1,7,11
9.46E+02,-8084,157,166,887,-549,-844,1,7,11
9.23E+02,-8191,364,252,809,-166,-1047,1,7,11
8.99E+02,-8557,271,567,429,-331,-926,1,7,11
8.78E+02,-8357,-99,601,554,-290,-1010,1,7,11
8.66E+02,-8554,60,562,184,-288,-1337,1,7,11
8.61E+02,-8188,16,250,326,16,-1163,1,7,11
8.59E+02,-8150,4,195,-70,-24,-1233,1,7,11
8.54E+02,-8147,14,133,30,135,-1408,1,7,11
8.44E+02,-8135,26,327,-206,548,-992,1,7,11
8.32E+02,-8133,39,264,-592,458,-1032,1,7,11
8.24E+02,-8148,58,-40,-437,865,-807,1,7,11
8.21E+02,-8139,87,-96,-499,720,-593,1,7,11
8.18E+02,-8108,112,73,-796,1063,-151,1,7,11
8.09E+02,-8119,122,24,-829,1150,-299,1,7,11
7.88E+02,-8170,-126,-285,-824,933,17,1,7,11
7.61E+02,-8454,121,-333,-804,905,28,1,7,11
7.43E+02,-8462,88,-376,-774,1074,-265,1,7,11
7.45E+02,-8178,58,-173,-470,714,-342,1,7,11
7.67E+02,-8176,6,-192,-433,874,-198,1,7,11
8.03E+02,-8463,-334,-188,-397,507,-565,1,7,11
8.44E+02,-8464,-200,-252,-229,514,-429,1,7,11
8.82E+02,-8126,-228,-577,-137,157,-445,1,7,11
9.10E+02,-8319,-239,-392,-324,132,-462,1,7,11
9.27E+02,-8260,-198,-489,16,152,-446,1,7,11
9.35E+02,-8287,-139,-786,66,238,-423,1,7,11
9.35E+02,-8170,-353,-503,-128,572,-586,1,7,11
9.31E+02,-8545,-279,-493,272,573,-147,1,7,11
9.26E+02,-8381,33,-468,150,523,63,1,7,11
9.26E+02,-8407,45,-443,535,158,258,1,7,11
9.35E+02,-8376,16,-422,608,275,345,1,7,11
9.50E+02,-8574,5,-422,387,-127,273,1,7,11
9.66E+02,-8557,18,-425,623,9,79,1,7,11
9.80E+02,-8340,1,-387,516,-342,-169,1,7,11
9.86E+02,-8411,-308,-571,374,-180,-398,1,7,11
9.85E+02,-8707,-374,-241,-13,-538,-830,1,7,11
9.78E+02,-8435,-183,-185,-105,-637,-705,1,7,11
9.69E+02,-8351,-223,-382,88,-446,-1066,1,7,11
9.59E+02,-8522,-534,-349,9,-442,-1151,1,7,11
9.50E+02,-8190,-574,-275,-292,-639,-925,1,7,11
9.42E+02,-8129,-586,42,-305,-536,-1133,1,7,11
9.38E+02,-8094,-603,96,-317,-145,-1029,1,7,11
9.38E+02,-8296,-613,-119,-312,-264,-883,1,7,11
9.38E+02,-8229,-624,-103,-313,127,-495,1,7,11
9.37E+02,-7901,-614,121,-303,279,-393,1,7,11
9.30E+02,-7865,-577,70,-304,200,-583,1,7,11
9.18E+02,-7844,-534,-276,-323,632,-525,1,7,11
8.98E+02,-8218,-247,-233,-175,696,-191,1,7,11
8.69E+02,-8284,-225,-601,-199,767,-145,1,7,11
8.33E+02,-8314,-179,-472,-187,1048,-352,1,7,11
7.96E+02,-8136,-157,-531,-213,1081,-315,1,7,11
7.65E+02,-8491,-205,-818,-514,1062,-268,1,7,11
7.48E+02,-8557,-256,-890,-239,722,26,1,7,11
7.42E+02,-8548,-528,-714,-171,852,28,1,7,11
7.44E+02,-8338,-590,-691,-156,494,-323,1,7,11
7.51E+02,-8428,-438,-887,-382,609,-215,1,7,11
7.59E+02,-8414,-789,-880,-260,354,-636,1,7,11
7.68E+02,-8359,-830,-841,-106,112,-862,1,7,11
7.75E+02,-8326,-844,-826,331,-356,-1088,1,7,11
7.77E+02,-8510,-859,-793,514,-533,-1021,1,7,11
7.70E+02,-8480,-881,-495,393,-394,-1193,1,7,11
7.53E+02,-8126,-648,-500,511,-510,-1561,1,7,11
7.31E+02,-8275,-694,-495,830,-811,-1417,1,7,11
7.16E+02,-8254,-1043,-436,802,-772,-1528,1,7,11
7.15E+02,-8292,-901,-620,465,-461,-1906,1,7,11
7.32E+02,-8316,-995,-572,398,-403,-1670,1,7,11
7.68E+02,-8307,-1329,-552,580,-586,-1893,1,7,11
8.21E+02,-8309,-1404,-535,247,-236,-1818,1,7,11
8.83E+02,-8088,-1223,-231,145,-370,-1445,1,7,11
9.41E+02,-8095,-1266,-163,330,-278,-1267,1,7,11
9.84E+02,-8069,-1556,-373,275,67,-1311,1,7,11
1.00E+03,-8296,-1594,-333,-19,-90,-1076,1,7,11
1.00E+03,-8305,-1623,-287,-46,291,-851,1,7,11
9.86E+02,-8290,-1619,-259,-50,129,-632,1,7,11
9.65E+02,-8240,-1573,-265,-50,206,-200,1,7,11
9.44E+02,-8203,-1264,-273,-85,556,-328,1,7,11
9.25E+02,-7920,-1184,-306,111,395,24,1,7,11
9.11E+02,-7886,-1377,-358,13,479,86,1,7,11
9.02E+02,-7887,-1333,-156,-366,817,108,1,7,11
8.97E+02,-7893,-1300,-208,-241,884,99,1,7,11
8.93E+02,-7926,-1290,-249,-628,681,61,1,7,11
8.86E+02,-8213,-1291,-557,-477,707,21,1,7,11
8.72E+02,-8206,-1310,-621,-832,702,-287,1,7,11
8.53E+02,-8210,-1353,-411,-682,704,-367,1,7,11
8.33E+02,-8250,-1169,-423,-758,693,-203,1,7,11
8.14E+02,-8275,-1235,-459,-1044,641,-540,1,7,11
7.98E+02,-8235,-1278,-793,-1026,811,-609,1,7,11
7.85E+02,-7883,-1547,-645,-764,494,-436,1,7,11
7.74E+02,-7843,-1556,-731,-1037,770,-799,1,7,11
7.66E+02,-7894,-1559,-1027,-1054,827,-881,1,7,11
7.64E+02,-8247,-1551,-1058,-752,856,-878,1,7,11
7.69E+02,-8078,-1552,-1110,-662,847,-788,1,7,11
7.82E+02,-8161,-1575,-903,-788,806,-638,1,7,11
7.97E+02,-8453,-1654,-964,-400,452,-221,1,7,11
8.09E+02,-8158,-1528,-1323,-513,560,-384,1,7,11
8.15E+02,-8146,-1672,-1153,-130,180,-175,1,7,11
8.19E+02,-8463,-2077,-1180,10,291,-574,1,7,11
8.23E+02,-8530,-1934,-1168,-72,77,-500,1,7,11
8.31E+02,-8544,-1995,-1400,130,-195,-658,1,7,11
8.42E+02,-8525,-1994,-1350,579,-443,-1030,1,7,11
8.59E+02,-8458,-1937,-1281,477,-659,-1070,1,7,11
8.82E+02,-8157,-2128,-1144,829,-1049,-1057,1,7,11
9.07E+02,-8312,-1754,-1026,674,-1149,-690,1,7,11
9.28E+02,-7926,-1887,-662,687,-910,-805,1,7,11
9.37E+02,-7851,-1823,-781,848,-1096,-409,1,7,11
9.28E+02,-8011,-1507,-413,485,-731,-533,1,7,11
9.06E+02,-7667,-1455,-600,585,-824,-203,1,7,11
8.85E+02,-7587,-1658,-560,136,-629,-175,1,7,11
8.78E+02,-7793,-1624,-560,-95,-377,-184,1,7,11
8.89E+02,-7563,-1592,-566,-346,-97,-191,1,7,11
9.12E+02,-7603,-1559,-388,-582,152,-156,1,7,11
9.37E+02,-7647,-1542,-489,-788,622,-337,1,7,11
9.52E+02,-7955,-1560,-834,-730,813,2,1,7,11
9.56E+02,-7817,-1578,-674,-1141,719,101,1,7,11
9.50E+02,-7943,-1608,-763,-972,1063,-31,1,7,11
9.40E+02,-8231,-1663,-1112,-1006,1084,340,1,7,11
9.29E+02,-8280,-1464,-933,-984,1060,167,1,7,11
9.20E+02,-8073,-1496,-978,-1133,743,212,1,7,11
9.13E+02,-8156,-1799,-957,-753,651,209,1,7,11
9.10E+02,-8459,-1805,-930,-822,500,189,1,7,11
9.10E+02,-8461,-1513,-925,-568,553,178,1,7,11
9.13E+02,-8181,-1478,-915,-302,330,170,1,7,11
9.15E+02,-8160,-1447,-1142,315,52,170,1,7,11
9.14E+02,-8145,-1434,-1121,527,-350,164,1,7,11
9.09E+02,-8121,-1450,-1117,457,-232,156,1,7,11
9.04E+02,-8098,-1494,-1117,875,-603,368,1,7,11
8.98E+02,-8313,-1825,-1127,759,-476,311,1,7,11
8.95E+02,-8296,-1675,-1124,1110,-820,-64,1,7,11
8.93E+02,-8098,-1787,-1079,955,-647,68,1,7,11
8.89E+02,-8089,-2115,-1080,1347,-1035,-272,1,7,11
8.80E+02,-8121,-1923,-1075,1204,-1148,-342,1,7,11
8.66E+02,-8170,-1934,-1073,1577,-1003,-333,1,7,11
8.52E+02,-8487,-1927,-1062,1661,-1381,13,1,7,11
8.42E+02,-8528,-1932,-731,1458,-1264,-78,1,7,11
8.42E+02,-8546,-1941,-646,1794,-1431,153,1,7,11
8.50E+02,-8519,-2162,-848,1917,-1869,423,1,7,11
8.64E+02,-8527,-2117,-771,1749,-1767,676,1,7,11
8.82E+02,-8572,-2107,-393,2072,-1934,937,1,7,11
8.99E+02,-8538,-2059,-568,2166,-2408,1182,1,7,11
9.14E+02,-8515,-1745,-202,1966,-2585,1613,1,7,11
9.24E+02,-8508,-1910,-326,2021,-2497,1494,1,7,11
9.27E+02,-8474,-1796,61,2318,-2918,1858,1,7,11
9.23E+02,-8162,-1414,-67,2336,-2809,1673,1,7,11
9.16E+02,-8113,-1267,319,2320,-3172,1696,1,7,11
9.11E+02,-8316,-1352,191,2025,-2989,1679,1,7,11
9.11E+02,-8212,-1123,543,1980,-3023,1887,1,7,11
9.14E+02,-7827,-642,401,2095,-2964,1514,1,7,11
9.19E+02,-8001,-448,819,1847,-2784,1569,1,7,11
9.26E+02,-7989,-593,1039,1274,-2523,1314,1,7,11
9.33E+02,-8004,-533,1021,987,-2247,1039,1,7,11
9.36E+02,-8063,-517,1230,759,-1979,495,1,7,11
9.33E+02,-8064,-241,1595,847,-1761,247,1,7,11
9.21E+02,-8003,-534,1422,630,-1814,-20,1,7,11
9.04E+02,-8018,-625,1503,152,-1559,-319,1,7,11
8.89E+02,-8058,-418,1795,264,-1321,-575,1,7,11
8.82E+02,-7845,-446,1807,-108,-1102,-769,1,7,11
8.87E+02,-7891,-454,1797,58,-655,-859,1,7,11
9.00E+02,-8200,-470,1519,-271,-485,-846,1,7,11
9.14E+02,-8253,-779,1499,-335,-610,-496,1,7,11
9.24E+02,-8309,-873,1483,-376,-527,-628,1,7,11
9.26E+02,-8284,-720,1440,-369,-513,-250,1,7,11
9.23E+02,-8263,-1077,1631,-346,-227,-207,1,7,11
9.16E+02,-8276,-927,1575,-330,-194,-206,1,7,11
9.08E+02,-8302,-1407,1268,-350,-168,-245,1,7,11
8.99E+02,-8105,-1558,1250,-356,-134,-608,1,7,11
8.88E+02,-8173,-1418,1234,-281,-384,-420,1,7,11
8.74E+02,-8497,-1502,1221,56,-147,-461,1,7,11
8.58E+02,-8327,-1802,1230,-106,-168,-446,1,7,11
8.42E+02,-8400,-1827,1548,263,-226,-595,1,7,11
8.28E+02,-8364,-1811,1553,201,-574,-134,1,7,11
8.18E+02,-8562,-1532,1561,384,-627,101,1,7,11
8.12E+02,-8503,-1798,1613,818,-396,344,1,7,11
8.08E+02,-8175,-1534,1661,1030,-414,559,1,7,11
8.06E+02,-8130,-1487,1458,992,-410,456,1,7,11
8.04E+02,-8294,-1636,1471,1206,-410,832,1,7,11
8.03E+02,-8225,-1201,1465,1635,-606,654,1,7,11
8.03E+02,-8255,-1010,1523,1429,-234,695,1,7,11
8.05E+02,-8294,-1093,1859,1411,-152,745,1,7,11
8.09E+02,-8079,-679,1685,1596,-360,1034,1,7,11
8.16E+02,-8097,-785,1776,1234,-350,1035,1,7,11
8.26E+02,-8104,-634,2109,1354,-354,755,1,7,11
8.39E+02,-8092,-238,2164,922,-373,713,1,7,11
8.54E+02,-8079,-141,1948,702,-376,660,1,7,11
8.71E+02,-8303,-352,1967,452,-368,853,1,7,11
8.88E+02,-8314,-343,2027,198,-340,506,1,7,11
9.07E+02,-8311,-358,2037,-15,-338,417,1,7,11
9.26E+02,-8284,-129,2029,59,-346,575,1,7,11
9.44E+02,-8235,-170,1983,-354,-350,217,1,7,11
9.63E+02,-7922,-226,2171,-244,-336,362,1,7,11
9.81E+02,-7860,-548,2063,-388,-291,-22,1,7,11
9.98E+02,-7878,-634,1674,-796,58,88,1,7,11
1.01E+03,-7917,-492,1826,-685,-119,-300,1,7,11
1.02E+03,-8193,-843,1444,-1052,-53,-156,1,7,11
1.03E+03,-8274,-660,1627,-925,307,-517,1,7,11
1.03E+03,-8477,-704,1626,-1305,162,-549,1,7,11
1.03E+03,-8430,-707,1648,-1380,179,-193,1,7,11
1.02E+03,-8766,-691,1638,-1377,335,42,1,7,11
9.99E+02,-8678,-879,1410,-1350,-38,310,1,7,11
9.79E+02,-8373,-863,1451,-1359,-119,519,1,7,11
9.62E+02,-8518,-791,1496,-1361,101,638,1,7,11
9.53E+02,-8148,-452,1561,-1173,101,384,1,7,11
9.51E+02,-8313,-396,1879,-1547,125,544,1,7,11
9.51E+02,-8235,-577,1674,-1422,-82,130,1,7,11
9.48E+02,-8223,-519,1721,-1843,260,-54,1,7,11
9.38E+02,-8196,-514,1739,-1761,336,44,1,7,11
9.21E+02,-7910,-552,1765,-1943,176,-372,1,7,11
8.98E+02,-7912,-394,1782,-2388,544,-530,1,7,11
8.71E+02,-7914,-526,1777,-2268,397,-427,1,7,11
8.43E+02,-7912,-849,1735,-2617,495,-814,1,7,11
8.14E+02,-7915,-887,1717,-2446,858,-671,1,7,11
7.87E+02,-8209,-724,1680,-2547,716,-754,1,7,11
7.62E+02,-8256,-1086,1918,-2889,1069,-1059,1,7,11
7.44E+02,-8283,-927,1882,-2937,1142,-1085,1,7,11
7.35E+02,-8306,-995,1841,-2690,945,-1088,1,7,11
7.37E+02,-8304,-1307,1505,-2935,998,-1074,1,7,11
7.45E+02,-8298,-1313,1415,-2920,1305,-759,1,7,11
7.56E+02,-8281,-1321,1634,-2913,1379,-680,1,7,11
7.66E+02,-8311,-1329,1579,-2927,1214,-835,1,7,11
7.75E+02,-8083,-1330,1255,-2939,1537,-462,1,7,11
7.85E+02,-8078,-1337,1190,-2705,1572,-602,1,7,11
7.96E+02,-8072,-1356,1371,-2751,1604,-253,1,7,11
8.08E+02,-8072,-1391,1302,-2794,1637,-174,1,7,11
8.21E+02,-8090,-1179,974,-3080,1415,-360,1,7,11
8.35E+02,-8103,-1222,898,-3081,1448,-290,1,7,11
8.52E+02,-8135,-1266,1082,-2781,1482,53,1,7,11
8.75E+02,-8156,-1556,753,-2942,1506,-87,1,7,11
9.04E+02,-8161,-1573,858,-2553,1527,291,1,7,11
9.39E+02,-8167,-1576,767,-2660,1802,146,1,7,11
9.75E+02,-8164,-1572,422,-2242,1812,228,1,7,11
1.00E+03,-8169,-1557,564,-2328,1805,533,1,7,11
1.02E+03,-8142,-1253,143,-2148,1510,568,1,7,11
1.02E+03,-8139,-1393,265,-1741,1491,547,1,7,11
1.00E+03,-8460,-1305,-125,-1882,1468,248,1,7,11
9.85E+02,-8535,-957,21,-1495,1638,160,1,7,11
9.71E+02,-8332,-1139,-332,-1421,1266,358,1,7,11
9.66E+02,-8354,-1044,-169,-1598,1372,290,1,7,11
9.68E+02,-8326,-655,-515,-1252,962,-57,1,7,11
9.71E+02,-8323,-775,-551,-1210,1097,71,1,7,11
9.71E+02,-8393,-474,-217,-1231,736,-341,1,7,11
9.66E+02,-8448,-453,-363,-1180,832,-210,1,7,11
9.56E+02,-8420,-407,-294,-1285,626,-570,1,7,11
9.39E+02,-8379,-631,9,-1106,221,-402,1,7,11
9.17E+02,-8551,-595,30,-643,363,-447,1,7,11
8.93E+02,-8497,-604,50,-493,334,-497,1,7,11
8.72E+02,-8455,-421,71,-386,338,-797,1,7,11
8.60E+02,-8106,-508,41,-529,335,-876,1,7,11
8.58E+02,-8302,-857,-258,-216,367,-1044,1,7,11
8.61E+02,-8076,-721,-283,-203,148,-993,1,7,11
8.60E+02,-8106,-1120,-320,-223,133,-1171,1,7,11
8.47E+02,-8094,-1015,-372,-537,346,-1595,1,7,11
8.27E+02,-8122,-1184,-133,-632,328,-1487,1,7,11
8.07E+02,-8117,-1578,-191,-427,283,-1823,1,7,11
7.96E+02,-8066,-1421,-524,-475,-4,-1859,1,7,11
7.94E+02,-8283,-1481,-563,-783,275,-1836,1,7,11
7.95E+02,-8300,-1803,-553,-842,355,-1477,1,7,11
7.92E+02,-8087,-1865,-515,-868,184,-1274,1,7,11
7.82E+02,-8100,-1666,-204,-847,241,-987,1,7,11
7.72E+02,-8294,-1702,-178,-506,531,-674,1,7,11
7.68E+02,-8199,-1701,-164,-390,600,-404,1,7,11
7.73E+02,-7877,-1681,-160,-551,451,-204,1,7,11
7.89E+02,-8057,-1877,-182,-223,818,-309,1,7,11
8.18E+02,-7842,-1890,-366,-250,705,1,1,7,11
8.58E+02,-7892,-1877,-361,-231,1034,45,1,7,11
9.04E+02,-7890,-1848,-141,-204,1048,48,1,7,11
9.49E+02,-7857,-1519,-209,-190,1047,15,1,7,11
9.86E+02,-7857,-1478,-524,-216,1067,-298,1,7,11
1.01E+03,-7906,-1459,-574,-526,1098,-346,1,7,11
1.02E+03,-8247,-1475,-625,-604,1097,-355,1,7,11
1.02E+03,-8198,-1493,-472,-409,1045,-341,1,7,11
1.01E+03,-7854,-1507,-859,-477,746,-354,1,7,11
9.98E+02,-7837,-1528,-683,-826,757,-163,1,7,11
9.81E+02,-7860,-1814,-756,-682,1070,-242,1,7,11
9.62E+02,-7862,-1835,-1099,-739,1093,-535,1,7,11
9.45E+02,-7900,-1867,-908,-1042,1132,-545,1,7,11
9.31E+02,-8218,-1913,-933,-1041,1149,-514,1,7,11
9.19E+02,-8241,-1706,-968,-745,1113,-202,1,7,11
9.11E+02,-8213,-1749,-1292,-705,1055,-170,1,7,11
9.04E+02,-7908,-2059,-1348,-684,742,-187,1,7,11
8.99E+02,-7863,-2119,-1406,-679,688,-249,1,7,11
8.98E+02,-7834,-2150,-1215,-676,648,-597,1,7,11
9.00E+02,-7844,-2169,-1264,-670,875,-414,1,7,11
9.05E+02,-7882,-2169,-1546,-651,844,-422,1,7,11
9.12E+02,-7917,-2152,-1564,-861,800,-595,1,7,11
9.19E+02,-8243,-2138,-1551,-804,768,-188,1,7,11
9.26E+02,-8248,-2111,-1268,-440,438,47,1,7,11
9.31E+02,-7928,-2081,-1271,-557,630,289,1,7,11
9.35E+02,-7844,-1767,-1278,-137,606,237,1,7,11
9.38E+02,-8029,-1689,-1545,20,616,613,1,7,11
9.41E+02,-8037,-1844,-1543,-90,408,401,1,7,11
9.43E+02,-7853,-1469,-1541,293,441,421,1,7,11
9.45E+02,-7909,-1613,-1549,373,419,428,1,7,11
9.46E+02,-8197,-1279,-1563,157,620,418,1,7,11
9.47E+02,-7935,-1209,-1611,193,536,390,1,7,11
9.48E+02,-7888,-1408,-1663,186,211,575,1,7,11
9.48E+02,-7929,-1170,-1632,368,192,193,1,7,11
9.46E+02,-8228,-1209,-1582,343,372,352,1,7,11
9.44E+02,-7907,-1231,-1577,379,-3,-1,1,7,11
9.39E+02,-7847,-1263,-1569,160,-72,127,1,7,11
9.33E+02,-7829,-1554,-1277,194,-100,1,1,7,11
9.23E+02,-8061,-1596,-1245,231,126,-349,1,7,11
9.11E+02,-8005,-1648,-1236,527,103,-165,1,7,11
8.96E+02,-7672,-1442,-1541,567,118,-233,1,7,11
8.77E+02,-7628,-1503,-1607,568,-74,-559,1,7,11
8.58E+02,-7652,-1840,-1409,250,274,-387,1,7,11
8.42E+02,-7945,-1665,-1474,173,340,-457,1,7,11
8.36E+02,-7990,-1722,-1807,343,136,-775,1,7,11
8.41E+02,-8048,-1762,-1870,-15,169,-799,1,7,11
8.50E+02,-7916,-2056,-1879,-126,193,-773,1,7,11
8.52E+02,-8262,-2079,-1867,60,146,-386,1,7,11
8.43E+02,-8294,-2101,-1831,4,291,-195,1,7,11
8.24E+02,-8281,-2133,-1517,-285,-97,-266,1,7,11
8.04E+02,-8246,-2137,-1452,-274,28,-119,1,7,11
7.91E+02,-7926,-2091,-1625,19,-328,-17,1,7,11
7.86E+02,-7881,-1772,-1272,60,-129,318,1,7,11
7.85E+02,-7819,-1702,-1183,116,-156,154,1,7,11
7.84E+02,-8011,-1877,-1379,-59,-141,253,1,7,11
7.81E+02,-7943,-1516,-1379,307,-341,608,1,7,11
7.82E+02,-7657,-1658,-1400,154,22,424,1,7,11
7.89E+02,-7995,-1591,-1383,203,-85,452,1,7,11
8.03E+02,-7868,-1559,-1372,541,-12,477,1,7,11
8.18E+02,-7876,-1229,-1193,398,-52,471,1,7,11
8.26E+02,-7860,-1204,-1251,415,-126,623,1,7,11
8.24E+02,-7925,-1239,-1187,604,78,162,1,7,11
8.16E+02,-8295,-1216,-1403,572,-300,-21,1,7,11
8.09E+02,-8192,-1159,-1403,599,-255,109,1,7,11
8.10E+02,-7870,-1403,-1360,569,-401,-258,1,7,11
8.19E+02,-8040,-1403,-1318,237,-448,-328,1,7,11
8.29E+02,-7927,-1194,-1291,161,-463,-368,1,7,11
8.40E+02,-7780,-1575,-1290,277,-440,-186,1,7,11
8.49E+02,-7411,-1471,-1366,-95,-385,-589,1,7,11
8.55E+02,-7322,-1865,-1270,87,-255,-797,1,7,11
8.59E+02,-7369,-1768,-1434,3,-196,-901,1,7,11
8.63E+02,-7717,-1943,-1535,-383,-61,-998,1,7,11
8.74E+02,-7872,-2344,-1861,-208,215,-1306,1,7,11
8.96E+02,-8133,-2192,-1667,-147,219,-1112,1,7,11
9.20E+02,-8535,-2265,-1696,-276,348,-511,1,7,11
9.30E+02,-8329,-2297,-1916,-120,-78,-361,1,7,11
9.07E+02,-8381,-2298,-1520,318,-267,309,1,7,11
8.41E+02,-8503,-2226,-1663,562,-535,475,1,7,11
7.60E+02,-8083,-2372,-1263,490,-475,1027,1,7,11
7.01E+02,-8226,-2007,-1356,886,-851,966,1,7,11
6.87E+02,-7864,-2124,-960,746,-680,1355,1,7,11
7.01E+02,-8031,-1726,-1116,1052,-708,1153,1,7,11
7.21E+02,-7999,-1839,-1028,1040,-667,1157,1,7,11
7.34E+02,-8013,-1452,-695,743,-849,1406,1,7,11
7.39E+02,-8007,-962,-748,457,-328,1236,1,7,11
7.38E+02,-7815,-923,-750,587,72,1185,1,7,11
7.32E+02,-7867,-1125,-1040,240,-105,1326,1,7,11
7.23E+02,-8156,-1117,-1063,29,-379,525,1,7,11
7.12E+02,-8218,-1268,-746,1339,-923,168,1,7,11
7.02E+02,-7877,-1570,-1131,1374,-924,-50,1,7,11
6.99E+02,-8202,-1606,-919,1322,-1112,-346,1,7,11
7.13E+02,-8106,-1583,-917,1013,-1073,-553,1,7,11
7.48E+02,-8533,-1547,-1137,951,-1090,-611,1,7,11
7.99E+02,-8438,-1539,-746,1134,-898,-237,1,7,11
8.60E+02,-8822,-1569,-825,1139,-1024,42,1,7,11
9.27E+02,-8804,-1565,-429,986,-1231,162,1,7,11
9.98E+02,-8727,-1575,-536,1336,-1435,491,1,7,11
1.07E+03,-8395,-1588,-358,1172,-1867,738,1,7,11
1.14E+03,-8565,-1565,58,1540,-1787,901,1,7,11
1.20E+03,-8486,-1266,2,1645,-1922,984,1,7,11
1.25E+03,-8183,-1189,366,1500,-2015,1293,1,7,11
1.29E+03,-8112,-1345,183,1858,-2343,1341,1,7,11
1.31E+03,-8274,-969,228,1695,-2351,1376,1,7,11
1.31E+03,-7925,-1067,512,1763,-2019,1402,1,7,11
1.30E+03,-7863,-809,550,1763,-2110,1405,1,7,11
1.29E+03,-7870,-401,606,1700,-1878,1392,1,7,11
1.26E+03,-7888,-523,392,1858,-1641,1385,1,7,11
1.22E+03,-7909,-198,472,1446,-1401,1353,1,7,11
1.17E+03,-8259,-171,853,1260,-925,1282,1,7,11
1.10E+03,-8118,-164,725,1356,-1052,940,1,7,11
1.00E+03,-8478,-164,1075,1006,-1034,1109,1,7,11
8.87E+02,-8502,-165,1137,949,-1075,753,1,7,11
7.90E+02,-8448,-148,906,936,-897,663,1,7,11
7.53E+02,-8108,-139,901,917,-971,786,1,7,11
7.92E+02,-8263,-140,1131,1139,-951,429,1,7,11
8.74E+02,-8200,-152,1113,1096,-1114,575,1,7,11
9.61E+02,-8202,-168,1116,1054,-709,203,1,7,11
1.02E+03,-8231,-208,1133,754,-823,363,1,7,11
1.02E+03,-8235,-250,1113,708,-455,268,1,7,11
9.87E+02,-8222,-532,1062,894,-599,-95,1,7,11
9.45E+02,-8269,-529,745,778,-182,40,1,7,11
9.13E+02,-8121,-531,703,600,-274,-303,1,7,11
9.01E+02,-8489,-541,708,141,110,-339,1,7,11
9.01E+02,-8384,-561,1036,-65,-59,-325,1,7,11
9.09E+02,-8732,-573,1128,65,-93,18,1,7,11
9.20E+02,-8743,-609,946,2,49,-123,1,7,11
9.29E+02,-8733,-388,1285,1,-338,-21,1,7,11
9.36E+02,-8724,-428,1395,42,-232,298,1,7,11
9.38E+02,-8726,-466,1254,-106,-409,336,1,7,11
9.34E+02,-8418,-482,1588,319,-874,363,1,7,11
9.27E+02,-8566,-469,1631,518,-1071,368,1,7,11
9.19E+02,-8089,-406,1463,858,-983,304,1,7,11
9.12E+02,-8250,-391,1506,745,-961,262,1,7,11
9.08E+02,-7923,-621,1509,1139,-1123,-39,1,7,11
9.08E+02,-7876,-567,1486,1005,-701,-93,1,7,11
9.12E+02,-7881,-234,1434,1352,-480,114,1,7,11
9.18E+02,-7912,-379,1610,1156,-235,92,1,7,11
9.26E+02,-8254,-297,1553,1395,10,92,1,7,11
9.33E+02,-8111,10,1256,1359,-55,-119,1,7,11
9.37E+02,-8454,59,1235,1322,304,-64,1,7,11
9.40E+02,-8515,95,1211,1286,321,-15,1,7,11
9.41E+02,-8555,124,1191,987,278,277,1,7,11
9.42E+02,-8572,116,1208,923,-67,283,1,7,11
9.43E+02,-8338,83,1253,1116,80,260,1,7,11
9.46E+02,-8564,-293,1599,1055,-318,-37,1,7,11
9.51E+02,-8504,-129,1637,761,-205,-118,1,7,11
9.57E+02,-8443,-186,1660,746,-560,16,1,7,11
9.64E+02,-8134,-199,1656,751,-618,-367,1,7,11
9.70E+02,-8068,-219,1653,735,-579,-237,1,7,11
9.71E+02,-8280,-195,1648,730,-229,-562,1,7,11
9.69E+02,-8274,-156,1628,717,-345,-564,1,7,11
9.64E+02,-8299,-129,1610,679,66,-244,1,7,11
9.56E+02,-8081,-377,1583,890,-54,-141,1,7,11
9.46E+02,-8102,-380,1241,856,296,-285,1,7,11
9.35E+02,-8098,-133,1400,826,368,53,1,7,11
9.24E+02,-8123,-143,1308,786,186,86,1,7,11
9.14E+02,-8159,-148,954,499,234,97,1,7,11
9.08E+02,-8468,-164,1147,472,519,85,1,7,11
9.03E+02,-8553,-189,1106,476,523,69,1,7,11
9.00E+02,-8371,-216,1098,831,172,64,1,7,11
9.00E+02,-8391,-236,1106,698,336,56,1,7,11
9.00E+02,-8389,-249,1126,1117,-42,44,1,7,11
9.02E+02,-8351,-222,1131,1020,103,15,1,7,11
9.04E+02,-8332,-194,916,1378,16,-286,1,7,11
9.06E+02,-8571,-160,967,1172,-318,-335,1,7,11
9.09E+02,-8532,-357,1007,1198,-135,-365,1,7,11
9.12E+02,-8513,-308,1309,1169,-170,-130,1,7,11
9.15E+02,-8504,-277,1379,1373,-184,-371,1,7,11
9.16E+02,-8534,2,1200,1306,-189,-336,1,7,11
9.16E+02,-8549,12,1251,995,-223,-274,1,7,11
9.15E+02,-8521,7,1255,930,-524,36,1,7,11
9.13E+02,-8490,-289,1249,1082,-534,43,1,7,11
9.11E+02,-8185,-339,1236,733,-529,21,1,7,11
9.10E+02,-8136,-135,1184,652,-220,-301,1,7,11
9.10E+02,-8151,-158,1407,848,-362,-375,1,7,11
9.12E+02,-8473,-173,1399,823,19,-150,1,7,11
9.15E+02,-8524,-161,1371,850,102,-366,1,7,11
9.19E+02,-8555,-159,1349,879,-108,-296,1,7,11
9.24E+02,-8339,-169,1382,656,-105,25,1,7,11
9.28E+02,-8374,-171,1155,720,93,67,1,7,11
9.32E+02,-8362,-137,1257,1107,-179,89,1,7,11
9.36E+02,-8557,-137,1567,1122,-572,52,1,7,11
9.41E+02,-8477,-159,1646,1099,-439,-277,1,7,11
9.47E+02,-8136,-187,1458,1070,-775,-139,1,7,11
9.52E+02,-8120,-200,1794,1038,-794,-524,1,7,11
9.55E+02,-8133,-196,1849,740,-803,-617,1,7,11
9.53E+02,-8126,-188,1858,691,-803,-410,1,7,11
9.44E+02,-8156,-184,1841,867,-507,-421,1,7,11
9.32E+02,-8159,-174,1529,768,-470,-392,1,7,11
9.21E+02,-8138,-173,1455,629,-426,-617,1,7,11
9.17E+02,-8170,-215,1415,196,-621,-596,1,7,11
9.23E+02,-8493,-519,1416,291,-586,-566,1,7,11
9.35E+02,-8533,-563,1408,-89,-615,-516,1,7,11
9.46E+02,-8524,-632,1655,63,-418,-204,1,7,11
9.50E+02,-8496,-448,1431,-263,-442,-166,1,7,11
9.43E+02,-8487,-508,1500,-282,-433,-135,1,7,11
9.30E+02,-8494,-821,1844,6,-413,-369,1,7,11
9.14E+02,-8522,-843,1694,-127,-402,-325,1,7,11
9.00E+02,-8545,-857,1778,302,-419,-265,1,7,11
8.88E+02,-8540,-856,2103,513,-458,69,1,7,11
8.78E+02,-8465,-838,2126,466,-771,120,1,7,11
8.69E+02,-8101,-801,2139,652,-800,120,1,7,11
8.60E+02,-8279,-460,2131,1054,-502,70,1,7,11
8.51E+02,-8262,-636,2159,1135,-427,22,1,7,11
8.45E+02,-8285,-580,1951,931,-614,13,1,7,11
8.42E+02,-8299,-575,2001,962,-593,36,1,7,11
8.43E+02,-8278,-595,2023,1011,-607,46,1,7,11
8.48E+02,-8229,-621,2017,1307,-618,-258,1,7,11
8.56E+02,-7908,-628,1972,1334,-592,-375,1,7,11
8.66E+02,-7903,-607,1933,1309,-249,-531,1,7,11
8.81E+02,-8195,-592,2158,976,-141,-404,1,7,11
9.02E+02,-8266,-581,2133,1124,-293,-474,1,7,11
9.29E+02,-8089,-563,2111,759,60,-471,1,7,11
9.61E+02,-8155,-544,2106,650,-116,-393,1,7,11
9.94E+02,-8181,-254,2096,810,-59,-249,1,7,11
1.02E+03,-8175,-242,2071,444,-5,-328,1,7,11
1.04E+03,-8176,-524,2062,583,318,96,1,7,11
1.06E+03,-8465,-557,2109,249,382,-15,1,7,11
1.06E+03,-8476,-587,2164,251,148,365,1,7,11
1.06E+03,-8483,-627,2003,583,133,199,1,7,11
1.05E+03,-8159,-630,2029,469,328,515,1,7,11
1.04E+03,-8099,-610,2032,640,256,520,1,7,11
1.02E+03,-8292,-569,2039,1116,-69,164,1,7,11
1.01E+03,-8251,-524,2027,953,-96,293,1,7,11
9.94E+02,-8223,-172,1978,1007,-101,-90,1,7,11
9.85E+02,-8194,-294,2155,973,-77,54,1,7,11
9.78E+02,-8223,-267,2160,1041,-32,-288,1,7,11
9.72E+02,-8257,-301,2150,833,-21,-325,1,7,11
9.67E+02,-8299,-358,2140,626,-24,-350,1,7,11
9.62E+02,-8096,-154,2126,192,-11,-358,1,7,11
9.56E+02,-8180,-197,2101,298,281,-327,1,7,11
9.48E+02,-8486,-222,2075,-91,312,6,1,7,11
9.39E+02,-8557,-253,2076,54,350,117,1,7,11
9.27E+02,-8321,-522,2067,20,351,278,1,7,11
9.14E+02,-8560,-521,2066,32,347,167,1,7,11
9.01E+02,-8564,-523,2096,75,348,546,1,7,11
8.87E+02,-8552,-227,2128,-84,326,391,1,7,11
8.74E+02,-8517,-156,2137,284,280,459,1,7,11
8.63E+02,-8173,-329,2108,381,-12,492,1,7,11
8.54E+02,-8112,-274,2089,155,264,463,1,7,11
8.46E+02,-8316,27,2061,170,302,407,1,7,11
8.39E+02,-8300,78,2058,170,365,582,1,7,11
8.29E+02,-8319,106,2079,156,156,512,1,7,11
8.16E+02,-8093,118,2082,167,162,220,1,7,11
8.04E+02,-8117,-125,2088,184,142,197,1,7,11
7.94E+02,-8122,127,2064,199,354,179,1,7,11
7.90E+02,-8089,114,1781,215,280,133,1,7,11
7.93E+02,-8295,89,1737,195,-13,324,1,7,11
8.04E+02,-8286,45,1724,147,-8,-32,1,7,11
8.22E+02,-8086,7,1741,320,265,-119,1,7,11
8.45E+02,-8173,-275,1767,256,263,90,1,7,11
8.68E+02,-8510,-291,1763,-60,-27,100,1,7,11
8.89E+02,-8560,-283,1761,-91,-70,-102,1,7,11
9.06E+02,-8552,-259,1751,-109,-117,-7,1,7,11
9.19E+02,-8487,32,1704,-122,127,340,1,7,11
9.32E+02,-8457,82,1918,107,-82,150,1,7,11
9.43E+02,-8504,-126,1671,71,-8,201,1,7,11
9.54E+02,-8575,-69,1704,90,273,538,1,7,11
9.67E+02,-8569,-6,1696,-103,-22,637,1,7,11
9.82E+02,-8516,293,1668,-41,-60,456,1,7,11
9.97E+02,-8185,328,1883,270,-72,477,1,7,11
1.01E+03,-8124,343,1893,294,-54,437,1,7,11
1.02E+03,-8133,348,1678,326,-36,607,1,7,11
1.04E+03,-8148,362,1706,156,-54,544,1,7,11
1.04E+03,-8450,135,1750,247,-91,236,1,7,11
1.05E+03,-8454,180,1761,584,86,222,1,7,11
1.05E+03,-8132,187,1742,598,-266,194,1,7,11
1.04E+03,-8293,165,1690,555,-310,373,1,7,11
1.04E+03,-8258,149,1917,214,-265,-2,1,7,11
1.03E+03,-8304,155,1911,370,75,-107,1,7,11
1.02E+03,-8149,146,1918,277,-117,113,1,7,11
1.00E+03,-8487,131,1893,-60,-107,-99,1,7,11
9.86E+02,-8543,371,1846,115,-114,-32,1,7,11
9.68E+02,-8576,351,1796,20,-128,282,1,7,11
9.51E+02,-8541,349,1465,-342,105,323,1,7,11
9.32E+02,-8533,328,1651,-229,112,338,1,7,11
9.13E+02,-8546,310,1618,-634,121,365,1,7,11
8.93E+02,-8337,293,1642,-489,115,149,1,7,11
8.73E+02,-8376,290,1435,-789,65,233,1,7,11
8.56E+02,-8330,297,1442,-511,-301,608,1,7,11
8.46E+02,-8519,300,1460,-467,-382,439,1,7,11
8.50E+02,-8458,324,1491,-391,-185,499,1,7,11
8.67E+02,-8162,358,1806,-560,-226,777,1,7,11
8.94E+02,-8146,129,1904,-204,-529,772,1,7,11
9.25E+02,-8108,200,1727,-325,-601,509,1,7,11
9.54E+02,-8106,545,2076,83,-424,504,1,7,11
9.77E+02,-8312,627,2117,-43,-786,773,1,7,11
9.90E+02,-8231,414,2121,281,-874,495,1,7,11
9.92E+02,-7912,427,2128,273,-644,420,1,7,11
9.86E+02,-7886,465,2155,-4,-869,567,1,7,11
9.76E+02,-7935,496,1952,-62,-794,207,1,7,11
9.63E+02,-8288,778,1995,-119,-478,186,1,7,11
9.47E+02,-8298,776,2033,89,-459,206,1,7,11
9.30E+02,-8072,487,2328,26,-451,250,1,7,11
9.10E+02,-8075,484,2356,-278,-455,536,1,7,11
8.89E+02,-8075,809,2337,-283,-451,551,1,7,11
8.66E+02,-8318,657,2046,-276,-439,585,1,7,11
8.41E+02,-8133,757,2329,-316,-625,394,1,7,11
8.16E+02,-8192,1097,2398,-372,-549,536,1,7,11
8.01E+02,-8455,909,2217,-134,-547,694,1,7,11
8.06E+02,-8174,973,2276,-360,-597,1069,1,7,11
8.36E+02,-8100,988,2600,-329,-426,1107,1,7,11
8.84E+02,-8294,943,2440,-333,-779,1029,1,7,11
9.38E+02,-8249,1133,2536,-317,-894,861,1,7,11
9.85E+02,-8208,1069,2863,-268,-747,386,1,7,11
1.01E+03,-7905,767,2901,46,-1089,155,1,7,11
1.03E+03,-7849,766,2908,110,-1116,-40,1,7,11
1.04E+03,-8049,1045,2878,-98,-1070,81,1,7,11
1.04E+03,-8045,1098,2844,-64,-680,34,1,7,11
1.04E+03,-7832,918,2833,-46,-495,88,1,7,11
1.04E+03,-7896,992,2837,-35,-568,-26,1,7,11
1.04E+03,-7930,1299,2844,-24,-174,166,1,7,11
1.04E+03,-8204,1346,2858,-30,-317,583,1,7,11
1.04E+03,-8227,1360,2892,-70,3,418,1,7,11
1.03E+03,-8235,1359,2925,-113,17,427,1,7,11
1.03E+03,-8239,1366,2938,103,-262,609,1,7,11
1.02E+03,-8221,1359,2939,27,-296,220,1,7,11
1.02E+03,-7936,1324,2700,-315,-318,311,1,7,11
1.01E+03,-7904,1297,2718,-376,-314,-113,1,7,11
1.01E+03,-7871,1285,2697,-146,-278,3,1,7,11
1.01E+03,-7858,1305,2919,-168,59,-362,1,7,11
1.01E+03,-7854,1342,2860,-203,-98,-163,1,7,11
1.01E+03,-7909,1368,2850,-539,289,-201,1,7,11
9.99E+02,-8198,1385,2556,-597,351,-176,1,7,11
9.91E+02,-8194,1153,2480,-631,378,-152,1,7,11
9.82E+02,-8249,1153,2450,-424,143,-379,1,7,11
9.74E+02,-8290,1361,2433,-446,338,-303,1,7,11
9.69E+02,-8261,999,2649,-448,-51,11,1,7,11
9.65E+02,-7871,1122,2566,-418,46,33,1,7,11
9.62E+02,-7972,659,2219,-446,-288,-318,1,7,11
9.60E+02,-7960,445,2215,-458,11,-513,1,7,11
9.58E+02,-8056,547,2254,-624,68,-423,1,7,11
9.57E+02,-8196,204,2288,-188,113,-482,1,7,11
9.55E+02,-8066,142,2575,32,117,-403,1,7,11
9.54E+02,-8097,370,2579,291,105,-207,1,7,11
9.52E+02,-8103,152,2587,549,126,13,1,7,11
9.51E+02,-8084,249,2297,788,-109,-16,1,7,11
9.49E+02,-8289,626,2235,696,-92,166,1,7,11
9.47E+02,-8279,478,2180,761,-53,527,1,7,11
9.45E+02,-8294,843,2416,1030,-36,561,1,7,11
9.43E+02,-8122,670,2185,741,-61,529,1,7,11
9.42E+02,-8159,738,2217,706,87,214,1,7,11
9.41E+02,-8467,1046,2259,653,-294,358,1,7,11
9.41E+02,-8464,1098,2298,865,-194,-19,1,7,11
9.42E+02,-8450,1122,2593,800,-576,83,1,7,11
9.43E+02,-8183,897,2631,507,-387,-323,1,7,11
9.43E+02,-8455,979,2667,499,-392,-190,1,7,11
9.41E+02,-8488,1318,2432,498,-630,-254,1,7,11
9.36E+02,-8500,1344,2478,457,-608,-560,1,7,11
9.30E+02,-8541,1312,2836,399,-617,-626,1,7,11
9.20E+02,-8503,972,2942,614,-476,-461,1,7,11
9.08E+02,-8130,1147,2740,629,-661,-864,1,7,11
8.92E+02,-8290,1072,2790,633,-1065,-1052,1,7,11
8.73E+02,-7910,1030,2807,398,-938,-935,1,7,11
8.52E+02,-8019,767,2746,396,-987,-1024,1,7,11
8.31E+02,-7662,1030,2690,587,-900,-1305,1,7,11
8.15E+02,-7596,1027,2902,223,-713,-1008,1,7,11
8.04E+02,-7598,732,2891,351,-475,-934,1,7,11
7.98E+02,-7610,678,2850,-1,-255,-1098,1,7,11
7.95E+02,-7671,866,2829,-81,-293,-762,1,7,11
7.94E+02,-7811,777,2830,108,-88,-681,1,7,11
7.95E+02,-8240,494,2833,51,306,-854,1,7,11
7.95E+02,-8142,441,2841,-270,361,-495,1,7,11
7.96E+02,-8487,616,2856,-373,342,-390,1,7,11
8.00E+02,-8508,572,2889,-195,286,-556,1,7,11
8.09E+02,-8160,572,2897,-256,-102,-202,1,7,11
8.24E+02,-8066,588,2896,-556,76,-168,1,7,11
8.46E+02,-8231,618,2897,-596,33,-155,1,7,11
8.72E+02,-8217,419,2893,-635,52,-147,1,7,11
9.02E+02,-8223,490,2878,-415,72,-369,1,7,11
9.33E+02,-8243,812,2850,-486,122,-345,1,7,11
9.58E+02,-8284,888,2544,-823,-66,-301,1,7,11
9.75E+02,-8068,707,2469,-689,271,4,1,7,11
