timestamp,ax,ay,az,gx,gy,gz,Label1,Label2,Label3
7.29E+02,-8377,-168,179,-1457,129,635,1,7,11
7.60E+02,-8705,-146,186,-1818,307,384,1,7,11
7.78E+02,-8787,-371,192,-1895,-65,634,1,7,11
7.84E+02,-8588,-329,195,-1699,40,625,1,7,11
7.83E+02,-8607,-305,204,-1778,-138,606,1,7,11
7.77E+02,-8599,-290,235,-2146,-592,539,1,7,11
7.68E+02,-8588,-282,524,-2032,-809,131,1,7,11
7.59E+02,-8831,-275,562,-2209,-1056,-119,1,7,11
7.53E+02,-8587,-272,598,-2688,-1331,-208,1,7,11
7.50E+02,-8593,-272,619,-2708,-1661,-864,1,7,11
7.53E+02,-8631,-261,627,-3044,-1783,-1358,1,7,11
7.59E+02,-8633,10,601,-3683,-2215,-1696,1,7,11
7.69E+02,-8639,-325,630,-4123,-2857,-2612,1,7,11
7.82E+02,-9006,-159,457,-4251,-2955,-3027,1,7,11
7.93E+02,-9079,-535,794,-4573,-3620,-3571,1,7,11
8.01E+02,-8854,-508,657,-5121,-3737,-3979,1,7,11
8.01E+02,-8882,-1025,1048,-5074,-4071,-4237,1,7,11
7.96E+02,-8985,-959,1121,-5417,-4662,-4348,1,7,11
7.91E+02,-8737,-1154,935,-5470,-4873,-4651,1,7,11
7.90E+02,-8338,-1458,1366,-5489,-4902,-4610,1,7,11
7.97E+02,-8147,-1727,1235,-5061,-4882,-4424,1,7,11
8.06E+02,-8237,-1935,1595,-4817,-4484,-4199,1,7,11
8.10E+02,-7815,-2353,1468,-4514,-4273,-3887,1,7,11
8.05E+02,-7658,-2196,1847,-4419,-4032,-3298,1,7,11
7.96E+02,-7746,-2245,1696,-3809,-3803,-2945,1,7,11
7.87E+02,-7341,-2287,2084,-3531,-3583,-2837,1,7,11
7.83E+02,-7137,-2595,1972,-3294,-3679,-2225,1,7,11
7.83E+02,-7238,-2659,2383,-3344,-3242,-1973,1,7,11
7.82E+02,-7189,-2500,2579,-3122,-3049,-2059,1,7,11
7.79E+02,-6835,-2867,2508,-2893,-3198,-1702,1,7,11
7.77E+02,-7013,-2763,2709,-2450,-3079,-1735,1,7,11
7.79E+02,-6939,-3200,3152,-2289,-2716,-2116,1,7,11
7.90E+02,-6576,-3423,3052,-2387,-2856,-2048,1,7,11
8.04E+02,-6703,-3649,3209,-1988,-2461,-2278,1,7,11
8.13E+02,-6392,-3864,3613,-2098,-2265,-2530,1,7,11
8.06E+02,-6396,-3807,3532,-1665,-2321,-2718,1,7,11
7.85E+02,-6381,-3989,3942,-1644,-2160,-2803,1,7,11
7.59E+02,-6380,-4266,4004,-72,-1249,-2867,1,7,11
7.37E+02,-6318,-4450,3990,645,-1146,-2681,1,7,11
7.27E+02,-6519,-4073,4139,1643,-426,-2227,1,7,11
7.30E+02,-6483,-4136,3728,2333,-105,-2313,1,7,11
7.47E+02,-6274,-3928,3579,2688,818,-1939,1,7,11
7.75E+02,-6382,-3506,3488,3441,1219,-2148,1,7,11
8.06E+02,-6704,-3625,3683,3851,2062,-2156,1,7,11
8.33E+02,-6858,-3588,3642,3971,2217,-1956,1,7,11
8.49E+02,-7144,-3243,3636,4537,2729,-2329,1,7,11
8.56E+02,-7449,-3159,3444,5135,3078,-2383,1,7,11
8.56E+02,-7705,-2805,3448,5153,2961,-2329,1,7,11
8.48E+02,-7788,-2878,3391,5230,3178,-2156,1,7,11
8.38E+02,-7609,-2488,3360,5136,3093,-1792,1,7,11
8.31E+02,-7672,-2674,3381,4948,2710,-1904,1,7,11
8.30E+02,-7657,-2602,3386,4530,2515,-1519,1,7,11
8.38E+02,-7613,-2262,3377,4341,2577,-1446,1,7,11
8.49E+02,-7559,-2251,3437,4093,2371,-1633,1,7,11
8.59E+02,-7721,-2599,3277,4110,2159,-1591,1,7,11
8.66E+02,-7414,-2445,3617,3958,1745,-1594,1,7,11
8.70E+02,-7372,-2823,3460,3886,1872,-1620,1,7,11
8.70E+02,-7321,-2928,3557,3891,1513,-1650,1,7,11
8.67E+02,-7551,-2769,3918,3955,1447,-1414,1,7,11
8.62E+02,-7512,-3099,3770,3790,1641,-1661,1,7,11
8.56E+02,-7465,-3178,4131,4136,1569,-1654,1,7,11
8.51E+02,-7444,-2972,4012,4009,1262,-1409,1,7,11
8.48E+02,-7450,-2966,4369,4450,1231,-1649,1,7,11
8.47E+02,-7470,-3133,4431,4646,1229,-1585,1,7,11
8.48E+02,-7470,-2739,4469,4504,1247,-1207,1,7,11
8.52E+02,-7458,-2555,4462,4516,1553,-1282,1,7,11
8.57E+02,-7146,-2613,4430,4635,1588,-1084,1,7,11
8.60E+02,-7114,-2196,4421,4354,1635,-697,1,7,11
8.59E+02,-7044,-2334,4398,3754,1652,-878,1,7,11
8.53E+02,-7221,-1981,4078,3647,1650,-881,1,7,11
8.43E+02,-6887,-1949,4022,3002,1633,-684,1,7,11
8.34E+02,-6854,-2045,4030,2876,1598,-755,1,7,11
8.26E+02,-6807,-2408,4011,2619,1261,-1061,1,7,11
8.20E+02,-6835,-2584,4046,2416,1194,-1099,1,7,11
8.19E+02,-6856,-2499,4081,2336,1365,-1069,1,7,11
8.21E+02,-6879,-2920,4366,2335,1303,-742,1,7,11
8.29E+02,-7261,-3126,4452,2377,1302,-878,1,7,11
8.43E+02,-7059,-3002,4231,2272,993,-415,1,7,11
8.61E+02,-7138,-3407,4314,2681,982,-227,1,7,11
8.84E+02,-7044,-3041,4226,2743,941,7,1,7,11
9.04E+02,-7283,-3023,4469,3143,1319,-84,1,7,11
9.16E+02,-7080,-3015,4446,3070,1210,129,1,7,11
9.15E+02,-7255,-3122,4022,3305,1573,585,1,7,11
9.01E+02,-7200,-2704,4201,3506,1847,771,1,7,11
8.85E+02,-7262,-2916,4171,3853,1788,779,1,7,11
8.73E+02,-7093,-2861,4134,3965,2166,392,1,7,11
8.72E+02,-7119,-2852,4111,3765,1930,303,1,7,11
8.80E+02,-7495,-2832,4127,3831,1920,-174,1,7,11
8.95E+02,-7328,-2515,4104,4219,2074,-857,1,7,11
9.13E+02,-7329,-2680,3813,4066,1686,-1011,1,7,11
9.32E+02,-7317,-2594,3762,4352,1832,-1600,1,7,11
9.48E+02,-7469,-2200,3713,4364,1455,-1896,1,7,11
9.57E+02,-7079,-2389,3952,4216,1643,-1980,1,7,11
9.56E+02,-7228,-2347,3716,3773,1618,-2260,1,7,11
9.46E+02,-6899,-2369,3731,3568,1602,-2480,1,7,11
9.32E+02,-6859,-2195,3735,3640,1602,-2875,1,7,11
9.15E+02,-6785,-2603,3750,3209,1596,-2703,1,7,11
9.01E+02,-6949,-2857,3764,3352,1611,-3080,1,7,11
8.89E+02,-6603,-3079,3733,3378,1429,-3053,1,7,11
8.81E+02,-6611,-2974,3931,3220,1837,-3285,1,7,11
8.77E+02,-6932,-3408,3931,3606,1760,-3658,1,7,11
8.75E+02,-6962,-3308,3889,3548,2149,-3490,1,7,11
8.75E+02,-7027,-3641,3848,3809,2011,-3533,1,7,11
8.75E+02,-7035,-3633,3525,4079,2356,-3502,1,7,11
8.74E+02,-6791,-3598,3699,4290,2209,-3640,1,7,11
8.72E+02,-6800,-3264,3601,4483,2579,-3424,1,7,11
8.70E+02,-7011,-3425,3234,4593,2669,-3161,1,7,11
8.67E+02,-6954,-3389,3384,4867,2514,-2872,1,7,11
8.64E+02,-6613,-3334,3038,4578,2862,-2612,1,7,11
8.56E+02,-6746,-3006,3183,4732,2942,-2181,1,7,11
8.42E+02,-6700,-2954,3104,4293,2789,-2323,1,7,11
8.19E+02,-6688,-2978,3074,4040,3109,-2012,1,7,11
7.96E+02,-6745,-3060,2760,3783,3126,-2022,1,7,11
7.78E+02,-7016,-3264,2726,3530,3167,-2032,1,7,11
7.72E+02,-7542,-3504,2517,3060,3153,-2045,1,7,11
7.72E+02,-7573,-3853,2681,2726,3159,-2041,1,7,11
7.74E+02,-8169,-4136,2231,875,1993,-732,1,7,11
7.75E+02,-8077,-4192,2418,436,1861,-387,1,7,11
7.78E+02,-7552,-3437,2370,3,-573,258,1,7,11
7.89E+02,-7355,-3092,2354,-418,-870,131,1,7,11
8.14E+02,-7780,-2519,2341,-1641,-1338,551,1,7,11
8.46E+02,-8019,-2260,2372,-2656,-1490,492,1,7,11
8.75E+02,-8271,-2047,2349,-3860,-2041,766,1,7,11
8.90E+02,-8558,-2108,2305,-5248,-2767,1349,1,7,11
8.86E+02,-8731,-2096,2002,-6579,-3925,1521,1,7,11
8.74E+02,-8810,-2140,2142,-8143,-4896,1943,1,7,11
8.67E+02,-8828,-1980,1721,-9667,-5628,2637,1,7,11
8.76E+02,-8707,-2414,1799,-11381,-6607,3128,1,7,11
8.99E+02,-8512,-2469,1646,-12656,-7414,3490,1,7,11
9.28E+02,-8242,-2794,1400,-13623,-8269,4258,1,7,11
9.54E+02,-7617,-3266,909,-14217,-8392,5104,1,7,11
9.70E+02,-7247,-3745,701,-14817,-8819,5811,1,7,11
9.76E+02,-6395,-4473,883,-15255,-8359,6408,1,7,11
9.77E+02,-6031,-4558,645,-15324,-8024,6136,1,7,11
9.76E+02,-6192,-4826,1029,-15378,-7204,5863,1,7,11
9.76E+02,-6078,-5235,984,-14537,-6238,5555,1,7,11
9.75E+02,-6662,-5058,1248,-13712,-5063,5493,1,7,11
9.70E+02,-6936,-5011,1454,-12886,-4274,5166,1,7,11
9.59E+02,-7236,-4856,1871,-11435,-3563,4532,1,7,11
9.40E+02,-7153,-4892,1677,-10526,-2983,4359,1,7,11
9.19E+02,-7738,-4154,2352,-6176,-1612,1308,1,7,11
9.00E+02,-7689,-4155,2177,-5463,-1227,879,1,7,11
8.89E+02,-7056,-3721,2213,-2702,-1387,-700,1,7,11
8.84E+02,-7279,-3929,2419,-2443,-1179,-1128,1,7,11
8.81E+02,-6849,-4446,2592,-2107,-1682,-1054,1,7,11
8.74E+02,-7015,-4462,2589,-1697,-1693,-706,1,7,11
8.60E+02,-6535,-4453,2473,-1498,-1656,-565,1,7,11
8.42E+02,-6769,-4254,2558,-1502,-1425,-525,1,7,11
8.23E+02,-6710,-4295,2863,-1465,-1493,-255,1,7,11
8.08E+02,-6486,-4318,3198,-900,-1730,-253,1,7,11
7.97E+02,-6451,-4305,3016,-762,-1713,-209,1,7,11
7.91E+02,-6607,-4949,3965,-407,-1160,83,1,7,11
7.90E+02,-6975,-4760,3801,-541,-1339,-66,1,7,11
7.95E+02,-7012,-4803,4116,-163,-1302,313,1,7,11
8.03E+02,-6995,-4788,4136,-278,-1011,171,1,7,11
8.16E+02,-6654,-4947,4100,-122,-949,529,1,7,11
8.32E+02,-6563,-4581,3793,-40,-1095,621,1,7,11
8.51E+02,-6707,-4487,3748,-22,-722,442,1,7,11
8.72E+02,-6326,-4338,3899,-15,-875,454,1,7,11
8.95E+02,-6478,-4226,3554,-52,-497,435,1,7,11
9.18E+02,-6082,-4354,3663,-102,-637,393,1,7,11
9.39E+02,-6023,-4081,3327,29,-218,617,1,7,11
9.58E+02,-6191,-4044,3219,-303,-378,531,1,7,11
9.72E+02,-6166,-3983,3342,-375,-274,146,1,7,11
9.82E+02,-6257,-3990,3037,-513,115,300,1,7,11
9.91E+02,-6068,-4058,3040,-624,-81,-19,1,7,11
9.98E+02,-6405,-4416,3063,-458,-43,-97,1,7,11
1.00E+03,-6494,-4263,3365,-501,-60,75,1,7,11
1.01E+03,-6333,-4613,3403,-776,-114,-280,1,7,11
1.02E+03,-6693,-4687,3217,-773,63,-314,1,7,11
1.02E+03,-6779,-4495,3261,-509,-280,-294,1,7,11
1.02E+03,-6533,-4580,3317,-437,-133,49,1,7,11
1.02E+03,-6717,-4921,3592,-630,-217,58,1,7,11
1.02E+03,-6711,-4945,3637,-523,-237,15,1,7,11
1.01E+03,-6658,-4943,3660,-156,-532,-286,1,7,11
1.00E+03,-6370,-4895,3656,-311,-521,-330,1,7,11
9.88E+02,-6357,-4598,3669,7,-231,-323,1,7,11
9.77E+02,-6313,-4562,3669,89,-216,-295,1,7,11
9.70E+02,-6511,-4500,3629,-82,-181,-267,1,7,11
9.68E+02,-6441,-4637,3286,-17,-133,41,1,7,11
9.70E+02,-6127,-4302,3212,-67,-289,103,1,7,11
9.75E+02,-6089,-4311,3454,92,126,-79,1,7,11
9.80E+02,-6101,-4336,3213,-260,296,-33,1,7,11
9.83E+02,-6102,-4639,3221,-337,169,-33,1,7,11
9.83E+02,-6043,-4493,3236,-175,243,-89,1,7,11
9.76E+02,-6190,-4872,3230,-235,560,-270,1,7,11
9.62E+02,-6914,-4519,3207,-394,757,-1247,1,7,11
9.38E+02,-6998,-4546,3203,-608,890,-1187,1,7,11
9.11E+02,-6789,-4885,3226,-534,790,-941,1,7,11
8.87E+02,-6993,-4955,3249,-382,416,-894,1,7,11
8.71E+02,-6561,-4963,3207,127,570,-635,1,7,11
8.64E+02,-6750,-4769,3236,292,607,-144,1,7,11
8.63E+02,-6312,-4828,3234,530,593,53,1,7,11
8.65E+02,-6487,-5152,3245,769,414,125,1,7,11
8.68E+02,-6452,-4843,3237,1080,510,108,1,7,11
8.71E+02,-6431,-4958,3202,1370,868,42,1,7,11
8.72E+02,-6477,-4579,3212,1574,762,21,1,7,11
8.72E+02,-6438,-4492,3455,1488,1138,27,1,7,11
8.71E+02,-6120,-4716,3234,1810,1013,1,1,7,11
8.71E+02,-6402,-4735,3289,1664,1199,-297,1,7,11
8.73E+02,-6105,-4560,3321,2051,1497,-358,1,7,11
8.79E+02,-6030,-4877,3311,2000,1850,-172,1,7,11
8.82E+02,-6272,-4744,3607,2211,2110,-487,1,7,11
8.76E+02,-6253,-4842,3327,2510,2395,-775,1,7,11
8.56E+02,-6020,-5178,3288,3186,2442,-1069,1,7,11
8.25E+02,-6050,-5206,3200,3463,2758,-1340,1,7,11
7.94E+02,-6068,-5204,3363,4372,3592,-1816,1,7,11
7.73E+02,-6261,-5022,3018,5441,3786,-1714,1,7,11
7.69E+02,-6232,-5112,3174,6227,4305,-2155,1,7,11
7.77E+02,-6205,-5482,3114,6802,4804,-2420,1,7,11
7.95E+02,-6155,-5458,2932,7983,5293,-2527,1,7,11
8.19E+02,-6241,-5387,2498,8585,5838,-3132,1,7,11
8.44E+02,-6111,-5055,2587,9552,6316,-3217,1,7,11
8.62E+02,-6305,-5130,2394,9873,6927,-3555,1,7,11
8.69E+02,-6544,-4881,1969,10192,6846,-3829,1,7,11
8.67E+02,-6810,-4667,2170,10509,6848,-4044,1,7,11
8.63E+02,-7275,-4473,2156,10141,6917,-4470,1,7,11
8.61E+02,-7536,-4048,1987,9870,6375,-4285,1,7,11
8.64E+02,-7735,-4152,2370,9792,6179,-4225,1,7,11
8.71E+02,-7593,-3726,2399,9131,5637,-4045,1,7,11
8.80E+02,-7633,-3568,2198,8608,4816,-3775,1,7,11
8.91E+02,-7597,-3695,2264,8208,4263,-3706,1,7,11
9.04E+02,-7803,-3624,2651,7453,3753,-3347,1,7,11
9.20E+02,-7743,-3585,2532,6678,3255,-2715,1,7,11
9.40E+02,-7380,-3606,2924,5901,2736,-2594,1,7,11
9.63E+02,-7456,-3618,2747,5165,2213,-2011,1,7,11
9.84E+02,-7141,-3682,3104,4447,1782,-1692,1,7,11
9.98E+02,-7051,-3461,3174,3882,1606,-1612,1,7,11
1.00E+03,-6881,-3521,2966,3332,967,-1313,1,7,11
9.86E+02,-7013,-3882,3054,2845,644,-1068,1,7,11
9.65E+02,-6613,-3936,3352,2234,582,-667,1,7,11
9.45E+02,-6726,-3959,3356,1964,350,-835,1,7,11
9.33E+02,-6379,-3727,3341,1729,-35,-500,1,7,11
9.33E+02,-6375,-3771,3371,1518,-83,-407,1,7,11
9.41E+02,-6361,-3787,3407,1642,-125,-556,1,7,11
9.52E+02,-6330,-3792,3429,1551,115,-191,1,7,11
9.62E+02,-6312,-4128,3209,1207,126,-327,1,7,11
9.69E+02,-6297,-4213,3455,1178,-104,24,1,7,11
9.70E+02,-6458,-4089,3426,1153,-26,20,1,7,11
9.66E+02,-6427,-4382,3404,1347,330,-377,1,7,11
9.54E+02,-6524,-4437,3437,995,224,-537,1,7,11
9.38E+02,-6750,-4368,3204,982,634,-391,1,7,11
9.23E+02,-6959,-4092,3232,1115,485,-639,1,7,11
9.15E+02,-7207,-4375,3290,759,863,-216,1,7,11
9.17E+02,-7087,-4361,3317,723,884,19,1,7,11
9.27E+02,-7123,-4387,3311,680,653,296,1,7,11
9.40E+02,-7076,-4403,3265,680,695,536,1,7,11
9.54E+02,-7219,-4368,3218,646,707,638,1,7,11
9.65E+02,-6827,-4090,3455,836,651,399,1,7,11
9.72E+02,-7014,-3985,3441,796,822,587,1,7,11
9.72E+02,-6990,-4192,3207,475,447,547,1,7,11
9.64E+02,-6653,-4101,3442,439,521,251,1,7,11
9.49E+02,-6655,-4115,3226,576,141,218,1,7,11
9.29E+02,-6630,-4104,3234,586,-42,208,1,7,11
9.06E+02,-6778,-3828,3218,532,22,135,1,7,11
8.83E+02,-6704,-3831,3212,194,-360,355,1,7,11
8.62E+02,-6373,-3830,3200,350,-202,282,1,7,11
8.45E+02,-6314,-3820,3448,-56,-244,-42,1,7,11
8.35E+02,-6288,-4170,3237,-263,-225,-62,1,7,11
8.32E+02,-6377,-4064,3322,-231,-142,-70,1,7,11
8.32E+02,-6731,-4399,3614,-596,-356,-9,1,7,11
8.34E+02,-6673,-4061,3250,-404,-340,317,1,7,11
8.34E+02,-6702,-4063,3229,-808,64,165,1,7,11
8.35E+02,-6561,-4021,3200,-708,-53,532,1,7,11
8.39E+02,-6989,-4187,3446,-1129,298,398,1,7,11
8.48E+02,-6850,-3780,3409,-1290,293,838,1,7,11
8.59E+02,-7173,-3956,3358,-1218,260,1069,1,7,11
8.64E+02,-7238,-3922,3337,-1597,-42,1323,1,7,11
8.59E+02,-7290,-3912,3059,-1429,-126,1562,1,7,11
8.41E+02,-7143,-3525,3140,-1825,-223,1408,1,7,11
8.20E+02,-7498,-3688,3125,-1667,-603,1250,1,7,11
8.04E+02,-7552,-3622,3123,-1784,-488,1328,1,7,11
8.00E+02,-7366,-3283,3129,-2126,-862,905,1,7,11
8.06E+02,-7685,-3224,3131,-1950,-709,1086,1,7,11
8.18E+02,-7738,-3406,3118,-2314,-1049,1088,1,7,11
8.34E+02,-7782,-3339,3087,-2230,-1141,896,1,7,11
8.52E+02,-7569,-3017,2801,-2461,-992,1005,1,7,11
8.72E+02,-7613,-3181,2739,-2760,-1394,1407,1,7,11
8.96E+02,-7649,-3128,2703,-3450,-1608,1581,1,7,11
9.21E+02,-7664,-3092,2907,-3945,-1900,1509,1,7,11
9.44E+02,-7665,-2758,2554,-4268,-2005,1692,1,7,11
9.58E+02,-7639,-2750,2475,-5245,-2688,2145,1,7,11
9.58E+02,-7802,-2812,2461,-5999,-3139,2359,1,7,11
9.46E+02,-7412,-2972,2450,-6729,-3286,2578,1,7,11
9.30E+02,-7466,-3430,2656,-7078,-3870,2534,1,7,11
9.19E+02,-7276,-3624,2581,-7568,-3812,2706,1,7,11
9.21E+02,-6884,-3870,2270,-8216,-4163,3096,1,7,11
9.35E+02,-7007,-3832,2260,-8180,-4186,3171,1,7,11
9.52E+02,-6922,-4067,2294,-8550,-4126,3181,1,7,11
9.67E+02,-6594,-4299,2605,-8520,-3783,3139,1,7,11
9.73E+02,-6762,-4518,2655,-8088,-3945,2766,1,7,11
9.70E+02,-6692,-4909,2667,-8018,-3555,2516,1,7,11
9.60E+02,-6694,-4982,2675,-7339,-3613,2411,1,7,11
9.46E+02,-7191,-4728,2520,-6001,-2532,1566,1,7,11
9.30E+02,-7087,-4331,2527,-5063,-2279,1612,1,7,11
9.14E+02,-7471,-4238,2844,-4631,-2030,1476,1,7,11
8.97E+02,-7515,-4402,2875,-3905,-2123,1831,1,7,11
8.81E+02,-7516,-3983,2859,-2954,-1761,1852,1,7,11
8.68E+02,-7491,-3818,2876,-2633,-1670,1838,1,7,11
8.57E+02,-7492,-3883,2931,-2175,-1821,1795,1,7,11
8.51E+02,-7448,-3832,2717,-1839,-1496,1466,1,7,11
8.50E+02,-7075,-3521,2727,-1591,-1453,1573,1,7,11
8.54E+02,-7221,-3484,2740,-1195,-1628,1329,1,7,11
8.62E+02,-6900,-3705,2739,-1164,-1233,1051,1,7,11
8.72E+02,-6860,-3704,2754,-1232,-1322,774,1,7,11
8.82E+02,-6845,-3707,2779,-1590,-1138,520,1,7,11
8.86E+02,-6878,-3460,2801,-1466,-699,326,1,7,11
8.81E+02,-6891,-3660,2791,-1813,-802,-56,1,7,11
8.64E+02,-7209,-3667,2806,-1888,-399,-112,1,7,11
8.46E+02,-7245,-3626,2782,-1711,-518,-73,1,7,11
8.38E+02,-7276,-3323,2749,-1714,-181,276,1,7,11
8.49E+02,-7084,-3598,2729,-1752,-344,165,1,7,11
8.78E+02,-7126,-3645,2942,-1773,-289,632,1,7,11
9.13E+02,-7132,-3672,2866,-1785,14,440,1,7,11
9.45E+02,-7153,-3480,2550,-2127,75,428,1,7,11
9.66E+02,-7454,-3560,2507,-2168,118,624,1,7,11
9.76E+02,-7518,-3890,2496,-1978,-42,527,1,7,11
9.80E+02,-7349,-3774,2490,-2289,355,-48,1,7,11
9.81E+02,-7311,-3738,2477,-1956,323,108,1,7,11
9.82E+02,-7298,-3928,2450,-2129,287,22,1,7,11
9.83E+02,-7550,-3871,2685,-2083,-24,-257,1,7,11
9.82E+02,-7535,-3573,2440,-2069,-123,43,1,7,11
9.79E+02,-7458,-3579,2461,-2070,-277,99,1,7,11
9.73E+02,-7071,-3867,2443,-2052,-190,110,1,7,11
9.65E+02,-7208,-3957,2452,-2068,-591,60,1,7,11
9.56E+02,-6803,-3782,2433,-2075,-475,-304,1,7,11
9.47E+02,-6937,-4148,2685,-2104,-802,-213,1,7,11
9.38E+02,-6594,-3974,2681,-2082,-821,-402,1,7,11
9.29E+02,-6784,-4017,2654,-1782,-798,-852,1,7,11
9.22E+02,-6721,-4452,2635,-1678,-634,-922,1,7,11
9.14E+02,-6536,-4474,2433,-1820,-248,-1346,1,7,11
9.06E+02,-7136,-4280,3355,-333,-584,-1070,1,7,11
8.93E+02,-7073,-4358,3044,138,-429,-888,1,7,11
8.75E+02,-6407,-4609,3431,1777,-263,-307,1,7,11
8.50E+02,-5840,-4881,3395,2424,340,-873,1,7,11
8.23E+02,-5587,-4813,3045,2749,876,-1327,1,7,11
8.03E+02,-5375,-5214,2944,3707,1573,-1834,1,7,11
7.95E+02,-5703,-5120,2832,7351,5294,-3696,1,7,11
7.98E+02,-5931,-5243,2532,8124,6159,-3950,1,7,11
8.12E+02,-6185,-4791,2479,8647,6286,-4120,1,7,11
8.36E+02,-6490,-4528,2682,8882,6722,-4178,1,7,11
8.66E+02,-6545,-4272,2443,9046,6702,-4137,1,7,11
8.99E+02,-6871,-4424,2841,8396,6292,-3717,1,7,11
9.33E+02,-7445,-4450,2784,7893,6253,-3687,1,7,11
9.63E+02,-7753,-4067,3178,7407,5554,-3347,1,7,11
9.86E+02,-7632,-4156,2968,6797,5190,-2931,1,7,11
1.00E+03,-8018,-3829,3035,6271,4326,-2194,1,7,11
1.01E+03,-8058,-3827,3412,5453,3940,-1674,1,7,11
9.99E+02,-7950,-4147,3260,4644,3044,-1170,1,7,11
9.85E+02,-7781,-4210,3317,3941,2474,-721,1,7,11
9.71E+02,-7527,-4013,3281,3347,1972,-614,1,7,11
9.66E+02,-7261,-4016,3429,2838,1843,-374,1,7,11
9.75E+02,-7003,-3988,3049,2361,1552,13,1,7,11
9.91E+02,-6534,-3990,3195,1899,1348,46,1,7,11
1.01E+03,-6379,-4015,3124,1229,938,-259,1,7,11
1.02E+03,-6523,-4044,3073,1139,1059,-356,1,7,11
1.02E+03,-6472,-4059,2769,861,685,-210,1,7,11
1.02E+03,-6497,-4075,2754,612,844,-561,1,7,11
1.00E+03,-6325,-4389,3074,383,508,-592,1,7,11
9.91E+02,-6679,-4477,3191,-17,405,-544,1,7,11
9.82E+02,-6743,-4247,2999,-21,534,-187,1,7,11
9.76E+02,-6776,-4226,3012,296,173,-286,1,7,11
9.69E+02,-6560,-4387,2958,137,378,-84,1,7,11
9.60E+02,-6596,-4059,3183,157,373,162,1,7,11
9.46E+02,-6611,-4010,3132,381,367,631,1,7,11
9.33E+02,-6915,-4211,3086,289,352,504,1,7,11
9.22E+02,-6952,-4173,2806,-112,297,806,1,7,11
9.17E+02,-7005,-4156,2777,-310,-63,504,1,7,11
9.19E+02,-6792,-4181,2790,-595,32,635,1,7,11
9.24E+02,-6856,-3993,3107,-662,-169,157,1,7,11
9.30E+02,-7175,-4033,3168,-929,-425,-98,1,7,11
9.32E+02,-6908,-4215,3108,-1408,-716,-365,1,7,11
9.31E+02,-6901,-4181,3107,-1504,-978,-603,1,7,11
9.27E+02,-6902,-4208,3142,-2135,-1234,-507,1,7,11
9.22E+02,-6884,-4001,3148,-2228,-1492,-843,1,7,11
9.15E+02,-6861,-4034,3138,-2511,-1707,-835,1,7,11
9.08E+02,-6871,-3993,2815,-2752,-2112,-451,1,7,11
9.02E+02,-7219,-4146,2743,-2980,-1956,-154,1,7,11
8.98E+02,-7069,-3726,2906,-3227,-2349,317,1,7,11
8.98E+02,-7147,-3910,2841,-3844,-2283,676,1,7,11
9.00E+02,-7439,-3919,2529,-4208,-2524,1625,1,7,11
9.05E+02,-7168,-3950,2677,-4295,-3074,2039,1,7,11
9.14E+02,-7135,-3747,2289,-4910,-3378,2881,1,7,11
9.25E+02,-7280,-4106,2371,-5054,-3459,3338,1,7,11
9.38E+02,-6843,-4032,2175,-5523,-3766,3601,1,7,11
9.52E+02,-6931,-4309,2049,-6041,-4223,3655,1,7,11
9.66E+02,-6571,-4869,2060,-6745,-4061,3269,1,7,11
9.77E+02,-6775,-5154,2158,-7008,-4358,3031,1,7,11
9.83E+02,-6557,-5043,2037,-7008,-4060,2758,1,7,11
9.81E+02,-6615,-5093,2242,-6553,-3993,2544,1,7,11
9.70E+02,-6921,-5060,2662,-6401,-4178,2653,1,7,11
9.54E+02,-6930,-5181,2508,-5605,-4107,2583,1,7,11
9.42E+02,-6639,-4752,2548,-5016,-3748,2293,1,7,11
9.37E+02,-6600,-4592,2864,-4728,-3578,2241,1,7,11
9.44E+02,-6580,-4496,2705,-4204,-3621,2430,1,7,11
9.56E+02,-6590,-4677,3100,-3682,-3390,2314,1,7,11
9.68E+02,-6551,-4295,3196,-3122,-3180,2164,1,7,11
9.76E+02,-6723,-4403,2986,-2631,-2707,1728,1,7,11
9.78E+02,-6387,-3974,2970,-1964,-2466,1521,1,7,11
9.75E+02,-6351,-3826,3175,-1710,-2431,1558,1,7,11
9.70E+02,-6374,-3765,3160,-1878,-2129,1341,1,7,11
9.65E+02,-6678,-4106,3197,-1909,-1844,1124,1,7,11
9.62E+02,-6770,-4006,3033,-1915,-1586,641,1,7,11
9.57E+02,-6616,-4409,3362,-1814,-1372,426,1,7,11
9.51E+02,-6962,-4238,3331,-1619,-957,237,1,7,11
9.42E+02,-6996,-4269,3001,-1195,-1086,277,1,7,11
9.31E+02,-7022,-4616,3018,-1358,-690,-96,1,7,11
9.23E+02,-6976,-4685,3045,-1311,-863,27,1,7,11
9.20E+02,-6644,-4650,3009,-940,-829,-154,1,7,11
9.25E+02,-6600,-4277,2966,-1100,-476,-558,1,7,11
9.35E+02,-6602,-4415,2951,-1042,-639,-615,1,7,11
9.48E+02,-6924,-4068,2995,-1036,-533,-549,1,7,11
9.61E+02,-6994,-4002,3071,-1012,-229,-133,1,7,11
9.70E+02,-6980,-3971,3413,-719,-516,27,1,7,11
9.76E+02,-6574,-4153,3379,-659,-599,92,1,7,11
9.75E+02,-6531,-4130,3360,-669,-593,111,1,7,11
9.67E+02,-6557,-3793,3070,-663,-533,-115,1,7,11
9.52E+02,-6624,-3757,3044,-722,-215,-59,1,7,11
9.35E+02,-6921,-3764,2985,-1052,-159,287,1,7,11
9.19E+02,-6974,-4121,2944,-899,-308,377,1,7,11
9.10E+02,-6809,-3991,3189,-966,58,190,1,7,11
9.06E+02,-6855,-4357,3178,-968,92,208,1,7,11
9.06E+02,-6868,-4405,3147,-929,68,156,1,7,11
9.06E+02,-7206,-4361,3167,-1098,30,360,1,7,11
9.06E+02,-7181,-3973,3124,-684,-326,358,1,7,11
9.05E+02,-6860,-4114,2795,-867,-368,363,1,7,11
9.05E+02,-6855,-3818,2803,-844,-351,155,1,7,11
9.04E+02,-6802,-3786,2802,-821,-353,207,1,7,11
9.04E+02,-7036,-3809,3086,-851,-354,229,1,7,11
9.01E+02,-6997,-4116,2812,-871,-376,217,1,7,11
8.95E+02,-6992,-4183,3079,-641,-369,155,1,7,11
8.85E+02,-6959,-4040,3093,-646,-355,332,1,7,11
8.74E+02,-6934,-4412,3105,-869,-321,-21,1,7,11
8.67E+02,-6920,-4333,3178,-793,-291,124,1,7,11
8.68E+02,-6592,-4648,3142,-580,-290,-359,1,7,11
8.78E+02,-6621,-4660,3116,-338,39,-591,1,7,11
8.93E+02,-6938,-4338,3110,-48,118,-470,1,7,11
9.10E+02,-6954,-4259,3072,240,-76,-493,1,7,11
9.24E+02,-6961,-4238,3101,492,302,-455,1,7,11
9.35E+02,-6944,-4305,3172,1060,211,-409,1,7,11
9.43E+02,-6249,-5656,2577,6910,4332,-3924,1,7,11
9.48E+02,-6121,-5365,2416,8264,5091,-4376,1,7,11
9.48E+02,-6647,-4896,1867,11841,7560,-4075,1,7,11
9.45E+02,-7031,-4620,1512,11736,7606,-3982,1,7,11
9.35E+02,-7695,-2743,2011,8365,5644,-2422,1,7,11
9.18E+02,-8028,-2836,2407,7459,4984,-1720,1,7,11
8.94E+02,-7856,-2471,2560,6198,4007,-1619,1,7,11
8.63E+02,-8207,-2582,2662,4934,3235,-754,1,7,11
8.26E+02,-8289,-2200,2500,3634,2308,-594,1,7,11
7.84E+02,-8319,-2396,2550,2025,1602,-85,1,7,11
7.43E+02,-8074,-2395,2816,868,-101,473,1,7,11
7.08E+02,-8255,-2409,2520,-1189,-738,1292,1,7,11
6.84E+02,-7884,-2285,2461,-2519,-1496,1851,1,7,11
6.72E+02,-8021,-2605,2590,-3940,-2373,2381,1,7,11
6.71E+02,-7661,-2504,2257,-5125,-2883,2843,1,7,11
6.81E+02,-7591,-2732,2252,-6157,-3057,2977,1,7,11
7.00E+02,-7804,-2947,2182,-6970,-3684,3587,1,7,11
7.25E+02,-7766,-3226,2427,-7414,-3765,3918,1,7,11
7.53E+02,-7337,-3580,2221,-8229,-4405,4127,1,7,11
7.80E+02,-7145,-4181,2564,-8552,-4732,4138,1,7,11
8.00E+02,-7241,-4054,2283,-8488,-4871,3770,1,7,11
8.12E+02,-6843,-4028,2240,-8100,-4596,3845,1,7,11
8.16E+02,-6897,-4403,2643,-8253,-4644,3650,1,7,11
8.14E+02,-6846,-4382,2682,-7636,-4252,3207,1,7,11
8.08E+02,-6836,-4449,2545,-7298,-4049,3039,1,7,11
8.01E+02,-6788,-4478,2878,-6830,-4139,3146,1,7,11
7.95E+02,-6946,-4234,2924,-6330,-3733,2708,1,7,11
7.94E+02,-6577,-4446,2923,-5796,-3542,2490,1,7,11
7.96E+02,-6773,-4392,2699,-5323,-3271,2248,1,7,11
7.97E+02,-6756,-4095,2782,-5179,-2967,1986,1,7,11
7.96E+02,-6771,-4072,3139,-4543,-2697,1739,1,7,11
7.94E+02,-6775,-3996,3190,-4425,-2474,1495,1,7,11
7.96E+02,-6783,-4170,2998,-4111,-2291,1278,1,7,11
8.05E+02,-6560,-4151,3347,-3880,-2384,1340,1,7,11
8.21E+02,-6619,-4196,3200,-3655,-1995,925,1,7,11
8.37E+02,-6950,-3971,3301,-3398,-2127,1031,1,7,11
8.48E+02,-6997,-4198,3601,-3101,-1748,670,1,7,11
8.49E+02,-6789,-4152,3636,-2878,-1861,854,1,7,11
8.41E+02,-6861,-4136,3467,-2469,-1453,830,1,7,11
8.27E+02,-6850,-4120,3520,-2587,-1619,836,1,7,11
8.09E+02,-6818,-4147,3564,-2242,-1274,810,1,7,11
7.92E+02,-6805,-4187,3866,-2397,-1179,503,1,7,11
7.84E+02,-6809,-4195,3895,-2009,-1343,419,1,7,11
7.90E+02,-6816,-4151,3860,-2121,-1002,577,1,7,11
8.05E+02,-6821,-4107,3830,-1756,-911,245,1,7,11
8.21E+02,-6800,-3806,3548,-1668,-1091,196,1,7,11
8.31E+02,-7005,-3781,3511,-1860,-1027,165,1,7,11
8.31E+02,-6648,-3785,3488,-1794,-705,359,1,7,11
8.29E+02,-6588,-3734,3711,-1502,-692,270,1,7,11
8.30E+02,-6784,-3733,3687,-1504,-701,-81,1,7,11
8.37E+02,-6745,-3774,3668,-1501,-721,86,1,7,11
8.45E+02,-6725,-4125,3679,-1498,-716,10,1,7,11
8.47E+02,-6767,-4016,3462,-1469,-681,-315,1,7,11
8.39E+02,-6594,-4410,3518,-1631,-884,-356,1,7,11
8.23E+02,-6915,-4314,3855,-1268,-842,-132,1,7,11
8.12E+02,-6586,-4334,3860,-1326,-848,-194,1,7,11
8.14E+02,-6717,-4305,3854,-917,-829,-555,1,7,11
8.31E+02,-6357,-4245,3575,-1059,-769,-427,1,7,11
8.57E+02,-6319,-4461,3572,-748,-389,-790,1,7,11
8.82E+02,-6317,-4370,3565,-706,-526,-865,1,7,11
9.00E+02,-6305,-4077,3562,-718,-177,-895,1,7,11
9.12E+02,-6315,-4094,3856,-736,-338,-894,1,7,11
9.19E+02,-6300,-4390,3864,-722,-281,-866,1,7,11
9.23E+02,-6511,-4401,3858,-675,11,-854,1,7,11
9.25E+02,-6522,-4366,3561,-812,80,-855,1,7,11
9.25E+02,-6343,-4096,3533,-447,-66,-801,1,7,11
9.26E+02,-6757,-4006,3486,-545,324,-449,1,7,11
9.28E+02,-6646,-3990,3495,-194,188,-523,1,7,11
9.31E+02,-7029,-4061,3517,-335,552,-180,1,7,11
9.36E+02,-6996,-4068,3507,117,637,-69,1,7,11
9.40E+02,-6649,-4062,3461,342,457,366,1,7,11
9.45E+02,-6545,-4094,3680,560,804,228,1,7,11
9.48E+02,-6767,-4059,3620,790,652,243,1,7,11
9.51E+02,-6763,-3986,3303,1030,1032,164,1,7,11
9.52E+02,-6552,-4148,3246,976,973,348,1,7,11
9.51E+02,-6619,-3795,3442,1392,1336,275,1,7,11
9.47E+02,-6652,-3899,3357,1277,1384,-11,1,7,11
9.39E+02,-7019,-3508,3027,1626,1236,-40,1,7,11
9.27E+02,-6796,-3668,2975,1640,1593,-6,1,7,11
9.09E+02,-6835,-3680,2969,1582,1424,328,1,7,11
8.90E+02,-6885,-3638,3181,1278,1491,340,1,7,11
8.74E+02,-7187,-3621,3143,1214,1517,333,1,7,11
8.64E+02,-7214,-3629,3103,1368,1447,287,1,7,11
8.62E+02,-7226,-3639,2797,982,1599,-53,1,7,11
8.61E+02,-7215,-3614,2706,1117,1211,79,1,7,11
8.58E+02,-7228,-3629,2938,706,1155,12,1,7,11
8.48E+02,-7247,-3684,2923,816,1315,-364,1,7,11
8.36E+02,-7275,-3508,2905,440,1016,-207,1,7,11
8.26E+02,-7295,-3864,2911,630,1013,-569,1,7,11
8.22E+02,-7290,-3965,2887,385,1288,-632,1,7,11
8.22E+02,-7258,-3800,2843,504,1353,-454,1,7,11
8.19E+02,-7209,-3840,2513,1116,1179,-804,1,7,11
8.08E+02,-6888,-4135,2444,1395,1554,-644,1,7,11
7.88E+02,-7031,-4428,2637,1774,1915,-1147,1,7,11
7.66E+02,-7031,-4309,2610,2270,2160,-1313,1,7,11
7.49E+02,-7002,-4631,2562,3136,2424,-1229,1,7,11
7.38E+02,-6958,-4499,2281,3545,2478,-1645,1,7,11
7.32E+02,-6645,-4594,2204,4620,3079,-1801,1,7,11
7.29E+02,-6589,-4900,2309,5491,3235,-1716,1,7,11
7.26E+02,-6622,-4767,1767,7263,4260,-2348,1,7,11
7.24E+02,-6947,-4746,1862,7859,4781,-2573,1,7,11
7.23E+02,-6847,-4912,1466,8612,5503,-2553,1,7,11
7.22E+02,-7291,-4498,1599,9215,5588,-2763,1,7,11
7.21E+02,-7495,-4631,1542,9623,5788,-3196,1,7,11
7.21E+02,-7704,-4421,1190,9924,5849,-3331,1,7,11
7.21E+02,-8051,-3739,1153,10111,5561,-3416,1,7,11
7.20E+02,-7894,-3569,1223,9846,5486,-3366,1,7,11
7.19E+02,-7892,-3465,1570,9215,4800,-3011,1,7,11
7.17E+02,-7857,-3670,1424,9022,4335,-3190,1,7,11
7.14E+02,-8028,-3601,1514,8565,4100,-3156,1,7,11
7.10E+02,-7642,-3256,1853,7810,3636,-3142,1,7,11
7.07E+02,-7559,-3381,1664,7507,3007,-3085,1,7,11
7.06E+02,-7717,-3363,2095,6586,2925,-2787,1,7,11
7.12E+02,-7370,-3384,2155,6200,2591,-2544,1,7,11
7.34E+02,-7338,-3434,1998,5306,2313,-2265,1,7,11
7.72E+02,-7547,-3235,2371,4937,2084,-1944,1,7,11
8.18E+02,-7510,-3627,2246,4089,1863,-1621,1,7,11
8.58E+02,-7437,-3471,2588,3841,1549,-1350,1,7,11
8.83E+02,-7167,-3527,2652,3409,1368,-1134,1,7,11
8.91E+02,-7132,-3852,2681,2854,951,-660,1,7,11
8.93E+02,-7086,-3935,2464,2268,1115,-433,1,7,11
8.96E+02,-7046,-3801,2545,1967,1074,-233,1,7,11
9.07E+02,-7205,-4160,2863,1754,1039,-338,1,7,11
9.23E+02,-6824,-4223,2872,1868,1024,-272,1,7,11
9.37E+02,-6970,-3979,2866,1512,1067,-281,1,7,11
9.45E+02,-6647,-4209,2844,1417,914,-334,1,7,11
9.43E+02,-6630,-4124,2826,1591,1309,-381,1,7,11
9.38E+02,-6939,-3786,2833,1223,1222,-363,1,7,11
9.32E+02,-6980,-3955,2822,1397,1644,-265,1,7,11
9.31E+02,-7036,-3888,2553,1312,1804,-120,1,7,11
9.34E+02,-6889,-3575,2540,1010,1682,295,1,7,11
9.35E+02,-7290,-3463,2500,1004,1765,153,1,7,11
9.31E+02,-7455,-3589,2472,977,1775,219,1,7,11
9.16E+02,-7359,-3447,2643,919,1687,530,1,7,11
8.94E+02,-7599,-3205,2467,1092,1810,576,1,7,11
8.72E+02,-7806,-3375,2563,742,1268,193,1,7,11
8.56E+02,-7640,-3415,2579,858,1324,380,1,7,11
8.49E+02,-7586,-3201,2573,467,680,-25,1,7,11
8.49E+02,-7782,-3217,2561,419,471,-38,1,7,11
8.52E+02,-7405,-3283,2299,637,547,262,1,7,11
8.55E+02,-7550,-3626,2295,621,170,322,1,7,11
8.56E+02,-7441,-3490,2294,621,326,135,1,7,11
8.56E+02,-7232,-4154,2586,242,114,-75,1,7,11
8.52E+02,-6856,-4234,2628,155,-337,-170,1,7,11
8.44E+02,-6984,-4520,2641,328,-574,-767,1,7,11
8.35E+02,-6921,-4737,2662,-20,-787,-1466,1,7,11
8.25E+02,-6928,-4838,2676,-61,-695,-2421,1,7,11
8.16E+02,-6963,-4795,2672,-27,-1061,-2894,1,7,11
8.06E+02,-6806,-4775,2649,314,-1063,-2759,1,7,11
7.91E+02,-6826,-4922,2299,530,-722,-2825,1,7,11
7.72E+02,-6858,-4936,2264,436,-780,-2203,1,7,11
7.53E+02,-7039,-4969,2401,710,-393,-2055,1,7,11
7.42E+02,-7037,-4586,2400,1282,-354,-1622,1,7,11
7.41E+02,-6949,-4570,2391,1451,10,-1303,1,7,11
7.48E+02,-6623,-4649,2355,1674,127,-903,1,7,11
7.57E+02,-6586,-4352,2197,1735,-13,-744,1,7,11
7.65E+02,-6621,-4248,2266,2048,331,-674,1,7,11
7.74E+02,-6977,-4452,2619,2059,134,-844,1,7,11
7.86E+02,-6816,-4437,2465,1778,143,-484,1,7,11
8.03E+02,-6870,-4440,2826,1751,352,-615,1,7,11
8.23E+02,-7196,-4453,2905,2052,278,-207,1,7,11
8.41E+02,-7175,-4442,2895,2086,-98,-335,1,7,11
8.51E+02,-6857,-4375,2883,2066,82,14,1,7,11
8.53E+02,-6793,-4034,2870,1729,79,75,1,7,11
8.50E+02,-7032,-3997,2895,1861,-106,104,1,7,11
8.44E+02,-7007,-4188,2922,1467,-17,81,1,7,11
8.37E+02,-7013,-4200,2752,1576,289,48,1,7,11
8.31E+02,-6843,-4134,2784,1184,324,-277,1,7,11
8.29E+02,-6829,-4119,2751,1360,-6,-285,1,7,11
8.34E+02,-6795,-4173,2748,930,-80,-297,1,7,11
8.43E+02,-7018,-3991,2766,735,94,-331,1,7,11
8.54E+02,-6961,-4066,2768,816,11,-149,1,7,11
8.64E+02,-6932,-4017,2778,399,-279,-545,1,7,11
8.72E+02,-7014,-4356,3180,230,10,-543,1,7,11
8.76E+02,-6785,-4386,2998,210,3,-204,1,7,11
8.74E+02,-7023,-4425,3038,216,6,-361,1,7,11
8.67E+02,-7006,-4237,3338,514,28,-273,1,7,11
8.57E+02,-6985,-4289,3342,605,68,33,1,7,11
8.49E+02,-6971,-4267,3339,456,114,35,1,7,11
8.46E+02,-6975,-4428,3362,785,-119,4,1,7,11
8.50E+02,-7000,-4029,3387,826,119,-257,1,7,11
8.56E+02,-7024,-4105,3419,830,66,72,1,7,11
8.61E+02,-6813,-3871,3428,795,10,-5,1,7,11
8.63E+02,-6867,-3664,3210,397,-295,555,1,7,11
8.62E+02,-7173,-3267,3291,163,-377,693,1,7,11
8.61E+02,-7202,-3396,3618,-83,-252,1376,1,7,11
8.62E+02,-7268,-3035,3675,-358,-632,1794,1,7,11
8.64E+02,-7045,-2955,3460,-412,-812,2174,1,7,11
8.63E+02,-7274,-3101,3701,-1055,-1073,2177,1,7,11
8.57E+02,-7041,-2831,3615,-1563,-1337,2298,1,7,11
8.45E+02,-7452,-2214,3590,-2328,-1605,2630,1,7,11
8.30E+02,-7724,-2123,3595,-3220,-1705,2467,1,7,11
8.17E+02,-7875,-1553,3296,-4571,-2438,2736,1,7,11
8.09E+02,-8288,-1218,3304,-7168,-3543,3065,1,7,11
8.04E+02,-7898,-1407,3339,-8852,-4517,3480,1,7,11
8.00E+02,-7976,-1614,3148,-10626,-5312,4199,1,7,11
7.96E+02,-7759,-1670,2912,-12217,-6229,4480,1,7,11
7.90E+02,-7524,-2340,2681,-13951,-6758,5199,1,7,11
7.85E+02,-7268,-2854,2219,-14611,-7212,5313,1,7,11
7.83E+02,-7000,-3240,2400,-15583,-7344,5707,1,7,11
7.81E+02,-6631,-3840,2231,-17009,-7632,5365,1,7,11
7.78E+02,-6615,-4234,2264,-16858,-7851,5253,1,7,11
7.70E+02,-6924,-4525,2278,-16538,-7912,5333,1,7,11
7.59E+02,-6805,-5224,2441,-16214,-7810,5575,1,7,11
7.46E+02,-6795,-5334,2841,-15147,-7967,6000,1,7,11
7.34E+02,-6965,-5540,2888,-13520,-7774,5932,1,7,11
7.26E+02,-6770,-5922,2939,-12297,-7158,5737,1,7,11
7.24E+02,-6288,-5619,2743,-10762,-6637,5404,1,7,11
7.30E+02,-6057,-5946,3174,-9118,-6242,4741,1,7,11
7.43E+02,-5826,-5918,3065,-7654,-5497,4417,1,7,11
7.64E+02,-5962,-5511,3412,-6279,-4667,3689,1,7,11
7.88E+02,-5938,-5469,3283,-4995,-3565,2923,1,7,11
8.15E+02,-5774,-5164,3655,-4222,-2756,2160,1,7,11
8.42E+02,-6189,-4587,3515,-3377,-2308,1547,1,7,11
8.67E+02,-6126,-4277,3869,-2486,-1480,1116,1,7,11
8.88E+02,-6523,-3969,3922,-2312,-1317,869,1,7,11
9.04E+02,-6380,-3807,3967,-2128,-750,483,1,7,11
9.14E+02,-6708,-3790,3744,-2121,-808,387,1,7,11
9.19E+02,-6566,-3769,3735,-2128,-436,554,1,7,11
9.18E+02,-6621,-3782,3937,-1939,-387,253,1,7,11
9.14E+02,-6969,-4150,3929,-2315,-580,230,1,7,11
9.08E+02,-6820,-4057,3955,-2382,-561,214,1,7,11
9.02E+02,-6866,-4414,3930,-2030,-594,197,1,7,11
8.97E+02,-6896,-4465,3882,-2163,-628,134,1,7,11
8.93E+02,-7180,-4237,3856,-1734,-408,329,1,7,11
8.93E+02,-6899,-4257,3569,-1521,-458,270,1,7,11
8.95E+02,-6813,-4267,3518,-1242,-512,-43,1,7,11
8.95E+02,-6989,-4252,3459,-947,-785,120,1,7,11
8.90E+02,-6752,-3968,3623,-306,-404,-395,1,7,11
8.76E+02,-6678,-3940,3637,55,-561,-627,1,7,11
8.54E+02,-6364,-3930,3645,-126,-175,-385,1,7,11
8.27E+02,-6340,-3929,3671,-75,-275,-440,1,7,11
8.01E+02,-6292,-3774,3679,-88,105,-784,1,7,11
7.78E+02,-6326,-4156,3709,-117,264,-700,1,7,11
7.60E+02,-6658,-3981,3470,-76,149,-1125,1,7,11
7.48E+02,-6783,-4050,3497,270,567,-979,1,7,11
7.41E+02,-6606,-4064,3458,142,416,-1314,1,7,11
7.35E+02,-6946,-4380,3687,200,470,-1192,1,7,11
7.27E+02,-6950,-4413,3656,541,478,-1267,1,7,11
7.15E+02,-6961,-4447,3651,577,457,-1575,1,7,11
7.04E+02,-6941,-4456,3649,407,636,-1608,1,7,11
6.97E+02,-6645,-4446,3637,511,538,-1612,1,7,11
6.93E+02,-6547,-4445,3604,864,185,-1574,1,7,11
6.91E+02,-6725,-4461,3585,691,143,-1263,1,7,11
6.88E+02,-6377,-4232,3319,1048,132,-1205,1,7,11
6.85E+02,-6342,-4263,3591,910,190,-1406,1,7,11
6.81E+02,-6352,-4253,3615,1315,537,-1339,1,7,11
6.79E+02,-6386,-4471,3622,1181,632,-1001,1,7,11
6.80E+02,-6666,-4450,3642,1251,458,-897,1,7,11
6.85E+02,-6700,-4474,3689,1275,781,-1059,1,7,11
6.98E+02,-6708,-4268,3462,1555,813,-729,1,7,11
7.22E+02,-6681,-4349,3485,1576,825,-701,1,7,11
7.60E+02,-6671,-4311,3473,1632,829,-754,1,7,11
8.08E+02,-6680,-4235,3690,1615,829,-1045,1,7,11
8.58E+02,-6664,-4472,3665,1559,846,-1039,1,7,11
9.02E+02,-6673,-4480,3671,1237,879,-755,1,7,11
9.33E+02,-6665,-4267,3682,1182,654,-727,1,7,11
9.51E+02,-6360,-4349,3459,1402,655,-741,1,7,11
9.56E+02,-6306,-4656,3472,1166,653,-1076,1,7,11
9.50E+02,-6347,-4670,3531,1233,676,-912,1,7,11
9.35E+02,-6311,-4653,3549,1636,886,-980,1,7,11
9.14E+02,-6295,-4654,3572,1513,888,-1319,1,7,11
8.93E+02,-6521,-4638,3569,1669,651,-1376,1,7,11
8.75E+02,-6452,-4720,3858,1773,680,-1173,1,7,11
8.62E+02,-6051,-4498,3568,1920,704,-1642,1,7,11
8.53E+02,-6218,-4872,3849,2346,1128,-1534,1,7,11
8.46E+02,-5887,-4741,3576,2573,1339,-1708,1,7,11
8.42E+02,-6235,-5019,3962,2876,1442,-2110,1,7,11
8.40E+02,-5869,-5422,3899,3301,1733,-2029,1,7,11
8.40E+02,-6176,-5301,3881,4000,2398,-2270,1,7,11
8.40E+02,-5856,-5641,3507,4832,2484,-2469,1,7,11
8.41E+02,-5824,-5698,3639,5936,3089,-2928,1,7,11
8.42E+02,-5960,-5913,3622,7338,3477,-2972,1,7,11
8.42E+02,-5953,-5612,3625,8522,3740,-3423,1,7,11
8.40E+02,-6717,-3613,3700,10604,4766,-2704,1,7,11
8.32E+02,-6603,-3101,3586,9900,4990,-2471,1,7,11
8.15E+02,-7058,-3177,3982,3699,3265,-2299,1,7,11
7.89E+02,-7087,-2979,4036,3180,2960,-2168,1,7,11
7.61E+02,-7263,-2996,4023,2529,2902,-1456,1,7,11
7.39E+02,-6890,-3020,3995,2389,2614,-1334,1,7,11
7.25E+02,-6794,-2995,4200,1782,2362,-1088,1,7,11
7.18E+02,-7023,-2958,4167,1454,2155,-691,1,7,11
7.14E+02,-7040,-3093,4120,1162,1724,-867,1,7,11
7.14E+02,-6811,-2691,3839,1054,1792,-487,1,7,11
7.19E+02,-6796,-2694,4117,542,1570,-584,1,7,11
7.33E+02,-6964,-3094,4116,-279,1288,-212,1,7,11
7.55E+02,-6649,-3861,3743,-2193,328,-1285,1,7,11
7.84E+02,-6999,-3720,3764,-2545,118,-1226,1,7,11
8.19E+02,-6796,-3940,3531,-3397,-1096,-569,1,7,11
8.57E+02,-7005,-3887,3476,-3278,-961,9,1,7,11
8.91E+02,-7020,-3504,3585,-3523,-1371,287,1,7,11
9.17E+02,-6862,-3619,3225,-4187,-1598,551,1,7,11
9.30E+02,-7239,-3219,3349,-4518,-1715,846,1,7,11
9.31E+02,-7078,-3409,2962,-5284,-2245,952,1,7,11
9.27E+02,-7108,-3247,3102,-6512,-3150,1578,1,7,11
9.27E+02,-7149,-3501,2758,-7517,-3582,1706,1,7,11
9.34E+02,-7090,-4024,2901,-8168,-4330,2319,1,7,11
9.48E+02,-7190,-4460,2503,-8899,-5056,2585,1,7,11
9.65E+02,-6996,-4925,2642,-9440,-5904,2513,1,7,11
9.80E+02,-6723,-5154,2286,-10048,-6039,2918,1,7,11
9.92E+02,-6499,-5744,2669,-10021,-6143,3047,1,7,11
1.00E+03,-6093,-5992,2528,-9810,-6266,3359,1,7,11
1.01E+03,-6154,-6164,2864,-8934,-6065,3028,1,7,11
1.01E+03,-5936,-6267,2919,-8124,-5779,2805,1,7,11
1.01E+03,-5525,-6017,2700,-7484,-5380,2447,1,7,11
1.01E+03,-5516,-6219,2767,-6274,-4889,2320,1,7,11
1.01E+03,-5574,-6147,3073,-5643,-4432,1697,1,7,11
1.00E+03,-5895,-5988,2802,-4057,-3790,1582,1,7,11
1.00E+03,-5985,-5561,2754,-3307,-3689,1019,1,7,11
1.00E+03,-5837,-5689,2778,-2689,-3365,1078,1,7,11
9.98E+02,-6155,-5293,2785,-2386,-3107,718,1,7,11
9.96E+02,-6199,-5446,3090,-1707,-2845,693,1,7,11
9.92E+02,-6235,-5389,3184,-1585,-2304,725,1,7,11
9.88E+02,-6272,-5008,2979,-966,-1999,763,1,7,11
9.83E+02,-6130,-4844,3343,-693,-1688,1058,1,7,11
9.76E+02,-6483,-4963,3230,-497,-1433,1107,1,7,11
9.67E+02,-6331,-4554,3609,-575,-1223,926,1,7,11
9.56E+02,-6390,-4675,3702,-200,-1327,1306,1,7,11
9.42E+02,-6682,-4685,3551,-156,-978,1170,1,7,11
9.23E+02,-6702,-4503,3919,-370,-945,1209,1,7,11
9.02E+02,-6360,-4653,3884,31,-982,1406,1,7,11
8.81E+02,-6373,-4645,3930,122,-916,1389,1,7,11
8.66E+02,-6296,-4613,3957,312,-899,1159,1,7,11
8.59E+02,-6448,-4230,3914,255,-1150,1372,1,7,11
8.58E+02,-6063,-4378,3572,639,-1107,1307,1,7,11
8.60E+02,-6243,-4081,3515,438,-726,962,1,7,11
8.59E+02,-5825,-4397,3664,481,-830,965,1,7,11
8.54E+02,-5797,-4445,3610,487,-489,410,1,7,11
8.49E+02,-5850,-4615,3657,419,-221,343,1,7,11
8.47E+02,-6213,-4507,3520,616,291,12,1,7,11
8.49E+02,-6101,-4867,3903,437,242,-253,1,7,11
8.53E+02,-6507,-4887,3761,645,396,-414,1,7,11
8.55E+02,-6685,-4558,4117,958,782,-423,1,7,11
8.52E+02,-6548,-4318,4101,1582,868,-535,1,7,11
8.45E+02,-6643,-3988,3797,1522,679,-281,1,7,11
8.36E+02,-6655,-3731,3809,1450,664,271,1,7,11
8.29E+02,-6603,-3503,3832,1199,814,213,1,7,11
8.26E+02,-6781,-3670,3798,1097,623,539,1,7,11
8.28E+02,-6334,-3653,3933,256,-38,131,1,7,11
8.35E+02,-6506,-3555,3903,-184,119,315,1,7,11
8.47E+02,-6468,-3946,3850,-785,105,213,1,7,11
8.62E+02,-6475,-3758,3542,-740,-99,105,1,7,11
8.77E+02,-6284,-4118,3564,-1151,267,26,1,7,11
8.89E+02,-6364,-4027,3886,-1011,193,-259,1,7,11
8.98E+02,-6697,-4386,3952,-954,534,0,1,7,11
9.05E+02,-6767,-4465,3723,-1033,584,34,1,7,11
9.12E+02,-6567,-4260,3739,-776,613,108,1,7,11
9.22E+02,-6599,-4281,3733,-245,615,-58,1,7,11
9.31E+02,-6585,-4265,3959,41,584,287,1,7,11
9.35E+02,-6778,-4469,3883,275,554,336,1,7,11
9.30E+02,-6715,-4430,3567,179,576,334,1,7,11
9.12E+02,-6668,-4416,3538,547,384,289,1,7,11
8.88E+02,-6391,-4426,3529,406,492,-26,1,7,11
8.67E+02,-6374,-4466,3528,790,874,-87,1,7,11
8.56E+02,-6340,-4262,3524,707,759,113,1,7,11
8.55E+02,-6304,-4340,3530,919,931,70,1,7,11
8.62E+02,-6487,-4487,3567,1155,1383,31,1,7,11
8.72E+02,-6127,-4981,3899,1483,1617,-305,1,7,11
8.81E+02,-6028,-5186,3927,2012,1676,-194,1,7,11
8.91E+02,-6205,-5085,3903,2707,2350,-627,1,7,11
9.00E+02,-5863,-5401,3562,3535,2860,-813,1,7,11
9.10E+02,-5793,-5400,3680,4689,3224,-729,1,7,11
9.21E+02,-5999,-5102,3310,5360,4193,-1138,1,7,11
9.30E+02,-5998,-4999,3398,6315,4959,-1323,1,7,11
9.37E+02,-5804,-4985,2935,7484,5699,-1575,1,7,11
9.40E+02,-5852,-4335,2502,7916,6102,-1902,1,7,11
9.38E+02,-6272,-4032,2234,8173,6958,-2354,1,7,11
9.34E+02,-6309,-3802,2354,8110,7159,-2699,1,7,11
9.28E+02,-6793,-4109,2402,7650,7710,-3629,1,7,11
9.21E+02,-7539,-4156,2573,7530,7715,-4179,1,7,11
9.13E+02,-7593,-4137,2684,7174,7428,-4345,1,7,11
9.06E+02,-7824,-3787,2506,6654,7001,-4536,1,7,11
9.02E+02,-7875,-3917,2510,6683,6441,-4714,1,7,11
9.00E+02,-7862,-3512,2672,6482,5933,-4392,1,7,11
9.01E+02,-7832,-3297,2254,6207,5261,-3880,1,7,11
9.04E+02,-7968,-3217,2378,5528,5141,-2969,1,7,11
9.09E+02,-7563,-3434,2027,5071,4566,-2619,1,7,11
9.13E+02,-7793,-3379,2028,4919,4267,-2113,1,7,11
9.13E+02,-7794,-3383,2323,4544,4157,-1609,1,7,11
9.07E+02,-7721,-3394,2331,4223,3465,-1146,1,7,11
8.93E+02,-7338,-3203,2028,3846,3012,-496,1,7,11
8.75E+02,-7487,-3707,2335,3372,2858,-231,1,7,11
8.59E+02,-7129,-3893,2379,2731,2179,-241,1,7,11
8.47E+02,-7127,-3747,2183,2620,2056,-421,1,7,11
8.41E+02,-7490,-3744,2229,2329,1484,-837,1,7,11
8.38E+02,-7333,-3583,2194,1770,1168,-646,1,7,11
8.36E+02,-7709,-3650,2177,1566,900,-829,1,7,11
8.32E+02,-7597,-3432,2416,762,895,-580,1,7,11
8.28E+02,-7993,-3150,2396,377,583,25,1,7,11
8.24E+02,-7854,-2833,2384,-397,-81,161,1,7,11
8.21E+02,-8257,-2635,2354,-1271,-578,682,1,7,11
8.19E+02,-8273,-2289,2015,-2194,-985,1551,1,7,11
8.20E+02,-8219,-2277,2152,-3237,-1723,2102,1,7,11
8.26E+02,-7873,-2638,2072,-4626,-2678,2590,1,7,11
8.36E+02,-7878,-2527,1776,-5699,-3061,2941,1,7,11
8.51E+02,-7899,-2930,1763,-6711,-3762,3186,1,7,11
8.72E+02,-7818,-3110,1768,-7384,-4550,3069,1,7,11
8.97E+02,-7655,-3188,1731,-8501,-5268,3068,1,7,11
9.23E+02,-7778,-3012,1894,-9336,-5845,2987,1,7,11
9.49E+02,-7342,-3358,1901,-9920,-6312,3122,1,7,11
9.70E+02,-7445,-3277,1878,-10770,-6613,2712,1,7,11
9.85E+02,-7259,-3477,1827,-11121,-7003,2863,1,7,11
9.93E+02,-7040,-4183,1898,-10961,-6343,2832,1,7,11
9.95E+02,-6798,-4232,2115,-10650,-6175,2869,1,7,11
9.89E+02,-6754,-4700,2267,-6032,-3536,1816,1,7,11
9.76E+02,-6728,-4346,2281,-5427,-2955,1651,1,7,11
9.61E+02,-6773,-4645,2676,-4482,-2585,1322,1,7,11
9.45E+02,-6558,-4706,2534,-3791,-1758,748,1,7,11
9.31E+02,-6585,-4683,2559,-3031,-1597,223,1,7,11
9.22E+02,-6642,-4296,2514,-2242,-1127,151,1,7,11
9.16E+02,-6979,-4411,2471,-1800,-540,-327,1,7,11
9.13E+02,-7034,-4013,2436,-983,-374,-156,1,7,11
9.13E+02,-6862,-4156,2668,-846,-96,-554,1,7,11
9.14E+02,-7220,-3786,2681,-572,139,-423,1,7,11
9.13E+02,-7135,-3931,2432,-135,563,-492,1,7,11
9.09E+02,-7526,-3870,2674,23,391,-473,1,7,11
9.00E+02,-7520,-3547,2631,-128,402,-401,1,7,11
8.87E+02,-7478,-3497,2572,-36,398,-555,1,7,11
8.71E+02,-7167,-3500,2290,-32,457,-205,1,7,11
8.53E+02,-7107,-3523,2271,-83,484,-175,1,7,11
8.38E+02,-7076,-3848,2294,120,505,-179,1,7,11
8.28E+02,-7041,-3713,2586,119,507,-208,1,7,11
8.29E+02,-7244,-3779,2591,-23,500,-525,1,7,11
8.38E+02,-7000,-3752,2202,523,486,-445,1,7,11
8.51E+02,-6587,-3807,2406,609,792,-826,1,7,11
8.62E+02,-7020,-4705,2195,1649,1613,-1707,1,7,11
8.71E+02,-7199,-4869,2208,2102,1460,-2135,1,7,11
8.77E+02,-7111,-4854,2260,2675,1811,-1946,1,7,11
8.82E+02,-7464,-5087,2601,3210,1888,-2174,1,7,11
8.87E+02,-7135,-5710,2610,4447,1768,-1769,1,7,11
8.91E+02,-7257,-5529,2285,6207,1949,-1732,1,7,11
8.89E+02,-7174,-5703,2424,7167,2270,-1733,1,7,11
8.76E+02,-6880,-5347,2333,8557,2747,-1908,1,7,11
8.53E+02,-6837,-5416,2167,9407,3591,-1463,1,7,11
8.29E+02,-6921,-5229,1787,10575,4212,-1264,1,7,11
8.14E+02,-6315,-4814,1850,11296,4523,-1232,1,7,11
8.18E+02,-6139,-4979,1463,11782,5419,-1651,1,7,11
8.36E+02,-6091,-4535,1269,11934,5975,-1781,1,7,11
8.58E+02,-6433,-4272,1371,12324,6442,-2593,1,7,11
8.79E+02,-6683,-4022,1302,11945,6540,-3182,1,7,11
8.93E+02,-7007,-3791,1307,11863,6946,-3710,1,7,11
9.02E+02,-7289,-3517,1291,11342,6650,-4180,1,7,11
9.07E+02,-7367,-3655,1391,10530,6762,-4251,1,7,11
9.11E+02,-7618,-3302,1203,9391,6467,-4679,1,7,11
9.13E+02,-8039,-3260,1549,8395,5806,-4708,1,7,11
9.11E+02,-8195,-3232,1646,7346,5328,-4345,1,7,11
9.05E+02,-8317,-3278,1495,6340,4759,-4086,1,7,11
8.94E+02,-8172,-3270,1859,5652,4397,-3724,1,7,11
8.82E+02,-8510,-3284,1714,4491,3667,-3261,1,7,11
8.72E+02,-8508,-3320,2113,3899,2855,-2720,1,7,11
8.68E+02,-8183,-3646,2034,3185,1781,-2374,1,7,11
8.70E+02,-8284,-3493,2212,2635,998,-1481,1,7,11
8.75E+02,-8010,-3889,2610,2041,536,-1107,1,7,11
8.82E+02,-7403,-3834,2498,2132,-322,-565,1,7,11
8.89E+02,-7041,-4040,2880,1929,-769,97,1,7,11
8.92E+02,-7002,-4386,2710,2406,-1034,322,1,7,11
8.88E+02,-6758,-4093,2765,2671,-1131,153,1,7,11
8.75E+02,-6330,-4176,2776,2899,-1038,158,1,7,11
8.56E+02,-6528,-3936,2776,2698,-772,164,1,7,11
8.37E+02,-6337,-3676,3081,2550,-160,236,1,7,11
8.24E+02,-6694,-3269,3159,2204,-75,391,1,7,11
8.20E+02,-6572,-3202,2977,1758,221,845,1,7,11
8.17E+02,-6934,-3449,2999,1239,635,1037,1,7,11
8.09E+02,-7031,-3259,2998,674,446,935,1,7,11
7.92E+02,-6810,-3670,2962,372,435,1305,1,7,11
7.73E+02,-6814,-3878,3115,-185,403,1330,1,7,11
7.60E+02,-6812,-3792,2728,-895,618,996,1,7,11
7.59E+02,-6811,-4014,2891,-1338,596,1037,1,7,11
7.67E+02,-7032,-4417,2548,-1593,549,504,1,7,11
7.76E+02,-6834,-4290,2498,-1470,544,208,1,7,11
7.83E+02,-6842,-4342,2456,-1421,255,-28,1,7,11
7.89E+02,-6810,-4341,2441,-1273,226,38,1,7,11
7.96E+02,-6816,-4338,2435,-1289,514,-303,1,7,11
8.07E+02,-7001,-4249,2609,-708,554,-346,1,7,11
8.21E+02,-6981,-4425,2570,-491,423,-363,1,7,11
8.35E+02,-6838,-4354,2599,-573,820,-327,1,7,11
8.49E+02,-7101,-3993,2456,-327,799,53,1,7,11
8.60E+02,-7444,-4026,2472,37,393,-111,1,7,11
8.70E+02,-6935,-4296,2875,1913,-440,-1059,1,7,11
8.83E+02,-6618,-4403,2745,2060,-625,-1320,1,7,11
9.00E+02,-7172,-3374,3067,975,25,-440,1,7,11
9.17E+02,-7062,-3183,3330,411,-269,13,1,7,11
9.31E+02,-7483,-2743,3337,5,-376,567,1,7,11
9.37E+02,-7380,-2931,3370,-737,-543,955,1,7,11
9.32E+02,-7726,-2776,3388,-1430,-795,1880,1,7,11
9.21E+02,-7727,-3173,3332,-1957,-1073,2213,1,7,11
9.10E+02,-7418,-3417,3009,-2593,-1320,2908,1,7,11
9.04E+02,-7355,-3643,2955,-2481,-1267,3161,1,7,11
9.04E+02,-7438,-3895,3154,-2437,-1442,2996,1,7,11
9.09E+02,-6904,-4111,3081,-2210,-1490,3133,1,7,11
9.14E+02,-6919,-4082,2785,-2120,-1586,2533,1,7,11
9.18E+02,-6539,-4459,2767,-1570,-978,2011,1,7,11
9.20E+02,-6722,-4245,2762,-676,-782,1622,1,7,11
9.21E+02,-6762,-4458,2751,365,-15,633,1,7,11
9.20E+02,-6625,-4369,2741,1040,466,44,1,7,11
9.19E+02,-7035,-3998,2728,1645,1108,-467,1,7,11
9.16E+02,-7205,-3813,2900,1920,1375,-1131,1,7,11
9.07E+02,-7138,-3870,2829,2284,1538,-1189,1,7,11
8.93E+02,-7354,-3668,2509,2491,1576,-1648,1,7,11
8.74E+02,-7775,-3201,2436,2530,1193,-1517,1,7,11
8.57E+02,-7660,-2958,2620,2621,938,-1855,1,7,11
8.49E+02,-8044,-2760,2598,1981,819,-1869,1,7,11
8.54E+02,-7852,-2890,2584,1651,298,-1809,1,7,11
8.67E+02,-7923,-2835,2602,690,-537,-1447,1,7,11
8.84E+02,-7902,-2836,2623,-66,-909,-1279,1,7,11
9.00E+02,-7920,-2690,2460,-831,-1466,-1294,1,7,11
9.13E+02,-7888,-3161,2533,-1181,-2013,-679,1,7,11
9.18E+02,-8041,-3397,2548,-1885,-2500,-536,1,7,11
9.15E+02,-7643,-3636,2835,-1976,-3149,-114,1,7,11
9.01E+02,-6993,-4376,3261,-2093,-3340,1231,1,7,11
8.82E+02,-6631,-4396,3646,-1654,-3159,1416,1,7,11
8.64E+02,-6730,-4077,3657,-920,-2920,1506,1,7,11
8.55E+02,-6342,-4003,3676,-786,-2567,1500,1,7,11
8.55E+02,-6433,-4004,3583,539,-965,1027,1,7,11
8.58E+02,-6429,-4062,3933,867,-847,387,1,7,11
8.57E+02,-6448,-4358,3766,930,-584,-24,1,7,11
8.49E+02,-6481,-4361,3812,1239,-144,-203,1,7,11
8.38E+02,-6291,-4070,4154,1478,-265,-868,1,7,11
8.28E+02,-6381,-4028,3997,1891,43,-967,1,7,11
8.24E+02,-6674,-4185,4049,1718,17,-1235,1,7,11
8.27E+02,-6687,-3831,4086,1683,-269,-1664,1,7,11
8.32E+02,-6735,-3772,4402,1520,-293,-1486,1,7,11
8.36E+02,-6548,-3939,4448,1559,-345,-1471,1,7,11
8.35E+02,-6614,-3860,4236,1015,-169,-1596,1,7,11
8.30E+02,-6636,-3511,4241,733,-542,-1385,1,7,11
8.18E+02,-6604,-3668,4451,146,-494,-816,1,7,11
8.01E+02,-6582,-3622,4430,-110,-812,-544,1,7,11
7.84E+02,-5632,-3909,4650,-871,-597,-163,1,7,11
7.75E+02,-5330,-4163,4709,-440,-325,-936,1,7,11
7.77E+02,-6685,-4152,4323,2362,3063,-4659,1,7,11
7.90E+02,-6984,-3929,4299,2482,3263,-4430,1,7,11
8.10E+02,-6845,-2970,4460,844,564,-109,1,7,11
8.34E+02,-6945,-3371,4435,110,-327,586,1,7,11
8.59E+02,-6102,-3539,4244,-1366,-2091,1633,1,7,11
8.81E+02,-6270,-3868,4297,-1397,-2068,1658,1,7,11
8.98E+02,-6200,-3912,4335,-1369,-1681,1622,1,7,11
9.08E+02,-5871,-3927,4620,-1314,-1447,1552,1,7,11
9.10E+02,-5860,-3880,4628,-985,-1377,1183,1,7,11
9.07E+02,-6237,-3499,4630,-916,-738,1334,1,7,11
8.99E+02,-6142,-3258,4324,-904,-392,1299,1,7,11
8.86E+02,-6327,-3336,4296,-1017,-377,1399,1,7,11
8.67E+02,-6750,-3199,4280,-1273,10,1547,1,7,11
8.41E+02,-6609,-2804,4267,-1838,-258,1452,1,7,11
8.08E+02,-6943,-2932,4231,-2019,-141,1829,1,7,11
7.75E+02,-6854,-2637,4386,-2817,-606,1671,1,7,11
7.48E+02,-7143,-2352,4090,-3695,-680,2100,1,7,11
7.32E+02,-7374,-1927,4087,-4880,-1540,2370,1,7,11
7.29E+02,-7761,-1974,4357,-6264,-2376,2446,1,7,11
7.40E+02,-7788,-2186,4062,-7382,-3358,2792,1,7,11
7.63E+02,-7713,-2470,4179,-8830,-4078,3432,1,7,11
7.93E+02,-7327,-2943,3922,-9844,-5144,3571,1,7,11
8.21E+02,-7514,-3017,3513,-10828,-5505,4201,1,7,11
8.41E+02,-7459,-3632,3665,-11647,-6020,4310,1,7,11
8.52E+02,-7107,-3768,3304,-12006,-6714,4905,1,7,11
8.56E+02,-7211,-4414,3211,-12650,-7025,5211,1,7,11
8.54E+02,-7026,-4721,3374,-12501,-7192,5466,1,7,11
8.48E+02,-6567,-4969,3047,-12427,-7210,5637,1,7,11
8.38E+02,-6376,-5179,3053,-12187,-6862,5701,1,7,11
8.27E+02,-6438,-5384,3359,-12046,-6949,5641,1,7,11
8.15E+02,-6255,-5301,3425,-11192,-6699,5466,1,7,11
8.06E+02,-5847,-5336,3454,-10471,-6097,5210,1,7,11
8.03E+02,-5995,-5355,3250,-9670,-5922,4901,1,7,11
8.06E+02,-5889,-5633,3317,-8849,-5449,4309,1,7,11
8.14E+02,-5559,-5354,3627,-8240,-4906,4213,1,7,11
8.22E+02,-5736,-5328,3698,-7140,-4075,3855,1,7,11
8.27E+02,-5702,-5290,3493,-6282,-3709,3446,1,7,11
8.28E+02,-5729,-5423,3509,-5659,-2796,2781,1,7,11
8.27E+02,-5532,-5008,3551,-4606,-2377,2627,1,7,11
8.25E+02,-5901,-5223,3568,-4140,-1471,1971,1,7,11
8.21E+02,-6013,-5202,3842,-3262,-913,1815,1,7,11
8.15E+02,-5825,-5128,3845,-2696,-500,1308,1,7,11
8.03E+02,-6208,-4778,3529,-2266,-167,478,1,7,11
7.87E+02,-6408,-4750,3517,-1926,80,-9,1,7,11
7.69E+02,-6274,-4976,3479,-1863,-75,-175,1,7,11
7.56E+02,-6663,-4744,3466,-1639,-3,-455,1,7,11
7.51E+02,-6760,-4980,3692,-1331,263,-865,1,7,11
7.51E+02,-6561,-4962,3658,-1041,271,-661,1,7,11
7.53E+02,-6603,-4945,3678,-511,-6,-873,1,7,11
7.54E+02,-6593,-4964,3461,-239,-92,-770,1,7,11
7.51E+02,-6540,-4926,3475,93,79,-389,1,7,11
7.43E+02,-6765,-4547,3703,203,43,-236,1,7,11
7.27E+02,-6737,-4627,3672,490,40,-310,1,7,11
7.07E+02,-6709,-4250,3703,874,43,126,1,7,11
6.88E+02,-6705,-4426,3530,669,24,-18,1,7,11
6.72E+02,-6669,-4091,3547,696,-295,-3,1,7,11
6.63E+02,-6336,-4007,3557,668,-369,-67,1,7,11
6.64E+02,-6300,-4004,3553,800,-181,69,1,7,11
6.70E+02,-6273,-3971,3495,460,-181,-271,1,7,11
6.76E+02,-6519,-4010,3463,564,-139,-343,1,7,11
6.75E+02,-6495,-4403,3486,134,-327,-180,1,7,11
6.75E+02,-6484,-4302,3509,272,1,-580,1,7,11
6.84E+02,-6468,-4679,3520,-16,63,-494,1,7,11
7.06E+02,-6473,-4725,3510,284,-112,-668,1,7,11
7.34E+02,-6495,-4703,3487,346,-7,-1036,1,7,11
7.64E+02,-6510,-4654,3487,128,354,-1066,1,7,11
7.89E+02,-6502,-4341,3484,150,188,-1035,1,7,11
8.11E+02,-6284,-4306,3517,152,546,-696,1,7,11
8.31E+02,-6520,-4633,3849,382,583,-874,1,7,11
8.50E+02,-6462,-4291,3550,205,560,-877,1,7,11
8.65E+02,-6501,-4278,3573,203,576,-844,1,7,11
8.72E+02,-6483,-4442,3521,200,553,-819,1,7,11
8.69E+02,-6497,-4426,3508,353,558,-508,1,7,11
8.57E+02,-6286,-4255,3558,-23,558,-420,1,7,11
8.38E+02,-6510,-4323,3538,-46,519,-614,1,7,11
8.18E+02,-6512,-4651,3515,-66,550,-569,1,7,11
7.99E+02,-6310,-4720,3484,-55,615,-517,1,7,11
7.83E+02,-6377,-4525,3495,-70,407,-225,1,7,11
7.70E+02,-6709,-4560,3489,-68,428,-202,1,7,11
7.61E+02,-6541,-4601,3516,-72,421,-164,1,7,11
7.56E+02,-6556,-4593,3531,-26,614,-357,1,7,11
7.56E+02,-6744,-4489,3471,333,533,-291,1,7,11
7.61E+02,-6661,-4639,3638,140,225,40,1,7,11
7.70E+02,-6280,-4228,3253,171,182,106,1,7,11
7.82E+02,-6461,-4368,3422,343,187,-106,1,7,11
7.95E+02,-6403,-4062,3376,-36,201,-66,1,7,11
8.07E+02,-6060,-4019,3334,113,195,-73,1,7,11
8.11E+02,-6238,-3981,3021,-269,192,105,1,7,11
8.04E+02,-6197,-4057,2981,-541,210,-143,1,7,11
7.87E+02,-6179,-4063,2977,-555,218,-513,1,7,11
7.66E+02,-6206,-4031,3195,-244,246,-607,1,7,11
7.45E+02,-6108,-4362,3124,-221,592,-626,1,7,11
7.29E+02,-6592,-4504,2968,-422,828,-561,1,7,11
7.22E+02,-7275,-4849,3275,-436,646,-162,1,7,11
7.28E+02,-7474,-5023,3530,-204,511,-276,1,7,11
7.42E+02,-7155,-5008,3516,-72,250,116,1,7,11
7.55E+02,-7202,-5139,3677,252,259,-97,1,7,11
7.60E+02,-6937,-4949,3283,629,73,123,1,7,11
7.60E+02,-6727,-4503,3419,560,-284,22,1,7,11
7.61E+02,-6323,-4663,3375,334,-333,-347,1,7,11
7.71E+02,-6413,-4634,3368,88,-369,-240,1,7,11
7.84E+02,-6047,-4352,3337,-359,-353,-413,1,7,11
7.92E+02,-6216,-4251,3036,-216,-277,-811,1,7,11
7.86E+02,-6243,-4256,3001,-578,-121,-864,1,7,11
7.66E+02,-6068,-4283,2964,-387,328,-820,1,7,11
7.46E+02,-6402,-4301,2944,-437,514,-471,1,7,11
7.35E+02,-6316,-4342,3197,-452,394,-560,1,7,11
7.39E+02,-6565,-4507,3036,-453,484,-331,1,7,11
7.50E+02,-6932,-4939,3413,-577,488,316,1,7,11
7.63E+02,-6983,-4774,3454,-314,391,519,1,7,11
7.77E+02,-6935,-4861,3236,-34,240,392,1,7,11
7.91E+02,-6730,-5127,3216,546,325,632,1,7,11
8.07E+02,-6519,-5212,3217,842,271,247,1,7,11
8.25E+02,-6026,-5031,3425,974,355,258,1,7,11
8.43E+02,-5796,-5098,3338,1430,602,-359,1,7,11
8.60E+02,-5625,-5436,3011,1937,1058,-796,1,7,11
8.76E+02,-5561,-5450,3187,2549,1412,-1006,1,7,11
8.88E+02,-5581,-5427,3129,3432,2374,-1433,1,7,11
8.92E+02,-5967,-5084,3076,3812,3119,-1774,1,7,11
8.87E+02,-6162,-5179,2792,4651,3558,-1998,1,7,11
8.73E+02,-6402,-4938,2780,4860,4384,-2317,1,7,11
8.55E+02,-6303,-4728,2784,5102,4507,-1981,1,7,11
8.38E+02,-6386,-4673,3091,5376,4959,-2135,1,7,11
8.28E+02,-6734,-4477,2793,5089,4983,-2145,1,7,11
8.24E+02,-6582,-4031,2760,5121,4879,-2173,1,7,11
8.23E+02,-6943,-4144,2731,4530,4700,-2146,1,7,11
8.23E+02,-7032,-3780,2942,4087,4438,-2068,1,7,11
8.27E+02,-7169,-3963,2936,3576,4152,-1919,1,7,11
8.35E+02,-7270,-3947,2929,3341,3539,-1423,1,7,11
8.51E+02,-7044,-3729,2887,2868,3416,-1176,1,7,11
8.73E+02,-7079,-3803,2863,2190,2797,-915,1,7,11
8.96E+02,-7067,-4160,2843,2069,2660,-686,1,7,11
9.13E+02,-7249,-3999,2552,1498,2015,-778,1,7,11
9.17E+02,-7210,-4093,2524,1176,1671,-421,1,7,11
9.10E+02,-6910,-4448,2493,1126,1595,-622,1,7,11
8.98E+02,-6848,-4245,2488,836,1287,-626,1,7,11
8.89E+02,-6790,-4341,2489,554,767,-409,1,7,11
8.86E+02,-6999,-4666,2518,352,799,-479,1,7,11
8.90E+02,-6989,-4705,2545,-16,630,-795,1,7,11
8.99E+02,-6992,-4713,2822,-29,247,-798,1,7,11
9.14E+02,-6976,-4719,2842,271,151,-473,1,7,11
9.30E+02,-6939,-4729,2867,346,323,-626,1,7,11
9.47E+02,-6647,-4513,2911,178,261,-529,1,7,11
9.61E+02,-6622,-4529,2693,553,-60,-185,1,7,11
9.70E+02,-6605,-4527,2727,424,125,-346,1,7,11
9.72E+02,-6614,-4514,2734,820,65,23,1,7,11
9.68E+02,-6628,-4514,2762,697,16,-108,1,7,11
9.60E+02,-6629,-4529,2784,1078,-273,285,1,7,11
9.47E+02,-6635,-4549,3080,951,-300,167,1,7,11
9.31E+02,-6601,-4583,3121,1354,-330,552,1,7,11
9.17E+02,-6362,-4919,3054,1709,-589,216,1,7,11
9.07E+02,-6330,-4892,3407,2077,-411,298,1,7,11
9.02E+02,-6366,-4511,3260,1992,-486,-119,1,7,11
9.01E+02,-6712,-4365,3593,2374,-828,-356,1,7,11
9.02E+02,-6776,-4189,3491,2021,-852,-131,1,7,11
9.00E+02,-6588,-3812,3932,2134,-868,-367,1,7,11
8.97E+02,-6561,-3962,3758,1722,-670,-335,1,7,11
8.96E+02,-6728,-3886,3796,1472,-723,-145,1,7,11
8.98E+02,-6355,-3848,3814,1171,-737,-554,1,7,11
9.05E+02,-6519,-3535,3791,1085,-687,-790,1,7,11
9.13E+02,-6471,-3489,3750,437,-834,-1059,1,7,11
9.15E+02,-6486,-3523,3750,-7,-421,-1023,1,7,11
9.06E+02,-6457,-3864,3762,-149,-521,-1401,1,7,11
8.83E+02,-6130,-3742,3752,-475,-363,-1181,1,7,11
8.56E+02,-6060,-4157,3739,-716,75,-1399,1,7,11
8.34E+02,-6025,-4032,3966,-1119,269,-1293,1,7,11
8.23E+02,-6248,-4394,3913,-954,190,-1111,1,7,11
8.22E+02,-6212,-4477,3859,-1015,605,-881,1,7,11
8.25E+02,-6180,-4291,3557,-1353,492,-386,1,7,11
8.27E+02,-6187,-4615,3510,-1178,877,-154,1,7,11
8.28E+02,-6247,-4682,3473,-1257,730,79,1,7,11
8.31E+02,-6045,-4717,3667,-1563,1055,326,1,7,11
8.39E+02,-6121,-4521,3611,-1620,1121,596,1,7,11
8.53E+02,-6460,-4575,3321,-1639,922,875,1,7,11
8.69E+02,-6303,-4872,3275,-1589,972,910,1,7,11
8.81E+02,-6384,-4868,3454,-1233,1015,1195,1,7,11
8.87E+02,-6720,-4568,3387,-1370,1330,1478,1,7,11
8.86E+02,-6775,-4537,3069,-1294,1366,1723,1,7,11
8.83E+02,-6572,-4525,3043,-1021,1361,2130,1,7,11
8.78E+02,-6598,-4539,3020,-1291,1284,2136,1,7,11
8.76E+02,-6652,-4512,2964,-1295,1139,1706,1,7,11
8.75E+02,-6800,-4709,3194,-1292,713,1435,1,7,11
8.76E+02,-7231,-4641,3173,-984,491,1178,1,7,11
8.77E+02,-7103,-4278,3137,-906,225,960,1,7,11
8.78E+02,-7426,-4431,3128,-1107,-35,1047,1,7,11
8.80E+02,-7428,-4086,3075,-1065,-276,894,1,7,11
8.82E+02,-7130,-4190,2749,-1035,-210,789,1,7,11
8.84E+02,-7457,-4194,2809,-1118,-525,790,1,7,11
8.85E+02,-7105,-4139,2784,-1042,-403,811,1,7,11
8.84E+02,-7280,-4132,2785,-1076,-446,770,1,7,11
8.78E+02,-7262,-4138,3093,-1046,-460,789,1,7,11
8.71E+02,-6910,-3827,2767,-736,-770,781,1,7,11
8.66E+02,-6850,-3800,2752,-732,-498,847,1,7,11
8.66E+02,-7026,-3752,2700,-764,-465,706,1,7,11
8.72E+02,-6937,-3864,2866,-1102,-401,1096,1,7,11
8.80E+02,-6606,-3327,2475,-1293,-552,1006,1,7,11
8.85E+02,-6542,-3058,2597,-1465,-129,1234,1,7,11
8.82E+02,-6771,-3139,2263,-2376,96,1513,1,7,11
8.75E+02,-6557,-3163,2577,-3187,297,2073,1,7,11
8.66E+02,-6651,-3381,2664,-3901,160,2385,1,7,11
8.61E+02,-7176,-3893,2446,-4082,255,2630,1,7,11
8.62E+02,-7772,-3995,2442,-4430,558,2832,1,7,11
8.61E+02,-7993,-4228,2606,-3837,170,2887,1,7,11
8.53E+02,-7994,-4301,2209,-3255,-91,2680,1,7,11
8.32E+02,-7657,-4246,2329,-2828,-333,2042,1,7,11
8.05E+02,-7581,-4410,2311,-1966,-207,1807,1,7,11
7.83E+02,-7742,-3994,2315,-1648,-570,1010,1,7,11
7.76E+02,-7412,-4112,2385,-946,-640,807,1,7,11
7.83E+02,-7341,-3952,2213,-802,-435,190,1,7,11
7.96E+02,-7502,-3463,2294,-211,-435,121,1,7,11
8.09E+02,-7462,-3644,2300,45,-391,66,1,7,11
8.19E+02,-7111,-3268,2298,-43,-580,16,1,7,11
8.26E+02,-7257,-3439,2302,-25,-226,41,1,7,11
8.30E+02,-6902,-3452,2303,101,-129,61,1,7,11
8.34E+02,-6846,-3209,2290,-319,-291,26,1,7,11
8.38E+02,-6827,-3435,2230,-241,40,-329,1,7,11
8.42E+02,-6847,-3410,2407,-508,98,-186,1,7,11
8.47E+02,-7179,-3436,2382,-1075,-117,-520,1,7,11
8.52E+02,-7261,-3253,2371,-1391,-122,-570,1,7,11
8.56E+02,-7061,-3588,2376,-1643,112,-620,1,7,11
8.59E+02,-7088,-3671,2349,-1828,112,-406,1,7,11
8.61E+02,-7095,-3505,2304,-1669,-92,-396,1,7,11
8.63E+02,-7070,-3872,2012,-1701,256,-627,1,7,11
8.63E+02,-7057,-3950,1978,-1904,365,-633,1,7,11
8.63E+02,-7074,-3798,1955,-1798,232,-639,1,7,11
8.62E+02,-7108,-4097,2157,-1579,603,-396,1,7,11
8.61E+02,-7123,-4136,2092,-1328,454,-397,1,7,11
8.60E+02,-7127,-4174,2058,-1060,821,-399,1,7,11
8.58E+02,-7429,-4168,1784,-785,672,-424,1,7,11
8.56E+02,-7461,-4193,1747,-545,704,-462,1,7,11
8.54E+02,-7529,-4159,1709,-337,679,-810,1,7,11
8.53E+02,-7600,-3913,1823,144,406,-710,1,7,11
8.52E+02,-7576,-3906,1798,174,549,-876,1,7,11
8.51E+02,-7053,-4166,1825,273,239,-228,1,7,11
8.50E+02,-7088,-4181,1855,297,572,-176,1,7,11
8.49E+02,-7439,-3965,1526,300,804,-348,1,7,11
8.48E+02,-7439,-3745,1532,-63,789,-381,1,7,11
8.47E+02,-7474,-3717,1519,99,447,-180,1,7,11
8.46E+02,-7504,-3803,1794,-274,631,-212,1,7,11
8.46E+02,-7532,-3837,1525,-350,547,-250,1,7,11
8.46E+02,-7297,-4160,1800,-136,492,-210,1,7,11
8.46E+02,-7450,-4044,1494,-306,167,-173,1,7,11
8.46E+02,-7130,-4362,1484,49,162,-204,1,7,11
8.47E+02,-7164,-4325,1439,206,133,-711,1,7,11
8.47E+02,-7425,-4720,1432,421,-65,-1125,1,7,11
8.48E+02,-7153,-4569,1445,651,-299,-1385,1,7,11
8.50E+02,-7439,-4873,1450,917,-542,-1425,1,7,11
8.52E+02,-7044,-4590,1840,2279,-1075,-1715,1,7,11
8.55E+02,-7205,-4553,1898,2913,-709,-1529,1,7,11
8.57E+02,-7002,-4551,2322,3989,-323,-759,1,7,11
8.60E+02,-6786,-4714,2369,4371,-163,-1034,1,7,11
8.63E+02,-6803,-4656,2180,4376,-590,-1063,1,7,11
8.67E+02,-6851,-4244,2250,4080,-775,-1100,1,7,11
8.72E+02,-7217,-4026,2611,4213,-704,-1062,1,7,11
8.77E+02,-7261,-3820,2455,3788,-900,-649,1,7,11
8.81E+02,-7064,-3937,2896,3532,-1003,-618,1,7,11
8.84E+02,-7287,-3565,2786,3317,-1333,11,1,7,11
8.87E+02,-7194,-3703,3145,3330,-1358,349,1,7,11
8.88E+02,-6888,-3633,2980,2802,-1295,396,1,7,11
8.90E+02,-6847,-3614,3338,2517,-960,660,1,7,11
8.91E+02,-6982,-3311,3358,2253,-1146,1104,1,7,11
8.92E+02,-6606,-3617,3410,2165,-762,992,1,7,11
8.93E+02,-6681,-3499,3450,1801,-659,1319,1,7,11
8.93E+02,-6484,-3854,3451,1182,-804,974,1,7,11
8.93E+02,-6420,-3930,3260,1102,-634,759,1,7,11
8.92E+02,-6449,-3950,3303,857,-192,472,1,7,11
8.90E+02,-6498,-3965,3613,420,9,193,1,7,11
8.87E+02,-6322,-3758,3663,552,-39,-35,1,7,11
8.83E+02,-6390,-3809,3677,512,367,48,1,7,11
8.80E+02,-6678,-3779,3605,516,205,-376,1,7,11
8.78E+02,-6751,-3739,3585,201,565,-244,1,7,11
8.77E+02,-6560,-3956,3313,149,637,-569,1,7,11
8.76E+02,-6646,-3873,3312,344,433,-580,1,7,11
8.75E+02,-7040,-3574,3584,265,493,-204,1,7,11
8.72E+02,-7029,-3488,3263,-13,464,-285,1,7,11
8.68E+02,-7006,-3528,3265,96,492,106,1,7,11
8.62E+02,-7013,-3568,3273,15,498,-21,1,7,11
8.55E+02,-7004,-3846,3247,-309,453,276,1,7,11
8.48E+02,-6994,-3855,3211,-152,404,-3,1,7,11
8.43E+02,-7006,-3575,3425,-568,615,-92,1,7,11
8.40E+02,-6803,-3501,3365,-792,579,55,1,7,11
8.37E+02,-6890,-3601,3018,-1104,532,-281,1,7,11
8.35E+02,-7250,-3250,2975,-1581,196,-280,1,7,11
8.33E+02,-7089,-3385,3114,-2102,328,60,1,7,11
8.30E+02,-7468,-3194,2715,-2536,-75,-39,1,7,11
8.27E+02,-7359,-3125,2939,-3691,-300,210,1,7,11
8.24E+02,-7730,-3095,2874,-4319,-626,820,1,7,11
8.20E+02,-7781,-2734,2685,-5429,-1028,986,1,7,11
8.16E+02,-7564,-2728,2298,-6420,-1197,1445,1,7,11
8.11E+02,-7773,-3126,2230,-7427,-1678,2150,1,7,11
8.07E+02,-7695,-3363,2205,-8291,-2409,2301,1,7,11
8.02E+02,-7330,-3612,2430,-8675,-2861,2900,1,7,11
7.97E+02,-7448,-3561,2346,-9114,-3007,3160,1,7,11
7.93E+02,-7064,-3832,2314,-9433,-3320,3370,1,7,11
7.89E+02,-6901,-4036,2002,-9843,-3889,3455,1,7,11
7.85E+02,-6806,-4322,2019,-9704,-4129,3418,1,7,11
7.81E+02,-7013,-4873,2341,-9837,-4064,2989,1,7,11
7.77E+02,-6982,-4749,2328,-9215,-4464,2922,1,7,11
7.73E+02,-7020,-4770,2026,-8686,-4461,2616,1,7,11
7.68E+02,-7196,-4986,2016,-8294,-4066,2412,1,7,11
7.61E+02,-7162,-4912,2029,-7335,-4110,2343,1,7,11
7.54E+02,-7540,-4582,2042,-6602,-3911,2389,1,7,11
7.47E+02,-7532,-4543,2029,-5858,-3663,2207,1,7,11
7.41E+02,-7152,-4487,2002,-5093,-3055,2238,1,7,11
7.34E+02,-7256,-4735,2038,-4646,-2851,2177,1,7,11
7.27E+02,-6879,-4678,2351,-3719,-2361,1972,1,7,11
7.19E+02,-6826,-4351,2430,-3377,-1905,1892,1,7,11
7.11E+02,-7040,-4480,2188,-2851,-1558,1214,1,7,11
7.04E+02,-6822,-4061,2199,-2240,-1013,745,1,7,11
7.01E+02,-6873,-4007,2248,-2021,-1069,604,1,7,11
6.99E+02,-6910,-3978,2294,-2095,-693,-1,1,7,11
6.99E+02,-6906,-3977,2588,-1669,-647,-292,1,7,11
7.00E+02,-6904,-3974,2628,-1489,-871,-523,1,7,11
7.01E+02,-6860,-3998,2669,-1547,-863,-400,1,7,11
7.01E+02,-7008,-3987,2645,-1330,-852,-451,1,7,11
7.00E+02,-6924,-4210,2575,-1145,-770,-484,1,7,11
6.99E+02,-6961,-4204,2578,-1053,-610,-769,1,7,11
6.99E+02,-6837,-4166,2608,-698,-202,-776,1,7,11
7.03E+02,-7261,-4167,2439,-887,-374,-479,1,7,11
7.12E+02,-7112,-4160,2493,-777,-131,-401,1,7,11
7.28E+02,-7436,-4207,2556,-415,-191,-558,1,7,11
7.45E+02,-7470,-3991,2841,-235,-530,-196,1,7,11
7.57E+02,-7488,-4021,2881,-261,-612,-331,1,7,11
7.65E+02,-7475,-4017,2857,259,-430,33,1,7,11
7.70E+02,-7152,-3988,2829,255,-478,-110,1,7,11
7.76E+02,-7073,-4213,2844,430,-477,-26,1,7,11
7.86E+02,-7263,-4183,2879,818,-432,275,1,7,11
8.03E+02,-7204,-4173,2925,892,-589,280,1,7,11
8.24E+02,-7178,-4151,2695,679,-199,256,1,7,11
8.44E+02,-6907,-4098,2708,665,-308,-50,1,7,11
8.63E+02,-6879,-3793,2701,860,92,-107,1,7,11
8.81E+02,-6834,-3750,2893,771,-19,89,1,7,11
9.01E+02,-6825,-3731,2844,637,162,22,1,7,11
9.21E+02,-6825,-3759,2554,243,570,-299,1,7,11
9.40E+02,-6842,-3768,2508,168,428,-135,1,7,11
9.55E+02,-6857,-3758,2446,134,507,-247,1,7,11
9.68E+02,-6891,-3737,2612,128,833,-601,1,7,11
9.80E+02,-7187,-3731,2279,135,645,-410,1,7,11
9.89E+02,-7179,-3781,2271,382,668,-444,1,7,11
9.96E+02,-6890,-4154,2573,165,643,-481,1,7,11
9.99E+02,-6857,-3981,2614,544,840,-803,1,7,11
1.00E+03,-6895,-4012,2647,441,792,-890,1,7,11
1.00E+03,-7241,-3976,2667,849,483,-665,1,7,11
1.00E+03,-7051,-4175,2654,692,411,-886,1,7,11
1.00E+03,-7085,-4152,2653,693,607,-783,1,7,11
1.00E+03,-7075,-4185,2647,891,553,-396,1,7,11
1.00E+03,-7041,-4016,2671,809,523,-538,1,7,11
9.98E+02,-7244,-4371,2673,779,515,-223,1,7,11
9.88E+02,-7191,-4372,2663,789,513,-221,1,7,11
9.70E+02,-6873,-4380,2637,826,243,-236,1,7,11
9.52E+02,-6797,-4380,2611,871,225,-249,1,7,11
9.38E+02,-6986,-4372,2607,675,228,-252,1,7,11
9.30E+02,-6649,-4396,2634,723,225,-228,1,7,11
9.23E+02,-6604,-4402,2646,1068,237,-211,1,7,11
9.15E+02,-6537,-4413,2671,928,219,-192,1,7,11
9.01E+02,-6727,-4412,2686,1017,201,-183,1,7,11
8.80E+02,-6705,-4412,2459,1338,189,-187,1,7,11
8.53E+02,-6699,-4465,2486,1371,175,-174,1,7,11
8.26E+02,-6751,-4234,2531,1370,194,-163,1,7,11
8.02E+02,-6686,-4447,2844,1407,245,-138,1,7,11
7.81E+02,-6835,-4399,2914,1176,570,-298,1,7,11
7.65E+02,-7209,-4078,2734,1231,398,7,1,7,11
7.53E+02,-7253,-3998,2771,1551,472,281,1,7,11
7.43E+02,-7264,-4152,2756,1630,787,775,1,7,11
7.35E+02,-7279,-3752,2732,1662,863,706,1,7,11
7.27E+02,-7270,-3581,2701,1414,683,1099,1,7,11
7.18E+02,-7253,-3699,2927,1588,1039,929,1,7,11
7.06E+02,-7238,-3299,2881,1258,1089,968,1,7,11
6.93E+02,-7237,-3382,2554,1172,1134,965,1,7,11
6.81E+02,-7236,-2986,2489,1313,924,961,1,7,11
6.73E+02,-7235,-3160,2432,939,987,948,1,7,11
6.68E+02,-7045,-2813,2652,1110,1336,930,1,7,11
6.67E+02,-7143,-2727,2621,1057,1166,920,1,7,11
6.68E+02,-7327,-2894,2594,758,1540,937,1,7,11
6.71E+02,-7793,-2549,2575,755,1633,989,1,7,11
6.74E+02,-7997,-2456,2266,723,1456,982,1,7,11
6.79E+02,-8199,-2628,2229,689,1522,965,1,7,11
6.83E+02,-8127,-2561,2207,895,1798,900,1,7,11
6.88E+02,-8539,-2251,2415,857,1510,1038,1,7,11
6.93E+02,-8364,-2221,2356,829,1429,883,1,7,11
6.99E+02,-8387,-2228,2038,806,1600,454,1,7,11
7.06E+02,-8352,-2263,1987,817,1266,524,1,7,11
7.13E+02,-8502,-2284,2155,869,1192,353,1,7,11
7.21E+02,-8126,-2609,2062,676,1173,-29,1,7,11
7.29E+02,-8264,-2635,1743,1032,1195,-117,1,7,11
7.37E+02,-7914,-2541,1756,1087,1249,75,1,7,11
7.44E+02,-7990,-2858,1678,1310,1251,-294,1,7,11
7.51E+02,-7593,-2712,1880,1218,1576,-513,1,7,11
7.60E+02,-7417,-3080,1831,1474,1411,-783,1,7,11
7.71E+02,-7297,-3178,1471,1762,1843,-1126,1,7,11
7.85E+02,-7531,-3055,1415,2347,2123,-1194,1,7,11
8.05E+02,-7495,-3226,1626,2439,2418,-1524,1,7,11
8.30E+02,-7507,-3464,1608,3150,2532,-2111,1,7,11
8.57E+02,-7496,-3908,1539,3544,3193,-2180,1,7,11
8.85E+02,-7466,-3721,1372,4305,3661,-2532,1,7,11
9.11E+02,-7512,-3953,916,5009,4176,-3110,1,7,11
9.31E+02,-7373,-3936,1024,5506,4349,-3389,1,7,11
9.45E+02,-7557,-3926,675,5813,4877,-3626,1,7,11
9.55E+02,-8005,-3855,841,6216,4956,-3551,1,7,11
9.62E+02,-7912,-3545,806,6187,4880,-3902,1,7,11
9.67E+02,-8312,-3572,824,6002,4656,-3922,1,7,11
9.71E+02,-8166,-3555,837,5531,4030,-3895,1,7,11
9.77E+02,-8508,-3539,887,5497,3574,-3518,1,7,11
9.83E+02,-8544,-3523,684,5161,3055,-3313,1,7,11
9.91E+02,-8538,-3516,1048,4531,2513,-3002,1,7,11
9.98E+02,-8266,-3854,1296,3744,1560,-2203,1,7,11
1.01E+03,-8043,-3911,1404,3615,710,-2056,1,7,11
1.02E+03,-7808,-3897,1219,3032,186,-1466,1,7,11
1.02E+03,-7345,-3886,1554,2714,21,-1159,1,7,11
1.03E+03,-7455,-3921,1663,2649,-559,-1134,1,7,11
1.03E+03,-7052,-3725,1513,2393,-858,-884,1,7,11
1.03E+03,-6880,-3812,1865,2167,-1099,-447,1,7,11
1.02E+03,-6995,-4165,1716,1701,-1013,-613,1,7,11
1.02E+03,-6920,-3996,2085,1517,-1375,-595,1,7,11
1.01E+03,-6654,-4355,1945,1624,-1168,-595,1,7,11
1.01E+03,-6956,-4395,2333,1553,-1404,-582,1,7,11
1.00E+03,-7031,-4425,2236,1234,-1353,-235,1,7,11
9.87E+02,-6791,-4442,2602,1232,-1324,-330,1,7,11
9.62E+02,-7021,-4480,2460,1221,-1304,-124,1,7,11
9.26E+02,-6946,-4234,2520,1218,-1310,299,1,7,11
8.88E+02,-6626,-4473,2559,1170,-1335,154,1,7,11
8.57E+02,-6561,-4443,2827,1320,-1391,204,1,7,11
8.31E+02,-6744,-4398,2848,920,-1236,179,1,7,11
8.04E+02,-6709,-4374,2901,681,-1611,350,1,7,11
7.74E+02,-6700,-4366,2714,458,-1524,263,1,7,11
7.44E+02,-6383,-4372,2759,240,-1737,-97,1,7,11
7.20E+02,-6317,-4427,3094,282,-1935,56,1,7,11
7.04E+02,-6493,-4259,3158,116,-2382,-294,1,7,11
6.95E+02,-6414,-4634,2972,20,-2274,-364,1,7,11
6.90E+02,-6093,-4727,3046,14,-2627,-133,1,7,11
6.87E+02,-6070,-4542,3390,47,-2661,-367,1,7,11
6.83E+02,-6101,-4878,3251,-126,-2629,1,1,7,11
6.78E+02,-6401,-4745,3677,269,-2293,-46,1,7,11
6.74E+02,-6485,-4848,3882,243,-2427,236,1,7,11
6.69E+02,-6369,-5230,4113,788,-2026,864,1,7,11
6.66E+02,-6536,-5006,4359,926,-2131,1320,1,7,11
6.65E+02,-6589,-5137,4275,1634,-2059,1860,1,7,11
6.66E+02,-6777,-4615,4292,1787,-1768,2381,1,7,11
6.68E+02,-6682,-3975,4348,1931,-1710,2852,1,7,11
6.70E+02,-6390,-3550,4652,2052,-1669,3053,1,7,11
6.74E+02,-6676,-3425,4698,1503,-1919,3227,1,7,11
6.79E+02,-6723,-2809,4716,1382,-1692,3588,1,7,11
6.85E+02,-6724,-2484,4687,674,-1772,3668,1,7,11
6.91E+02,-6678,-2298,4673,-298,-2021,3579,1,7,11
6.98E+02,-6354,-2569,4661,-468,-2317,3543,1,7,11
7.07E+02,-6290,-2622,4656,-1050,-2034,3478,1,7,11
7.16E+02,-6455,-2472,4690,-1319,-1973,3292,1,7,11
7.28E+02,-6421,-2847,4500,-1251,-2079,2980,1,7,11
7.41E+02,-6477,-2711,4873,-1602,-1864,2877,1,7,11
7.59E+02,-6287,-3107,4981,-1591,-1648,2250,1,7,11
7.83E+02,-6306,-3187,4818,-1239,-1208,2118,1,7,11
8.11E+02,-6379,-2962,5149,-1340,-993,1464,1,7,11
8.37E+02,-6714,-3182,5180,-1134,-1028,1338,1,7,11
8.53E+02,-6783,-3079,5158,-656,-799,742,1,7,11
8.59E+02,-6572,-2690,4843,-480,-567,456,1,7,11
8.53E+02,-6580,-2847,4775,-404,-349,211,1,7,11
8.36E+02,-6591,-2544,4736,-409,105,-20,1,7,11
8.12E+02,-6608,-2537,4955,-470,-15,2,1,7,11
7.84E+02,-6618,-2823,4903,-794,311,-215,1,7,11
7.57E+02,-6595,-2870,4589,-872,328,-395,1,7,11
7.27E+02,-6581,-2901,4529,-672,310,-791,1,7,11
6.94E+02,-6554,-2929,4706,-717,278,-858,1,7,11
6.55E+02,-6542,-2934,4622,-735,-10,-828,1,7,11
6.16E+02,-6614,-2761,4630,-1027,-8,-444,1,7,11
5.85E+02,-6608,-2776,4308,-736,-60,-540,1,7,11
5.66E+02,-6941,-3112,4322,-693,-65,-335,1,7,11
5.57E+02,-6969,-3195,4295,-865,-100,88,1,7,11
5.55E+02,-6904,-3365,4670,-846,-65,-66,1,7,11
5.57E+02,-7291,-3389,4703,-773,-109,256,1,7,11
5.60E+02,-7427,-3441,4601,-441,78,313,1,7,11
5.63E+02,-7218,-2981,4524,-533,-150,276,1,7,11
5.66E+02,-6652,-2770,4347,-519,-555,-111,1,7,11
5.70E+02,-6747,-2735,4280,-482,-585,-289,1,7,11
5.74E+02,-6692,-2793,4277,-759,-583,-241,1,7,11
5.79E+02,-6543,-2809,4323,-897,-552,-465,1,7,11
5.86E+02,-6555,-2708,4231,-918,-573,-849,1,7,11
5.95E+02,-6627,-2717,4470,-978,-241,-779,1,7,11
6.04E+02,-6613,-2798,4462,-985,-194,-592,1,7,11
6.08E+02,-6621,-3153,4235,-936,-144,-171,1,7,11
6.05E+02,-6639,-3165,4248,-1064,-371,-282,1,7,11
5.93E+02,-6961,-3196,4287,-703,-351,-119,1,7,11
5.76E+02,-6797,-3174,4335,-852,-331,308,1,7,11
5.70E+02,-6845,-2791,4351,-490,-362,204,1,7,11
5.89E+02,-7230,-2712,4683,-802,-371,619,1,7,11
6.25E+02,-7082,-2702,4505,-872,-231,821,1,7,11
6.54E+02,-7273,-2874,4703,-722,-461,656,1,7,11
6.64E+02,-7220,-2936,4734,-949,-658,706,1,7,11
6.61E+02,-7034,-3075,4494,-1407,-1146,683,1,7,11
6.55E+02,-6605,-2959,4492,-1242,-1008,827,1,7,11
6.51E+02,-6396,-3355,4733,-1231,-1304,415,1,7,11
6.49E+02,-6528,-3429,4727,-1355,-930,169,1,7,11
6.47E+02,-6518,-3214,4508,-1092,-689,-35,1,7,11
6.47E+02,-6490,-3214,4500,-439,-400,73,1,7,11
6.47E+02,-6469,-3440,4709,-275,-292,-297,1,7,11
6.48E+02,-6355,-2991,4690,449,474,-248,1,7,11
6.48E+02,-6664,-2963,4730,889,1024,-390,1,7,11
6.48E+02,-6780,-3137,4735,748,935,-823,1,7,11
6.47E+02,-6926,-2758,4731,1053,1000,-741,1,7,11
6.46E+02,-7007,-2705,4714,722,974,-1129,1,7,11
6.44E+02,-6825,-2940,4708,818,1137,-1289,1,7,11
6.42E+02,-6862,-2926,4647,386,746,-1160,1,7,11
6.39E+02,-6855,-2797,4347,176,851,-1257,1,7,11
6.37E+02,-7035,-3119,4460,-1,632,-1629,1,7,11
6.35E+02,-7007,-3022,4439,-335,589,-1451,1,7,11
6.32E+02,-6983,-3452,4467,-213,538,-1474,1,7,11
6.29E+02,-6926,-3327,4458,-225,228,-1487,1,7,11
6.26E+02,-6629,-3671,4457,-166,228,-1471,1,7,11
6.23E+02,-6593,-3480,4459,-326,254,-1428,1,7,11
6.23E+02,-6551,-3524,4456,49,527,-1632,1,7,11
6.28E+02,-6766,-3541,4426,-83,553,-1556,1,7,11
6.36E+02,-6742,-3539,4379,279,599,-1185,1,7,11
6.41E+02,-6731,-3537,4076,354,403,-1287,1,7,11
6.45E+02,-6729,-3547,4049,157,472,-1099,1,7,11
6.47E+02,-6714,-3579,4039,201,793,-883,1,7,11
6.49E+02,-6684,-3875,4020,242,840,-401,1,7,11
6.49E+02,-6657,-3944,4034,542,876,-174,1,7,11
6.50E+02,-6391,-3728,4048,631,893,35,1,7,11
6.50E+02,-6400,-3750,4049,486,889,-28,1,7,11
6.49E+02,-6658,-3721,4032,868,873,138,1,7,11
6.44E+02,-6661,-3920,3987,702,860,549,1,7,11
6.35E+02,-6388,-3580,4220,709,834,412,1,7,11
6.30E+02,-6706,-3461,3979,652,816,460,1,7,11
6.37E+02,-6535,-3264,3972,800,511,453,1,7,11
6.54E+02,-6965,-3022,3977,637,476,480,1,7,11
6.70E+02,-6871,-2779,4217,162,429,881,1,7,11
6.76E+02,-7279,-2913,3998,127,393,1127,1,7,11
6.72E+02,-7091,-2885,4026,-155,568,1404,1,7,11
6.66E+02,-7048,-2926,3991,-443,187,1598,1,7,11
6.62E+02,-7063,-2694,3973,-658,366,1632,1,7,11
6.61E+02,-7076,-2742,4216,-1079,283,1600,1,7,11
6.63E+02,-7046,-2813,4201,-940,-62,1268,1,7,11
6.68E+02,-7200,-2952,4196,-1317,69,1155,1,7,11
6.77E+02,-6888,-2993,4150,-1341,-293,953,1,7,11
6.91E+02,-6880,-3019,4146,-1378,-376,741,1,7,11
7.06E+02,-7203,-2995,4153,-1378,-158,810,1,7,11
7.17E+02,-7252,-2996,4145,-1332,-217,460,1,7,11
7.22E+02,-7229,-3006,4129,-991,-249,390,1,7,11
7.21E+02,-7212,-3033,4118,-912,-237,578,1,7,11
7.17E+02,-7201,-3338,4131,-1083,-212,537,1,7,11
7.11E+02,-6906,-3335,4110,-697,-186,233,1,7,11
7.02E+02,-7177,-3332,4123,-831,-376,206,1,7,11
6.92E+02,-7188,-3051,4113,-413,-322,210,1,7,11
6.79E+02,-7171,-2980,3806,-536,-271,204,1,7,11
6.66E+02,-6867,-2952,3769,-233,44,197,1,7,11
6.57E+02,-6853,-3190,3766,-246,110,380,1,7,11
6.58E+02,-6846,-3163,3766,-530,-119,-7,1,7,11
6.72E+02,-6843,-3128,3753,-568,-127,95,1,7,11
6.99E+02,-6861,-3137,3756,-616,112,-295,1,7,11
7.39E+02,-6849,-3164,3748,-639,74,-153,1,7,11
7.79E+02,-6829,-3186,3745,-391,55,-523,1,7,11
7.99E+02,-6825,-2959,3730,-390,66,-621,1,7,11
7.76E+02,-7037,-3018,3724,-386,79,-448,1,7,11
7.15E+02,-6935,-3404,3753,-631,-128,-843,1,7,11
6.55E+02,-6590,-3233,3768,-567,-15,-1084,1,7,11
6.36E+02,-6531,-3326,3806,-245,142,-1155,1,7,11
6.50E+02,-6778,-3664,3836,-170,577,-1805,1,7,11
6.70E+02,-6949,-3597,3819,-324,490,-2411,1,7,11
6.77E+02,-6883,-3211,3800,-270,834,-2466,1,7,11
6.81E+02,-7068,-3383,3803,-379,510,-2835,1,7,11
6.95E+02,-7447,-3052,3834,-523,577,-2530,1,7,11
7.25E+02,-7522,-2996,3829,-463,324,-2612,1,7,11
7.62E+02,-7538,-3003,3823,-691,33,-2012,1,7,11
7.96E+02,-7451,-3038,3769,-922,-548,-1841,1,7,11
8.20E+02,-7093,-3377,3719,-1170,-826,-1379,1,7,11
8.35E+02,-7217,-3255,3929,-1648,-1033,-879,1,7,11
8.43E+02,-6812,-3626,3879,-1806,-898,-140,1,7,11
8.44E+02,-6955,-3503,3849,-1679,-910,293,1,7,11
8.41E+02,-6572,-3924,3572,-1764,-1133,393,1,7,11
8.34E+02,-6705,-3834,3551,-2069,-1056,879,1,7,11
8.25E+02,-6337,-3993,3563,-2069,-676,741,1,7,11
8.13E+02,-6292,-4385,3842,-1766,-771,761,1,7,11
7.99E+02,-6522,-4242,3858,-1917,-605,702,1,7,11
7.85E+02,-6496,-4613,3883,-1519,-174,826,1,7,11
7.73E+02,-6466,-4703,3891,-1541,0,637,1,7,11
7.65E+02,-6444,-4515,3853,-966,-62,161,1,7,11
7.59E+02,-6453,-4535,3568,-860,166,-69,1,7,11
7.55E+02,-6496,-4500,3525,-200,410,-261,1,7,11
7.50E+02,-6315,-4713,3521,-66,656,-143,1,7,11
7.43E+02,-6663,-4641,3533,583,1133,-221,1,7,11
7.34E+02,-6733,-4294,3556,697,1306,-236,1,7,11
7.25E+02,-6535,-4225,3566,1286,1170,-217,1,7,11
7.20E+02,-6570,-4417,3883,1573,1237,-177,1,7,11
7.15E+02,-6592,-4353,3907,1849,1242,-129,1,7,11
7.10E+02,-6614,-3996,3924,2058,1206,-342,1,7,11
7.01E+02,-6628,-4165,3945,2164,1389,-291,1,7,11
6.89E+02,-6918,-3831,3731,1929,1291,25,1,7,11
6.76E+02,-6926,-3736,3733,2165,900,97,1,7,11
6.62E+02,-6638,-3911,3963,1785,760,-94,1,7,11
6.49E+02,-6581,-3888,3947,1824,886,-49,1,7,11
6.37E+02,-6552,-3903,3958,1560,777,-53,1,7,11
6.26E+02,-6537,-3871,3949,1327,445,-85,1,7,11
6.18E+02,-6783,-3524,3866,1102,420,-109,1,7,11
6.19E+02,-6542,-3698,3560,830,469,-75,1,7,11
6.38E+02,-6575,-3694,3549,540,793,305,1,7,11
6.77E+02,-6556,-3683,3507,260,830,196,1,7,11
7.22E+02,-6635,-3525,3495,-372,882,599,1,7,11
7.62E+02,-6954,-3536,3488,-219,865,430,1,7,11
7.95E+02,-6937,-3514,3644,-411,850,520,1,7,11
8.20E+02,-6906,-3471,3681,-483,662,377,1,7,11
8.39E+02,-7283,-3697,3687,-494,877,280,1,7,11
8.51E+02,-7118,-3654,3701,-427,827,-28,1,7,11
8.55E+02,-7159,-3652,3487,-590,779,-1,1,7,11
8.52E+02,-7086,-3623,3517,-185,414,-20,1,7,11
8.43E+02,-7239,-3287,3537,-369,557,-120,1,7,11
8.30E+02,-7201,-3422,3522,-332,250,75,1,7,11
8.16E+02,-7172,-3042,3499,-348,157,0,1,7,11
8.01E+02,-6873,-3010,3479,-513,347,-319,1,7,11
7.85E+02,-6818,-3039,3485,-792,303,-199,1,7,11
7.66E+02,-7031,-3058,3479,-1088,273,-603,1,7,11
7.41E+02,-7015,-3339,3703,-1156,259,-475,1,7,11
7.10E+02,-7007,-3350,3642,-1467,-6,-784,1,7,11
6.83E+02,-6788,-3410,3309,-1783,299,-472,1,7,11
6.75E+02,-6812,-3229,3226,-2347,348,-592,1,7,11
6.92E+02,-6964,-3598,3358,-2256,381,-475,1,7,11
7.19E+02,-6983,-3552,3330,-2470,551,-341,1,7,11
7.36E+02,-6933,-3728,2963,-2512,453,-229,1,7,11
7.33E+02,-6638,-4126,2809,-2675,843,51,1,7,11
7.26E+02,-6947,-3992,2695,-2266,1053,48,1,7,11
7.34E+02,-7018,-4377,2875,-2310,984,8,1,7,11
7.62E+02,-6877,-4453,2558,-1749,1400,-315,1,7,11
8.00E+02,-7185,-4468,2468,-1627,1240,-129,1,7,11
8.36E+02,-7256,-4436,2600,-937,1558,-214,1,7,11
8.57E+02,-7062,-4058,2206,-868,1591,-538,1,7,11
8.67E+02,-7499,-4209,2416,-230,1590,-570,1,7,11
8.69E+02,-7374,-3791,2342,-270,1402,-571,1,7,11
8.70E+02,-7745,-3912,2316,23,1150,-584,1,7,11
8.72E+02,-7611,-3842,2351,-147,491,-561,1,7,11
8.75E+02,-7649,-3458,2324,-424,-92,-573,1,7,11
8.79E+02,-7677,-3318,2017,-1142,-496,-614,1,7,11
8.83E+02,-7980,-3283,2017,-1810,-1162,-397,1,7,11
8.88E+02,-8042,-3201,1996,-2182,-2099,-633,1,7,11
8.93E+02,-8018,-3238,1963,-3112,-2479,-227,1,7,11
8.99E+02,-7961,-3288,1935,-3698,-2978,98,1,7,11
9.04E+02,-7616,-3681,1942,-4211,-3591,587,1,7,11
9.07E+02,-7408,-3575,2161,-4332,-3583,938,1,7,11
9.05E+02,-7147,-3764,2140,-4866,-3900,1817,1,7,11
8.96E+02,-7210,-4114,2136,-4745,-3542,2359,1,7,11
8.82E+02,-7169,-3979,1994,-4800,-3587,2829,1,7,11
8.66E+02,-7188,-4018,2356,-4947,-3422,2955,1,7,11
8.53E+02,-7202,-4039,2228,-4524,-3351,3264,1,7,11
8.43E+02,-6888,-4059,2567,-4297,-3385,3470,1,7,11
8.35E+02,-6788,-3981,2604,-4003,-3451,3503,1,7,11
8.26E+02,-6978,-4134,2640,-3743,-3251,3629,1,7,11
8.14E+02,-6585,-3754,2631,-3524,-3302,3370,1,7,11
8.02E+02,-6714,-3868,2621,-3644,-3273,2745,1,7,11
7.95E+02,-6669,-3542,2673,-3605,-3357,2595,1,7,11
7.94E+02,-6717,-3532,2512,-3302,-2800,1976,1,7,11
7.96E+02,-6565,-3505,2843,-3208,-2688,1680,1,7,11
7.96E+02,-6931,-3470,2863,-3368,-2308,1468,1,7,11
7.87E+02,-6822,-3709,2865,-3020,-1899,1589,1,7,11
7.73E+02,-7282,-3678,2837,-3198,-1210,1538,1,7,11
7.63E+02,-7507,-3658,2549,-3162,-1060,1558,1,7,11
7.65E+02,-7765,-3648,2535,-3151,-461,1616,1,7,11
7.78E+02,-7996,-3666,2534,-3168,-248,1643,1,7,11
7.97E+02,-8054,-3271,2661,-3141,-220,1613,1,7,11
8.12E+02,-7883,-3431,2588,-2994,-192,1581,1,7,11
8.21E+02,-7857,-3369,2252,-3347,-528,1575,1,7,11
8.28E+02,-8007,-3345,2416,-3210,-402,1250,1,7,11
8.36E+02,-7575,-3360,2334,-3310,-807,1157,1,7,11
8.47E+02,-7399,-3429,2019,-3654,-684,1296,1,7,11
8.57E+02,-7511,-3252,1996,-3677,-1028,934,1,7,11
8.64E+02,-7151,-3273,1959,-3628,-1076,1096,1,7,11
8.63E+02,-7098,-3302,1938,-3324,-1076,1054,1,7,11
8.54E+02,-7076,-3323,2163,-3262,-1052,1047,1,7,11
8.43E+02,-7121,-3590,2152,-3445,-739,1062,1,7,11
8.32E+02,-7487,-3611,2161,-3352,-676,1117,1,7,11
8.26E+02,-7363,-3643,2167,-2978,-890,944,1,7,11
8.24E+02,-7733,-3666,1921,-3083,-868,1292,1,7,11
8.27E+02,-7575,-3680,1931,-2913,-875,1367,1,7,11
8.36E+02,-7613,-3667,2164,-2459,-665,1160,1,7,11
8.48E+02,-7616,-3638,2097,-2277,-705,1174,1,7,11
8.63E+02,-7641,-3619,2107,-2393,-728,1158,1,7,11
8.79E+02,-7599,-3271,2086,-1959,-1053,1356,1,7,11
8.94E+02,-7558,-3448,2058,-2075,-1112,996,1,7,11
9.10E+02,-7796,-3389,2060,-1736,-912,1109,1,7,11
9.26E+02,-7757,-3343,2070,-1679,-987,675,1,7,11
9.42E+02,-7729,-3032,2143,-1885,-1296,498,1,7,11
9.57E+02,-7738,-2994,1932,-1521,-1351,243,1,7,11
9.64E+02,-7779,-3194,1980,-1422,-1357,383,1,7,11
9.59E+02,-7599,-3154,2022,-1621,-1359,312,1,7,11
9.39E+02,-7967,-3193,2354,-1635,-1367,260,1,7,11
9.07E+02,-7816,-3026,2183,-1420,-1389,-71,1,7,11
8.68E+02,-8053,-3020,2216,-1664,-1226,35,1,7,11
8.28E+02,-7999,-3032,2244,-1420,-1552,-188,1,7,11
7.90E+02,-8026,-3375,2303,-1437,-1584,-453,1,7,11
7.58E+02,-8050,-3413,2615,-1654,-1643,-730,1,7,11
7.34E+02,-8021,-3405,2638,-1565,-1468,-993,1,7,11
7.19E+02,-7974,-3371,2664,-1210,-1803,-1229,1,7,11
7.10E+02,-7603,-3339,2683,-1374,-1884,-1660,1,7,11
7.04E+02,-7767,-3041,2462,-1293,-1666,-1804,1,7,11
7.04E+02,-7684,-3001,2468,-976,-1668,-1905,1,7,11
7.15E+02,-7398,-3025,2527,-951,-1887,-1685,1,7,11
7.39E+02,-7331,-3059,2819,-912,-1863,-1682,1,7,11
7.73E+02,-7302,-3351,2882,-1141,-1827,-1913,1,7,11
8.09E+02,-7499,-3437,2692,-1110,-1815,-1848,1,7,11
8.39E+02,-7476,-3273,2761,-1041,-1800,-1515,1,7,11
8.62E+02,-7143,-3610,2777,-682,-1807,-1417,1,7,11
8.79E+02,-7096,-3684,3077,-837,-1533,-1566,1,7,11
8.92E+02,-7049,-3489,3105,-473,-1507,-1162,1,7,11
9.03E+02,-7278,-3530,3158,-411,-1456,-961,1,7,11
9.12E+02,-7241,-3566,2980,-639,-1658,-685,1,7,11
9.22E+02,-7202,-3550,3029,-627,-1601,-609,1,7,11
9.31E+02,-7178,-3521,3068,-422,-1260,66,1,7,11
9.41E+02,-6846,-3493,3363,-836,-1187,545,1,7,11
9.49E+02,-6924,-3569,3406,-1120,-1172,1027,1,7,11
9.53E+02,-6687,-3739,3423,-1205,-1202,1351,1,7,11
9.50E+02,-6285,-4140,3422,-1502,-1198,1170,1,7,11
9.42E+02,-6503,-4001,3435,-1727,-1157,1334,1,7,11
9.30E+02,-6284,-4054,3442,-2098,-1368,914,1,7,11
9.16E+02,-6318,-4030,3410,-2099,-1318,765,1,7,11
9.04E+02,-6355,-4210,3376,-2070,-993,670,1,7,11
8.93E+02,-6381,-4134,3374,-1775,-921,640,1,7,11
8.83E+02,-6397,-3799,3363,-1711,-1094,667,1,7,11
8.73E+02,-6684,-3728,3376,-1917,-752,706,1,7,11
8.62E+02,-6712,-3857,3384,-1873,-687,737,1,7,11
8.49E+02,-6761,-3463,3403,-1889,-644,1050,1,7,11
8.31E+02,-6571,-3306,3428,-1701,-651,910,1,7,11
8.08E+02,-6629,-3389,3437,-2095,-715,1355,1,7,11
7.81E+02,-6994,-3066,3268,-2344,-1059,1633,1,7,11
7.56E+02,-6906,-3068,3677,-2579,-930,1738,1,7,11
7.35E+02,-7261,-3341,3547,-2479,-1377,2423,1,7,11
7.20E+02,-7087,-3210,3956,-2923,-1570,2853,1,7,11
7.13E+02,-7143,-3603,4110,-3075,-1816,2978,1,7,11
7.12E+02,-7102,-3484,4195,-2949,-2131,3229,1,7,11
7.13E+02,-7043,-3560,3975,-3335,-2405,3263,1,7,11
7.11E+02,-7281,-3842,4001,-3209,-2604,3377,1,7,11
7.02E+02,-7279,-3526,4013,-3309,-2477,3140,1,7,11
6.96E+02,-7083,-3475,4052,-3633,-2503,2893,1,7,11
6.99E+02,-7103,-3655,4083,-3614,-2485,2679,1,7,11
7.13E+02,-7047,-3298,4357,-3278,-2433,2235,1,7,11
7.28E+02,-6903,-3441,4067,-3392,-2601,2023,1,7,11
7.35E+02,-6967,-3353,4007,-2982,-2429,1758,1,7,11
7.33E+02,-6563,-3032,4201,-2812,-2143,1436,1,7,11
7.31E+02,-6728,-3036,4179,-2889,-1796,1371,1,7,11
7.35E+02,-6370,-3365,4169,-2683,-1230,1056,1,7,11
7.46E+02,-6348,-3453,4158,-2424,-924,459,1,7,11
7.60E+02,-6657,-3451,4116,-2109,-645,137,1,7,11
7.73E+02,-6752,-3229,4100,-1531,-396,-71,1,7,11
7.83E+02,-6939,-3399,3814,-1206,-139,-267,1,7,11
7.89E+02,-7173,-3388,4113,-992,73,-356,1,7,11
7.89E+02,-7076,-3409,4169,-1077,-72,-140,1,7,11
7.83E+02,-7161,-3449,4216,-673,-50,-156,1,7,11
7.69E+02,-7467,-3253,3986,-782,-54,-147,1,7,11
7.48E+02,-7479,-3595,4034,-416,-77,-368,1,7,11
7.23E+02,-7165,-3675,4050,-543,117,-340,1,7,11
7.02E+02,-7075,-3472,4016,-159,48,-309,1,7,11
6.96E+02,-7231,-3512,3969,-300,-260,-287,1,7,11
7.01E+02,-7017,-3545,4137,67,-310,-320,1,7,11
7.09E+02,-6599,-3847,3824,-113,-292,-200,1,7,11
7.10E+02,-6716,-3571,3747,290,-261,-405,1,7,11
7.06E+02,-6684,-3890,3743,150,85,-858,1,7,11
7.08E+02,-6365,-3714,3800,422,-126,-1061,1,7,11
7.21E+02,-6340,-3811,3813,1037,-76,-1299,1,7,11
7.40E+02,-6761,-4185,4187,1572,283,-1186,1,7,11
7.54E+02,-6571,-4150,4180,2316,292,-1260,1,7,11
7.54E+02,-6652,-4104,4170,2784,372,-1259,1,7,11
7.49E+02,-6798,-3904,4186,3510,254,-1402,1,7,11
7.52E+02,-7265,-3501,4397,3990,406,-912,1,7,11
7.72E+02,-7112,-3280,4653,4350,445,-895,1,7,11
8.00E+02,-7147,-3016,4579,4491,630,-437,1,7,11
8.22E+02,-7107,-2795,4971,4662,217,-549,1,7,11
8.22E+02,-7205,-2879,4758,4413,277,-244,1,7,11
8.03E+02,-6785,-2549,4769,3809,-110,-561,1,7,11
7.82E+02,-6610,-2497,4944,3702,71,-440,1,7,11
7.78E+02,-6703,-2474,4540,3066,73,-845,1,7,11
7.91E+02,-6317,-2533,4696,2879,-77,-746,1,7,11
8.08E+02,-6450,-2841,4608,2268,346,-930,1,7,11
8.12E+02,-6126,-2895,4311,1929,582,-1396,1,7,11
7.96E+02,-6463,-2758,4614,1916,863,-1558,1,7,11
7.71E+02,-6290,-3088,4624,1532,1085,-1425,1,7,11
7.53E+02,-6668,-3125,4620,1465,1299,-1503,1,7,11
7.51E+02,-6547,-3166,4307,1474,1224,-1487,1,7,11
7.58E+02,-6638,-3164,4232,1804,1634,-1454,1,7,11
7.67E+02,-6997,-3169,4469,1833,1819,-1641,1,7,11
7.73E+02,-6801,-3195,4383,1886,1699,-1538,1,7,11
7.74E+02,-6795,-2948,4067,1912,1776,-1217,1,7,11
7.75E+02,-6843,-2980,3990,1897,2124,-1180,1,7,11
7.76E+02,-6830,-3161,4136,1910,2141,-1181,1,7,11
7.77E+02,-6827,-3096,3779,1891,1922,-1215,1,7,11
7.79E+02,-6819,-3103,3722,1800,1955,-1230,1,7,11
7.82E+02,-6799,-2792,3862,1471,1964,-1241,1,7,11
7.86E+02,-6863,-3106,3856,1586,1978,-1191,1,7,11
7.92E+02,-7002,-2749,3660,1571,1920,-1178,1,7,11
7.99E+02,-6786,-2780,3615,1204,1978,-1394,1,7,11
8.06E+02,-7035,-2811,3292,1394,1954,-1344,1,7,11
8.14E+02,-6805,-3190,3291,1021,1930,-1345,1,7,11
8.22E+02,-7201,-3385,3591,1151,2146,-1364,1,7,11
8.30E+02,-7143,-3606,3672,1065,1790,-1162,1,7,11
8.38E+02,-7374,-3530,3508,759,1913,-1221,1,7,11
8.47E+02,-7732,-3905,3567,1026,1452,-1236,1,7,11
8.55E+02,-7398,-3905,3532,1057,1206,-1255,1,7,11
8.63E+02,-7458,-3853,3697,1048,995,-1263,1,7,11
8.69E+02,-7214,-3544,3326,703,1091,-1280,1,7,11
8.72E+02,-6949,-3710,3425,838,716,-1570,1,7,11
8.69E+02,-6601,-3474,3357,396,725,-1630,1,7,11
8.60E+02,-6738,-3626,2957,559,736,-1467,1,7,11
8.43E+02,-6580,-3600,3172,138,1117,-1533,1,7,11
8.25E+02,-6989,-3218,3080,369,926,-1506,1,7,11
8.13E+02,-7199,-3387,2738,341,1020,-1663,1,7,11
8.10E+02,-7457,-3368,2699,340,1368,-1170,1,7,11
8.14E+02,-7346,-3423,2929,366,1381,-1127,1,7,11
8.20E+02,-7717,-3250,2935,137,1154,-885,1,7,11
8.24E+02,-7554,-3598,2708,209,1403,-463,1,7,11
8.23E+02,-7580,-3673,2742,617,1329,-411,1,7,11
8.19E+02,-7578,-3683,2779,458,944,-455,1,7,11
8.12E+02,-7794,-3683,2807,494,1027,-801,1,7,11
8.04E+02,-7721,-3706,3102,487,841,-644,1,7,11
7.98E+02,-7383,-3684,3125,462,419,-746,1,7,11
7.97E+02,-7538,-3686,3139,389,523,-1072,1,7,11
8.00E+02,-7145,-3489,3151,537,382,-1121,1,7,11
7.99E+02,-7287,-3863,3164,227,286,-911,1,7,11
7.87E+02,-7185,-3946,3150,171,-43,-943,1,7,11
7.59E+02,-6828,-3737,3107,187,-89,-968,1,7,11
7.28E+02,-6994,-3789,3084,204,-100,-965,1,7,11
7.10E+02,-6632,-3823,2794,235,-88,-944,1,7,11
7.12E+02,-6571,-4169,2787,241,-8,-910,1,7,11
7.23E+02,-6583,-4056,2813,540,364,-1101,1,7,11
7.32E+02,-6579,-4411,2800,403,195,-1050,1,7,11
7.36E+02,-6587,-4236,2813,781,540,-1047,1,7,11
7.42E+02,-6615,-4290,3090,656,622,-1054,1,7,11
7.58E+02,-6617,-4291,3079,1072,407,-1055,1,7,11
7.89E+02,-6612,-4261,2801,928,447,-1046,1,7,11
8.24E+02,-6618,-4236,2807,977,494,-764,1,7,11
8.56E+02,-6637,-4476,3086,999,786,-723,1,7,11
8.76E+02,-6633,-4430,3076,1283,791,-663,1,7,11
8.84E+02,-6619,-4397,3075,1003,775,-854,1,7,11
8.82E+02,-6607,-4366,3087,944,488,-794,1,7,11
8.74E+02,-6602,-4049,3092,1130,434,-492,1,7,11
8.61E+02,-6617,-4001,3100,761,638,-443,1,7,11
8.49E+02,-6648,-3999,3131,893,568,-635,1,7,11
8.44E+02,-6656,-3996,3133,810,224,-559,1,7,11
8.47E+02,-6649,-4026,3164,461,162,-228,1,7,11
8.56E+02,-6619,-4088,3179,398,364,-178,1,7,11
8.64E+02,-6621,-4427,3183,628,347,-185,1,7,11
8.67E+02,-6632,-4437,3163,390,344,-265,1,7,11
8.63E+02,-6651,-4417,3153,390,349,-588,1,7,11
8.56E+02,-6944,-4362,3150,612,367,-621,1,7,11
8.49E+02,-6995,-4035,3150,555,372,-599,1,7,11
8.45E+02,-7038,-4218,3144,205,349,-248,1,7,11
8.41E+02,-6836,-4162,3159,327,321,-369,1,7,11
8.32E+02,-6888,-4143,2952,-92,268,51,1,7,11
8.16E+02,-7178,-4136,2993,12,-79,-40,1,7,11
7.97E+02,-7183,-4142,3018,-376,57,363,1,7,11
7.79E+02,-6902,-4142,3031,-225,-306,240,1,7,11
7.66E+02,-6869,-4164,3051,-584,-148,598,1,7,11
7.60E+02,-6828,-4216,3358,-423,-254,408,1,7,11
7.57E+02,-7027,-3992,3385,-486,-621,416,1,7,11
7.55E+02,-6971,-4043,3392,-796,-466,635,1,7,11
7.55E+02,-6928,-4086,3389,-830,-789,556,1,7,11
7.59E+02,-6607,-4094,3375,-844,-838,194,1,7,11
7.70E+02,-6564,-4377,3364,-894,-849,318,1,7,11
7.83E+02,-6535,-4411,3382,-689,-851,-75,1,7,11
7.94E+02,-6533,-4413,3389,-750,-874,74,1,7,11
7.94E+02,-6638,-4392,3420,-1041,-795,87,1,7,11
7.85E+02,-6579,-4093,3364,-1037,-505,97,1,7,11
7.71E+02,-6648,-4421,3406,-731,-607,-31,1,7,11
7.59E+02,-6616,-4459,3408,-842,-522,317,1,7,11
7.52E+02,-6596,-4428,3375,-436,-190,350,1,7,11
7.48E+02,-6582,-4399,3344,-585,-373,370,1,7,11
7.45E+02,-6612,-4061,3328,-245,-311,376,1,7,11
7.44E+02,-6636,-4010,3054,-219,-289,143,1,7,11
7.47E+02,-6913,-3986,3031,-524,-294,179,1,7,11
7.54E+02,-6950,-4202,3043,-536,-311,220,1,7,11
7.67E+02,-6947,-4175,3008,-609,-335,220,1,7,11
7.83E+02,-6981,-4140,2988,-395,-346,252,1,7,11
8.02E+02,-7020,-4158,3008,-468,-359,549,1,7,11
8.19E+02,-6791,-4196,3049,-490,-384,619,1,7,11
8.31E+02,-7026,-4016,3059,-434,-159,425,1,7,11
8.33E+02,-6967,-4029,3026,-570,-164,426,1,7,11
8.22E+02,-7000,-4053,3032,-204,-345,424,1,7,11
8.04E+02,-7015,-4013,3006,-296,-280,424,1,7,11
7.91E+02,-7025,-3989,2975,90,69,403,1,7,11
7.92E+02,-6788,-4207,2960,-40,-87,639,1,7,11
8.03E+02,-6817,-4161,2956,326,271,606,1,7,11
8.19E+02,-6852,-3839,2962,179,344,590,1,7,11
8.33E+02,-6895,-3793,2987,514,136,593,1,7,11
8.42E+02,-7190,-3740,3024,600,141,623,1,7,11
8.49E+02,-7214,-3940,3042,421,360,408,1,7,11
8.58E+02,-7213,-3911,3337,455,298,452,1,7,11
8.71E+02,-6887,-3896,3375,453,-66,468,1,7,11
8.82E+02,-6821,-3890,3405,415,85,405,1,7,11
8.86E+02,-6787,-3883,3437,628,5,551,1,7,11
8.75E+02,-6796,-3863,3211,581,-294,141,1,7,11
8.52E+02,-6822,-3582,3251,535,-304,-15,1,7,11
8.29E+02,-6849,-3563,3307,238,-311,108,1,7,11
8.20E+02,-6838,-3578,3320,187,-320,-296,1,7,11
8.29E+02,-7037,-3866,3325,380,-342,-384,1,7,11
8.47E+02,-7002,-3926,3600,300,-367,-248,1,7,11
8.61E+02,-6976,-3725,3605,-15,-371,-639,1,7,11
8.60E+02,-6944,-3797,3606,-63,-382,-784,1,7,11
8.47E+02,-6651,-3824,3594,-87,-145,-685,1,7,11
8.31E+02,-6637,-4119,3603,-105,-151,-1061,1,7,11
8.20E+02,-6643,-4102,3584,-108,-145,-1136,1,7,11
8.18E+02,-6622,-4109,3268,-59,-363,-909,1,7,11
8.16E+02,-6617,-4145,3261,-48,-284,-1142,1,7,11
8.07E+02,-6605,-4165,3249,-28,53,-1101,1,7,11
7.87E+02,-6624,-4160,3229,275,-92,-1038,1,7,11
7.63E+02,-6923,-4125,3230,350,280,-669,1,7,11
7.43E+02,-6981,-3833,3224,372,339,-849,1,7,11
7.29E+02,-7026,-3838,3231,132,174,-579,1,7,11
7.23E+02,-6802,-3839,3233,136,217,-154,1,7,11
7.20E+02,-6820,-4108,3227,133,216,-265,1,7,11
7.21E+02,-6831,-4109,3217,137,189,109,1,7,11
7.25E+02,-6828,-3838,3223,137,132,-58,1,7,11
7.30E+02,-6824,-3823,3242,138,351,-2,1,7,11
7.39E+02,-6815,-3787,3262,140,297,290,1,7,11
7.55E+02,-6827,-3751,3296,132,-4,325,1,7,11
7.83E+02,-6825,-3960,3321,378,-82,363,1,7,11
8.20E+02,-6803,-3909,3627,341,75,143,1,7,11
8.57E+02,-6812,-3877,3682,287,-265,195,1,7,11
8.82E+02,-6789,-3851,3675,-23,-364,234,1,7,11
8.85E+02,-7017,-3848,3677,-86,-173,521,1,7,11
8.72E+02,-6997,-3876,3650,111,-204,523,1,7,11
8.51E+02,-6964,-3863,3630,45,-227,235,1,7,11
8.32E+02,-7015,-3918,3637,-265,-202,216,1,7,11
8.21E+02,-6983,-3916,3309,-281,-189,166,1,7,11
8.15E+02,-7024,-3950,3592,-294,-360,154,1,7,11
8.14E+02,-7011,-3733,3323,8,-296,159,1,7,11
8.15E+02,-6972,-3795,3322,73,36,142,1,7,11
8.17E+02,-6928,-3839,3312,-76,109,341,1,7,11
8.19E+02,-6635,-4107,3293,309,-77,-22,1,7,11
8.21E+02,-6630,-3832,3282,181,263,99,1,7,11
8.19E+02,-6655,-3790,3281,565,335,-282,1,7,11
8.11E+02,-6951,-3752,3278,430,131,-138,1,7,11
7.95E+02,-6987,-3948,3269,817,167,-208,1,7,11
7.71E+02,-6995,-3932,3282,671,211,-229,1,7,11
7.45E+02,-7006,-3922,3304,1085,543,-248,1,7,11
7.25E+02,-7008,-3944,3596,985,607,-574,1,7,11
7.15E+02,-7038,-3952,3643,1162,427,-454,1,7,11
7.12E+02,-6859,-3925,3688,1586,471,-870,1,7,11
7.11E+02,-7180,-3887,3495,1469,462,-748,1,7,11
7.12E+02,-7253,-3566,3576,1827,436,-1086,1,7,11
7.15E+02,-7280,-3510,3714,1859,618,-1104,1,7,11
7.20E+02,-7210,-3501,3796,1806,185,-1139,1,7,11
7.26E+02,-6890,-3469,4107,1472,326,-942,1,7,11
7.27E+02,-6804,-3664,4149,1643,-35,-1009,1,7,11
7.20E+02,-6991,-3626,4197,1222,-123,-1352,1,7,11
7.06E+02,-6613,-3318,4207,1344,18,-1195,1,7,11
6.92E+02,-6741,-3272,4193,1147,-355,-1585,1,7,11
6.82E+02,-6672,-3243,4172,661,-158,-1444,1,7,11
6.76E+02,-6396,-3264,4139,431,-140,-1512,1,7,11
6.75E+02,-6391,-3314,4119,222,-342,-1797,1,7,11
6.78E+02,-6388,-3646,4101,293,-304,-1803,1,7,11
6.84E+02,-6376,-3482,3824,-110,-275,-1516,1,7,11
6.92E+02,-6378,-3858,3798,32,12,-1443,1,7,11
6.95E+02,-6373,-3744,3762,-281,21,-1602,1,7,11
6.92E+02,-6344,-4133,3942,-303,-264,-1257,1,7,11
6.83E+02,-6344,-4012,3889,-308,-266,-1178,1,7,11
6.70E+02,-6346,-4413,3888,-298,-280,-1344,1,7,11
6.59E+02,-6285,-4302,3875,9,-339,-1006,1,7,11
6.58E+02,-6440,-4660,3562,71,-381,-999,1,7,11
6.68E+02,-6090,-4519,3502,115,-357,-1308,1,7,11
6.80E+02,-6049,-4883,3480,-72,2,-1399,1,7,11
6.90E+02,-6064,-4981,3495,288,-97,-1220,1,7,11
6.95E+02,-6081,-4769,3500,197,323,-1254,1,7,11
6.95E+02,-6102,-4806,3499,386,230,-1236,1,7,11
6.92E+02,-6086,-4800,3482,848,625,-1176,1,7,11
6.90E+02,-6067,-4760,3484,1045,492,-1360,1,7,11
6.91E+02,-6068,-4960,3710,949,855,-1006,1,7,11
6.95E+02,-6064,-4905,3709,1366,700,-1137,1,7,11
6.98E+02,-6084,-4848,3710,1236,1060,-736,1,7,11
7.00E+02,-6117,-4502,3471,1622,1148,-829,1,7,11
7.02E+02,-6437,-4691,3504,1510,976,-392,1,7,11
7.03E+02,-6511,-4620,3508,1913,1315,-203,1,7,11
7.04E+02,-6295,-4276,3484,2096,1404,-276,1,7,11
7.06E+02,-6358,-4471,3694,2011,1248,-126,1,7,11
7.08E+02,-6744,-4440,3668,2419,1653,-18,1,7,11
7.07E+02,-6578,-4046,3615,2578,1535,280,1,7,11
7.05E+02,-6984,-4177,3626,2624,1897,-11,1,7,11
7.02E+02,-6825,-4105,3692,2293,1732,-19,1,7,11
6.96E+02,-7225,-3816,3472,2366,1681,260,1,7,11
6.88E+02,-7269,-3761,3467,2102,1521,-19,1,7,11
6.77E+02,-7070,-3868,3708,1862,1615,-98,1,7,11
6.64E+02,-7275,-3858,3462,1566,1189,-86,1,7,11
6.48E+02,-7199,-3920,3700,1013,1308,262,1,7,11
6.33E+02,-6798,-3764,3642,1076,917,285,1,7,11
6.20E+02,-6979,-3806,3601,730,1079,-44,1,7,11
6.09E+02,-6937,-3789,3317,705,1025,-103,1,7,11
5.98E+02,-6957,-4097,3622,685,716,-120,1,7,11
5.87E+02,-6919,-4102,3659,1025,862,-80,1,7,11
5.73E+02,-6554,-3840,3693,1093,424,-56,1,7,11
5.54E+02,-6707,-3805,3462,898,225,-82,1,7,11
5.31E+02,-6384,-3731,3490,920,291,97,1,7,11
5.07E+02,-6388,-3905,3530,1115,126,-277,1,7,11
4.87E+02,-6679,-3857,3867,894,-341,-132,1,7,11
4.69E+02,-6741,-3866,3948,433,-195,-136,1,7,11
4.54E+02,-6565,-3908,3765,209,-545,-346,1,7,11
4.41E+02,-6637,-3962,3817,-15,-633,-262,1,7,11
4.30E+02,-6914,-3764,4098,10,-461,63,1,7,11
4.21E+02,-6597,-3779,3811,-248,-783,94,1,7,11
4.12E+02,-6921,-4107,3827,-810,-777,-103,1,7,11
4.04E+02,-6934,-4123,3806,-1069,-825,256,1,7,11
3.96E+02,-6928,-4161,3779,-1357,-877,146,1,7,11
3.89E+02,-6956,-3974,3773,-1625,-679,574,1,7,11
3.82E+02,-7008,-4028,3772,-1525,-743,502,1,7,11
3.80E+02,-6939,-4014,3722,-1884,-1122,714,1,7,11
3.84E+02,-6546,-4033,3911,-1713,-982,901,1,7,11
3.99E+02,-6688,-4060,3892,-1756,-1303,1292,1,7,11
4.26E+02,-6373,-4375,3914,-1738,-1375,1374,1,7,11
4.64E+02,-6286,-4407,3919,-1892,-1241,1177,1,7,11
5.05E+02,-6525,-4392,3917,-1515,-1581,1242,1,7,11
5.28E+02,-6315,-4364,3942,-1602,-1636,1617,1,7,11
5.28E+02,-6361,-4037,3956,-1165,-1428,1499,1,7,11
5.15E+02,-6718,-4147,3723,-966,-1428,1889,1,7,11
4.98E+02,-6603,-3953,3756,-736,-1650,1780,1,7,11
4.83E+02,-6997,-3696,3778,-808,-1590,2155,1,7,11
4.73E+02,-6907,-3425,3825,-493,-1268,2025,1,7,11
4.65E+02,-7050,-3114,4114,-800,-1258,2423,1,7,11
4.58E+02,-7141,-2542,4124,-768,-1265,2578,1,7,11
4.52E+02,-7428,-2269,4117,-1202,-1563,2675,1,7,11
4.53E+02,-7112,-2326,4124,-2157,-1419,2659,1,7,11
4.61E+02,-7106,-2340,4214,-2761,-1813,2581,1,7,11
4.74E+02,-7267,-2396,3984,-3850,-2062,2416,1,7,11
4.92E+02,-7210,-2280,3990,-4632,-2040,1978,1,7,11
5.12E+02,-6859,-2472,4172,-5229,-2236,2129,1,7,11
5.33E+02,-6998,-2712,4136,-5663,-2571,1787,1,7,11
5.49E+02,-6934,-3139,4104,-5901,-2287,1756,1,7,11
5.59E+02,-6596,-3427,3821,-5925,-2200,1775,1,7,11
5.65E+02,-6533,-3680,4096,-5750,-2029,1762,1,7,11
5.69E+02,-6755,-3953,4157,-5431,-2074,1729,1,7,11
5.73E+02,-6703,-4043,4180,-4936,-1865,1878,1,7,11
5.78E+02,-6709,-4371,4210,-4078,-1428,1568,1,7,11
5.82E+02,-6736,-4395,3993,-3468,-1195,1388,1,7,11
5.85E+02,-6670,-4469,4017,-3122,-1013,951,1,7,11
5.85E+02,-6289,-4249,3993,-2267,-1020,696,1,7,11
5.82E+02,-6407,-4256,3982,-1752,-879,604,1,7,11
5.78E+02,-6054,-4232,3968,-1574,-729,-49,1,7,11
5.72E+02,-6059,-4387,4203,-974,-605,-214,1,7,11
5.67E+02,-6120,-4047,4192,-755,-549,-804,1,7,11
5.65E+02,-6462,-3969,4184,-869,-531,-750,1,7,11
5.67E+02,-6277,-4158,4204,-805,-552,-1053,1,7,11
5.77E+02,-6682,-4160,4029,-443,-416,-370,1,7,11
5.95E+02,-6395,-4140,4016,-610,-455,-126,1,7,11
6.13E+02,-6379,-4111,4020,-550,-802,313,1,7,11
6.22E+02,-6359,-3826,4043,-552,-680,176,1,7,11
6.20E+02,-6377,-3748,4072,-590,-1120,565,1,7,11
6.06E+02,-6663,-3898,4367,-385,-1328,449,1,7,11
5.82E+02,-6694,-3488,4389,-463,-1639,661,1,7,11
5.49E+02,-6761,-3482,4477,-705,-1816,971,1,7,11
5.21E+02,-6681,-3614,4233,-1039,-2055,1257,1,7,11
5.10E+02,-6308,-3632,4283,-971,-1953,1494,1,7,11
5.13E+02,-6473,-3665,4621,-1328,-2028,1714,1,7,11
5.19E+02,-6113,-3470,4710,-1350,-2344,2098,1,7,11
5.26E+02,-6171,-3709,4732,-1283,-2397,2147,1,7,11
5.34E+02,-5981,-3676,4729,-947,-2314,2165,1,7,11
5.44E+02,-5614,-3665,4528,-1104,-2125,1931,1,7,11
5.54E+02,-5713,-3652,4561,-725,-1667,2162,1,7,11
5.61E+02,-5647,-3279,4581,-861,-1659,2076,1,7,11
5.63E+02,-5746,-3438,4921,-809,-1350,1741,1,7,11
5.60E+02,-5966,-2947,4740,-466,-1087,1682,1,7,11
5.55E+02,-6272,-2695,4835,-508,-864,1746,1,7,11
5.50E+02,-6357,-2456,5181,-848,-459,1974,1,7,11
5.48E+02,-6602,-2577,5003,-1048,-636,2273,1,7,11
5.51E+02,-6876,-2577,5379,-988,-562,2825,1,7,11
5.58E+02,-7057,-2278,5417,-1337,-546,2814,1,7,11
5.68E+02,-7156,-2238,5410,-1401,-558,3002,1,7,11
5.78E+02,-7458,-2207,5119,-1261,-585,3362,1,7,11
5.86E+02,-7507,-2215,5384,-1626,-620,3382,1,7,11
5.91E+02,-7308,-2196,5117,-1447,-413,3040,1,7,11
5.94E+02,-7297,-2400,5063,-1479,-488,3140,1,7,11
5.93E+02,-7552,-2413,5012,-1822,-818,2934,1,7,11
5.81E+02,-7150,-2359,5143,-1855,-704,2660,1,7,11
5.47E+02,-7045,-2339,4815,-1748,-1043,2312,1,7,11
5.00E+02,-7209,-2313,4759,-2132,-1138,1712,1,7,11
4.72E+02,-6827,-2315,4957,-1938,-993,1642,1,7,11
4.72E+02,-7005,-2347,4887,-2002,-1020,1401,1,7,11
4.71E+02,-6942,-2397,4870,-2043,-985,1018,1,7,11
4.70E+02,-6648,-2213,4606,-2021,-921,948,1,7,11
4.87E+02,-6626,-2278,4585,-2130,-1083,945,1,7,11
5.07E+02,-6623,-2572,4571,-1999,-701,958,1,7,11
5.17E+02,-6915,-2604,4589,-1845,-817,968,1,7,11
5.22E+02,-6941,-2591,4577,-1438,-466,939,1,7,11
5.24E+02,-6833,-2265,4598,-1563,-629,910,1,7,11
5.26E+02,-7242,-2426,4884,-1220,-620,942,1,7,11
5.28E+02,-6903,-2198,4958,-1153,-652,1366,1,7,11
5.31E+02,-6827,-2396,4911,-1339,-678,1305,1,7,11
5.33E+02,-7020,-2366,4880,-1356,-868,924,1,7,11
5.36E+02,-7017,-2365,4885,-1379,-494,1064,1,7,11
5.39E+02,-7034,-2379,4924,-1400,-410,675,1,7,11
5.42E+02,-7031,-2323,4906,-1368,-637,804,1,7,11
5.45E+02,-6822,-1954,4893,-1365,-591,497,1,7,11
5.47E+02,-6876,-2136,4901,-1189,-563,784,1,7,11
5.48E+02,-7184,-2069,4884,-1552,-553,884,1,7,11
5.42E+02,-7223,-1774,4873,-1442,-535,1044,1,7,11
5.27E+02,-7192,-2098,4607,-1671,-552,900,1,7,11
5.17E+02,-6791,-2158,4564,-1939,-405,1119,1,7,11
5.25E+02,-6980,-2020,4550,-2286,-492,689,1,7,11
5.32E+02,-6925,-2398,4538,-2860,-652,448,1,7,11
5.12E+02,-6602,-2578,4516,-3146,-1076,178,1,7,11
4.86E+02,-6752,-2492,4724,-3357,-960,-87,1,7,11
4.88E+02,-6682,-2910,4703,-3224,-1020,-319,1,7,11
5.11E+02,-6687,-3087,4714,-3207,-988,-187,1,7,11
5.33E+02,-6665,-2971,4727,-3015,-923,-213,1,7,11
5.49E+02,-6668,-3415,4532,-2735,-1072,-208,1,7,11
5.62E+02,-6670,-3295,4577,-2289,-720,-167,1,7,11
5.72E+02,-6687,-3321,4869,-1740,-879,-138,1,7,11
5.81E+02,-6748,-3281,4915,-1176,-506,-361,1,7,11
5.87E+02,-6569,-3252,4768,-663,-417,-327,1,7,11
5.89E+02,-6594,-3413,5123,-136,-403,-352,1,7,11
5.85E+02,-6626,-2992,5212,304,-411,-186,1,7,11
5.73E+02,-6939,-2799,5071,408,-456,-541,1,7,11
5.52E+02,-6939,-2501,5386,662,-805,-407,1,7,11
5.30E+02,-6656,-2229,5450,703,-642,-792,1,7,11
5.23E+02,-6654,-1980,5296,820,-718,-696,1,7,11
5.30E+02,-6614,-1744,5632,574,-1062,-1139,1,7,11
5.46E+02,-6556,-1862,5735,-75,-1084,-1300,1,7,11
5.68E+02,-6708,-1700,5890,-534,-1078,-1184,1,7,11
5.93E+02,-6508,-2143,5972,-651,-1065,-1644,1,7,11
6.20E+02,-6169,-2562,5770,-936,-716,-1685,1,7,11
6.54E+02,-6005,-2853,5993,-1357,-800,-2322,1,7,11
7.01E+02,-5895,-3074,5935,-1371,-566,-2472,1,7,11
7.61E+02,-5586,-3006,5613,-1294,-349,-3107,1,7,11
8.13E+02,-5629,-3306,5925,-1017,-111,-3385,1,7,11
8.41E+02,-5590,-3503,5902,-1067,278,-3623,1,7,11
8.56E+02,-5538,-3943,5626,-394,150,-3707,1,7,11
8.68E+02,-5702,-3838,5594,-304,229,-3460,1,7,11
8.86E+02,-5307,-4186,5540,301,583,-3704,1,7,11
9.03E+02,-5444,-4020,5509,599,487,-3669,1,7,11
9.12E+02,-5104,-4080,5504,852,685,-3618,1,7,11
9.14E+02,-5104,-4075,5747,1075,1146,-3279,1,7,11
9.10E+02,-5403,-4064,5504,994,1340,-3364,1,7,11
9.03E+02,-5426,-4051,5519,1391,1227,-3121,1,7,11
8.95E+02,-5465,-4059,5574,1258,1603,-2828,1,7,11
8.88E+02,-5402,-4012,5546,1643,1410,-2281,1,7,11
8.82E+02,-5075,-4028,5542,1442,1497,-2043,1,7,11
8.77E+02,-5241,-4064,5539,1490,1826,-2129,1,7,11
8.73E+02,-5239,-4044,5516,1808,1676,-1784,1,7,11
8.69E+02,-5016,-4045,5730,1831,1786,-1719,1,7,11
8.61E+02,-5119,-4412,5544,1527,2150,-1708,1,7,11
8.49E+02,-5477,-4412,5540,1807,1951,-1740,1,7,11
8.30E+02,-5635,-4436,5546,1821,2000,-1752,1,7,11
8.11E+02,-5715,-4227,5550,1795,2307,-1714,1,7,11
7.98E+02,-5713,-4281,5510,1533,2345,-1670,1,7,11
7.91E+02,-5709,-4333,5706,1514,2371,-1665,1,7,11
7.89E+02,-5707,-4663,5636,1465,2205,-1668,1,7,11
7.88E+02,-5674,-4624,5466,1486,2334,-1712,1,7,11
7.88E+02,-5674,-4306,5043,1493,2475,-1741,1,7,11
7.89E+02,-5660,-4285,5132,1470,2610,-1726,1,7,11
7.91E+02,-5604,-4270,4955,1429,2922,-1707,1,7,11
7.94E+02,-5323,-4238,4526,1428,2771,-1673,1,7,11
7.97E+02,-5301,-4480,4611,1448,3140,-1871,1,7,11
8.01E+02,-5318,-4248,4468,1503,2977,-1816,1,7,11
8.03E+02,-5336,-4273,4065,1866,3067,-1477,1,7,11
8.06E+02,-5374,-4250,4166,2064,3411,-1641,1,7,11
8.09E+02,-5721,-4242,3796,1988,3256,-1540,1,7,11
8.11E+02,-5603,-4274,3748,2389,3683,-1165,1,7,11
8.13E+02,-5951,-4619,3717,2563,3485,-1306,1,7,11
8.11E+02,-5786,-4725,3927,2686,3519,-971,1,7,11
8.05E+02,-6151,-4571,3885,2551,3539,-945,1,7,11
7.93E+02,-6260,-4905,3560,2909,3532,-953,1,7,11
7.80E+02,-6060,-4895,3697,2742,3512,-984,1,7,11
7.70E+02,-6423,-4930,3276,2828,3478,-1295,1,7,11
7.62E+02,-6511,-4748,3268,2434,3709,-1335,1,7,11
7.56E+02,-6386,-4854,3277,2287,3660,-1381,1,7,11
7.53E+02,-6745,-5240,3298,2420,3303,-1167,1,7,11
7.54E+02,-6605,-5033,3309,2351,3444,-1215,1,7,11
7.62E+02,-6961,-5241,3277,2044,3056,-1220,1,7,11
7.77E+02,-7017,-5200,3249,1930,3164,-1402,1,7,11
7.96E+02,-6806,-5189,3214,1779,2766,-1018,1,7,11
8.13E+02,-6823,-5134,3396,1913,2875,-904,1,7,11
8.24E+02,-6823,-4834,3044,1491,2497,-1065,1,7,11
8.28E+02,-6903,-4941,2958,1638,2687,-701,1,7,11
8.24E+02,-7185,-4528,3109,1545,2607,-476,1,7,11
8.10E+02,-6905,-4648,2762,1188,2255,-200,1,7,11
7.89E+02,-6835,-4249,2901,1335,2396,69,1,7,11
7.67E+02,-6960,-4440,2831,971,2003,300,1,7,11
7.49E+02,-6609,-4369,2514,1145,2074,193,1,7,11
7.38E+02,-6549,-4012,2454,1077,1867,186,1,7,11
7.31E+02,-6728,-4187,2676,751,1651,164,1,7,11
7.27E+02,-6666,-4104,2628,664,1164,134,1,7,11
7.26E+02,-6382,-3829,2633,801,993,381,1,7,11
7.25E+02,-6390,-4163,2684,545,1079,350,1,7,11
7.23E+02,-6680,-3987,2494,149,747,297,1,7,11
7.21E+02,-6721,-4365,2837,248,699,-34,1,7,11
7.19E+02,-6548,-4260,2919,101,680,125,1,7,11
7.17E+02,-6638,-4638,2733,-33,662,28,1,7,11
7.15E+02,-6961,-4489,2742,-169,657,-300,1,7,11
7.16E+02,-6800,-4592,2769,-330,705,-330,1,7,11
7.20E+02,-6851,-4936,2794,-463,737,-326,1,7,11
7.30E+02,-6785,-4944,2789,-787,698,-343,1,7,11
7.47E+02,-6652,-4598,2699,-815,884,-143,1,7,11
7.65E+02,-6577,-4550,2916,-891,855,-173,1,7,11
7.82E+02,-6777,-4713,2885,-670,816,-155,1,7,11
7.95E+02,-6737,-4626,2865,-671,770,-335,1,7,11
8.03E+02,-6714,-4307,2854,-878,467,58,1,7,11
8.09E+02,-6705,-4465,2825,-479,423,-12,1,7,11
8.13E+02,-6736,-4406,2554,-588,427,226,1,7,11
8.18E+02,-6567,-4418,2843,-169,458,490,1,7,11
8.25E+02,-6609,-4244,2892,10,435,725,1,7,11
8.32E+02,-6655,-4347,2699,-22,630,1089,1,7,11
8.38E+02,-6979,-4634,2731,519,537,1053,1,7,11
8.40E+02,-6791,-4639,2764,794,182,684,1,7,11
8.39E+02,-6835,-4273,2759,1082,352,774,1,7,11
8.37E+02,-6881,-4435,2794,1006,281,595,1,7,11
8.35E+02,-7222,-4042,3083,1407,-41,138,1,7,11
8.33E+02,-7263,-4192,3125,1238,-117,-21,1,7,11
8.31E+02,-7219,-4116,3142,1539,72,73,1,7,11
8.29E+02,-6897,-3777,3134,1567,59,-359,1,7,11
8.25E+02,-6860,-3755,3166,1577,95,-247,1,7,11
8.20E+02,-6811,-3758,3175,1623,-112,-610,1,7,11
8.14E+02,-7036,-3798,3179,1432,-34,-409,1,7,11
8.08E+02,-6992,-3776,3191,1793,298,-439,1,7,11
8.01E+02,-6986,-3802,2944,1891,137,-447,1,7,11
7.94E+02,-6954,-3836,2962,1719,170,-422,1,7,11
7.89E+02,-6622,-3840,2989,1767,141,-391,1,7,11
7.86E+02,-6947,-4165,3331,1714,150,-595,1,7,11
7.85E+02,-6937,-4099,3366,2100,300,-517,1,7,11
7.87E+02,-6595,-4119,3370,1785,-47,-521,1,7,11
7.91E+02,-6610,-4130,3420,1737,-82,-241,1,7,11
7.98E+02,-6577,-4169,3455,1665,95,-227,1,7,11
8.07E+02,-6540,-4217,3217,1825,46,-231,1,7,11
8.19E+02,-6534,-4005,3218,1468,40,-254,1,7,11
8.32E+02,-6778,-4006,3446,1631,32,-551,1,7,11
8.47E+02,-6561,-4003,3439,1254,83,-573,1,7,11
8.63E+02,-6581,-4026,3448,1384,-124,-532,1,7,11
8.79E+02,-6557,-4059,3428,1003,-84,-235,1,7,11
8.93E+02,-6767,-4085,3412,1123,-25,-227,1,7,11
9.04E+02,-6712,-4039,3354,735,303,-513,1,7,11
9.10E+02,-6728,-4009,3328,806,162,-520,1,7,11
9.13E+02,-6743,-4222,3026,619,513,-237,1,7,11
9.11E+02,-6737,-4184,2970,129,588,-215,1,7,11
9.05E+02,-6717,-4146,3165,-128,387,-199,1,7,11
8.96E+02,-6681,-4162,3128,-206,403,-224,1,7,11
8.85E+02,-6377,-4204,3146,-794,618,-548,1,7,11
8.72E+02,-6338,-4005,3147,-1073,553,-613,1,7,11
8.59E+02,-6317,-3992,3075,-1019,235,-414,1,7,11
8.46E+02,-6662,-4166,2765,-1277,242,-399,1,7,11
8.38E+02,-6597,-4161,2806,-1817,525,-515,1,7,11
8.38E+02,-7279,-4424,3132,-2156,378,-85,1,7,11
8.50E+02,-7482,-4236,3137,-2057,-32,163,1,7,11
8.72E+02,-7419,-4254,3130,-1530,31,444,1,7,11
8.97E+02,-7806,-4391,2814,-1203,-195,708,1,7,11
9.19E+02,-7666,-4186,2777,-1116,-390,1095,1,7,11
9.29E+02,-7975,-3902,2726,-826,-848,922,1,7,11
9.28E+02,-7555,-3597,2735,-404,-908,1344,1,7,11
9.16E+02,-7389,-3252,3081,-495,-941,1371,1,7,11
8.93E+02,-7480,-3250,3171,-860,-919,1337,1,7,11
8.62E+02,-7072,-3288,3008,-672,-1104,968,1,7,11
8.31E+02,-7191,-3292,3037,-685,-740,1064,1,7,11
8.09E+02,-6892,-3313,3047,-693,-821,711,1,7,11
8.01E+02,-6808,-3679,3001,-686,-638,727,1,7,11
8.01E+02,-6992,-3509,2983,-718,-160,1027,1,7,11
7.98E+02,-6968,-3878,2965,-707,56,712,1,7,11
7.85E+02,-7016,-3723,2954,-700,-30,772,1,7,11
7.66E+02,-6823,-3786,3193,-648,323,525,1,7,11
7.49E+02,-6871,-4141,3159,-855,359,262,1,7,11
7.41E+02,-6912,-4214,3108,-506,361,7,1,7,11
7.39E+02,-7203,-4037,2805,-635,358,-221,1,7,11
7.39E+02,-7034,-3989,2912,243,-86,-1086,1,7,11
7.35E+02,-6986,-4187,2896,561,123,-768,1,7,11
7.29E+02,-6966,-4015,2703,326,-253,-254,1,7,11
7.23E+02,-7026,-4053,2765,298,-570,-137,1,7,11
7.18E+02,-6795,-4353,3082,293,-395,-269,1,7,11
7.17E+02,-6803,-4368,3127,321,-468,108,1,7,11
7.20E+02,-6821,-4095,3168,188,-775,-29,1,7,11
7.27E+02,-6795,-4061,3176,264,-820,334,1,7,11
7.32E+02,-6799,-3994,3192,568,-825,148,1,7,11
7.30E+02,-6810,-4183,2967,561,-809,211,1,7,11
7.19E+02,-6836,-4151,3020,518,-785,242,1,7,11
7.12E+02,-6841,-4124,3054,217,-794,232,1,7,11
7.17E+02,-6828,-3839,3331,131,-839,150,1,7,11
7.39E+02,-6840,-3774,3339,273,-643,274,1,7,11
7.66E+02,-6848,-3752,3354,123,-702,-93,1,7,11
7.88E+02,-6847,-3736,3360,-268,-760,84,1,7,11
7.98E+02,-6837,-3962,3363,-132,-1067,41,1,7,11
8.02E+02,-6838,-3958,3359,-252,-1110,53,1,7,11
8.04E+02,-6819,-3726,3356,-623,-1145,98,1,7,11
8.10E+02,-6790,-3746,3373,-468,-912,-85,1,7,11
8.18E+02,-6988,-3725,3342,-806,-943,-22,1,7,11
8.23E+02,-6949,-3735,3348,-671,-942,301,1,7,11
8.22E+02,-6995,-3779,3404,-1087,-917,135,1,7,11
8.18E+02,-7026,-4109,3451,-955,-929,196,1,7,11
8.13E+02,-6840,-4134,3224,-1331,-911,189,1,7,11
8.11E+02,-7245,-4215,3305,-1208,-1108,253,1,7,11
8.10E+02,-7056,-3986,3632,-1215,-1103,639,1,7,11
8.02E+02,-7052,-4120,3633,-1378,-1122,783,1,7,11
7.80E+02,-7064,-3968,3632,-1315,-1130,712,1,7,11
7.44E+02,-7095,-3857,3653,-1312,-905,923,1,7,11
7.11E+02,-7294,-3466,3615,-1294,-1000,1350,1,7,11
6.97E+02,-7236,-3646,3611,-1360,-1343,1203,1,7,11
7.04E+02,-6874,-3596,3614,-1183,-1203,1247,1,7,11
7.17E+02,-7013,-3302,3639,-1257,-1563,1227,1,7,11
7.22E+02,-6631,-3252,3662,-1555,-1654,1178,1,7,11
7.19E+02,-6747,-3455,3677,-1588,-1478,1375,1,7,11
7.16E+02,-6370,-3439,3694,-1641,-1504,1328,1,7,11
7.22E+02,-6521,-3204,3508,-1423,-1504,1313,1,7,11
7.36E+02,-6132,-3282,3579,-1443,-1516,1305,1,7,11
7.54E+02,-6269,-3635,3903,-1434,-1516,998,1,7,11
7.70E+02,-6216,-3476,3775,-1429,-1490,907,1,7,11
7.82E+02,-6021,-3876,3973,-1420,-1452,1033,1,7,11
7.90E+02,-6128,-3763,4460,-1629,-1478,884,1,7,11
7.91E+02,-6521,-3805,4648,-1263,-1821,469,1,7,11
7.87E+02,-6393,-3816,4864,-1399,-1699,631,1,7,11
7.79E+02,-6710,-3731,4754,-1011,-2088,555,1,7,11
7.66E+02,-6559,-3844,5159,-937,-2162,538,1,7,11
7.53E+02,-6644,-3643,5013,-920,-1941,578,1,7,11
7.43E+02,-6929,-3226,5106,-1007,-1933,426,1,7,11
7.43E+02,-6913,-3372,5408,-1402,-2149,826,1,7,11
7.49E+02,-6634,-3036,5416,-1561,-2053,742,1,7,11
7.55E+02,-6589,-2945,5112,-1445,-1666,932,1,7,11
7.52E+02,-6771,-3140,5027,-1868,-1518,1368,1,7,11
7.40E+02,-6694,-3114,5182,-2063,-1618,1265,1,7,11
7.21E+02,-6376,-3077,4802,-1973,-1215,1621,1,7,11
7.00E+02,-6343,-2816,4949,-2380,-1323,1441,1,7,11
6.80E+02,-6321,-2786,4566,-2225,-923,1497,1,7,11
6.62E+02,-6320,-2785,4719,-2579,-1056,1805,1,7,11
6.49E+02,-6301,-2794,4629,-2660,-723,1847,1,7,11
6.45E+02,-6297,-3110,4347,-2516,-673,1850,1,7,11
6.54E+02,-6331,-3188,4617,-2844,-666,1808,1,7,11
6.72E+02,-6392,-2991,4347,-2874,-718,1480,1,7,11
6.84E+02,-6392,-3047,4348,-2901,-1085,1412,1,7,11
6.78E+02,-6669,-3365,4620,-2692,-1132,1567,1,7,11
6.63E+02,-6731,-3204,4668,-2729,-1148,1219,1,7,11
6.60E+02,-6751,-3282,4688,-2705,-919,1404,1,7,11
6.87E+02,-6756,-3646,4727,-2890,-926,1323,1,7,11
7.28E+02,-6751,-3696,4486,-2506,-923,956,1,7,11
7.62E+02,-6722,-3494,4484,-2603,-900,1079,1,7,11
7.71E+02,-6667,-3851,4729,-2217,-1114,692,1,7,11
7.66E+02,-6379,-3723,4481,-2367,-1047,784,1,7,11
7.62E+02,-6358,-3779,4708,-1968,-728,582,1,7,11
7.73E+02,-6337,-4134,4694,-1787,-889,367,1,7,11
7.93E+02,-6506,-4024,4695,-1803,-826,-127,1,7,11
8.12E+02,-6510,-4044,4657,-1411,-776,-155,1,7,11
8.20E+02,-6456,-4062,4330,-1174,-417,-631,1,7,11
8.16E+02,-6315,-4089,4325,-1121,-527,-550,1,7,11
8.03E+02,-6278,-4002,4458,-505,-339,-828,1,7,11
7.84E+02,-6277,-4035,4417,-142,100,-776,1,7,11
7.65E+02,-6310,-4016,4378,-81,348,-426,1,7,11
7.51E+02,-6316,-4008,4074,535,238,-538,1,7,11
7.46E+02,-6330,-3995,4030,644,384,-348,1,7,11
7.52E+02,-6348,-3971,3991,1011,780,119,1,7,11
7.62E+02,-6302,-4143,4181,1413,886,314,1,7,11
7.71E+02,-6301,-3721,4100,1772,700,182,1,7,11
7.77E+02,-6373,-3545,4133,1949,1108,520,1,7,11
7.83E+02,-6673,-3594,4131,2294,905,219,1,7,11
7.93E+02,-6546,-3418,4183,2174,907,142,1,7,11
8.09E+02,-6925,-2999,3982,1685,1085,306,1,7,11
8.22E+02,-7013,-3156,4056,1607,656,-66,1,7,11
8.27E+02,-6840,-2811,4378,1010,442,95,1,7,11
8.19E+02,-6898,-2794,4423,685,219,83,1,7,11
8.03E+02,-6870,-3096,4453,422,260,-109,1,7,11
7.86E+02,-6802,-2945,4244,248,115,-10,1,7,11
7.78E+02,-6978,-3044,4282,205,42,335,1,7,11
7.76E+02,-6608,-3365,4278,232,19,359,1,7,11
7.81E+02,-6546,-3436,4309,532,69,340,1,7,11
7.88E+02,-6568,-3419,4348,635,-100,298,1,7,11
7.98E+02,-6600,-3415,4638,462,-1,271,1,7,11
8.10E+02,-6610,-3348,4630,823,359,-19,1,7,11
8.26E+02,-6625,-3046,4661,861,208,-67,1,7,11
8.43E+02,-6599,-3030,4660,850,533,-119,1,7,11
8.56E+02,-6594,-3035,4680,507,598,69,1,7,11
8.59E+02,-6596,-3001,4659,444,619,-277,1,7,11
8.50E+02,-6604,-2988,4656,615,604,-380,1,7,11
8.36E+02,-6641,-3026,4704,237,573,-178,1,7,11
8.24E+02,-6624,-2984,4678,202,241,-206,1,7,11
8.24E+02,-6563,-3005,4647,184,159,-236,1,7,11
8.34E+02,-6540,-3017,4644,150,133,-240,1,7,11
8.47E+02,-6744,-3339,4658,139,133,-213,1,7,11
8.57E+02,-6724,-3343,4630,161,135,-252,1,7,11
8.57E+02,-6760,-3338,4641,234,179,-535,1,7,11
8.49E+02,-6783,-3379,4671,560,228,-563,1,7,11
8.31E+02,-6530,-3345,4702,625,213,-387,1,7,11
8.06E+02,-6547,-2997,4655,475,150,-479,1,7,11
7.79E+02,-6626,-2998,4696,469,146,-485,1,7,11
7.56E+02,-6603,-2988,4706,496,382,-462,1,7,11
7.45E+02,-6597,-3012,4699,495,381,-432,1,7,11
7.44E+02,-6925,-3439,4480,448,160,-424,1,7,11
7.50E+02,-6845,-3688,4900,548,246,-454,1,7,11
7.62E+02,-6882,-3483,4978,527,533,-494,1,7,11
7.77E+02,-6974,-3613,4578,422,172,-819,1,7,11
7.95E+02,-6590,-3270,4689,477,138,-882,1,7,11
8.15E+02,-6542,-3247,4658,591,524,-654,1,7,11
8.33E+02,-6724,-3437,4329,522,606,-667,1,7,11
8.49E+02,-6665,-3394,4262,182,434,-684,1,7,11
8.60E+02,-6659,-3068,4459,382,772,-718,1,7,11
8.65E+02,-6400,-3058,4426,317,840,-739,1,7,11
8.64E+02,-6681,-3013,4383,292,654,-1062,1,7,11
8.61E+02,-6755,-3195,4069,273,715,-914,1,7,11
8.56E+02,-6643,-3170,4034,-59,1048,-1019,1,7,11
8.53E+02,-6828,-2999,4071,81,1107,-1335,1,7,11
8.55E+02,-7230,-3384,4095,23,1101,-1364,1,7,11
8.67E+02,-7068,-3254,4364,30,1043,-1379,1,7,11
8.87E+02,-7077,-3620,4353,91,710,-1367,1,7,11
9.10E+02,-7293,-3479,4074,-70,651,-1350,1,7,11
9.28E+02,-7224,-3578,4020,335,868,-1318,1,7,11
9.36E+02,-6851,-3866,4179,545,855,-1290,1,7,11
9.34E+02,-6984,-3883,3811,474,646,-1011,1,7,11
9.23E+02,-6654,-3884,3723,889,750,-963,1,7,11
9.09E+02,-6572,-3847,3893,1029,1130,-1149,1,7,11
8.92E+02,-6763,-3535,3562,1131,1284,-1064,1,7,11
8.76E+02,-6742,-3488,3495,927,1194,-710,1,7,11
8.63E+02,-6748,-3691,3688,946,1610,-863,1,7,11
8.55E+02,-6758,-3632,3597,923,1498,-510,1,7,11
8.51E+02,-6554,-3605,3278,1096,1889,-442,1,7,11
8.48E+02,-6643,-3626,3236,726,1729,-409,1,7,11
8.42E+02,-7028,-3661,3227,640,1787,-391,1,7,11
8.32E+02,-6863,-3679,3213,857,1774,-387,1,7,11
8.18E+02,-6856,-3671,3411,859,1704,-399,1,7,11
8.04E+02,-6851,-3663,3351,866,1666,-434,1,7,11
7.89E+02,-7021,-3679,2964,882,1869,-492,1,7,11
7.73E+02,-6932,-3500,3173,861,1856,-880,1,7,11
7.51E+02,-6586,-3883,3116,875,1878,-1102,1,7,11
7.24E+02,-6919,-3755,3095,643,1718,-1193,1,7,11
7.00E+02,-6841,-3832,3127,689,1787,-1804,1,7,11
6.87E+02,-7092,-4103,3109,1039,2050,-2056,1,7,11
6.90E+02,-7519,-4106,3176,1108,1689,-2118,1,7,11
7.01E+02,-7378,-4102,3140,957,1815,-1719,1,7,11
7.12E+02,-7364,-3765,3109,1306,1661,-1441,1,7,11
7.18E+02,-7328,-3927,2811,1357,1542,-1332,1,7,11
7.24E+02,-7509,-3808,2793,1344,1163,-688,1,7,11
7.32E+02,-7451,-3459,2756,1320,1323,-585,1,7,11
7.44E+02,-7146,-3650,2717,1282,975,16,1,7,11
7.53E+02,-7117,-3586,2920,952,900,156,1,7,11
7.55E+02,-7091,-3242,2835,1131,1088,244,1,7,11
7.52E+02,-7095,-3415,2544,1026,1056,590,1,7,11
7.54E+02,-7137,-3365,2541,862,1028,633,1,7,11
7.69E+02,-7497,-3376,2871,385,1046,433,1,7,11
7.98E+02,-7523,-3220,2934,191,707,769,1,7,11
8.33E+02,-7527,-3595,2730,-17,834,797,1,7,11
8.66E+02,-7511,-3658,2725,44,541,436,1,7,11
8.88E+02,-7300,-3556,2788,-378,373,570,1,7,11
9.02E+02,-7508,-3567,2750,-131,-117,179,1,7,11
9.10E+02,-7489,-3963,2811,-249,-257,312,1,7,11
9.16E+02,-7437,-3786,3103,-515,-129,-66,1,7,11
9.21E+02,-7143,-3840,3138,-222,-228,76,1,7,11
9.20E+02,-7115,-4116,3166,-144,-532,14,1,7,11
9.12E+02,-7082,-3829,3157,-280,-571,16,1,7,11
8.93E+02,-7264,-3791,3139,77,-570,61,1,7,11
8.68E+02,-7235,-3952,3129,-77,-537,99,1,7,11
8.44E+02,-7231,-3526,3113,-15,-247,-85,1,7,11
8.31E+02,-7060,-3694,3177,-40,-211,326,1,7,11
8.30E+02,-7079,-3628,2977,-108,-534,520,1,7,11
8.34E+02,-7069,-3323,2990,-258,-411,407,1,7,11
8.32E+02,-7262,-3258,2982,-198,-860,463,1,7,11
8.19E+02,-7218,-3453,2948,-452,-759,451,1,7,11
8.03E+02,-6896,-3209,3180,-727,-1108,469,1,7,11
7.92E+02,-6827,-3285,3183,-1014,-1136,472,1,7,11
7.94E+02,-6814,-3674,2965,-1233,-1112,472,1,7,11
8.02E+02,-7015,-3567,2986,-1562,-1072,448,1,7,11
8.05E+02,-6938,-3955,2975,-1547,-698,605,1,7,11
7.93E+02,-6949,-4111,2998,-1188,-500,224,1,7,11
7.70E+02,-6927,-4152,2986,-951,-566,311,1,7,11
7.52E+02,-6953,-4158,2982,-703,-310,-108,1,7,11
7.53E+02,-7015,-4177,3013,-408,-58,49,1,7,11
7.70E+02,-7018,-4130,2984,-339,135,-328,1,7,11
7.90E+02,-6796,-3774,2951,-68,564,-219,1,7,11
8.00E+02,-6842,-3910,3186,376,420,-632,1,7,11
7.96E+02,-6872,-3547,3168,205,455,-793,1,7,11
7.86E+02,-7202,-3700,3164,201,449,-663,1,7,11
7.78E+02,-7078,-3630,3199,151,638,-732,1,7,11
7.75E+02,-7305,-3251,3011,-9,289,-718,1,7,11
7.76E+02,-7364,-3276,3033,-117,89,-872,1,7,11
7.80E+02,-7352,-3313,3045,46,-144,-584,1,7,11
7.84E+02,-7322,-3591,3064,-306,-610,-379,1,7,11
7.89E+02,-7526,-3657,3349,-149,-784,81,1,7,11
7.96E+02,-7445,-3473,3380,-232,-699,-18,1,7,11
8.05E+02,-7109,-3545,3429,-543,-1089,363,1,7,11
8.15E+02,-7053,-3854,3236,-539,-930,192,1,7,11
8.28E+02,-7275,-3894,3297,-234,-1000,253,1,7,11
8.43E+02,-7252,-3922,3596,-131,-1324,529,1,7,11
8.56E+02,-7181,-3913,3598,6,-1394,547,1,7,11
8.64E+02,-6842,-3892,3597,-112,-1178,543,1,7,11
8.63E+02,-7028,-3897,3625,-6,-1161,534,1,7,11
8.51E+02,-6943,-3924,3675,350,-1347,528,1,7,11
8.35E+02,-6635,-3962,3471,221,-980,522,1,7,11
8.24E+02,-6612,-3737,3516,634,-1110,254,1,7,11
8.24E+02,-6570,-3758,3555,813,-717,201,1,7,11
8.30E+02,-6542,-3771,3859,734,-831,367,1,7,11
8.39E+02,-6533,-3766,3883,927,-439,-7,1,7,11
8.46E+02,-6778,-3734,3902,1370,-567,115,1,7,11
8.48E+02,-6779,-3911,3920,1548,-178,-300,1,7,11
8.48E+02,-6557,-3562,3943,1431,-299,-262,1,7,11
8.47E+02,-6594,-3473,3964,1513,85,-640,1,7,11
8.46E+02,-6631,-3639,3724,1534,-45,-471,1,7,11
8.43E+02,-6655,-3324,3749,1505,314,-517,1,7,11
8.35E+02,-6931,-3296,3764,1442,146,-791,1,7,11
8.21E+02,-6957,-3293,3768,1616,226,-789,1,7,11
8.07E+02,-6970,-3292,3760,1278,239,-763,1,7,11
8.01E+02,-6989,-3303,3753,1211,261,-447,1,7,11
8.09E+02,-7003,-3585,3745,1161,521,-606,1,7,11
8.29E+02,-6996,-3642,3755,1379,524,-222,1,7,11
8.53E+02,-6995,-3691,3767,1388,533,-342,1,7,11
8.71E+02,-6991,-3482,3775,1194,545,59,1,7,11
8.80E+02,-6977,-3499,3789,1573,555,-49,1,7,11
8.81E+02,-6953,-3498,3788,1805,573,349,1,7,11
8.80E+02,-6928,-3484,3797,1720,592,236,1,7,11
8.79E+02,-6916,-3688,3788,2132,617,628,1,7,11
8.81E+02,-6938,-3317,3787,1995,386,500,1,7,11
8.82E+02,-6999,-3432,3804,2309,413,891,1,7,11
8.82E+02,-6825,-3018,3825,2311,415,1043,1,7,11
8.79E+02,-6888,-3107,3836,1992,389,948,1,7,11
8.71E+02,-7220,-2932,4124,2121,617,1362,1,7,11
