timestamp,ax,ay,az,gx,gy,gz,Label1,Label2,Label3
3.44E+03,-7864,916,-452,18,-119,11,1,7,11
3.45E+03,-7874,909,-444,13,-123,9,1,7,11
3.45E+03,-7870,901,-438,3,-128,12,1,7,11
3.45E+03,-7866,1144,-435,2,-122,19,1,7,11
3.45E+03,-7849,1135,-436,6,-108,23,1,7,11
3.45E+03,-7856,1127,-428,13,-90,15,1,7,11
3.45E+03,-7857,1125,-429,24,-85,8,1,7,11
3.45E+03,-7870,1126,-426,35,-82,10,1,7,11
3.45E+03,-7867,1124,-432,38,-86,18,1,7,11
3.45E+03,-7872,1120,-429,32,-85,26,1,7,11
3.45E+03,-7875,1125,-437,20,-89,39,1,7,11
3.45E+03,-7876,1121,-432,-257,-91,50,1,7,11
3.45E+03,-7875,1113,-430,-273,-89,62,1,7,11
3.45E+03,-7879,1101,-428,-276,-90,67,1,7,11
3.45E+03,-7879,1093,-423,-266,-98,75,1,7,11
3.45E+03,-7870,1081,-425,12,-106,78,1,7,11
3.45E+03,-7868,1081,-420,34,-103,70,1,7,11
3.45E+03,-7869,1093,-427,44,-101,70,1,7,11
3.45E+03,-7870,1102,-425,48,-102,72,1,7,11
3.45E+03,-7870,1100,-415,44,-103,71,1,7,11
3.45E+03,-7861,1096,-415,42,-105,66,1,7,11
3.45E+03,-7851,1095,-421,45,-108,53,1,7,11
3.45E+03,-7865,1095,-417,44,-103,45,1,7,11
3.45E+03,-7866,1095,-415,47,-113,44,1,7,11
3.45E+03,-7873,1099,-412,43,-122,43,1,7,11
3.45E+03,-7870,1108,-420,39,121,52,1,7,11
3.45E+03,-7863,1113,-419,28,122,54,1,7,11
3.45E+03,-7863,1107,-418,19,-127,58,1,7,11
3.45E+03,-7868,1111,-424,17,-118,52,1,7,11
3.45E+03,-7871,1116,-428,9,-103,56,1,7,11
3.45E+03,-7876,1109,-422,2,-86,70,1,7,11
3.45E+03,-7868,1099,-429,8,-75,87,1,7,11
3.45E+03,-7862,1104,-432,29,-58,86,1,7,11
3.45E+03,-7866,1105,-423,48,-34,76,1,7,11
3.45E+03,-7869,1111,-423,61,-21,71,1,7,11
3.45E+03,-7873,1117,-433,58,-20,71,1,7,11
3.45E+03,-7874,1121,-437,47,-18,75,1,7,11
3.45E+03,-7882,1118,-438,26,-19,75,1,7,11
3.45E+03,-7871,1112,-437,1,-40,85,1,7,11
3.45E+03,-7892,1106,-434,-279,-71,85,1,7,11
3.45E+03,-7904,1107,-433,-307,-108,91,1,7,11
3.46E+03,-7906,1099,-428,-319,112,108,1,7,11
3.46E+03,-7883,1105,-431,-335,91,-117,1,7,11
3.46E+03,-7865,1102,-418,-355,98,-79,1,7,11
3.46E+03,-7855,1115,-417,-366,111,-45,1,7,11
3.46E+03,-7848,1118,-423,-374,124,-18,1,7,11
3.46E+03,-7843,1124,-424,-368,-117,-2,1,7,11
3.46E+03,-7835,1141,-432,-347,-106,258,1,7,11
3.46E+03,-7838,1145,-424,-332,-90,256,1,7,11
3.46E+03,-7842,1145,-428,-316,-74,257,1,7,11
3.46E+03,-7849,906,-425,-291,-60,-12,1,7,11
3.46E+03,-7861,919,-423,-281,-53,-28,1,7,11
3.46E+03,-7857,926,-433,-274,-43,-44,1,7,11
3.46E+03,-7865,911,-425,-284,-28,-64,1,7,11
3.46E+03,-7861,905,-420,-274,-23,-83,1,7,11
3.46E+03,-7872,908,-420,-263,-21,-114,1,7,11
3.46E+03,-7879,912,-425,-261,-28,121,1,7,11
3.46E+03,-7883,936,-435,-257,-50,111,1,7,11
3.46E+03,-7884,925,-438,-283,-78,114,1,7,11
3.46E+03,-7872,907,-437,-297,-103,126,1,7,11
3.46E+03,-7883,911,-426,-297,-113,-119,1,7,11
3.46E+03,-7864,915,-438,-301,-126,-108,1,7,11
3.46E+03,-7863,916,-439,-317,-118,-99,1,7,11
3.46E+03,-7862,922,-437,-323,-112,-80,1,7,11
3.46E+03,-7865,935,-437,-320,-115,-71,1,7,11
3.46E+03,-7857,937,-437,-322,-111,-59,1,7,11
3.46E+03,-7852,935,-425,-311,-97,-51,1,7,11
3.46E+03,-7853,935,-422,-289,-79,-59,1,7,11
3.46E+03,-7858,942,-411,-265,-67,-74,1,7,11
3.46E+03,-7862,953,-423,8,-69,-84,1,7,11
3.46E+03,-7864,960,-424,21,-69,-87,1,7,11
3.46E+03,-7862,968,-416,27,-72,-86,1,7,11
3.46E+03,-7856,977,-423,36,-80,-76,1,7,11
3.46E+03,-7848,981,-427,30,-84,-65,1,7,11
3.46E+03,-7847,979,-430,19,-82,-62,1,7,11
3.46E+03,-7852,994,-430,24,-84,-77,1,7,11
3.46E+03,-7845,1009,-435,18,-84,-89,1,7,11
3.46E+03,-7847,1013,-434,1,-76,-92,1,7,11
3.46E+03,-7860,1016,-423,-259,-72,-92,1,7,11
3.46E+03,-7868,1019,-429,-266,-86,-84,1,7,11
3.46E+03,-7848,1014,-431,-274,-97,-74,1,7,11
3.47E+03,-7839,1005,-433,-279,-89,-77,1,7,11
3.47E+03,-7841,1001,-437,-275,-81,-89,1,7,11
3.47E+03,-7844,1015,-439,-264,-84,-96,1,7,11
3.47E+03,-7868,1017,-430,-273,-90,-92,1,7,11
3.47E+03,-7867,1012,-434,-280,-118,-69,1,7,11
3.47E+03,-7855,1012,-422,-284,99,-67,1,7,11
3.47E+03,-7848,1011,-420,-275,87,-68,1,7,11
3.47E+03,-7876,1007,-402,-257,59,-76,1,7,11
3.47E+03,-7877,1009,-395,23,13,-67,1,7,11
3.47E+03,-7857,1284,-404,44,-266,-51,1,7,11
3.47E+03,-7847,1315,-406,47,5,-17,1,7,11
3.47E+03,-7834,1342,-402,36,27,296,1,7,11
3.47E+03,-7828,1339,-388,13,65,350,1,7,11
3.47E+03,-7823,1333,-629,11,98,132,1,7,11
3.47E+03,-7845,1349,-619,23,113,141,1,7,11
3.47E+03,-7852,1370,-635,35,99,146,1,7,11
3.47E+03,-7816,1366,-639,40,68,135,1,7,11
3.47E+03,-7813,1387,-387,69,101,338,1,7,11
3.47E+03,-7820,1386,-629,45,102,318,1,7,11
3.47E+03,-7812,1366,-633,52,109,276,1,7,11
3.47E+03,-8051,1363,-397,96,-87,257,1,7,11
3.47E+03,-8044,1338,-406,-74,-3,-59,1,7,11
3.47E+03,-8061,1366,-404,290,335,117,1,7,11
3.47E+03,-7830,1157,-404,346,375,46,1,7,11
3.47E+03,-7841,1175,-407,336,375,17,1,7,11
3.47E+03,-7837,1167,-410,279,364,20,1,7,11
3.47E+03,-7834,1387,-419,-22,351,34,1,7,11
3.47E+03,-7849,1385,-421,-30,340,27,1,7,11
3.47E+03,-7851,1407,-423,-36,321,31,1,7,11
3.47E+03,-7845,1393,-423,-75,289,55,1,7,11
3.47E+03,-7838,1395,-436,-71,259,77,1,7,11
3.47E+03,-7811,1361,-432,-79,-10,80,1,7,11
3.47E+03,-7820,1371,-428,-55,-3,57,1,7,11
3.47E+03,-7814,1394,-445,-12,-15,31,1,7,11
3.47E+03,-8057,1380,-446,-23,-7,0,1,7,11
3.47E+03,-8060,1373,-441,-2,289,-305,1,7,11
3.47E+03,-8054,1381,-446,-5,301,-326,1,7,11
3.47E+03,-8037,1372,-464,-27,335,-295,1,7,11
3.47E+03,-8047,1360,-463,-45,382,-259,1,7,11
3.47E+03,-7816,1337,-464,-72,154,35,1,7,11
3.48E+03,-7825,1327,-471,-69,147,70,1,7,11
3.48E+03,-7813,1328,-493,-76,134,104,1,7,11
3.48E+03,-8064,1323,-770,-97,137,-122,1,7,11
3.48E+03,-7822,1318,-781,-111,139,-100,1,7,11
3.48E+03,-7836,1321,-792,-100,375,-94,1,7,11
3.48E+03,-7832,1328,-814,-66,349,-115,1,7,11
3.48E+03,-7814,1320,-826,-27,343,109,1,7,11
3.48E+03,-7825,1289,-830,266,344,50,1,7,11
3.48E+03,-7826,1308,-834,328,334,-268,1,7,11
3.48E+03,-7846,1341,-845,363,320,-309,1,7,11
3.48E+03,-7829,1320,-853,351,306,-324,1,7,11
3.48E+03,-7833,1319,-862,367,332,-367,1,7,11
3.48E+03,-7841,1310,-855,366,338,-152,1,7,11
3.48E+03,-7826,1352,-886,339,313,-189,1,7,11
3.48E+03,-7834,1314,-872,-19,308,-160,1,7,11
3.48E+03,-7840,1282,-856,64,284,-298,1,7,11
3.48E+03,-7872,1290,-831,-185,-7,84,1,7,11
3.48E+03,-7886,1021,-843,-599,-106,-44,1,7,11
3.48E+03,-7860,1020,-858,-401,49,311,1,7,11
3.48E+03,-8050,1022,-867,-416,16,354,1,7,11
3.48E+03,-8046,1001,-852,-404,47,353,1,7,11
3.48E+03,-8042,992,-836,-598,66,329,1,7,11
3.48E+03,-8043,1286,-834,-539,75,281,1,7,11
3.48E+03,-8025,1293,-848,-514,79,-3,1,7,11
3.48E+03,-8030,1312,-853,-208,112,-38,1,7,11
3.48E+03,-7814,1295,-856,-344,-41,-66,1,7,11
3.48E+03,-7820,1019,-852,-309,-33,-76,1,7,11
3.48E+03,-7822,1283,-859,-271,-23,-95,1,7,11
3.48E+03,-7817,1023,-867,22,-8,-117,1,7,11
3.48E+03,-7829,1280,-864,55,267,116,1,7,11
3.48E+03,-7831,1282,-868,71,266,92,1,7,11
3.48E+03,-7818,1023,-868,72,261,74,1,7,11
3.48E+03,-7817,1286,-867,73,262,60,1,7,11
3.48E+03,-7821,1295,-870,58,259,67,1,7,11
3.48E+03,-7827,1282,-866,24,257,80,1,7,11
3.48E+03,-7838,1003,-864,-261,-18,102,1,7,11
3.48E+03,-7847,988,-873,-260,-57,114,1,7,11
3.48E+03,-7831,990,-872,30,-119,122,1,7,11
3.48E+03,-7813,992,-881,71,95,117,1,7,11
3.48E+03,-7812,997,-884,112,73,112,1,7,11
3.49E+03,-7818,1016,-879,-112,59,113,1,7,11
3.49E+03,-7811,1296,-882,-83,49,116,1,7,11
3.49E+03,-8061,1331,-873,-69,62,-127,1,7,11
3.49E+03,-7824,1354,-864,-71,79,-111,1,7,11
3.49E+03,-8055,1327,-847,-79,94,-107,1,7,11
3.49E+03,-7819,1348,-835,-76,-118,-115,1,7,11
3.49E+03,-8054,1368,-831,-94,-103,-117,1,7,11
3.49E+03,-8021,1371,-821,123,-53,-115,1,7,11
3.49E+03,-8023,1381,-822,62,267,-111,1,7,11
3.49E+03,-7992,1389,-833,-269,296,-72,1,7,11
3.49E+03,-7987,1388,-818,-383,327,-31,1,7,11
3.49E+03,-7990,1156,-828,-234,371,278,1,7,11
3.49E+03,-7976,1159,-838,-590,378,311,1,7,11
3.49E+03,-7953,1178,-856,-443,145,156,1,7,11
3.49E+03,-7958,1176,-861,-805,183,214,1,7,11
3.49E+03,-7981,1189,-878,-891,233,525,1,7,11
3.49E+03,-8012,1194,-887,-704,513,563,1,7,11
3.49E+03,-7838,1170,-874,-1133,254,577,1,7,11
3.49E+03,-7831,1212,-658,-1151,152,390,1,7,11
3.49E+03,-8016,1206,-687,-1133,363,391,1,7,11
3.49E+03,-8051,1269,-699,-1060,159,636,1,7,11
3.49E+03,-8048,1279,-691,-1031,132,405,1,7,11
3.49E+03,-8044,1546,-681,-679,356,405,1,7,11
3.49E+03,-8044,1585,-678,-823,300,390,1,7,11
3.49E+03,-8020,1618,-684,-452,-16,632,1,7,11
3.49E+03,-7990,1657,-695,-584,-58,613,1,7,11
3.49E+03,-7959,1430,-689,-216,-85,586,1,7,11
3.49E+03,-7938,1454,-686,-358,-97,560,1,7,11
3.49E+03,-7944,1496,-697,1,-99,543,1,7,11
3.49E+03,-7669,1799,-704,79,-103,542,1,7,11
3.49E+03,-7652,1829,-721,119,-95,540,1,7,11
3.49E+03,-7643,1862,-726,-119,-88,534,1,7,11
3.49E+03,-7648,1895,-736,-114,-84,517,1,7,11
3.49E+03,-7675,1670,-735,-125,-89,515,1,7,11
3.49E+03,-7939,1704,-741,116,-112,526,1,7,11
3.49E+03,-7947,1729,-733,96,117,540,1,7,11
3.49E+03,-7947,1740,-727,76,88,548,1,7,11
3.49E+03,-7939,1756,-718,72,59,547,1,7,11
3.49E+03,-7678,1770,-706,73,31,531,1,7,11
3.49E+03,-7672,1781,-692,84,9,245,1,7,11
3.50E+03,-7669,2050,-678,99,-264,210,1,7,11
3.50E+03,-7662,2065,-663,114,-277,175,1,7,11
3.50E+03,-7657,2070,-654,123,-286,132,1,7,11
3.50E+03,-7647,2093,-653,-125,-290,346,1,7,11
3.50E+03,-7652,2108,-649,-126,-284,307,1,7,11
3.50E+03,-7654,2110,-649,114,-283,279,1,7,11
3.50E+03,-7656,2116,-876,105,-286,-1,1,7,11
3.50E+03,-7656,2137,-859,103,-290,-20,1,7,11
3.50E+03,-7625,2152,-834,103,-284,-42,1,7,11
3.50E+03,-7618,2161,-833,93,-264,-99,1,7,11
3.50E+03,-7608,1921,-828,78,41,106,1,7,11
3.50E+03,-7605,1933,-825,54,74,48,1,7,11
3.50E+03,-7603,1920,-829,22,108,-273,1,7,11
3.50E+03,-7611,2163,-836,2,-117,-338,1,7,11
3.50E+03,-7625,2147,-834,-277,-94,-130,1,7,11
3.50E+03,-7636,2106,-845,-296,-79,-164,1,7,11
3.50E+03,-7645,2066,-841,-299,-75,-198,1,7,11
3.50E+03,-7653,1775,-851,-282,-85,-222,1,7,11
3.50E+03,-7672,1748,-851,1,-103,-243,1,7,11
3.50E+03,-7945,1729,-857,37,116,-515,1,7,11
3.50E+03,-7964,1719,-865,71,77,-524,1,7,11
3.50E+03,-7972,1703,-857,99,39,-516,1,7,11
3.50E+03,-7978,1689,-851,-120,9,-249,1,7,11
3.50E+03,-7981,1675,-842,-78,-267,-237,1,7,11
3.50E+03,-7981,1664,-822,-37,-289,-228,1,7,11
3.50E+03,-7981,1901,-787,262,-304,-232,1,7,11
3.50E+03,-7975,1895,-771,326,-333,-243,1,7,11
3.50E+03,-7963,1878,-494,349,-345,-519,1,7,11
3.50E+03,-7964,1853,-467,354,-341,-551,1,7,11
3.50E+03,-7954,1818,-456,354,-334,-588,1,7,11
3.50E+03,-7949,1514,-438,341,-311,-637,1,7,11
3.50E+03,-7940,1480,-442,324,-274,-430,1,7,11
3.50E+03,-7675,1440,-449,280,28,-472,1,7,11
3.50E+03,-7955,1632,-445,-38,93,-771,1,7,11
3.50E+03,-7972,1550,-441,-95,-124,-804,1,7,11
3.50E+03,-7967,1241,-450,-119,-96,-837,1,7,11
3.50E+03,-7967,1220,-490,107,-64,-852,1,7,11
3.50E+03,-7984,1211,-780,57,-33,-824,1,7,11
3.50E+03,-7983,1191,-820,-257,-23,-501,1,7,11
3.50E+03,-8002,1192,-857,-291,256,-422,1,7,11
3.51E+03,-8024,1210,-884,-315,268,-585,1,7,11
3.51E+03,-8056,1215,-644,-332,264,-237,1,7,11
3.51E+03,-7809,1223,-664,-314,-9,-154,1,7,11
3.51E+03,-7824,1244,-680,-273,-36,-364,1,7,11
3.51E+03,-7809,1260,-711,40,-74,-335,1,7,11
3.51E+03,-7812,1542,-728,114,-104,-327,1,7,11
3.51E+03,-7836,1566,-719,-70,112,-314,1,7,11
3.51E+03,-7843,1574,-701,269,50,-299,1,7,11
3.51E+03,-7836,1583,-692,373,-260,-298,1,7,11
3.51E+03,-7839,1602,-683,223,-303,-321,1,7,11
3.51E+03,-7835,1617,-672,573,-347,-360,1,7,11
3.51E+03,-7825,1640,-664,431,-130,-171,1,7,11
3.51E+03,-7825,1419,-667,479,-159,-228,1,7,11
3.51E+03,-7810,1425,-660,475,-188,-529,1,7,11
3.51E+03,-7822,1424,-892,443,-212,-568,1,7,11
3.51E+03,-7818,1410,-872,403,-515,-611,1,7,11
3.51E+03,-7848,1424,-867,620,-552,-409,1,7,11
3.51E+03,-7889,1415,-850,541,-589,-437,1,7,11
3.51E+03,-7902,1584,-803,169,-396,-490,1,7,11
3.51E+03,-7887,1228,-494,345,-461,-842,1,7,11
3.51E+03,-7884,1405,-443,308,-787,-715,1,7,11
3.51E+03,-7913,1350,-411,288,-846,-1075,1,7,11
3.51E+03,-7929,1303,-389,267,-642,-1128,1,7,11
3.51E+03,-7931,989,-611,-9,-682,-1147,1,7,11
3.51E+03,-7925,949,-578,-16,-700,-1149,1,7,11
3.51E+03,-7919,906,-524,-31,-706,-1147,1,7,11
3.51E+03,-7918,1121,-201,-40,-720,-899,1,7,11
3.51E+03,-7905,1080,-150,-33,-750,-910,1,7,11
3.51E+03,-7882,1046,-358,-15,-1033,-921,1,7,11
3.51E+03,-7852,760,-312,256,-1041,-938,1,7,11
3.51E+03,-7820,740,-288,265,-1029,-978,1,7,11
3.51E+03,-7812,745,-262,265,-738,-1292,1,7,11
3.51E+03,-7817,747,11,-31,-695,-1368,1,7,11
3.51E+03,-7846,705,32,-90,-642,-1201,1,7,11
3.51E+03,-7873,656,44,115,-841,-1547,1,7,11
3.51E+03,-7918,829,56,39,-782,-1639,1,7,11
3.51E+03,-8210,459,84,-289,-481,-1461,1,7,11
3.51E+03,-8244,590,122,-335,-444,-1532,1,7,11
3.51E+03,-8267,177,-96,-351,-423,-1832,1,7,11
3.51E+03,-8295,131,-87,-349,-415,-1846,1,7,11
3.52E+03,-8070,301,-55,-343,-417,-1814,1,7,11
3.52E+03,-8085,-49,-27,-329,-444,-1502,1,7,11
3.52E+03,-8279,-93,-9,-269,-465,-1444,1,7,11
3.52E+03,-8282,-116,264,26,-446,-1630,1,7,11
3.52E+03,-8233,99,288,68,-435,-1548,1,7,11
3.52E+03,-8214,48,311,109,-404,-1219,1,7,11
3.52E+03,-7921,4,348,-94,-631,-1154,1,7,11
3.52E+03,-7903,-279,130,-35,-593,-1354,1,7,11
3.52E+03,-7888,-291,159,274,-560,-1019,1,7,11
3.52E+03,-7891,-296,178,318,-519,-929,1,7,11
3.52E+03,-7908,-303,207,342,-218,-1083,1,7,11
3.52E+03,-8203,-338,227,354,-176,-725,1,7,11
3.52E+03,-8245,-380,220,368,-383,-892,1,7,11
3.52E+03,-8302,-143,201,370,-312,-836,1,7,11
3.52E+03,-8111,-147,174,358,17,-790,1,7,11
3.52E+03,-8147,-138,130,319,82,-478,1,7,11
3.52E+03,-8143,-131,337,-9,-103,-411,1,7,11
3.52E+03,-8144,-373,282,-109,-15,-608,1,7,11
3.52E+03,-8133,-146,282,10,311,-563,1,7,11
3.52E+03,-8129,-198,298,-382,344,-535,1,7,11
3.52E+03,-8082,-246,299,-190,323,-539,1,7,11
3.52E+03,-8272,-255,305,-144,269,-406,1,7,11
3.52E+03,-8285,-539,353,-370,260,-782,1,7,11
3.52E+03,-8072,-576,139,-175,-87,-849,1,7,11
3.52E+03,-8071,-588,163,-190,8,-880,1,7,11
3.52E+03,-8296,-590,164,-218,-380,-881,1,7,11
3.52E+03,-8274,-590,169,-517,-209,-839,1,7,11
3.52E+03,-8240,-603,191,-562,-519,-485,1,7,11
3.52E+03,-8224,-635,238,-589,-527,-634,1,7,11
3.52E+03,-8233,-402,559,-573,-519,-249,1,7,11
3.52E+03,-8260,-387,605,-254,-234,-347,1,7,11
3.52E+03,-8270,-590,387,-173,-200,98,1,7,11
3.52E+03,-8251,-527,407,-360,-148,290,1,7,11
3.52E+03,-8210,-202,406,-309,-320,209,1,7,11
3.52E+03,-7931,-383,387,-292,66,596,1,7,11
3.52E+03,-7913,-302,612,-301,-35,437,1,7,11
3.52E+03,-7921,6,507,-352,133,481,1,7,11
3.52E+03,-7954,64,167,-170,562,467,1,7,11
3.52E+03,-8231,52,333,-536,481,596,1,7,11
3.52E+03,-8250,3,271,-396,718,198,1,7,11
3.53E+03,-8281,-322,-4,-501,1041,376,1,7,11
3.53E+03,-8124,-142,-25,-790,1118,-102,1,7,11
3.53E+03,-8140,-236,-48,-502,1089,20,1,7,11
3.53E+03,-8173,-608,-43,-387,1034,-361,1,7,11
3.53E+03,-8460,-436,-40,-570,664,-225,1,7,11
3.53E+03,-8485,-455,-49,-324,482,-548,1,7,11
3.53E+03,-8504,-506,-52,-259,629,-544,1,7,11
3.53E+03,-8458,-792,-57,-91,284,-518,1,7,11
3.53E+03,-8160,-779,-57,362,89,-228,1,7,11
3.53E+03,-8133,-795,-38,307,-324,-161,1,7,11
3.53E+03,-8099,-492,-28,453,-197,-349,1,7,11
3.53E+03,-8070,-432,-12,787,-543,-259,1,7,11
3.53E+03,-8303,-415,274,805,-562,-124,1,7,11
3.53E+03,-8292,-405,314,818,-551,261,1,7,11
3.53E+03,-8294,-438,368,509,-552,357,1,7,11
3.53E+03,-8258,-583,367,813,-548,159,1,7,11
3.53E+03,-8225,-254,379,496,-232,185,1,7,11
3.53E+03,-8250,-205,134,396,-370,196,1,7,11
3.53E+03,-8249,-172,143,540,-291,154,1,7,11
3.53E+03,-8231,-141,143,177,37,334,1,7,11
3.53E+03,-8241,-361,128,303,118,-23,1,7,11
3.53E+03,-8272,-348,375,-112,-78,-126,1,7,11
3.53E+03,-8282,-346,360,-265,-36,35,1,7,11
3.53E+03,-8278,-358,336,-154,272,-299,1,7,11
3.53E+03,-8286,-370,316,-552,319,-365,1,7,11
3.53E+03,-8263,-143,294,-431,361,-149,1,7,11
3.53E+03,-8249,-189,279,-804,162,-190,1,7,11
3.53E+03,-8254,-223,263,-881,218,-215,1,7,11
3.53E+03,-8258,-521,-2,-684,253,-224,1,7,11
3.53E+03,-8259,-561,-18,-706,530,-226,1,7,11
3.53E+03,-8259,-586,-34,-700,540,-226,1,7,11
3.53E+03,-8271,-614,-54,-682,543,-212,1,7,11
3.53E+03,-8279,-392,-66,-649,536,-184,1,7,11
3.53E+03,-8288,-405,-79,-846,528,-147,1,7,11
3.53E+03,-8276,-425,-96,-767,240,-333,1,7,11
3.53E+03,-8302,-433,-91,-448,210,-295,1,7,11
3.53E+03,-8318,-435,-94,-390,158,3,1,7,11
3.53E+03,-8071,-436,-101,-592,357,55,1,7,11
3.53E+03,-8318,-440,-105,-533,310,116,1,7,11
3.53E+03,-8301,-437,-105,-212,280,-79,1,7,11
3.54E+03,-8310,-452,-88,-160,265,283,1,7,11
3.54E+03,-8301,-441,-95,-294,-15,369,1,7,11
3.54E+03,-8295,-638,-122,-113,-19,162,1,7,11
3.54E+03,-8287,-568,119,285,261,184,1,7,11
3.54E+03,-8282,-254,103,329,279,204,1,7,11
3.54E+03,-8271,-224,100,291,279,247,1,7,11
3.54E+03,-8279,-207,109,-22,282,555,1,7,11
3.54E+03,-8297,-199,122,-77,263,612,1,7,11
3.54E+03,-8294,-188,122,-105,-35,398,1,7,11
3.54E+03,-8293,-178,122,-112,-63,439,1,7,11
3.54E+03,-8296,-152,116,-79,-89,448,1,7,11
3.54E+03,-8293,-368,97,-18,-127,416,1,7,11
3.54E+03,-8310,-292,81,302,94,581,1,7,11
3.54E+03,-8100,45,85,321,49,184,1,7,11
3.54E+03,-8138,101,91,304,-288,283,1,7,11
3.54E+03,-8145,-107,92,287,-378,99,1,7,11
3.54E+03,-8155,-89,110,-27,-207,-339,1,7,11
3.54E+03,-8155,-101,-105,-114,-540,-240,1,7,11
3.54E+03,-8138,-114,-75,60,-621,-633,1,7,11
3.54E+03,-8097,-126,-73,-284,-419,-472,1,7,11
3.54E+03,-8307,88,-71,-139,-420,-780,1,7,11
3.54E+03,-8313,6,-33,-237,-633,-798,1,7,11
3.54E+03,-8078,-330,292,-541,-592,-503,1,7,11
3.54E+03,-8069,-152,338,-559,-577,-428,1,7,11
3.54E+03,-8305,-513,374,-548,-567,-526,1,7,11
3.54E+03,-7928,-563,241,116,1,187,1,7,11
3.54E+03,-8199,-550,244,125,76,578,1,7,11
3.54E+03,-8209,-532,512,125,-114,444,1,7,11
3.54E+03,-8235,-248,519,119,-39,793,1,7,11
3.54E+03,-8204,-184,239,-117,267,874,1,7,11
3.54E+03,-8253,-342,200,-109,351,889,1,7,11
3.54E+03,-8270,-289,185,122,374,870,1,7,11
3.54E+03,-8312,-272,181,109,377,455,1,7,11
3.54E+03,-8127,35,162,-124,325,205,1,7,11
3.54E+03,-8158,-96,361,-78,-32,-84,1,7,11
3.54E+03,-8178,-24,305,-111,-126,-320,1,7,11
3.54E+03,-8177,-14,299,65,60,-223,1,7,11
3.54E+03,-8169,-62,308,-272,14,-583,1,7,11
3.54E+03,-8141,-127,339,-334,-259,-406,1,7,11
3.54E+03,-8142,13,143,-135,12,-462,1,7,11
3.55E+03,-8134,-284,166,-188,27,-471,1,7,11
3.55E+03,-8097,-129,201,-226,40,-448,1,7,11
3.55E+03,-8079,-157,201,-249,62,-386,1,7,11
3.55E+03,-8298,-205,220,-526,88,-543,1,7,11
3.55E+03,-8256,-248,244,-536,127,-163,1,7,11
3.55E+03,-8239,-550,253,-555,-77,-290,1,7,11
3.55E+03,-8204,-618,524,-553,-39,106,1,7,11
3.55E+03,-8197,-625,533,-530,-1,-23,1,7,11
3.55E+03,-8218,-635,545,-248,303,348,1,7,11
3.55E+03,-8229,-608,528,-203,319,211,1,7,11
3.55E+03,-8229,-553,514,-145,331,565,1,7,11
3.55E+03,-8254,-229,232,-356,349,635,1,7,11
3.55E+03,-8270,-140,187,-276,373,424,1,7,11
3.55E+03,-8315,-292,144,15,136,387,1,7,11
3.55E+03,-8123,37,383,16,378,564,1,7,11
3.55E+03,-8152,91,330,71,322,188,1,7,11
3.55E+03,-8178,125,300,-80,312,260,1,7,11
3.55E+03,-8503,-105,305,-9,321,47,1,7,11
3.55E+03,-8532,-107,330,-20,271,-129,1,7,11
3.55E+03,-8491,88,363,-70,-81,-514,1,7,11
3.55E+03,-8159,22,150,-107,95,-611,1,7,11
3.55E+03,-8091,-306,184,125,53,-399,1,7,11
3.55E+03,-8292,-369,208,-128,45,-409,1,7,11
3.55E+03,-8238,-174,221,-124,69,-635,1,7,11
3.55E+03,-8208,-213,217,-116,124,-576,1,7,11
3.55E+03,-7902,-241,213,-123,-72,-241,1,7,11
3.55E+03,-7857,-249,200,122,277,-160,1,7,11
3.55E+03,-7848,-210,169,93,129,-324,1,7,11
3.55E+03,-7884,-146,368,24,242,34,1,7,11
3.55E+03,-8212,-338,318,-359,586,-106,1,7,11
3.55E+03,-8251,-294,269,-525,612,272,1,7,11
3.55E+03,-8255,-282,-28,-438,603,361,1,7,11
3.55E+03,-8275,-271,-61,-824,593,144,1,7,11
3.55E+03,-8065,-264,-72,-666,565,162,1,7,11
3.55E+03,-8092,15,-81,-725,513,185,1,7,11
3.55E+03,-8118,58,-97,-762,188,209,1,7,11
3.55E+03,-8114,-120,-94,-1048,375,239,1,7,11
3.55E+03,-8121,-93,-90,-1072,325,526,1,7,11
3.55E+03,-8117,-39,-84,-1089,268,553,1,7,11
3.55E+03,-8095,-33,-79,-1106,-41,555,1,7,11
3.56E+03,-8080,-27,-66,-1109,-72,519,1,7,11
3.56E+03,-8070,-15,-56,-1086,-95,236,1,7,11
3.56E+03,-8311,-4,-32,-1036,-120,149,1,7,11
3.56E+03,-8304,256,-11,-732,121,348,1,7,11
3.56E+03,-8309,258,272,-678,117,285,1,7,11
3.56E+03,-8315,-7,294,-883,108,-24,1,7,11
3.56E+03,-8311,-23,324,-821,103,-83,1,7,11
3.56E+03,-8304,-41,359,-487,100,116,1,7,11
3.56E+03,-8303,-60,374,-406,111,63,1,7,11
3.56E+03,-8297,-61,377,-583,127,20,1,7,11
3.56E+03,-8297,-60,128,-256,-104,-279,1,7,11
3.56E+03,-8309,-58,153,-201,-77,-314,1,7,11
3.56E+03,-8318,-67,179,-157,-51,-339,1,7,11
3.56E+03,-8298,-79,191,-383,-30,-364,1,7,11
3.56E+03,-8283,-88,201,-360,261,-141,1,7,11
3.56E+03,-8244,-99,192,-351,311,-179,1,7,11
3.56E+03,-8220,-111,187,-355,130,-226,1,7,11
3.56E+03,-8200,-122,164,-370,209,-522,1,7,11
3.56E+03,-8206,119,140,-151,561,-557,1,7,11
3.56E+03,-8221,101,353,-205,398,-573,1,7,11
3.56E+03,-8225,92,311,-524,486,-584,1,7,11
3.56E+03,-8225,93,-12,-606,820,-596,1,7,11
3.56E+03,-8200,109,-112,-452,889,-606,1,7,11
3.56E+03,-7931,-98,-2,-861,719,-389,1,7,11
3.56E+03,-7929,-46,-357,-1086,1063,-439,1,7,11
3.56E+03,-8194,318,-173,-1381,1138,-772,1,7,11
3.56E+03,-8247,352,-233,-1799,924,-853,1,7,11
3.56E+03,-8081,365,-538,-2312,897,-889,1,7,11
3.56E+03,-8102,366,-581,-2858,1057,-895,1,7,11
3.56E+03,-8137,308,-602,-3440,658,-887,1,7,11
3.56E+03,-8197,-47,-595,-3767,497,-856,1,7,11
3.56E+03,-8155,79,-613,-4292,561,-798,1,7,11
3.56E+03,-8110,-281,-639,-4954,377,-477,1,7,11
3.56E+03,-8076,-348,-410,-4994,-28,-498,1,7,11
3.56E+03,-8091,-153,-440,-5490,37,-814,1,7,11
3.56E+03,-8119,-158,-484,-5652,-139,-693,1,7,11
3.56E+03,-8189,-155,-501,-5641,-617,-921,1,7,11
3.56E+03,-8553,-179,-487,-5870,-686,-1229,1,7,11
3.56E+03,-8385,-211,-466,-6128,-1405,-1670,1,7,11
3.56E+03,-8428,-166,-462,-6291,-1763,-2402,1,7,11
3.57E+03,-8404,-286,-485,-6374,-2650,-2548,1,7,11
3.57E+03,-8404,25,-446,-6757,-3192,-2767,1,7,11
3.57E+03,-8363,-345,-577,-6586,-3624,-2717,1,7,11
3.57E+03,-8509,-556,-154,-6536,-3906,-2482,1,7,11
3.57E+03,-8080,-487,52,-6360,-3809,-2220,1,7,11
3.57E+03,-8221,-888,-21,-6118,-3820,-2039,1,7,11
3.57E+03,-7892,-1087,193,-5793,-3739,-2067,1,7,11
3.57E+03,-8002,-1343,633,-5263,-3535,-1892,1,7,11
3.57E+03,-8011,-1546,857,-4567,-3435,-1519,1,7,11
3.57E+03,-7981,-1625,754,-3801,-3166,-1439,1,7,11
3.57E+03,-7991,-1620,1142,-3041,-2880,-1449,1,7,11
3.57E+03,-8055,-1611,1006,-2467,-2651,-1458,1,7,11
3.57E+03,-7650,-1271,1321,-1963,-2239,-1662,1,7,11
3.57E+03,-8010,-1182,1406,-1816,-1940,-1624,1,7,11
3.57E+03,-7821,-1228,1253,-1266,-1697,-1368,1,7,11
3.57E+03,-8044,-1258,1598,-914,-1497,-1138,1,7,11
3.57E+03,-8046,-1237,1658,-423,-1188,-834,1,7,11
3.57E+03,-7961,-1231,1424,-379,-957,-478,1,7,11
3.57E+03,-8005,-1175,1486,122,-704,-421,1,7,11
3.57E+03,-7856,-1404,1507,331,-808,-617,1,7,11
3.57E+03,-7821,-1195,1799,521,-477,-609,1,7,11
3.57E+03,-7864,-1225,1825,457,-602,-624,1,7,11
3.57E+03,-7833,-1210,1885,859,-229,-578,1,7,11
3.57E+03,-8219,-1252,1673,675,-333,-531,1,7,11
3.57E+03,-7893,-1199,1685,1033,-287,-168,1,7,11
3.57E+03,-8211,-1221,1721,1041,60,-371,1,7,11
3.57E+03,-8271,-1212,1762,1047,104,17,1,7,11
3.57E+03,-8287,-1153,1752,1042,66,99,1,7,11
3.57E+03,-8274,-1349,1720,747,51,-96,1,7,11
3.57E+03,-8296,-1393,1738,705,88,-83,1,7,11
3.57E+03,-8261,-1183,1746,732,93,68,1,7,11
3.57E+03,-8240,-1223,1751,767,111,-332,1,7,11
3.57E+03,-8193,-1193,1739,1080,-115,-204,1,7,11
3.57E+03,-8196,-1188,1742,1086,-50,-579,1,7,11
3.57E+03,-7926,-1219,1764,1075,262,-414,1,7,11
3.57E+03,-7873,-1255,1772,1083,304,-496,1,7,11
3.57E+03,-7878,-1252,1767,1116,372,-796,1,7,11
3.57E+03,-7926,-1554,1766,1137,161,-498,1,7,11
3.57E+03,-7902,-1595,1746,940,160,-476,1,7,11
3.57E+03,-7886,-1605,1732,982,203,-430,1,7,11
3.58E+03,-7885,-1620,1725,988,248,-391,1,7,11
3.58E+03,-7917,-1639,1742,991,524,-393,1,7,11
3.58E+03,-8217,-1646,1755,999,246,-390,1,7,11
3.58E+03,-8259,-1621,1766,1284,166,-614,1,7,11
3.58E+03,-8227,-1547,1736,1289,365,-555,1,7,11
3.58E+03,-8200,-1269,1731,972,374,-207,1,7,11
3.58E+03,-8196,-1550,1750,1131,162,-342,1,7,11
3.58E+03,-8206,-1618,1787,1036,183,11,1,7,11
3.58E+03,-8195,-1430,2067,718,176,56,1,7,11
3.58E+03,-7873,-1427,1791,713,142,17,1,7,11
3.58E+03,-7847,-1588,1759,719,150,-328,1,7,11
3.58E+03,-7889,-1240,1728,643,185,-365,1,7,11
3.58E+03,-8199,-1230,1730,511,210,-352,1,7,11
3.58E+03,-8209,-1254,1730,427,196,-317,1,7,11
3.58E+03,-8197,-1552,1763,613,192,-282,1,7,11
3.58E+03,-7902,-1568,1759,578,198,21,1,7,11
3.58E+03,-7888,-1569,1758,549,228,51,1,7,11
3.58E+03,-7871,-1639,1756,252,528,93,1,7,11
3.58E+03,-7876,-1470,1781,216,596,118,1,7,11
3.58E+03,-7876,-1814,2071,540,464,-125,1,7,11
3.58E+03,-7879,-1875,2092,434,813,-102,1,7,11
3.58E+03,-7886,-1881,2073,662,656,-44,1,7,11
3.58E+03,-7868,-1848,1764,917,748,302,1,7,11
3.58E+03,-8031,-1499,1910,1173,1104,149,1,7,11
3.58E+03,-8002,-1623,1807,1593,1023,195,1,7,11
3.58E+03,-8062,-1226,1473,1659,1207,218,1,7,11
3.58E+03,-7874,-1378,1409,1635,1579,230,1,7,11
3.58E+03,-8211,-1309,1637,1548,1638,236,1,7,11
3.58E+03,-8266,-1014,1602,1169,1632,241,1,7,11
3.58E+03,-8308,-1006,1564,1282,1584,242,1,7,11
3.58E+03,-8311,-1019,1272,1139,1255,227,1,7,11
3.58E+03,-8301,-1024,1200,705,1397,152,1,7,11
3.58E+03,-8303,-1024,1177,644,1363,375,1,7,11
3.58E+03,-8306,-1293,1395,794,1302,318,1,7,11
3.58E+03,-8312,-1312,1363,453,987,278,1,7,11
3.58E+03,-8298,-1327,1327,392,927,257,1,7,11
3.58E+03,-8284,-1347,1294,606,899,-4,1,7,11
3.58E+03,-8276,-1373,1008,589,1143,-1,1,7,11
3.58E+03,-8245,-1403,986,601,1151,-1,1,7,11
3.58E+03,-8231,-1164,958,634,917,-8,1,7,11
3.59E+03,-8219,-1173,923,418,942,-13,1,7,11
3.59E+03,-8207,-1181,1139,461,972,-12,1,7,11
3.59E+03,-8204,-1165,1066,505,1018,-3,1,7,11
3.59E+03,-8214,-1389,1044,787,1325,282,1,7,11
3.59E+03,-8215,-1370,750,783,1370,327,1,7,11
3.59E+03,-7934,-1366,697,773,1406,374,1,7,11
3.59E+03,-7886,-1351,888,770,1187,162,1,7,11
3.59E+03,-7809,-1326,806,482,1242,176,1,7,11
3.59E+03,-8003,-1300,468,401,1612,139,1,7,11
3.59E+03,-7988,-998,608,527,1516,310,1,7,11
3.59E+03,-7984,-944,541,356,1679,-52,1,7,11
3.59E+03,-8033,-907,249,-109,2100,87,1,7,11
3.59E+03,-7877,-926,210,-342,1988,3,1,7,11
3.59E+03,-8272,-944,157,-557,2311,-283,1,7,11
3.59E+03,-8088,-973,348,-570,2307,1,1,7,11
3.59E+03,-8127,-998,262,-714,1987,68,1,7,11
3.59E+03,-8155,-1002,-89,-1085,2157,-108,1,7,11
3.59E+03,-8150,-1009,80,-924,1791,-1,1,7,11
3.59E+03,-8129,-1011,-268,-993,1679,370,1,7,11
3.59E+03,-8115,-1016,-339,-1297,1825,221,1,7,11
3.59E+03,-8101,-1010,-152,-1321,1452,579,1,7,11
3.59E+03,-8320,-1004,-203,-1313,1588,406,1,7,11
3.59E+03,-8297,-988,-254,-1017,1223,461,1,7,11
3.59E+03,-8281,-957,-552,-963,1367,503,1,7,11
3.59E+03,-8277,-919,-596,-1144,962,807,1,7,11
3.59E+03,-8278,-1145,-620,-1051,918,843,1,7,11
3.59E+03,-8280,-1098,-629,-687,1047,884,1,7,11
3.59E+03,-8298,-1043,-390,-821,710,665,1,7,11
3.59E+03,-8067,-725,-403,-617,875,705,1,7,11
3.59E+03,-8100,-655,-420,-231,509,752,1,7,11
3.59E+03,-8103,-847,-428,-368,637,1055,1,7,11
3.59E+03,-8094,-810,-434,1,252,1082,1,7,11
3.59E+03,-8069,-775,-445,113,138,1085,1,7,11
3.59E+03,-8314,-488,-451,-39,303,1069,1,7,11
3.59E+03,-8304,-470,-451,311,-36,1051,1,7,11
3.59E+03,-8302,-458,-443,150,-110,1039,1,7,11
3.59E+03,-8310,-439,-435,512,89,1044,1,7,11
3.59E+03,-8318,-407,-426,628,42,1082,1,7,11
3.59E+03,-8065,-637,-413,494,-261,906,1,7,11
3.59E+03,-8087,-634,-395,887,-310,1285,1,7,11
3.60E+03,-8090,-386,-632,1065,-382,1188,1,7,11
3.60E+03,-8315,-402,-621,1290,-200,1612,1,7,11
3.60E+03,-8271,-426,-613,1550,-256,1514,1,7,11
3.60E+03,-8219,-448,-601,1841,-539,1895,1,7,11
3.60E+03,-7906,-471,-591,2169,-534,1714,1,7,11
3.60E+03,-7848,-458,-598,2261,-234,1719,1,7,11
3.60E+03,-7817,-439,-596,2839,-157,1904,1,7,11
3.60E+03,-7809,-638,-604,3157,-322,1526,1,7,11
3.60E+03,-7834,-543,-617,3445,29,1617,1,7,11
3.60E+03,-7891,-188,-620,3666,107,1200,1,7,11
3.60E+03,-7934,-333,-402,3563,-114,1317,1,7,11
3.60E+03,-8219,51,-429,3899,-102,943,1,7,11
3.60E+03,-8217,-38,-461,3890,-109,1109,1,7,11
3.60E+03,-8202,300,-475,3546,-117,1033,1,7,11
3.60E+03,-7925,360,-486,3298,-111,670,1,7,11
3.60E+03,-7929,153,-487,3329,-110,858,1,7,11
3.60E+03,-7919,185,-482,2815,-112,783,1,7,11
3.60E+03,-7905,209,-472,2537,-109,441,1,7,11
3.60E+03,-7903,226,-461,2246,-113,597,1,7,11
3.60E+03,-7924,237,-440,1945,-120,239,1,7,11
3.60E+03,-8200,234,-407,1906,115,146,1,7,11
3.60E+03,-8205,229,-387,1624,82,320,1,7,11
3.60E+03,-8214,209,-635,1357,50,-1,1,7,11
3.60E+03,-8220,187,-618,1101,19,-57,1,7,11
3.60E+03,-8228,152,-598,875,-265,-99,1,7,11
3.60E+03,-8224,374,-588,418,-291,-127,1,7,11
3.60E+03,-8212,347,-581,244,-308,109,1,7,11
3.60E+03,-8208,313,-574,348,-305,99,1,7,11
3.60E+03,-8203,288,-562,-22,-294,93,1,7,11
3.60E+03,-8222,259,-541,-110,-270,92,1,7,11
3.60E+03,-8243,-17,-252,87,4,110,1,7,11
3.60E+03,-8235,-38,-231,60,7,-123,1,7,11
3.60E+03,-8228,-50,-212,58,23,-108,1,7,11
3.60E+03,-8228,-45,-215,75,43,-94,1,7,11
3.60E+03,-8226,-38,-207,90,63,-87,1,7,11
3.60E+03,-8227,-35,-194,108,78,-83,1,7,11
3.60E+03,-8222,-28,-190,-124,88,-94,1,7,11
3.60E+03,-8216,-17,-183,-107,100,-115,1,7,11
3.60E+03,-8214,-5,-188,-101,115,109,1,7,11
3.60E+03,-8210,-1,-191,-108,-126,69,1,7,11
3.61E+03,-8209,259,-201,125,-120,24,1,7,11
3.61E+03,-8221,257,-208,87,-110,-275,1,7,11
3.61E+03,-8218,-2,-212,44,-109,-312,1,7,11
3.61E+03,-8249,-2,-205,-258,-100,-350,1,7,11
3.61E+03,-8286,-14,-196,-313,-106,-380,1,7,11
3.61E+03,-8275,-47,-191,-364,113,-142,1,7,11
3.61E+03,-8254,-71,-198,-139,75,-145,1,7,11
3.61E+03,-8236,-82,-212,-158,84,-136,1,7,11
3.61E+03,-8214,-86,-212,-171,114,-378,1,7,11
3.61E+03,-8208,-87,-207,-177,-97,-362,1,7,11
3.61E+03,-8218,-95,-196,-178,-67,-335,1,7,11
3.61E+03,-8234,-109,-190,-167,-50,-311,1,7,11
3.61E+03,-8242,-118,-185,-147,-57,-294,1,7,11
3.61E+03,-8238,-123,-181,-377,-78,-287,1,7,11
3.61E+03,-8244,-128,-178,-348,-88,-295,1,7,11
3.61E+03,-8257,127,-179,-323,-96,-309,1,7,11
3.61E+03,-8257,-121,-174,-301,-105,-322,1,7,11
3.61E+03,-8257,-121,-174,-285,-109,-331,1,7,11
3.61E+03,-8233,-126,-180,-273,-112,-329,1,7,11
3.61E+03,-8230,-126,-176,-268,-91,-337,1,7,11
3.61E+03,-8234,126,-172,-267,-79,-342,1,7,11
3.61E+03,-8230,119,-164,-272,-68,-349,1,7,11
3.61E+03,-8231,114,-176,-278,-46,-350,1,7,11
3.61E+03,-8228,110,-177,-280,-40,-348,1,7,11
3.61E+03,-8220,103,-183,-292,-30,-341,1,7,11
3.61E+03,-8214,88,-190,-303,-14,-335,1,7,11
3.61E+03,-8214,76,-198,-316,257,-328,1,7,11
3.61E+03,-8226,69,-202,-322,267,-326,1,7,11
3.61E+03,-8235,60,-207,-321,265,-326,1,7,11
3.61E+03,-8244,55,-204,-319,256,-326,1,7,11
3.61E+03,-8243,49,-205,-312,-14,-324,1,7,11
3.61E+03,-8245,43,-216,-307,-30,-320,1,7,11
3.61E+03,-8257,34,-220,-305,-44,-312,1,7,11
3.61E+03,-8256,21,-216,-312,-61,-307,1,7,11
3.61E+03,-8249,16,-219,-304,-81,-316,1,7,11
3.61E+03,-8249,6,-228,-296,-88,-332,1,7,11
3.61E+03,-8243,8,-233,-287,-90,-353,1,7,11
3.61E+03,-8244,1,-225,-288,-82,-378,1,7,11
3.61E+03,-8249,-264,-215,-304,-72,-147,1,7,11
3.61E+03,-8267,-262,-214,-326,-80,-168,1,7,11
3.62E+03,-8279,-290,-212,-363,-109,-183,1,7,11
3.62E+03,-8272,-306,-222,-371,103,-202,1,7,11
3.62E+03,-8243,-263,-246,-358,70,-225,1,7,11
3.62E+03,-8198,48,-516,-145,95,-237,1,7,11
3.62E+03,-8200,83,-521,-224,-71,-223,1,7,11
3.62E+03,-8238,68,-241,-600,-23,-174,1,7,11
3.62E+03,-8205,-268,-218,-452,-25,-165,1,7,11
3.62E+03,-8214,-314,-198,-491,-12,-204,1,7,11
3.62E+03,-8211,-349,-188,-497,-14,-247,1,7,11
3.62E+03,-8217,-345,-191,-470,-16,-556,1,7,11
3.62E+03,-8218,-371,-175,-436,-14,-559,1,7,11
3.62E+03,-8287,-167,-182,-452,-7,-547,1,7,11
3.62E+03,-8250,-225,-185,-412,-64,-550,1,7,11
3.62E+03,-8246,-233,-212,-545,-101,-404,1,7,11
3.62E+03,-8245,-206,-236,-171,-124,-769,1,7,11
3.62E+03,-8285,-160,-234,-374,-123,-820,1,7,11
3.62E+03,-8309,-132,-246,-379,115,-775,1,7,11
3.62E+03,-8279,-139,-254,-180,101,-411,1,7,11
3.62E+03,-8243,-158,-246,-523,126,-546,1,7,11
3.62E+03,-8256,-218,-232,-616,-82,-194,1,7,11
3.62E+03,-8221,-539,-200,-425,-105,-133,1,7,11
3.62E+03,-7905,-514,-214,-431,-104,-146,1,7,11
3.62E+03,-8201,-237,-220,-484,-66,-369,1,7,11
3.62E+03,-7931,-252,-220,-510,-82,-330,1,7,11
3.62E+03,-7917,-519,-227,-472,-78,-328,1,7,11
3.62E+03,-7926,-516,-235,-417,-55,-348,1,7,11
3.62E+03,-8209,-516,-245,-622,-38,-370,1,7,11
3.62E+03,-8229,-517,-248,-580,-43,-377,1,7,11
3.62E+03,-8233,-205,-523,-527,-19,-382,1,7,11
3.62E+03,-8085,-212,-530,-551,-12,-325,1,7,11
3.62E+03,-8258,-519,-515,-564,-72,-259,1,7,11
3.62E+03,-8289,-249,-241,-527,-69,-260,1,7,11
3.62E+03,-8289,-215,-249,-211,-100,38,1,7,11
3.62E+03,-8246,-201,-524,-176,-97,63,1,7,11
3.62E+03,-8217,-217,-522,-170,-39,107,1,7,11
3.62E+03,-8240,-538,-252,-155,281,-116,1,7,11
3.62E+03,-8253,-610,-202,-327,294,-106,1,7,11
3.62E+03,-8258,-614,-204,115,-25,90,1,7,11
3.62E+03,-8218,-607,-205,-59,-86,11,1,7,11
3.62E+03,-7928,-541,-237,262,-99,-355,1,7,11
3.63E+03,-8213,-224,-234,-29,-87,-144,1,7,11
3.63E+03,-7935,-210,-219,-128,-78,-132,1,7,11
3.63E+03,-8249,-177,-241,4,-24,-360,1,7,11
3.63E+03,-8257,-240,-246,-381,-72,7,1,7,11
3.63E+03,-7930,-596,-229,-145,-86,-282,1,7,11
3.63E+03,-8221,-606,-223,-341,-70,-368,1,7,11
3.63E+03,-8226,-597,-226,-299,-90,-179,1,7,11
3.63E+03,-8247,-537,-235,-264,-85,-198,1,7,11
3.63E+03,-8250,-522,-244,-315,-69,-155,1,7,11
3.63E+03,-8218,-555,-250,-362,-35,-339,1,7,11
3.63E+03,-8199,-635,-252,-132,295,-308,1,7,11
3.63E+03,-8240,-471,-219,-368,354,-293,1,7,11
3.63E+03,-8284,-799,-202,-306,321,-308,1,7,11
3.63E+03,-8241,-774,-207,40,-17,-331,1,7,11
3.63E+03,-8263,-444,-235,74,-37,-344,1,7,11
3.63E+03,-8235,-429,-246,37,-49,-297,1,7,11
3.63E+03,-8225,-635,-517,30,-40,-274,1,7,11
3.63E+03,-8237,-640,-523,-278,-52,43,1,7,11
3.63E+03,-7935,-638,-521,-300,-19,78,1,7,11
3.63E+03,-8238,-611,-518,-347,296,117,1,7,11
3.63E+03,-8221,-607,-537,-149,287,-73,1,7,11
3.63E+03,-7929,-638,-532,-170,275,-40,1,7,11
3.63E+03,-7930,-399,-522,-154,286,-32,1,7,11
3.63E+03,-7926,-412,-533,-143,267,-36,1,7,11
3.63E+03,-7912,-629,-538,-359,-13,-65,1,7,11
3.63E+03,-7946,-626,-539,-357,-31,-65,1,7,11
3.63E+03,-8231,-623,-533,-353,-51,-54,1,7,11
3.63E+03,-8233,-621,-539,-341,-76,-39,1,7,11
3.63E+03,-8214,-623,-553,-296,-79,-29,1,7,11
3.63E+03,-8207,-615,-560,5,-45,-26,1,7,11
3.63E+03,-8199,-614,-579,64,258,-52,1,7,11
3.63E+03,-8203,-596,-586,-114,285,-118,1,7,11
3.63E+03,-8219,-544,-605,-37,300,70,1,7,11
3.63E+03,-8217,-246,-616,-7,305,50,1,7,11
3.63E+03,-8215,-235,-624,-32,324,42,1,7,11
3.63E+03,-8242,-215,-625,-75,348,53,1,7,11
3.63E+03,-8270,-207,-625,93,325,102,1,7,11
3.63E+03,-8265,-209,-618,27,284,-112,1,7,11
3.63E+03,-8250,-210,-626,-264,-10,-90,1,7,11
3.63E+03,-8220,-224,-620,-307,-12,-86,1,7,11
3.64E+03,-8200,-222,-623,-337,-1,-101,1,7,11
3.64E+03,-7905,-230,-623,-136,266,122,1,7,11
3.64E+03,-7910,-231,-630,-181,279,88,1,7,11
3.64E+03,-7888,-244,-638,-213,276,51,1,7,11
3.64E+03,-7905,-255,-400,-236,294,20,1,7,11
3.64E+03,-7916,-252,-403,-523,294,30,1,7,11
3.64E+03,-7922,-535,-423,-548,287,55,1,7,11
3.64E+03,-7929,-561,-450,-516,300,67,1,7,11
3.64E+03,-8211,-553,-474,-192,335,77,1,7,11
3.64E+03,-8231,-554,-475,-132,368,100,1,7,11
3.64E+03,-8253,-590,-464,-317,131,115,1,7,11
3.64E+03,-8291,-613,-436,30,376,106,1,7,11
3.64E+03,-8090,-407,-412,96,296,96,1,7,11
3.64E+03,-8291,-582,-425,-13,-101,62,1,7,11
3.64E+03,-8293,-578,-411,-5,127,63,1,7,11
3.64E+03,-8242,-602,-393,-3,48,66,1,7,11
3.64E+03,-8227,-627,-632,316,2,10,1,7,11
3.64E+03,-8213,-586,-612,164,-303,-310,1,7,11
3.64E+03,-8214,-552,-593,207,-330,-300,1,7,11
3.64E+03,-7917,-554,-575,144,-304,17,1,7,11
3.64E+03,-8194,-581,-554,315,24,64,1,7,11
3.64E+03,-7920,-605,-547,257,27,109,1,7,11
3.64E+03,-7893,-605,-540,-30,65,98,1,7,11
3.64E+03,-7921,-565,-551,-68,-113,124,1,7,11
3.64E+03,-7901,-567,-547,111,-49,-86,1,7,11
3.64E+03,-8210,-582,-547,33,295,-38,1,7,11
3.64E+03,-8259,-609,-542,-270,296,264,1,7,11
3.64E+03,-8268,-591,-555,-282,259,269,1,7,11
3.64E+03,-8253,-589,-555,-301,-18,293,1,7,11
3.64E+03,-8221,-590,-574,-281,-32,277,1,7,11
3.64E+03,-7930,-563,-586,24,-17,-28,1,7,11
3.64E+03,-8195,-568,-593,44,268,-91,1,7,11
3.64E+03,-7915,-546,-587,73,297,101,1,7,11
3.64E+03,-8197,-523,-604,61,321,77,1,7,11
3.64E+03,-7927,-538,-608,21,309,64,1,7,11
3.64E+03,-8201,-543,-609,4,278,26,1,7,11
3.64E+03,-8214,-534,-615,-263,-39,4,1,7,11
3.64E+03,-8244,-516,-618,-293,-105,2,1,7,11
3.64E+03,-8255,-245,-623,-340,88,39,1,7,11
3.64E+03,-8252,-247,-636,-147,60,109,1,7,11
3.65E+03,-8233,-518,-635,-188,58,-68,1,7,11
3.65E+03,-8206,-534,-395,-188,126,290,1,7,11
3.65E+03,-8212,-551,-390,-181,-95,323,1,7,11
3.65E+03,-8237,-623,-626,-141,-42,348,1,7,11
3.65E+03,-8203,-604,-608,-293,-34,325,1,7,11
3.65E+03,-8250,-251,-631,55,-37,296,1,7,11
3.65E+03,-8232,-212,-639,50,-76,322,1,7,11
3.65E+03,-8206,-207,-627,45,-89,309,1,7,11
3.65E+03,-8197,-188,-620,57,-107,286,1,7,11
3.65E+03,-8199,-164,-623,69,-127,-12,1,7,11
3.65E+03,-8203,-160,-624,58,97,-43,1,7,11
3.65E+03,-7927,-382,-631,34,90,-62,1,7,11
3.65E+03,-8193,-139,-390,-289,93,-35,1,7,11
3.65E+03,-8193,-152,-626,-348,89,-21,1,7,11
3.65E+03,-8209,-156,-619,-368,86,-17,1,7,11
3.65E+03,-7936,-181,-612,-155,91,-4,1,7,11
3.65E+03,-8253,-170,-597,-180,-124,280,1,7,11
3.65E+03,-8286,-206,-580,-205,-120,345,1,7,11
3.65E+03,-8072,-249,-582,-187,-128,232,1,7,11
3.65E+03,-8302,-256,-603,-354,84,595,1,7,11
3.65E+03,-8265,-239,-618,29,28,425,1,7,11
3.65E+03,-8227,-194,-639,-107,39,493,1,7,11
3.65E+03,-8222,-151,-404,28,64,812,1,7,11
3.65E+03,-7922,-371,-408,322,93,837,1,7,11
3.65E+03,-7916,-314,-406,333,-107,810,1,7,11
3.65E+03,-7910,19,-389,330,-63,483,1,7,11
3.65E+03,-8233,82,-638,288,-22,636,1,7,11
3.65E+03,-8260,-128,-634,-35,-24,549,1,7,11
3.65E+03,-8261,-94,-638,-118,-27,204,1,7,11
3.65E+03,-8264,-84,-388,52,-14,373,1,7,11
3.65E+03,-8202,-80,-636,-267,-9,297,1,7,11
3.65E+03,-8202,-86,-623,-321,289,-69,1,7,11
3.65E+03,-8206,-91,-612,-351,308,114,1,7,11
3.65E+03,-8196,-106,-610,-358,307,61,1,7,11
3.65E+03,-8195,-97,-617,-343,310,41,1,7,11
3.65E+03,-8200,-67,-610,-332,313,56,1,7,11
3.65E+03,-7934,-39,-606,-336,310,106,1,7,11
3.65E+03,-7936,-24,-604,-356,303,-88,1,7,11
3.65E+03,-7930,-30,-603,-142,286,-22,1,7,11
3.65E+03,-7921,-48,-605,-181,273,276,1,7,11
3.66E+03,-8202,-90,-592,-230,272,277,1,7,11
3.66E+03,-8207,-120,-594,-245,262,-4,1,7,11
3.66E+03,-8209,-121,-609,-233,272,-73,1,7,11
3.66E+03,-8230,-122,-624,-239,295,111,1,7,11
3.66E+03,-8236,-127,-640,-241,302,46,1,7,11
3.66E+03,-8253,-123,-402,-250,315,-266,1,7,11
3.66E+03,-8271,120,-413,-535,307,-311,1,7,11
3.66E+03,-8262,115,-431,-539,293,-342,1,7,11
3.66E+03,-8267,-125,-441,-547,290,-343,1,7,11
3.66E+03,-8268,115,-443,-561,276,-324,1,7,11
3.66E+03,-8261,98,-444,-550,-2,-295,1,7,11
3.66E+03,-8234,75,-451,-527,-27,-265,1,7,11
3.66E+03,-8197,47,-451,-245,-45,9,1,7,11
3.66E+03,-7927,30,-437,-202,-52,22,1,7,11
3.66E+03,-7927,22,-431,-152,-66,30,1,7,11
3.66E+03,-7917,17,-427,-352,-95,48,1,7,11
3.66E+03,-7903,22,-412,-294,-114,74,1,7,11
3.66E+03,-7863,22,-408,30,-121,124,1,7,11
3.66E+03,-7856,19,-407,57,-112,-111,1,7,11
3.66E+03,-7853,17,-400,80,-94,-101,1,7,11
3.66E+03,-7868,22,-387,101,-74,-95,1,7,11
3.66E+03,-7895,33,-385,113,-59,-85,1,7,11
3.66E+03,-8208,56,-633,102,-53,-73,1,7,11
3.66E+03,-8222,81,-621,80,-73,-52,1,7,11
3.66E+03,-8228,89,-617,37,-86,-26,1,7,11
3.66E+03,-8223,82,-617,-261,-93,257,1,7,11
3.66E+03,-8223,80,-626,-297,-89,268,1,7,11
3.66E+03,-8226,104,-632,-334,-80,272,1,7,11
3.66E+03,-8237,-123,-634,-369,-56,288,1,7,11
3.66E+03,-8253,-106,-640,-155,-37,326,1,7,11
3.66E+03,-8262,-103,-639,-193,-27,375,1,7,11
3.66E+03,-8251,-95,-403,-209,-31,162,1,7,11
3.66E+03,-8229,-61,-415,-217,-35,201,1,7,11
3.66E+03,-8217,-49,-422,-240,-37,226,1,7,11
3.66E+03,-8212,-36,-424,-244,-37,238,1,7,11
3.66E+03,-8203,-15,-427,-229,-50,248,1,7,11
3.66E+03,-8202,-5,-428,-211,-73,255,1,7,11
3.66E+03,-8204,-11,-428,-181,-98,517,1,7,11
3.66E+03,-8195,-4,-430,-130,-118,252,1,7,11
3.66E+03,-8201,264,-428,-334,124,242,1,7,11
3.67E+03,-7932,282,-428,-287,106,243,1,7,11
3.67E+03,-8195,309,-438,11,108,236,1,7,11
3.67E+03,-8206,349,-439,35,110,241,1,7,11
3.67E+03,-8193,382,-434,42,118,247,1,7,11
3.67E+03,-8204,156,-440,41,-119,246,1,7,11
3.67E+03,-8196,179,-435,33,-103,241,1,7,11
3.67E+03,-7935,211,-442,20,-75,229,1,7,11
3.67E+03,-8195,265,-445,-277,-45,227,1,7,11
3.67E+03,-7917,526,-444,-338,-26,236,1,7,11
3.67E+03,-7933,534,-452,-133,258,234,1,7,11
3.67E+03,-7932,545,-455,-176,274,215,1,7,11
3.67E+03,-7917,552,-462,-222,283,170,1,7,11
3.67E+03,-7924,550,-459,-255,298,139,1,7,11
3.67E+03,-7933,562,-452,-541,305,368,1,7,11
3.67E+03,-7927,578,-449,-610,304,358,1,7,11
3.67E+03,-7913,579,-457,-415,316,370,1,7,11
3.67E+03,-7889,594,-468,-447,347,377,1,7,11
3.67E+03,-7882,609,-474,-478,139,382,1,7,11
3.67E+03,-7886,630,-485,-509,185,380,1,7,11
3.67E+03,-7889,635,-488,-798,214,375,1,7,11
3.67E+03,-7920,387,-483,-818,229,357,1,7,11
3.67E+03,-8202,386,-470,-821,205,342,1,7,11
3.67E+03,-8197,388,-488,-809,155,323,1,7,11
3.67E+03,-8195,401,-506,-791,367,295,1,7,11
3.67E+03,-8212,416,-774,-778,331,265,1,7,11
3.67E+03,-8212,417,-778,-505,291,-17,1,7,11
3.67E+03,-8220,423,-777,-467,256,-41,1,7,11
3.67E+03,-8197,427,-771,-429,-44,-66,1,7,11
3.67E+03,-8208,430,-506,-399,-76,-87,1,7,11
3.67E+03,-8212,421,-499,-631,-118,-97,1,7,11
3.67E+03,-8199,416,-486,-558,88,-121,1,7,11
3.67E+03,-7924,424,-493,-248,61,118,1,7,11
3.67E+03,-7917,443,-492,-201,62,102,1,7,11
3.67E+03,-7917,453,-484,-170,75,101,1,7,11
3.67E+03,-7910,463,-483,-144,83,111,1,7,11
3.67E+03,-7902,462,-469,-371,91,125,1,7,11
3.67E+03,-7896,458,-455,-337,104,-115,1,7,11
3.67E+03,-7885,460,-457,-301,113,-106,1,7,11
3.67E+03,-7880,475,-456,-268,127,-104,1,7,11
3.67E+03,-7876,479,-448,9,-117,-113,1,7,11
3.68E+03,-7869,496,-447,36,-109,-119,1,7,11
3.68E+03,-7862,504,-449,40,-92,-125,1,7,11
3.68E+03,-7863,768,-451,36,-69,119,1,7,11
3.68E+03,-7875,787,-458,17,-53,104,1,7,11
3.68E+03,-7885,799,-455,-275,-39,98,1,7,11
3.68E+03,-7881,803,-456,-302,-30,98,1,7,11
3.68E+03,-7884,804,-470,-327,-14,101,1,7,11
3.68E+03,-7900,795,-471,-355,261,106,1,7,11
3.68E+03,-7911,773,-481,-363,267,109,1,7,11
3.68E+03,-7914,507,-485,-352,265,103,1,7,11
3.68E+03,-7919,502,-492,-339,267,94,1,7,11
3.68E+03,-7915,495,-494,-333,259,95,1,7,11
3.68E+03,-7904,482,-500,-328,-5,94,1,7,11
3.68E+03,-7902,474,-501,-315,-10,88,1,7,11
3.68E+03,-7912,469,-774,-290,-14,80,1,7,11
3.68E+03,-7914,463,-510,-266,-25,76,1,7,11
3.68E+03,-7917,453,-508,14,-40,82,1,7,11
3.68E+03,-7928,454,-503,56,-68,71,1,7,11
3.68E+03,-8194,449,-506,92,-105,62,1,7,11
3.68E+03,-7928,462,-500,-117,115,57,1,7,11
3.68E+03,-7905,473,-504,-100,96,53,1,7,11
3.68E+03,-7890,477,-512,-87,99,50,1,7,11
3.68E+03,-7878,492,-777,-83,106,43,1,7,11
3.68E+03,-7875,502,-780,-99,120,38,1,7,11
3.68E+03,-7877,491,-771,-126,-124,34,1,7,11
3.68E+03,-7883,488,-509,100,-115,24,1,7,11
3.68E+03,-7890,494,-508,75,-115,13,1,7,11
3.68E+03,-7890,496,-508,44,-112,11,1,7,11
3.68E+03,-7890,496,-509,8,-101,18,1,7,11
3.68E+03,-7892,492,-511,-288,-93,28,1,7,11
3.68E+03,-7892,478,-769,-328,-80,37,1,7,11
3.68E+03,-7898,474,-498,-349,-62,49,1,7,11
3.68E+03,-7894,454,-494,-357,-44,58,1,7,11
3.68E+03,-7925,447,-486,-356,-30,59,1,7,11
3.68E+03,-7922,430,-476,-352,-44,60,1,7,11
3.68E+03,-7920,428,-478,-330,-55,48,1,7,11
3.68E+03,-7916,433,-484,-308,-63,41,1,7,11
3.68E+03,-7918,432,-492,-295,-74,40,1,7,11
3.68E+03,-7910,443,-491,-281,-78,50,1,7,11
3.68E+03,-7910,445,-485,-277,-72,72,1,7,11
3.69E+03,-7904,430,-480,-282,-64,99,1,7,11
3.69E+03,-7911,438,-487,-278,-58,115,1,7,11
3.69E+03,-7911,456,-490,-285,-64,-128,1,7,11
3.69E+03,-7905,461,-505,-301,-69,-124,1,7,11
3.69E+03,-7900,468,-775,-320,-68,-122,1,7,11
3.69E+03,-7891,456,-775,-337,-63,-125,1,7,11
3.69E+03,-7898,453,-770,-338,-59,122,1,7,11
3.69E+03,-7902,452,-772,-327,-59,116,1,7,11
3.69E+03,-7899,451,-512,-313,-58,108,1,7,11
3.69E+03,-7903,445,-778,-306,-59,100,1,7,11
3.69E+03,-7899,456,-780,-292,-66,87,1,7,11
3.69E+03,-7903,467,-774,-279,-65,69,1,7,11
3.69E+03,-7909,477,-769,-271,-63,67,1,7,11
3.69E+03,-7909,482,-769,-267,-60,67,1,7,11
3.69E+03,-7913,483,-771,-275,-60,70,1,7,11
3.69E+03,-7907,487,-510,-286,-64,70,1,7,11
3.69E+03,-7908,490,-769,-293,-62,68,1,7,11
3.69E+03,-7897,481,-511,-295,-63,71,1,7,11
3.69E+03,-7893,475,-508,-287,-58,67,1,7,11
3.69E+03,-7896,474,-774,-268,-58,63,1,7,11
3.69E+03,-7877,462,-774,-259,-57,66,1,7,11
3.69E+03,-7873,438,-784,17,-39,65,1,7,11
3.69E+03,-7899,433,-777,83,-29,46,1,7,11
3.69E+03,-7914,448,-771,-128,-37,20,1,7,11
3.69E+03,-7927,452,-773,-121,-60,23,1,7,11
3.69E+03,-7918,469,-775,-126,-85,49,1,7,11
3.69E+03,-7891,469,-785,104,-89,84,1,7,11
3.69E+03,-7891,469,-776,81,-73,116,1,7,11
3.69E+03,-7888,469,-773,71,-63,-120,1,7,11
3.69E+03,-7879,470,-776,62,-62,-116,1,7,11
3.69E+03,-7874,477,-775,56,-60,127,1,7,11
3.69E+03,-7887,489,-769,51,-60,98,1,7,11
3.69E+03,-7901,493,-775,30,-68,93,1,7,11
3.69E+03,-7897,477,-785,6,-79,91,1,7,11
3.69E+03,-7901,460,-786,3,-66,66,1,7,11
3.69E+03,-7917,445,-799,13,-58,60,1,7,11
3.69E+03,-7902,443,-801,43,-69,43,1,7,11
3.69E+03,-8196,415,-781,47,-74,0,1,7,11
3.69E+03,-8203,391,-779,69,113,-317,1,7,11
3.69E+03,-7905,400,-797,113,49,-145,1,7,11
3.70E+03,-7913,411,-808,-118,44,-199,1,7,11
3.70E+03,-7907,413,-800,-109,39,-211,1,7,11
3.70E+03,-7922,405,-778,-88,45,-194,1,7,11
3.70E+03,-7919,433,-777,-62,52,-383,1,7,11
3.70E+03,-7906,452,-510,-64,71,-283,1,7,11
3.70E+03,-7914,454,-495,-95,107,86,1,7,11
3.70E+03,-7920,486,-473,107,120,-50,1,7,11
3.70E+03,-7931,779,-457,-276,100,341,1,7,11
3.70E+03,-8211,812,-443,-198,54,222,1,7,11
3.70E+03,-8216,862,-446,-596,-297,595,1,7,11
3.70E+03,-7894,881,-467,-436,-372,434,1,7,11
3.70E+03,-7820,841,-478,-471,-333,477,1,7,11
3.70E+03,-8041,795,-456,-401,50,457,1,7,11
3.70E+03,-8040,777,-422,-519,-61,392,1,7,11
3.70E+03,-7816,791,-404,-369,318,582,1,7,11
3.70E+03,-7856,820,-640,-260,144,542,1,7,11
3.70E+03,-7846,838,-637,84,210,533,1,7,11
3.70E+03,-7827,873,-387,-79,544,523,1,7,11
3.70E+03,-8039,887,-396,-2,634,528,1,7,11
3.70E+03,-8019,870,-396,328,506,524,1,7,11
3.70E+03,-7970,852,-413,172,883,246,1,7,11
3.70E+03,-7659,812,-441,555,1050,206,1,7,11
3.70E+03,-7620,504,-459,771,1290,132,1,7,11
3.70E+03,-7631,487,-448,1055,1562,263,1,7,11
3.70E+03,-7652,499,-448,1386,1813,90,1,7,11
3.70E+03,-7676,769,-493,1425,1747,-341,1,7,11
3.70E+03,-7657,862,-846,1680,2146,-250,1,7,11
3.70E+03,-7600,752,-813,2066,2000,-613,1,7,11
3.70E+03,-7656,732,-958,1687,2391,-428,1,7,11
3.70E+03,-7623,749,-1388,1818,2216,-492,1,7,11
3.70E+03,-7952,751,-1252,1595,2281,-880,1,7,11
3.70E+03,-8058,757,-1622,1315,2257,-710,1,7,11
3.70E+03,-7842,721,-1464,701,2410,-677,1,7,11
3.70E+03,-7867,672,-1794,607,2173,-883,1,7,11
3.70E+03,-7846,839,-1860,274,2073,-823,1,7,11
3.70E+03,-8061,768,-1682,2,1740,-502,1,7,11
3.70E+03,-8038,462,-1727,-193,1536,-448,1,7,11
3.70E+03,-8041,405,-1762,-614,1181,-431,1,7,11
3.70E+03,-8026,612,-1776,-772,966,-640,1,7,11
3.70E+03,-7980,582,-2071,-875,663,-620,1,7,11
3.71E+03,-7664,553,-2086,-688,795,-608,1,7,11
3.71E+03,-7655,255,-2075,-775,477,-590,1,7,11
3.71E+03,-7650,212,-2068,-752,411,-554,1,7,11
3.71E+03,-7628,178,-2066,-680,609,-249,1,7,11
3.71E+03,-7605,141,-1788,-861,571,-196,1,7,11
3.71E+03,-7593,353,-2052,-780,528,-164,1,7,11
3.71E+03,-7568,328,-2050,-437,241,-170,1,7,11
3.71E+03,-7803,336,-2073,-608,238,-187,1,7,11
3.71E+03,-7756,333,-2098,-549,247,-227,1,7,11
3.71E+03,-7773,376,-2118,-213,527,-579,1,7,11
3.71E+03,-7788,133,-2142,-195,255,-385,1,7,11
3.71E+03,-7769,383,-2156,-214,253,-409,1,7,11
3.71E+03,-7780,134,-1936,-228,522,-428,1,7,11
3.71E+03,-7774,132,-1964,-514,530,-442,1,7,11
3.71E+03,-7754,141,-2011,-534,534,-431,1,7,11
3.71E+03,-7768,361,-2025,-597,558,-426,1,7,11
3.71E+03,-7561,320,-2022,-389,550,-407,1,7,11
3.71E+03,-7569,272,-2031,-413,215,-398,1,7,11
3.71E+03,-7798,257,-2320,-627,133,-412,1,7,11
3.71E+03,-7764,275,-2342,-553,356,-434,1,7,11
3.71E+03,-7785,258,-2339,-254,352,-459,1,7,11
3.71E+03,-7749,-21,-2348,-190,349,-472,1,7,11
3.71E+03,-7740,-36,-2347,-134,373,-778,1,7,11
3.71E+03,-7720,-80,-2343,-354,136,-865,1,7,11
3.71E+03,-7718,-92,-2346,-272,186,-647,1,7,11
3.71E+03,-7720,-107,-2357,52,236,-660,1,7,11
3.71E+03,-7706,122,-2356,-124,537,-669,1,7,11
3.71E+03,-7720,122,-2360,-31,584,-683,1,7,11
3.71E+03,-7735,118,-2374,278,601,-670,1,7,11
3.71E+03,-7728,104,-2390,298,602,-896,1,7,11
3.71E+03,-7719,88,-2398,274,606,-871,1,7,11
3.71E+03,-7741,52,-2402,-22,611,-841,1,7,11
3.71E+03,-7749,30,-2405,-56,573,-813,1,7,11
3.71E+03,-7740,-257,-2417,-107,517,-790,1,7,11
3.71E+03,-7741,-297,-2417,89,214,-507,1,7,11
3.71E+03,-7751,-324,-2429,59,151,-505,1,7,11
3.71E+03,-7729,-349,-2187,32,320,-512,1,7,11
3.71E+03,-7737,-378,-2182,-266,269,-789,1,7,11
3.71E+03,-7774,-133,-2184,-313,-62,-835,1,7,11
3.71E+03,-7786,-132,-2431,-361,91,-881,1,7,11
3.72E+03,-7778,-169,-2426,-140,1,-649,1,7,11
3.72E+03,-7769,-208,-2412,-381,-307,-656,1,7,11
3.72E+03,-7736,-222,-2418,-324,-337,-881,1,7,11
3.72E+03,-7710,-514,-2412,-306,-321,-803,1,7,11
3.72E+03,-7693,-560,-2390,-291,-278,-449,1,7,11
3.72E+03,-7690,-598,-2370,-262,24,-612,1,7,11
3.72E+03,-7689,-607,-2360,60,55,-529,1,7,11
3.72E+03,-7420,-589,-2362,127,85,-196,1,7,11
3.72E+03,-7682,-558,-2368,-60,-127,-372,1,7,11
3.72E+03,-7423,-541,-2374,-20,-101,-277,1,7,11
3.72E+03,-7691,-521,-2362,262,-70,60,1,7,11
3.72E+03,-7692,-514,-2361,264,-75,-120,1,7,11
3.72E+03,-7695,-233,-2377,-2,-85,-75,1,7,11
3.72E+03,-7714,-197,-2376,-48,-103,-51,1,7,11
3.72E+03,-7730,-146,-2378,-116,95,-54,1,7,11
3.72E+03,-7804,-259,-2395,35,-297,-65,1,7,11
3.72E+03,-7573,24,-2406,-273,-166,-31,1,7,11
3.72E+03,-7575,14,-2397,-440,-538,-11,1,7,11
3.72E+03,-7581,-272,-2388,-798,-623,-35,1,7,11
3.72E+03,-7579,-319,-2379,-826,-422,-68,1,7,11
3.72E+03,-7791,-332,-2343,-779,-448,126,1,7,11
3.72E+03,-7786,-349,-2311,-471,-440,64,1,7,11
3.72E+03,-7782,-130,-2005,-415,-419,57,1,7,11
3.72E+03,-7739,-183,-1963,-587,-633,20,1,7,11
3.72E+03,-7763,-197,-1921,-229,-575,-286,1,7,11
3.72E+03,-7748,-213,-2149,-140,-545,-304,1,7,11
3.72E+03,-7742,-221,-2127,-307,-240,-323,1,7,11
3.72E+03,-7751,-223,-2108,24,-184,-336,1,7,11
3.72E+03,-7768,-222,-2091,90,-132,-326,1,7,11
3.72E+03,-7786,-217,-2073,-122,-342,-288,1,7,11
3.72E+03,-7806,-189,-2063,-103,-315,21,1,7,11
3.72E+03,-7572,-181,-2053,-125,-315,87,1,7,11
3.72E+03,-7575,-178,-2049,115,-319,-110,1,7,11
3.72E+03,-7586,-182,-1786,90,-337,-69,1,7,11
3.72E+03,-7570,-165,-2050,92,-352,-34,1,7,11
3.72E+03,-7566,-142,-2049,100,-333,-23,1,7,11
3.72E+03,-7805,-133,-2050,120,-290,-15,1,7,11
3.72E+03,-7560,-132,-1786,-121,25,-19,1,7,11
3.72E+03,-7806,-132,-1779,-111,70,-29,1,7,11
3.72E+03,-7558,-131,-1769,-106,116,-56,1,7,11
3.73E+03,-7596,-168,-1749,125,126,-82,1,7,11
3.73E+03,-7580,-343,-1763,-88,118,-99,1,7,11
3.73E+03,-7595,-350,-1764,-113,116,-74,1,7,11
3.73E+03,-7604,-361,-1758,-110,127,7,1,7,11
3.73E+03,-7592,-376,-1752,-97,120,294,1,7,11
3.73E+03,-7573,-374,-1750,-64,-126,298,1,7,11
3.73E+03,-7573,-384,-1740,-38,-94,272,1,7,11
3.73E+03,-7609,-384,-1735,-25,-103,-18,1,7,11
3.73E+03,-7608,-360,-1732,-12,114,-67,1,7,11
3.73E+03,-7605,-326,-1740,-20,86,-122,1,7,11
3.73E+03,-7621,-308,-1744,-60,69,98,1,7,11
3.73E+03,-7605,-310,-1738,-106,43,86,1,7,11
3.73E+03,-7582,-323,-1733,96,45,53,1,7,11
3.73E+03,-7597,-345,-1709,46,66,15,1,7,11
3.73E+03,-7592,-149,-1705,73,66,-277,1,7,11
3.73E+03,-7577,-182,-1697,-55,101,-369,1,7,11
3.73E+03,-7610,-195,-1666,281,-109,-217,1,7,11
3.73E+03,-7674,-254,-1903,266,120,-229,1,7,11
3.73E+03,-7958,-539,-1690,283,6,-190,1,7,11
3.73E+03,-7668,-558,-1759,285,-363,-155,1,7,11
3.73E+03,-7630,-587,-2066,-13,-150,-367,1,7,11
3.73E+03,-7597,-388,-2114,-96,-151,-336,1,7,11
3.73E+03,-7585,-432,-2112,101,-382,-324,1,7,11
3.73E+03,-7596,-446,-2111,61,-355,-312,1,7,11
3.73E+03,-7629,-467,-2092,12,-353,-266,1,7,11
3.73E+03,-7620,-467,-2095,7,-369,53,1,7,11
3.73E+03,-7605,-459,-2097,30,-362,106,1,7,11
3.73E+03,-7605,-461,-2086,58,-330,-100,1,7,11
3.73E+03,-7626,-445,-2067,107,-308,-53,1,7,11
3.73E+03,-7662,-389,-1766,-78,-306,-15,1,7,11
3.73E+03,-7679,-629,-1750,-18,-359,279,1,7,11
3.73E+03,-7957,-580,-1721,292,-172,276,1,7,11
3.73E+03,-8012,-553,-1700,347,-555,-12,1,7,11
3.73E+03,-8061,-225,-1752,221,-491,-48,1,7,11
3.73E+03,-7849,-131,-2084,533,-730,-98,1,7,11
3.73E+03,-7850,-308,-2143,253,-967,108,1,7,11
3.73E+03,-7859,6,-2142,167,-1180,38,1,7,11
3.73E+03,-7853,58,-2112,300,-1636,-296,1,7,11
3.73E+03,-7830,79,-1788,-128,-1818,-377,1,7,11
3.73E+03,-7810,78,-1689,-302,-1702,-183,1,7,11
3.74E+03,-8029,39,-1845,-231,-2067,-234,1,7,11
3.74E+03,-7976,-278,-1480,-404,-2131,-539,1,7,11
3.74E+03,-7942,-325,-1629,-799,-2139,-604,1,7,11
3.74E+03,-7664,-369,-1544,-663,-2104,-418,1,7,11
3.74E+03,-7659,-166,-1193,-1037,-1788,-469,1,7,11
3.74E+03,-7670,-226,-1353,-1138,-1719,-504,1,7,11
3.74E+03,-7959,-544,-985,-958,-1915,-783,1,7,11
3.74E+03,-7998,-603,-1146,-1007,-1866,-779,1,7,11
3.74E+03,-8044,-418,-1044,-1282,-1830,-504,1,7,11
3.74E+03,-7812,-475,-712,-1001,-1816,-474,1,7,11
3.74E+03,-7840,-508,-643,-987,-1804,-419,1,7,11
3.74E+03,-7877,-793,-812,-1000,-1797,-591,1,7,11
3.74E+03,-7871,-823,-782,-967,-1530,-251,1,7,11
3.74E+03,-7852,-846,-471,-1152,-1465,-205,1,7,11
3.74E+03,-7861,-647,-408,-1064,-1589,-208,1,7,11
3.74E+03,-7908,-641,-602,-722,-1245,-217,1,7,11
3.74E+03,-7928,-642,-536,-660,-1208,-216,1,7,11
3.74E+03,-8199,-689,-208,-883,-1183,-196,1,7,11
3.74E+03,-8211,-731,-141,-822,-1163,-183,1,7,11
3.74E+03,-8216,-766,-318,-497,-1172,-203,1,7,11
3.74E+03,-8234,-1048,20,-407,-1212,-230,1,7,11
3.74E+03,-8231,-1042,97,-608,-1238,-245,1,7,11
3.74E+03,-8256,-1028,-87,-516,-1244,-241,1,7,11
3.74E+03,-8259,-761,-23,-211,-1250,-202,1,7,11
3.74E+03,-8222,-751,275,-185,-1252,-163,1,7,11
3.74E+03,-8204,-744,297,-168,-1206,-143,1,7,11
3.74E+03,-7932,-1029,337,-175,-1389,-148,1,7,11
3.74E+03,-8194,-1048,376,-143,-1286,-190,1,7,11
3.74E+03,-8193,-749,150,-314,-928,-247,1,7,11
3.74E+03,-8232,-673,194,-243,-1054,-545,1,7,11
3.74E+03,-8284,-835,232,67,-687,-517,1,7,11
3.74E+03,-8297,-503,526,95,-850,-185,1,7,11
3.74E+03,-8308,-444,545,100,-500,-332,1,7,11
3.74E+03,-8295,-402,569,91,-424,38,1,7,11
3.74E+03,-8262,-627,578,79,-622,108,1,7,11
3.74E+03,-8216,-608,583,55,-558,120,1,7,11
3.74E+03,-8196,-579,594,21,-234,64,1,7,11
3.74E+03,-8206,-601,612,-304,-172,-314,1,7,11
3.74E+03,-8193,-600,610,-319,-145,-207,1,7,11
3.74E+03,-8209,-600,619,-361,-337,-618,1,7,11
3.75E+03,-8243,-634,639,-167,-283,-458,1,7,11
3.75E+03,-8244,-432,395,-219,-269,-798,1,7,11
3.75E+03,-8251,-482,397,-515,0,-868,1,7,11
3.75E+03,-8256,-795,395,-544,13,-664,1,7,11
3.75E+03,-8280,-825,390,-549,32,-691,1,7,11
3.75E+03,-8288,-847,632,-555,43,-677,1,7,11
3.75E+03,-8314,-869,627,-557,64,-880,1,7,11
3.75E+03,-8071,-881,624,-542,80,-785,1,7,11
3.75E+03,-8072,-877,627,-521,103,-416,1,7,11
3.75E+03,-8091,-852,616,-255,-124,-555,1,7,11
3.75E+03,-8101,-856,627,-526,-114,-183,1,7,11
3.75E+03,-8105,-876,407,-544,-120,-337,1,7,11
3.75E+03,-8108,-646,443,-559,106,1,1,7,11
3.75E+03,-8103,-685,483,-558,49,60,1,7,11
3.75E+03,-8098,-714,511,-525,-277,95,1,7,11
3.75E+03,-8083,-729,783,-215,-357,113,1,7,11
3.75E+03,-8318,-730,784,-169,-166,127,1,7,11
3.75E+03,-8294,-727,788,-135,-210,-105,1,7,11
3.75E+03,-8275,-737,782,-376,-231,-81,1,7,11
3.75E+03,-8257,-1029,798,-379,-230,-57,1,7,11
3.75E+03,-8242,-1063,806,-369,-212,-34,1,7,11
3.75E+03,-8253,-1074,815,-354,-176,-12,1,7,11
3.75E+03,-8245,-1062,808,-330,-131,271,1,7,11
3.75E+03,-8256,-1038,799,-324,-316,302,1,7,11
3.75E+03,-8255,-1033,787,-338,10,347,1,7,11
3.75E+03,-8248,-1038,777,-362,87,378,1,7,11
3.75E+03,-8248,-1043,769,-373,-90,136,1,7,11
3.75E+03,-8244,-1058,771,-382,-24,136,1,7,11
3.75E+03,-8251,-1073,500,-379,293,378,1,7,11
3.75E+03,-8290,-1110,497,-366,338,358,1,7,11
3.75E+03,-8298,-1136,494,-341,351,354,1,7,11
3.75E+03,-8318,-900,476,-301,356,352,1,7,11
3.75E+03,-8297,-919,456,1,347,373,1,7,11
3.75E+03,-8299,-946,437,59,344,176,1,7,11
3.75E+03,-8085,-956,431,-117,366,244,1,7,11
3.75E+03,-8115,-966,428,-16,372,599,1,7,11
3.75E+03,-8139,-976,410,348,368,462,1,7,11
3.75E+03,-8142,-979,396,246,356,859,1,7,11
3.75E+03,-8109,-990,639,548,346,762,1,7,11
3.75E+03,-8296,-1020,629,387,346,908,1,7,11
3.76E+03,-8234,-1297,622,509,136,1303,1,7,11
3.76E+03,-7914,-1018,610,681,206,1160,1,7,11
3.76E+03,-7865,-951,590,967,541,1245,1,7,11
3.76E+03,-7862,-1125,569,1389,613,1540,1,7,11
3.76E+03,-7876,-751,536,1265,385,1273,1,7,11
3.76E+03,-7912,-817,227,1621,385,1186,1,7,11
3.76E+03,-8212,-606,168,1641,635,1306,1,7,11
3.76E+03,-8284,-167,144,1571,626,1132,1,7,11
3.76E+03,-8121,-264,383,1195,581,667,1,7,11
3.76E+03,-8166,90,375,1320,253,391,1,7,11
3.76E+03,-8491,-88,382,955,181,340,1,7,11
3.76E+03,-8547,-49,381,1085,338,69,1,7,11
3.76E+03,-8541,-77,133,696,-29,-158,1,7,11
3.76E+03,-8537,110,153,816,-95,-621,1,7,11
3.76E+03,-8493,-260,201,425,65,-779,1,7,11
3.76E+03,-8136,-297,227,591,18,-665,1,7,11
3.76E+03,-8162,-322,520,174,21,-679,1,7,11
3.76E+03,-8078,-154,562,-24,3,-810,1,7,11
3.76E+03,-8306,-216,595,92,33,-398,1,7,11
3.76E+03,-8235,-578,618,-298,39,-175,1,7,11
3.76E+03,-8213,-492,396,-133,104,17,1,7,11
3.76E+03,-7876,-787,402,-378,-94,-61,1,7,11
3.76E+03,-7869,-504,618,-146,262,317,1,7,11
3.76E+03,-7833,-430,580,-201,349,209,1,7,11
3.76E+03,-7837,-573,536,-534,209,252,1,7,11
3.76E+03,-7935,-177,251,-411,559,516,1,7,11
3.76E+03,-8237,-308,221,-865,546,221,1,7,11
3.76E+03,-8081,96,189,-1084,245,368,1,7,11
3.76E+03,-8173,-57,150,-1331,147,-37,1,7,11
3.76E+03,-8504,-56,367,-1590,269,16,1,7,11
3.76E+03,-8519,-77,370,-1801,-120,-197,1,7,11
3.76E+03,-8481,-101,380,-1727,18,-429,1,7,11
3.76E+03,-8469,78,375,-2158,-329,-775,1,7,11
3.76E+03,-8449,-130,162,-2090,-367,-791,1,7,11
3.76E+03,-8169,-198,184,-2362,-347,-798,1,7,11
3.76E+03,-8158,-586,220,-2321,-331,-774,1,7,11
3.76E+03,-8103,-434,254,-1952,-313,-467,1,7,11
3.76E+03,-8282,-488,527,-2052,-288,-401,1,7,11
3.76E+03,-8196,-775,529,-1872,21,-577,1,7,11
3.76E+03,-7909,-774,535,-1426,97,-231,1,7,11
3.77E+03,-7906,-507,526,-1254,-78,-138,1,7,11
3.77E+03,-8195,-771,517,-1344,-6,-317,1,7,11
3.77E+03,-7911,-771,522,-908,279,-278,1,7,11
3.77E+03,-7868,-486,248,-722,332,-300,1,7,11
3.77E+03,-7897,-403,219,-809,143,-338,1,7,11
3.77E+03,-8195,-601,197,-453,175,-373,1,7,11
3.77E+03,-8229,-563,164,-638,193,-149,1,7,11
3.77E+03,-8216,-243,141,-583,195,-182,1,7,11
3.77E+03,-8255,-186,366,-555,214,-212,1,7,11
3.77E+03,-8316,-173,353,-552,200,-195,1,7,11
3.77E+03,-8108,-199,353,-557,173,-181,1,7,11
3.77E+03,-8186,-223,352,-563,152,-143,1,7,11
3.77E+03,-8464,-242,336,-577,372,-334,1,7,11
3.77E+03,-8462,-250,332,-586,349,-257,1,7,11
3.77E+03,-8136,-256,320,-595,328,90,1,7,11
3.77E+03,-8076,-243,305,-603,355,-94,1,7,11
3.77E+03,-8290,-229,297,-617,130,-15,1,7,11
3.77E+03,-8268,-236,290,-631,164,312,1,7,11
3.77E+03,-8263,-217,290,-627,173,373,1,7,11
3.77E+03,-8302,-217,285,-616,163,150,1,7,11
3.77E+03,-8307,-202,300,-585,374,193,1,7,11
3.77E+03,-8079,-231,337,-538,305,215,1,7,11
3.77E+03,-8072,-541,363,-197,-7,235,1,7,11
3.77E+03,-8287,-571,135,-295,-40,238,1,7,11
3.77E+03,-7935,-513,130,-74,-15,515,1,7,11
3.77E+03,-8074,-214,129,359,365,557,1,7,11
3.77E+03,-8271,-242,143,254,345,438,1,7,11
3.77E+03,-8256,-253,378,468,380,448,1,7,11
3.77E+03,-8268,-205,358,664,191,498,1,7,11
3.77E+03,-8256,-199,306,1091,516,802,1,7,11
3.77E+03,-8272,-169,258,1006,606,858,1,7,11
3.77E+03,-8292,-156,-36,1156,422,678,1,7,11
3.77E+03,-8285,-359,-55,1563,471,1036,1,7,11
3.77E+03,-8280,-340,-65,1410,489,1143,1,7,11
3.77E+03,-8287,-328,-78,1518,477,948,1,7,11
3.77E+03,-8090,-306,-96,1882,435,957,1,7,11
3.77E+03,-8159,22,-100,1734,593,898,1,7,11
3.77E+03,-8469,124,127,2048,166,1033,1,7,11
3.77E+03,-8467,334,97,1789,-28,670,1,7,11
3.77E+03,-8460,137,89,1685,69,860,1,7,11
3.78E+03,-8156,143,117,1506,-308,824,1,7,11
3.78E+03,-8140,154,-107,1616,-377,782,1,7,11
3.78E+03,-8100,155,-67,1231,-169,432,1,7,11
3.78E+03,-8306,189,-46,1380,-187,608,1,7,11
3.78E+03,-8281,239,-60,1288,-142,523,1,7,11
3.78E+03,-8261,244,-47,1131,-330,203,1,7,11
3.78E+03,-8229,234,-28,882,8,144,1,7,11
3.78E+03,-7931,512,-18,492,94,338,1,7,11
3.78E+03,-7862,520,-8,619,-71,286,1,7,11
3.78E+03,-7851,248,264,233,299,-28,1,7,11
3.78E+03,-7853,233,-3,131,135,-88,1,7,11
3.78E+03,-7901,228,-12,291,218,95,1,7,11
3.78E+03,-8198,191,-9,-75,513,40,1,7,11
3.78E+03,-8213,146,-13,94,516,-297,1,7,11
3.78E+03,-8228,142,-32,24,236,-134,1,7,11
3.78E+03,-8237,140,-68,-323,197,-181,1,7,11
3.78E+03,-8237,363,-88,-171,179,-178,1,7,11
3.78E+03,-8252,318,-101,-246,177,-156,1,7,11
3.78E+03,-8255,267,-102,-538,163,-382,1,7,11
3.78E+03,-8250,-18,-107,-528,148,-372,1,7,11
3.78E+03,-8254,-43,-123,-234,144,-366,1,7,11
3.78E+03,-8252,-63,99,-178,172,-366,1,7,11
3.78E+03,-8289,-61,67,-367,232,-129,1,7,11
3.78E+03,-8089,-40,48,-312,550,-161,1,7,11
3.78E+03,-8145,-14,9,-279,575,-193,1,7,11
3.78E+03,-8120,-27,-287,-265,555,-234,1,7,11
3.78E+03,-8135,-49,-288,-259,558,-560,1,7,11
3.78E+03,-8122,-81,-288,-263,514,-622,1,7,11
3.78E+03,-8158,-113,-296,-269,221,-416,1,7,11
3.78E+03,-8126,-115,-317,-274,141,-430,1,7,11
3.78E+03,-8317,55,-331,-305,360,-424,1,7,11
3.78E+03,-8295,1,-326,-302,370,-406,1,7,11
3.78E+03,-8282,-301,-327,-276,381,-394,1,7,11
3.78E+03,-8283,-343,-331,23,381,-627,1,7,11
3.78E+03,-8281,-152,-335,47,130,-556,1,7,11
3.78E+03,-8273,-207,-340,72,147,-249,1,7,11
3.78E+03,-8243,-250,-338,-109,146,-238,1,7,11
3.78E+03,-8221,-243,-339,-58,145,-238,1,7,11
3.78E+03,-8243,-217,-339,-45,142,-225,1,7,11
3.78E+03,-8280,-192,-360,-54,372,-161,1,7,11
3.79E+03,-8269,-160,-366,-63,339,-318,1,7,11
3.79E+03,-8229,-168,-376,-83,332,32,1,7,11
3.79E+03,-8198,-196,-367,-99,352,96,1,7,11
3.79E+03,-8195,-190,-381,-90,371,101,1,7,11
3.79E+03,-8206,-172,-145,-107,372,84,1,7,11
3.79E+03,-8221,-155,-155,112,370,56,1,7,11
3.79E+03,-8252,-382,-168,67,358,17,1,7,11
3.79E+03,-8240,-359,-180,20,322,-303,1,7,11
3.79E+03,-8243,-318,-200,-310,260,-352,1,7,11
3.79E+03,-8247,29,-245,-210,-46,-155,1,7,11
3.79E+03,-8263,-107,-569,-403,-97,-238,1,7,11
3.79E+03,-8312,264,-604,-703,121,-617,1,7,11
3.79E+03,-8111,328,-612,-1347,48,-481,1,7,11
3.79E+03,-8122,355,-597,-1516,-308,-847,1,7,11
3.79E+03,-8170,316,-568,-1957,-152,-698,1,7,11
3.79E+03,-8159,-46,-547,-2605,-536,-1025,1,7,11
3.79E+03,-8123,76,-528,-2904,-396,-1089,1,7,11
3.79E+03,-8320,-333,-240,-3098,-469,-1138,1,7,11
3.79E+03,-8277,-243,-198,-3183,-509,-919,1,7,11
3.79E+03,-8246,-616,-147,-3122,-786,-931,1,7,11
3.79E+03,-8215,-477,-356,-2716,-801,-906,1,7,11
3.79E+03,-7931,-847,-298,-2491,-788,-1111,1,7,11
3.79E+03,-8195,-669,15,-2190,-510,-1057,1,7,11
3.79E+03,-8200,-719,70,-2105,-494,-742,1,7,11
3.79E+03,-8209,-749,-106,-1558,-458,-669,1,7,11
3.79E+03,-8220,-748,-81,-1380,-441,-894,1,7,11
3.79E+03,-8226,-736,-48,-1044,-410,-814,1,7,11
3.79E+03,-8239,-715,-14,-499,-617,-480,1,7,11
3.79E+03,-8247,-672,262,-243,-570,-397,1,7,11
3.79E+03,-8252,-872,266,-288,-254,-565,1,7,11
3.79E+03,-8267,-831,276,113,-173,-215,1,7,11
3.79E+03,-8293,-782,286,-33,-347,-370,1,7,11
3.79E+03,-8287,-470,259,302,-274,-278,1,7,11
3.79E+03,-8258,-434,-9,338,71,55,1,7,11
3.79E+03,-8245,-396,-26,352,-95,98,1,7,11
3.79E+03,-8236,-608,-48,344,-19,109,1,7,11
3.79E+03,-8262,-566,-56,310,296,91,1,7,11
3.79E+03,-8293,-545,-77,263,311,46,1,7,11
3.79E+03,-8320,-527,-102,-52,304,-273,1,7,11
3.79E+03,-8301,-239,-120,125,267,-326,1,7,11
3.80E+03,-8096,-536,-122,11,-15,-379,1,7,11
3.80E+03,-8301,-604,-114,-311,-108,-143,1,7,11
3.80E+03,-8291,-404,-107,-324,91,-246,1,7,11
3.80E+03,-8301,-447,-106,-322,53,-536,1,7,11
3.80E+03,-8287,-510,-99,-296,9,-554,1,7,11
3.80E+03,-8269,-772,-112,6,15,-526,1,7,11
3.80E+03,-8255,-508,-116,48,49,-244,1,7,11
3.80E+03,-8252,-471,-123,54,71,-201,1,7,11
3.80E+03,-8270,-442,121,35,126,-163,1,7,11
3.80E+03,-8303,-411,120,-293,-117,-369,1,7,11
3.80E+03,-8289,-389,101,-198,109,-317,1,7,11
3.80E+03,-8290,-411,98,-582,88,-277,1,7,11
3.80E+03,-8094,-472,-118,-433,70,24,1,7,11
3.80E+03,-8172,-649,-4,-497,4,90,1,7,11
3.80E+03,-8487,-951,133,-627,-343,-32,1,7,11
3.80E+03,-8159,-1232,215,91,-209,219,1,7,11
3.80E+03,-8251,-1645,182,833,-250,489,1,7,11
3.80E+03,-7905,-1442,137,1425,-134,1054,1,7,11
3.80E+03,-7881,-1410,343,2302,85,1179,1,7,11
3.80E+03,-7931,-1574,319,3394,346,1845,1,7,11
3.80E+03,-8250,-1164,297,4181,632,2041,1,7,11
3.80E+03,-8103,-934,266,4599,860,2482,1,7,11
3.80E+03,-8116,-659,-41,5090,659,3119,1,7,11
3.80E+03,-8316,-394,-126,5348,876,3071,1,7,11
3.80E+03,-8231,-331,39,5635,768,3028,1,7,11
3.80E+03,-7923,143,-351,5474,631,2714,1,7,11
3.80E+03,-8241,878,-185,4988,200,2246,1,7,11
3.80E+03,-8315,917,-182,4193,-33,1729,1,7,11
3.80E+03,-8108,1342,-375,3344,-329,1235,1,7,11
3.80E+03,-8297,1371,-282,2245,-630,1024,1,7,11
3.80E+03,-8239,1299,66,1496,-828,571,1,7,11
3.80E+03,-8286,921,-105,1116,-707,-106,1,7,11
3.80E+03,-8090,1041,258,596,-1062,-188,1,7,11
3.80E+03,-8114,886,328,-99,-1127,-403,1,7,11
3.80E+03,-8263,604,175,-206,-1131,-802,1,7,11
3.80E+03,-8227,252,213,-488,-1028,-673,1,7,11
3.80E+03,-7899,129,543,-681,-836,-760,1,7,11
3.80E+03,-7932,269,572,-1076,-616,-1062,1,7,11
3.80E+03,-7884,109,400,-1146,-206,-1063,1,7,11
3.80E+03,-7847,25,392,-1141,-281,-1095,1,7,11
3.81E+03,-7874,-260,634,-1149,-98,-1076,1,7,11
3.81E+03,-7864,-301,602,-928,308,-768,1,7,11
3.81E+03,-7839,-308,541,-964,172,-751,1,7,11
3.81E+03,-7835,-280,222,-1302,549,-745,1,7,11
3.81E+03,-7844,-307,170,-1198,402,-763,1,7,11
3.81E+03,-7925,-337,376,-1598,465,-1127,1,7,11
3.81E+03,-8199,-262,330,-1642,469,-1224,1,7,11
3.81E+03,-8244,60,292,-1871,461,-1645,1,7,11
3.81E+03,-8301,53,-2,-2043,393,-1458,1,7,11
3.81E+03,-8075,-283,-39,-2491,546,-1436,1,7,11
3.81E+03,-8089,-180,-59,-3429,211,-1636,1,7,11
3.81E+03,-8138,-575,-49,-3516,381,-1571,1,7,11
3.81E+03,-8174,-445,-52,-3781,256,-1207,1,7,11
3.81E+03,-8178,-881,-49,-4208,-116,-1347,1,7,11
3.81E+03,-8146,-1070,-45,-4158,61,-1019,1,7,11
3.81E+03,-8107,-959,-20,-3898,51,-1001,1,7,11
3.81E+03,-8120,-1313,278,-3289,91,-1008,1,7,11
3.81E+03,-8163,-1384,335,-3153,72,-1004,1,7,11
3.81E+03,-8119,-1314,317,-2477,-269,-971,1,7,11
3.81E+03,-8112,-1006,288,-2426,-322,-1144,1,7,11
3.81E+03,-8302,-1024,286,-1937,-344,-759,1,7,11
3.81E+03,-8248,-985,280,-1703,-322,-650,1,7,11
3.81E+03,-8194,-977,275,-1532,-296,-778,1,7,11
3.81E+03,-7906,-1002,289,-1601,26,-399,1,7,11
3.81E+03,-7863,-973,284,-1350,113,-553,1,7,11
3.81E+03,-8218,-1002,298,-916,-52,-219,1,7,11
3.81E+03,-8249,-1281,312,-714,-45,-371,1,7,11
3.81E+03,-8228,-931,272,-499,-52,-310,1,7,11
3.81E+03,-8291,-926,273,-415,-6,59,1,7,11
3.81E+03,-8303,-966,283,-559,262,-98,1,7,11
3.81E+03,-8075,-967,286,-133,274,-55,1,7,11
3.81E+03,-8120,-947,266,28,285,-4,1,7,11
3.81E+03,-8131,-916,264,-99,270,318,1,7,11
3.81E+03,-8119,-907,282,262,-11,134,1,7,11
3.81E+03,-8310,-906,286,360,-41,193,1,7,11
3.81E+03,-8269,-1148,297,224,-48,231,1,7,11
3.81E+03,-8245,-1142,303,601,-54,557,1,7,11
3.81E+03,-8259,-936,335,463,-27,433,1,7,11
3.81E+03,-8288,-992,376,659,268,895,1,7,11
3.81E+03,-8307,-1298,158,931,312,1142,1,7,11
3.82E+03,-8270,-1312,180,1270,375,1407,1,7,11
3.82E+03,-8253,-1318,170,1860,228,1659,1,7,11
3.82E+03,-8282,-1286,160,1924,602,1887,1,7,11
3.82E+03,-8294,-900,378,2216,401,2094,1,7,11
3.82E+03,-8304,-870,329,2679,420,2009,1,7,11
3.82E+03,-8281,-432,268,2509,417,2388,1,7,11
3.82E+03,-8233,-237,-32,2504,394,2185,1,7,11
3.82E+03,-8201,-290,-74,2458,613,2405,1,7,11
3.82E+03,-8198,-83,-120,2607,584,1935,1,7,11
3.82E+03,-7925,365,90,2184,542,1727,1,7,11
3.82E+03,-7909,531,46,2079,233,1494,1,7,11
3.82E+03,-7861,443,12,1835,201,1274,1,7,11
3.82E+03,-7817,852,-281,1597,209,1332,1,7,11
3.82E+03,-7811,711,-312,1375,524,926,1,7,11
3.82E+03,-7872,1073,-333,914,607,1067,1,7,11
3.82E+03,-8199,902,-330,706,401,731,1,7,11
3.82E+03,-8302,938,-313,510,419,653,1,7,11
3.82E+03,-8103,975,-300,599,625,845,1,7,11
3.82E+03,-8128,944,-285,156,562,471,1,7,11
3.82E+03,-8165,923,-274,275,240,569,1,7,11
3.82E+03,-8146,910,-290,-108,156,360,1,7,11
3.82E+03,-8130,907,-311,14,374,94,1,7,11
3.82E+03,-8097,902,-347,-157,357,-178,1,7,11
3.82E+03,-8300,896,-382,-633,370,-448,1,7,11
3.82E+03,-8220,1145,-168,-655,151,-709,1,7,11
3.82E+03,-7898,1108,-197,-991,209,-978,1,7,11
3.82E+03,-7878,1048,-194,-1622,517,-1246,1,7,11
3.82E+03,-7896,701,-184,-1761,543,-1498,1,7,11
3.82E+03,-7878,858,-181,-2372,517,-1704,1,7,11
3.82E+03,-7835,611,-168,-2448,224,-2119,1,7,11
3.82E+03,-8044,143,-163,-2731,207,-1980,1,7,11
3.82E+03,-8044,-57,-184,-3197,217,-2333,1,7,11
3.82E+03,-8043,27,-207,-3047,229,-2194,1,7,11
3.82E+03,-7825,-368,-236,-3071,535,-2221,1,7,11
3.82E+03,-7852,-235,-528,-3031,611,-2187,1,7,11
3.82E+03,-7849,-594,-571,-2948,432,-2358,1,7,11
3.82E+03,-7880,-410,-623,-3085,862,-2011,1,7,11
3.82E+03,-7928,-463,-409,-2697,711,-2147,1,7,11
3.82E+03,-8207,-790,-435,-2461,1043,-1768,1,7,11
3.82E+03,-8233,-847,-462,-2274,1085,-1890,1,7,11
3.83E+03,-8218,-891,-496,-2319,1069,-1503,1,7,11
3.83E+03,-7926,-684,-782,-2103,1026,-1646,1,7,11
3.83E+03,-7904,-722,-788,-1886,698,-1543,1,7,11
3.83E+03,-7867,-1034,-789,-1417,850,-1199,1,7,11
3.83E+03,-7902,-1099,-781,-1206,506,-1387,1,7,11
3.83E+03,-7930,-898,-507,-991,623,-1311,1,7,11
3.83E+03,-8196,-939,-481,-1026,213,-996,1,7,11
3.83E+03,-7934,-964,-458,-805,322,-927,1,7,11
3.83E+03,-7928,-964,-428,-599,-56,-1087,1,7,11
3.83E+03,-7908,-941,-419,-152,103,-681,1,7,11
3.83E+03,-7874,-905,-423,-268,54,-493,1,7,11
3.83E+03,-7866,-1128,-424,81,75,-526,1,7,11
3.83E+03,-7852,-1123,-422,121,-115,-282,1,7,11
3.83E+03,-7821,-900,-412,112,-18,-63,1,7,11
3.83E+03,-8051,-936,-404,114,351,339,1,7,11
3.83E+03,-8025,-938,-435,-123,200,155,1,7,11
3.83E+03,-8034,-941,-462,-125,577,164,1,7,11
3.83E+03,-7810,-943,-486,124,433,166,1,7,11
3.83E+03,-7830,-972,-771,93,778,374,1,7,11
3.83E+03,-7823,-988,-822,76,807,262,1,7,11
3.83E+03,-7812,-938,-660,65,824,106,1,7,11
3.83E+03,-7844,-1125,-702,18,846,23,1,7,11
3.83E+03,-7889,-1107,-1030,-332,872,31,1,7,11
3.83E+03,-7921,-1146,-1061,-147,666,81,1,7,11
3.83E+03,-7932,-903,-1093,-143,683,-97,1,7,11
3.83E+03,-8213,-957,-1107,-354,702,-6,1,7,11
3.83E+03,-8248,-1281,-1112,-267,710,336,1,7,11
3.83E+03,-8246,-1334,-1106,105,676,351,1,7,11
3.83E+03,-8210,-1344,-1093,260,647,290,1,7,11
3.83E+03,-8236,-1011,-1099,175,646,-40,1,7,11
3.83E+03,-8243,-945,-1091,548,865,-62,1,7,11
3.83E+03,-7935,-919,-1065,417,806,-81,1,7,11
3.83E+03,-7912,-1120,-1074,854,774,-113,1,7,11
3.83E+03,-7863,-1082,-1074,763,470,-89,1,7,11
3.83E+03,-8030,-1069,-1080,1109,444,-4,1,7,11
3.83E+03,-7983,-1082,-1072,1112,436,378,1,7,11
3.83E+03,-7656,-1077,-1086,909,445,211,1,7,11
3.83E+03,-7599,-1025,-1140,1020,786,242,1,7,11
3.83E+03,-7606,-740,-903,1325,673,250,1,7,11
3.83E+03,-7949,-733,-928,1359,754,210,1,7,11
3.84E+03,-7650,-891,-989,1159,740,368,1,7,11
3.84E+03,-7953,-769,-1304,1377,1029,267,1,7,11
3.84E+03,-8049,-465,-1353,1012,757,-71,1,7,11
3.84E+03,-8046,-633,-1403,937,683,65,1,7,11
3.84E+03,-7857,-531,-1183,1072,667,-287,1,7,11
3.84E+03,-7858,-171,-1213,640,891,-307,1,7,11
3.84E+03,-7881,-174,-1266,417,858,-290,1,7,11
3.84E+03,-7887,-572,-1271,222,802,9,1,7,11
3.84E+03,-7934,-585,-1545,202,436,-321,1,7,11
3.84E+03,-8270,-698,-1610,518,135,-541,1,7,11
3.84E+03,-8263,-707,-1425,1031,-123,-422,1,7,11
3.84E+03,-8197,-687,-1487,947,-372,-788,1,7,11
3.84E+03,-7861,-693,-1528,1023,-572,-806,1,7,11
3.84E+03,-8010,-681,-1802,1308,-462,-826,1,7,11
3.84E+03,-8002,-642,-1514,1287,-792,-852,1,7,11
3.84E+03,-7973,-868,-1459,948,-854,-850,1,7,11
3.84E+03,-7659,-651,-1636,1078,-649,-885,1,7,11
3.84E+03,-7599,-657,-1562,689,-674,-732,1,7,11
3.84E+03,-7579,-889,-1217,498,-655,-1085,1,7,11
3.84E+03,-7565,-664,-1370,388,-844,-1119,1,7,11
3.84E+03,-7562,-705,-1344,278,-797,-1115,1,7,11
3.84E+03,-7807,-1053,-1324,119,-433,-1110,1,7,11
3.84E+03,-7776,-1146,-1310,19,-566,-1108,1,7,11
3.84E+03,-7741,-1281,-1284,-339,-134,-1115,1,7,11
3.84E+03,-7803,-1202,-979,-202,62,-1131,1,7,11
3.84E+03,-7617,-1645,-932,-519,-89,-921,1,7,11
3.84E+03,-7662,-1520,-910,-231,-62,-1297,1,7,11
3.84E+03,-7664,-1841,-1149,-193,-65,-1190,1,7,11
3.84E+03,-7658,-1864,-1130,-211,-67,-1555,1,7,11
3.84E+03,-7680,-1903,-1126,-538,-75,-1569,1,7,11
3.84E+03,-7644,-1720,-1140,-638,-93,-1253,1,7,11
3.84E+03,-7642,-2099,-898,-503,-69,-1190,1,7,11
3.84E+03,-7652,-1940,-1140,-859,-60,-1391,1,7,11
3.84E+03,-7643,-2028,-1117,-686,-65,-1367,1,7,11
3.84E+03,-7948,-2345,-1097,-747,-57,-1307,1,7,11
3.84E+03,-7968,-2387,-1128,-1056,-85,-929,1,7,11
3.84E+03,-7940,-2214,-1152,-1067,-100,-1042,1,7,11
3.84E+03,-7645,-2275,-924,-744,-48,-646,1,7,11
3.84E+03,-7668,-2598,-924,-665,291,-512,1,7,11
3.84E+03,-7673,-2444,-906,-833,328,-612,1,7,11
3.85E+03,-7669,-2465,-1145,-458,331,-222,1,7,11
3.85E+03,-7641,-2685,-906,-585,313,-265,1,7,11
3.85E+03,-7634,-2649,-930,-238,320,80,1,7,11
3.85E+03,-7597,-2667,-929,-171,283,45,1,7,11
3.85E+03,-7610,-2609,-933,-337,286,158,1,7,11
3.85E+03,-7604,-2297,-950,4,-41,524,1,7,11
3.85E+03,-7605,-2211,-961,45,-82,636,1,7,11
3.85E+03,-7666,-2354,-962,71,-115,510,1,7,11
3.85E+03,-7680,-2002,-969,53,81,686,1,7,11
3.85E+03,-7958,-2167,-975,22,32,1129,1,7,11
3.85E+03,-7961,-2088,-962,-270,-277,1324,1,7,11
3.85E+03,-7966,-1775,-943,-312,-322,1255,1,7,11
3.85E+03,-8010,-1748,-914,-331,-362,1464,1,7,11
3.85E+03,-8007,-1689,-903,-320,-174,1510,1,7,11
3.85E+03,-8007,-1838,-897,-283,-246,1877,1,7,11
3.85E+03,-8013,-1449,-902,-260,-536,1723,1,7,11
3.85E+03,-7977,-1594,-907,-271,-535,2105,1,7,11
3.85E+03,-7989,-1245,-905,-302,-209,1961,1,7,11
3.85E+03,-8008,-1164,-897,-333,-141,2308,1,7,11
3.85E+03,-8033,-1333,-1136,-326,-327,2337,1,7,11
3.85E+03,-8055,-975,-1121,-332,-271,2331,1,7,11
3.85E+03,-8046,-1142,-1109,-365,4,2031,1,7,11
3.85E+03,-7812,-1043,-1097,-174,9,1958,1,7,11
3.85E+03,-7829,-711,-1094,-239,-285,2147,1,7,11
3.85E+03,-7844,-642,-1066,-514,-342,2077,1,7,11
3.85E+03,-7832,-822,-1051,-219,-145,1749,1,7,11
3.85E+03,-7822,-505,-1031,-167,-186,1672,1,7,11
3.85E+03,-7814,-447,-763,-361,-208,1875,1,7,11
3.85E+03,-8051,-621,-766,-296,-211,1835,1,7,11
3.85E+03,-8043,-547,-758,-266,-188,1798,1,7,11
3.85E+03,-8050,-225,-746,12,-154,1500,1,7,11
3.85E+03,-8056,-149,-748,39,-376,1443,1,7,11
3.85E+03,-8061,-317,-745,57,-338,1642,1,7,11
3.85E+03,-7814,25,-747,53,-293,1601,1,7,11
3.85E+03,-7821,-114,-750,50,34,1593,1,7,11
3.85E+03,-7837,-71,-753,40,61,1591,1,7,11
3.85E+03,-7864,-10,-745,28,104,1567,1,7,11
3.85E+03,-7908,311,-736,15,112,1203,1,7,11
3.85E+03,-7922,370,-728,-264,83,1371,1,7,11
3.85E+03,-7920,173,-726,-289,19,1282,1,7,11
3.86E+03,-7896,227,-729,-318,-259,956,1,7,11
3.86E+03,-7884,253,-722,-374,5,897,1,7,11
3.86E+03,-7861,536,-712,-136,17,1085,1,7,11
3.86E+03,-7833,584,-702,-139,38,764,1,7,11
3.86E+03,-7818,612,-688,-166,72,708,1,7,11
3.86E+03,-7835,619,-668,-189,109,645,1,7,11
3.86E+03,-7839,628,-663,-195,116,840,1,7,11
3.86E+03,-7824,386,-655,-193,118,771,1,7,11
3.86E+03,-7818,403,-649,-187,-120,453,1,7,11
3.86E+03,-7822,423,-651,-178,-99,401,1,7,11
3.86E+03,-7811,461,-653,-175,-66,628,1,7,11
3.86E+03,-7815,496,-665,-193,-9,604,1,7,11
3.86E+03,-7812,506,-674,-232,308,585,1,7,11
3.86E+03,-7841,507,-681,-527,140,545,1,7,11
3.86E+03,-7874,487,-697,-566,200,250,1,7,11
3.86E+03,-7889,435,-717,-587,255,176,1,7,11
3.86E+03,-7910,397,-739,-566,568,344,1,7,11
3.86E+03,-7905,629,-765,-536,612,256,1,7,11
3.86E+03,-7893,610,-1044,-249,398,-73,1,7,11
3.86E+03,-7897,587,-1073,-215,447,-118,1,7,11
3.86E+03,-7918,569,-1071,-177,488,122,1,7,11
3.86E+03,-7932,561,-1092,-141,488,125,1,7,11
3.86E+03,-7934,545,-1129,-369,468,126,1,7,11
3.86E+03,-7923,546,-1146,-337,437,118,1,7,11
3.86E+03,-7882,562,-916,-325,398,97,1,7,11
3.86E+03,-7856,588,-942,-322,634,73,1,7,11
3.86E+03,-8061,616,-970,-329,611,47,1,7,11
3.86E+03,-8053,393,-997,-365,613,30,1,7,11
3.86E+03,-8046,426,-1016,-167,600,58,1,7,11
3.86E+03,-8025,416,-1281,-230,583,93,1,7,11
3.86E+03,-8006,421,-1314,-520,559,112,1,7,11
3.86E+03,-8012,435,-1336,-539,529,121,1,7,11
3.86E+03,-8028,494,-1348,-554,232,-126,1,7,11
3.86E+03,-8047,805,-1362,-577,195,-110,1,7,11
3.86E+03,-7815,825,-1362,-633,155,-70,1,7,11
3.86E+03,-7846,795,-1357,-437,375,-16,1,7,11
3.86E+03,-7826,498,-1348,-461,320,297,1,7,11
3.86E+03,-7837,462,-1337,-449,277,314,1,7,11
3.86E+03,-7825,444,-1340,-391,-32,306,1,7,11
3.86E+03,-7834,424,-1322,-577,-93,299,1,7,11
3.87E+03,-7836,407,-1294,-183,121,300,1,7,11
3.87E+03,-7829,391,-1012,-350,71,302,1,7,11
3.87E+03,-7826,426,-1008,10,27,309,1,7,11
3.87E+03,-8063,475,-1003,88,-269,320,1,7,11
3.87E+03,-8064,779,-977,-122,-280,347,1,7,11
3.87E+03,-7829,813,-963,-112,-298,138,1,7,11
3.87E+03,-7831,829,-944,-107,-328,180,1,7,11
3.87E+03,-7835,879,-929,-80,-357,204,1,7,11
3.87E+03,-7816,670,-925,-88,-374,227,1,7,11
3.87E+03,-8051,722,-901,-120,-376,238,1,7,11
3.87E+03,-8026,735,-900,98,-366,233,1,7,11
3.87E+03,-8001,750,-1137,62,-340,223,1,7,11
3.87E+03,-7984,745,-1099,35,-310,205,1,7,11
3.87E+03,-7965,732,-1094,30,-276,177,1,7,11
3.87E+03,-7975,732,-1085,37,19,129,1,7,11
3.87E+03,-8002,746,-1089,51,49,316,1,7,11
3.87E+03,-7995,737,-1084,43,57,-13,1,7,11
3.87E+03,-7963,705,-1074,27,64,-79,1,7,11
3.87E+03,-7666,670,-1053,40,73,73,1,7,11
3.87E+03,-7663,649,-1029,67,98,42,1,7,11
3.87E+03,-7948,889,-1034,109,120,5,1,7,11
3.87E+03,-8002,895,-1043,-103,116,-263,1,7,11
3.87E+03,-8020,885,-1046,-94,108,-257,1,7,11
3.87E+03,-8028,857,-1044,-124,100,26,1,7,11
3.87E+03,-8017,851,-1045,103,101,49,1,7,11
3.87E+03,-7979,849,-1056,55,104,61,1,7,11
3.87E+03,-8020,852,-1055,4,-114,81,1,7,11
3.87E+03,-8034,853,-1069,-290,-103,-121,1,7,11
3.87E+03,-7816,852,-1078,-332,-74,-70,1,7,11
3.87E+03,-7866,872,-1077,-369,-59,-17,1,7,11
3.87E+03,-7880,869,-1064,-166,-74,269,1,7,11
3.87E+03,-7858,871,-1055,-196,-99,269,1,7,11
3.87E+03,-7874,865,-1036,-224,-110,-15,1,7,11
3.87E+03,-7909,869,-1032,-234,-125,-33,1,7,11
3.87E+03,-7927,863,-1031,-250,113,-39,1,7,11
3.87E+03,-7910,848,-1047,-522,109,-45,1,7,11
3.87E+03,-7894,818,-1051,-534,-123,-49,1,7,11
3.87E+03,-7900,815,-1052,-522,-86,-50,1,7,11
3.87E+03,-7910,836,-1049,-241,-70,-39,1,7,11
3.87E+03,-7916,865,-1039,-204,-73,268,1,7,11
3.88E+03,-7921,657,-1036,-169,-101,343,1,7,11
3.88E+03,-7914,711,-1038,-152,111,140,1,7,11
3.88E+03,-7911,1044,-1046,-134,62,167,1,7,11
3.88E+03,-7935,1120,-1044,-138,18,159,1,7,11
3.88E+03,-7934,914,-1045,-159,-287,155,1,7,11
3.88E+03,-7894,932,-1046,-186,-308,156,1,7,11
3.88E+03,-7882,934,-1033,-202,-286,153,1,7,11
3.88E+03,-7889,922,-1031,-215,15,137,1,7,11
3.88E+03,-7893,917,-1028,-223,67,367,1,7,11
3.88E+03,-7880,905,-1029,-230,120,324,1,7,11
3.88E+03,-7886,1145,-767,-236,-78,273,1,7,11
3.88E+03,-7907,1125,-765,-241,-32,-26,1,7,11
3.88E+03,-7933,1110,-766,-229,-11,-41,1,7,11
3.88E+03,-7928,1096,-1051,-200,-4,-43,1,7,11
3.88E+03,-7936,1111,-1092,-166,285,-52,1,7,11
3.88E+03,-8200,1138,-1124,-133,330,-74,1,7,11
3.88E+03,-8198,909,-1152,-143,371,-87,1,7,11
3.88E+03,-7930,916,-915,-178,150,-103,1,7,11
3.88E+03,-7912,909,-922,-223,173,-107,1,7,11
3.88E+03,-7903,915,-935,-251,182,-103,1,7,11
3.88E+03,-7897,940,-941,-523,170,-90,1,7,11
3.88E+03,-7891,978,-949,-550,142,-59,1,7,11
3.88E+03,-7834,993,-951,-579,353,-27,1,7,11
3.88E+03,-8063,1017,-953,-595,326,-24,1,7,11
3.88E+03,-8024,1295,-946,-610,298,-50,1,7,11
3.88E+03,-8009,1320,-948,-633,286,-107,1,7,11
3.88E+03,-7964,1316,-948,-415,273,92,1,7,11
3.88E+03,-7660,1283,-926,-448,260,24,1,7,11
3.88E+03,-7619,973,-1151,-453,-20,-306,1,7,11
3.88E+03,-7581,925,-1131,-427,-61,-370,1,7,11
3.88E+03,-7797,1111,-1111,-399,-107,-167,1,7,11
3.88E+03,-7758,1039,-1111,-612,109,-242,1,7,11
3.88E+03,-7755,755,-1119,-530,90,-605,1,7,11
3.88E+03,-7796,1035,-1152,-180,91,-452,1,7,11
3.88E+03,-7604,1034,-920,-371,109,-497,1,7,11
3.88E+03,-7647,756,-932,-318,-128,-466,1,7,11
3.88E+03,-7940,740,-939,-269,-111,-621,1,7,11
3.88E+03,-7944,723,-945,30,-114,-236,1,7,11
3.88E+03,-7973,735,-956,72,125,-350,1,7,11
3.88E+03,-8000,1100,-971,-123,82,54,1,7,11
3.89E+03,-8059,918,-967,-92,31,-56,1,7,11
3.89E+03,-8031,959,-953,-109,-317,365,1,7,11
3.89E+03,-8001,955,-939,108,-160,568,1,7,11
3.89E+03,-8034,960,-1151,93,-189,637,1,7,11
3.89E+03,-8018,976,-1127,102,-237,413,1,7,11
3.89E+03,-7984,993,-1094,117,-524,432,1,7,11
3.89E+03,-7645,1006,-1048,-121,-531,463,1,7,11
3.89E+03,-7616,1295,-746,-93,-239,506,1,7,11
3.89E+03,-7572,1376,-724,-49,-214,813,1,7,11
3.89E+03,-7558,1207,-702,-34,-190,847,1,7,11
3.89E+03,-7564,1561,-679,-27,-175,845,1,7,11
3.89E+03,-7796,1648,-649,-34,-198,832,1,7,11
3.89E+03,-7793,1446,-866,-69,-192,797,1,7,11
3.89E+03,-7787,1515,-831,-93,-190,798,1,7,11
3.89E+03,-7779,1526,-820,-128,-192,787,1,7,11
3.89E+03,-7771,1830,-802,101,-156,487,1,7,11
3.89E+03,-7767,1841,-814,48,-376,417,1,7,11
3.89E+03,-7807,1664,-853,36,-285,562,1,7,11
3.89E+03,-7779,1737,-896,32,16,211,1,7,11
3.89E+03,-7729,1762,-661,-34,80,371,1,7,11
3.89E+03,-7386,2079,-700,-311,-116,289,1,7,11
3.89E+03,-7558,2121,-737,-350,284,-108,1,7,11
3.89E+03,-7914,1921,-752,-147,360,71,1,7,11
3.89E+03,-8301,2131,-748,-513,-6,37,1,7,11
3.89E+03,-8242,1790,-720,-580,100,-304,1,7,11
3.89E+03,-8052,1694,-685,-628,-274,-198,1,7,11
3.89E+03,-7610,1857,-657,-400,-323,-613,1,7,11
3.89E+03,-7765,1499,-864,-414,-302,-478,1,7,11
3.89E+03,-7785,1626,-812,-417,10,-790,1,7,11
3.89E+03,-7585,1251,-781,-392,22,-795,1,7,11
3.89E+03,-7612,1166,-770,-596,-273,-792,1,7,11
3.89E+03,-7571,1366,-504,-255,-326,-811,1,7,11
3.89E+03,-7562,1346,-486,-178,-333,-860,1,7,11
3.89E+03,-7610,1334,-460,-372,-329,-887,1,7,11
3.89E+03,-7661,1332,-438,-308,-331,-644,1,7,11
3.89E+03,-7966,1351,-438,6,-335,-654,1,7,11
3.89E+03,-8014,1381,-444,9,-338,-676,1,7,11
3.89E+03,-7809,1405,-457,-286,-359,-725,1,7,11
3.89E+03,-7846,1357,-437,-359,-140,-1089,1,7,11
3.89E+03,-7844,1012,-424,-162,-176,-996,1,7,11
3.90E+03,-7854,933,-410,-181,-183,-1207,1,7,11
3.90E+03,-7865,1028,-389,-196,-148,-1515,1,7,11
3.90E+03,-7872,699,-635,-194,-373,-1852,1,7,11
3.90E+03,-7883,801,-604,-179,-292,-1711,1,7,11
3.90E+03,-7936,631,-583,-139,78,-1767,1,7,11
3.90E+03,-8227,362,-564,-332,-75,-1766,1,7,11
3.90E+03,-8251,232,-546,21,290,-1750,1,7,11
3.90E+03,-8159,-86,-519,126,176,-1691,1,7,11
3.90E+03,-8490,-111,-517,-39,517,-1516,1,7,11
3.90E+03,-8593,-113,-533,279,248,-1249,1,7,11
3.90E+03,-8820,-105,-559,297,183,-1025,1,7,11
3.90E+03,-8722,121,-571,-23,383,-475,1,7,11
3.90E+03,-8322,-101,-588,-116,363,-232,1,7,11
3.90E+03,-8139,-63,-612,6,376,-292,1,7,11
3.90E+03,-8214,280,-630,-314,182,67,1,7,11
3.90E+03,-8043,166,-402,-375,252,83,1,7,11
3.90E+03,-7626,626,-454,-177,609,64,1,7,11
3.90E+03,-7746,840,-505,-577,475,29,1,7,11
3.90E+03,-7369,702,-825,-808,891,-270,1,7,11
3.90E+03,-7307,759,-880,-1030,1099,-148,1,7,11
3.90E+03,-7332,1026,-682,-969,1318,-386,1,7,11
3.90E+03,-7402,751,-745,-1380,1248,-667,1,7,11
3.90E+03,-7731,687,-1088,-1239,1412,-960,1,7,11
3.90E+03,-7558,846,-921,-1595,1833,-1237,1,7,11
3.90E+03,-7655,458,-997,-1428,1717,-1467,1,7,11
3.90E+03,-7966,545,-1328,-1480,2054,-1670,1,7,11
3.90E+03,-8029,373,-1155,-1470,2101,-2136,1,7,11
3.90E+03,-7840,-83,-1231,-1415,2099,-2320,1,7,11
3.90E+03,-7842,-272,-1560,-1560,1771,-2230,1,7,11
3.90E+03,-7895,-255,-1636,-1404,1885,-2657,1,7,11
3.90E+03,-7916,-404,-1424,-1310,1483,-2687,1,7,11
3.90E+03,-7877,-418,-1507,-923,1555,-2630,1,7,11
3.90E+03,-7854,-833,-1515,-917,1349,-2302,1,7,11
3.90E+03,-7826,-691,-1800,-1123,1143,-2186,1,7,11
3.90E+03,-7830,-738,-1827,-1053,886,-2045,1,7,11
3.90E+03,-8019,-1070,-1872,-707,409,-2121,1,7,11
3.90E+03,-8046,-1138,-1875,-853,542,-1706,1,7,11
3.90E+03,-7816,-936,-1879,-461,162,-1532,1,7,11
3.90E+03,-7832,-978,-1873,-580,310,-1625,1,7,11
3.90E+03,-7845,-1005,-1870,-222,-28,-1219,1,7,11
3.91E+03,-7850,-1002,-1879,-380,-95,-1314,1,7,11
3.91E+03,-7816,-997,-1885,-302,122,-902,1,7,11
3.91E+03,-8018,-991,-1915,14,100,-761,1,7,11
3.91E+03,-7976,-999,-1669,52,113,-665,1,7,11
3.91E+03,-7680,-986,-1698,99,124,-852,1,7,11
3.91E+03,-7955,-943,-1734,127,-106,-811,1,7,11
3.91E+03,-7961,-919,-1777,-120,-104,-493,1,7,11
3.91E+03,-7984,-909,-1790,-117,-102,-440,1,7,11
3.91E+03,-7997,-904,-1781,-99,110,-397,1,7,11
3.91E+03,-8035,-924,-1747,-74,33,-637,1,7,11
3.91E+03,-7819,-978,-1691,-42,-353,-389,1,7,11
3.91E+03,-7829,-1287,-1827,289,-526,-443,1,7,11
3.91E+03,-7870,-1296,-1461,129,-453,-773,1,7,11
3.91E+03,-7866,-969,-1635,253,-687,-775,1,7,11
3.91E+03,-7858,-917,-1538,605,-906,-486,1,7,11
3.91E+03,-8027,-1128,-1213,396,-1369,-617,1,7,11
3.91E+03,-7953,-1102,-1394,635,-1236,-184,1,7,11
3.91E+03,-7571,-1086,-1347,638,-1595,-344,1,7,11
3.91E+03,-7766,-1113,-1294,612,-1568,-308,1,7,11
3.91E+03,-7729,-1106,-1013,602,-1228,-316,1,7,11
3.91E+03,-7753,-1100,-994,583,-1370,-348,1,7,11
3.91E+03,-7764,-1104,-958,537,-995,-159,1,7,11
3.91E+03,-7601,-905,-1145,212,-1117,-244,1,7,11
3.91E+03,-7986,-997,-1069,188,-1044,-605,1,7,11
3.91E+03,-7868,-1371,-756,211,-1039,-504,1,7,11
3.91E+03,-8226,-1218,-747,540,-1062,-680,1,7,11
3.91E+03,-8312,-1280,-746,599,-1074,-1129,1,7,11
3.91E+03,-8313,-1605,-719,623,-1101,-1304,1,7,11
3.91E+03,-8280,-1431,-669,384,-1111,-1208,1,7,11
3.91E+03,-8092,-1492,-844,423,-1091,-1565,1,7,11
3.91E+03,-8116,-1531,-775,500,-1151,-1561,1,7,11
3.91E+03,-8293,-1849,-465,826,-981,-1265,1,7,11
3.91E+03,-7892,-1897,-413,894,-1283,-1218,1,7,11
3.91E+03,-7973,-1914,-608,701,-1281,-1193,1,7,11
3.91E+03,-7604,-1673,-550,755,-944,-1178,1,7,11
3.91E+03,-7794,-1902,-232,1085,-1084,-1356,1,7,11
3.91E+03,-7753,-1832,-199,1137,-728,-971,1,7,11
3.91E+03,-7699,-1503,-195,1145,-863,-760,1,7,11
3.91E+03,-7407,-1423,-210,1100,-439,-476,1,7,11
3.91E+03,-7416,-1606,-239,734,-523,-150,1,7,11
3.92E+03,-7732,-1568,-529,814,-351,-73,1,7,11
3.92E+03,-7602,-1541,-549,392,39,233,1,7,11
3.92E+03,-8015,-1261,-564,240,90,501,1,7,11
3.92E+03,-7863,-1264,-590,360,38,725,1,7,11
3.92E+03,-7929,-1544,-595,-45,-375,1132,1,7,11
3.92E+03,-8201,-1554,-606,-82,-234,1104,1,7,11
3.92E+03,-8210,-1551,-591,-82,-600,753,1,7,11
3.92E+03,-8269,-1277,-552,-57,-436,885,1,7,11
3.92E+03,-8314,-1542,-245,-18,-807,773,1,7,11
3.92E+03,-8313,-1569,-190,299,-682,404,1,7,11
3.92E+03,-8282,-1600,-381,380,-1062,530,1,7,11
3.92E+03,-8238,-1618,-337,213,-904,138,1,7,11
3.92E+03,-8193,-1609,-300,557,-946,269,1,7,11
3.92E+03,-7915,-1621,9,588,-938,-78,1,7,11
3.92E+03,-7911,-1641,69,600,-905,103,1,7,11
3.92E+03,-7921,-1424,127,591,-1121,38,1,7,11
3.92E+03,-8198,-1485,-86,556,-1080,-268,1,7,11
3.92E+03,-7910,-1500,-49,529,-1032,-322,1,7,11
3.92E+03,-7908,-1525,-24,227,-688,-130,1,7,11
3.92E+03,-7905,-1813,-9,181,-853,-195,1,7,11
3.92E+03,-7904,-1877,268,161,-510,-515,1,7,11
3.92E+03,-7881,-1674,286,181,-430,-593,1,7,11
3.92E+03,-7849,-1698,284,232,-592,-423,1,7,11
3.92E+03,-7866,-1705,302,542,-235,-487,1,7,11
3.92E+03,-7877,-1727,297,610,-168,-785,1,7,11
3.92E+03,-7878,-1728,301,433,-381,-832,1,7,11
3.92E+03,-7875,-1742,317,466,-373,-826,1,7,11
3.92E+03,-7907,-1785,360,456,-373,-774,1,7,11
3.92E+03,-7929,-2084,144,394,-137,-595,1,7,11
3.92E+03,-7908,-2097,156,523,-225,-184,1,7,11
3.92E+03,-7889,-2083,152,180,-253,-289,1,7,11
3.92E+03,-7895,-2069,159,339,-247,117,1,7,11
3.92E+03,-7927,-2057,209,-9,-250,276,1,7,11
3.92E+03,-8205,-1785,248,-115,-529,212,1,7,11
3.92E+03,-8244,-1736,550,25,-578,446,1,7,11
3.92E+03,-8277,-1682,588,-343,-402,735,1,7,11
3.92E+03,-8318,-1917,625,-250,-799,1217,1,7,11
3.92E+03,-8100,-1857,398,-224,-652,1497,1,7,11
3.92E+03,-8270,-1832,425,-150,-763,1676,1,7,11
3.92E+03,-8225,-1817,480,-318,-1033,1752,1,7,11
3.93E+03,-8208,-1470,796,84,-1034,1749,1,7,11
3.93E+03,-8231,-1597,842,279,-1028,1913,1,7,11
3.93E+03,-8230,-1179,859,237,-766,1840,1,7,11
3.93E+03,-8211,-1315,887,413,-726,1512,1,7,11
3.93E+03,-8222,-958,667,817,-667,1432,1,7,11
3.93E+03,-8212,-1107,701,662,-869,1617,1,7,11
3.93E+03,-8204,-750,726,710,-811,1541,1,7,11
3.93E+03,-8224,-648,753,709,-495,1211,1,7,11
3.93E+03,-8262,-827,1062,641,-456,1390,1,7,11
3.93E+03,-8264,-508,1074,856,-470,1292,1,7,11
3.93E+03,-8277,-621,1065,794,-463,898,1,7,11
3.93E+03,-8248,-526,1069,385,-428,1044,1,7,11
3.93E+03,-8249,-193,1085,169,-638,656,1,7,11
3.93E+03,-8252,-138,1126,-77,-603,507,1,7,11
3.93E+03,-8275,-371,916,-344,-579,595,1,7,11
3.93E+03,-8293,-138,958,-599,-568,187,1,7,11
3.93E+03,-8293,-179,1002,-828,-564,306,1,7,11
3.93E+03,-8303,-225,1283,-1093,-555,-92,1,7,11
3.93E+03,-8318,-533,1311,-977,-543,105,1,7,11
3.93E+03,-8316,-595,1339,-1331,-537,88,1,7,11
3.93E+03,-8283,-392,1372,-1383,-521,88,1,7,11
3.93E+03,-8265,-444,1407,-1400,-215,95,1,7,11
3.93E+03,-8253,-503,1196,-1373,-153,105,1,7,11
3.93E+03,-8248,-791,1239,-1290,-347,109,1,7,11
3.93E+03,-8257,-812,1246,-925,-285,118,1,7,11
3.93E+03,-8252,-818,1248,-1053,33,-123,1,7,11
3.93E+03,-8224,-824,1254,-675,97,-125,1,7,11
3.93E+03,-8218,-808,1250,-813,-69,103,1,7,11
3.93E+03,-8237,-803,1251,-460,264,67,1,7,11
3.93E+03,-8245,-799,1231,-632,324,32,1,7,11
3.93E+03,-8268,-782,1206,-560,129,6,1,7,11
3.93E+03,-8291,-770,1183,-250,177,10,1,7,11
3.93E+03,-8296,-777,1159,-213,222,33,1,7,11
3.93E+03,-8297,-803,1374,-188,520,57,1,7,11
3.93E+03,-8281,-841,1336,-352,554,72,1,7,11
3.93E+03,-8279,-825,1308,95,619,34,1,7,11
3.93E+03,-8316,-787,1304,-55,432,-265,1,7,11
3.93E+03,-8082,-779,1283,-55,436,1,1,7,11
3.93E+03,-8065,-484,989,-89,402,34,1,7,11
3.93E+03,-8304,-436,915,50,429,105,1,7,11
3.94E+03,-8301,-451,1133,-307,477,-99,1,7,11
3.94E+03,-8320,-484,1116,-381,776,-65,1,7,11
3.94E+03,-8065,-492,1089,-149,792,-62,1,7,11
3.94E+03,-8313,-502,1050,-189,800,-54,1,7,11
3.94E+03,-8318,-499,747,-221,813,-50,1,7,11
3.94E+03,-8314,-771,710,-254,808,-56,1,7,11
3.94E+03,-8320,-777,672,-533,807,-75,1,7,11
3.94E+03,-8075,-788,878,-547,804,-94,1,7,11
3.94E+03,-8089,-786,840,-543,797,-112,1,7,11
3.94E+03,-8120,-789,823,-537,786,-112,1,7,11
3.94E+03,-8141,-788,798,-253,497,-86,1,7,11
3.94E+03,-8134,-792,775,-221,449,-48,1,7,11
3.94E+03,-8112,-825,499,-188,405,-12,1,7,11
3.94E+03,-8096,-844,475,-377,635,-2,1,7,11
3.94E+03,-8087,-860,456,-300,602,-21,1,7,11
3.94E+03,-8290,-846,419,30,583,-45,1,7,11
3.94E+03,-8303,-835,400,78,609,-72,1,7,11
3.94E+03,-8082,-802,398,116,632,-79,1,7,11
3.94E+03,-8107,-779,397,125,611,-60,1,7,11
3.94E+03,-8086,-782,633,102,571,-27,1,7,11
3.94E+03,-8082,-511,612,79,547,260,1,7,11
3.94E+03,-8092,-496,605,36,524,320,1,7,11
3.94E+03,-8142,-777,621,-313,252,209,1,7,11
3.94E+03,-8141,-504,618,-334,194,530,1,7,11
3.94E+03,-8114,-496,595,-332,324,553,1,7,11
3.94E+03,-8079,-477,580,-294,270,555,1,7,11
3.94E+03,-8312,-447,568,36,-1,522,1,7,11
3.94E+03,-8309,-421,555,85,260,225,1,7,11
3.94E+03,-8302,-637,539,-123,272,176,1,7,11
3.94E+03,-8312,-621,545,-111,293,133,1,7,11
3.94E+03,-8077,-635,561,-100,299,357,1,7,11
3.94E+03,-8099,-632,572,-71,283,344,1,7,11
3.94E+03,-8119,-626,573,-42,269,341,1,7,11
3.94E+03,-8117,-590,563,-6,258,356,1,7,11
3.94E+03,-8098,-584,564,-9,-6,376,1,7,11
3.94E+03,-8100,-638,583,-27,-14,134,1,7,11
3.94E+03,-8069,-574,572,319,-27,381,1,7,11
3.94E+03,-8069,-516,578,333,-33,381,1,7,11
3.94E+03,-8078,-224,582,315,-41,146,1,7,11
3.94E+03,-8066,-213,592,292,-65,148,1,7,11
3.95E+03,-8318,-175,593,286,-89,137,1,7,11
3.95E+03,-8302,-150,584,-4,-103,381,1,7,11
3.95E+03,-8294,-131,586,-41,-94,368,1,7,11
3.95E+03,-8309,-379,591,-79,-73,348,1,7,11
3.95E+03,-8083,-376,603,-113,-67,333,1,7,11
3.95E+03,-8066,-384,598,119,-82,326,1,7,11
3.95E+03,-8315,-138,610,106,-65,289,1,7,11
3.95E+03,-8092,-194,627,68,-67,-14,1,7,11
3.95E+03,-8098,-199,602,-128,-107,-67,1,7,11
3.95E+03,-8081,-188,598,-8,-126,126,1,7,11
3.95E+03,-8092,-165,627,332,-102,61,1,7,11
3.95E+03,-8095,-191,406,361,-105,67,1,7,11
3.95E+03,-8085,-531,442,169,-101,-128,1,7,11
3.95E+03,-8313,-624,453,592,-70,-34,1,7,11
3.95E+03,-8266,-425,441,868,256,341,1,7,11
3.95E+03,-8269,-468,435,919,383,215,1,7,11
3.95E+03,-8295,-473,431,1226,242,393,1,7,11
3.95E+03,-8316,-481,434,1516,573,873,1,7,11
3.95E+03,-8318,-456,417,2098,390,1134,1,7,11
3.95E+03,-8066,-407,398,2407,456,1395,1,7,11
3.95E+03,-8316,-602,629,2438,508,1646,1,7,11
3.95E+03,-8282,-532,585,2714,796,1855,1,7,11
3.95E+03,-8242,-163,540,2972,831,1795,1,7,11
3.95E+03,-8234,-291,215,3437,863,2107,1,7,11
3.95E+03,-8232,92,152,3368,885,2091,1,7,11
3.95E+03,-8247,-36,356,3673,640,1784,1,7,11
3.95E+03,-8257,356,299,3661,889,1700,1,7,11
3.95E+03,-8247,571,-46,3228,876,1501,1,7,11
3.95E+03,-8237,422,-88,3065,875,1661,1,7,11
3.95E+03,-8228,508,123,3102,878,1564,1,7,11
3.95E+03,-8242,850,95,2854,883,1217,1,7,11
3.95E+03,-8257,681,54,2575,874,1384,1,7,11
3.95E+03,-8265,751,20,2010,862,1307,1,7,11
3.95E+03,-8267,1054,-258,1672,853,983,1,7,11
3.95E+03,-8263,1085,-273,1595,836,918,1,7,11
3.95E+03,-8250,1113,-296,1009,806,1094,1,7,11
3.95E+03,-8234,1135,-327,678,777,746,1,7,11
3.95E+03,-8229,1149,-349,618,483,641,1,7,11
3.95E+03,-8222,898,-371,322,437,779,1,7,11
3.95E+03,-8224,899,-144,47,632,403,1,7,11
3.96E+03,-8222,901,-161,-196,563,535,1,7,11
3.96E+03,-8227,1144,-180,-422,239,157,1,7,11
3.96E+03,-8232,1096,-182,-887,171,301,1,7,11
3.96E+03,-8223,1040,-165,-1045,361,-67,1,7,11
3.96E+03,-8235,1038,-162,-1148,317,88,1,7,11
3.96E+03,-8251,1057,-145,-987,264,37,1,7,11
3.96E+03,-8263,1050,-134,-1351,-60,38,1,7,11
3.96E+03,-8267,1027,-381,-1201,126,62,1,7,11
3.96E+03,-8253,761,-371,-1273,-269,88,1,7,11
3.96E+03,-8217,1069,-358,-1619,-336,-120,1,7,11
3.96E+03,-8302,1075,-362,-1445,-133,-32,1,7,11
3.96E+03,-7936,1078,-347,-1453,-244,295,1,7,11
3.96E+03,-8198,1092,-322,-1441,-249,-42,1,7,11
3.96E+03,-8199,1096,-308,-1659,-524,-85,1,7,11
3.96E+03,-7925,1092,-302,-1604,-535,51,1,7,11
3.96E+03,-7932,1116,-306,-1540,-547,-364,1,7,11
3.96E+03,-8195,1147,-315,-1265,-564,-557,1,7,11
3.96E+03,-8200,948,-340,-1276,-587,-501,1,7,11
3.96E+03,-8243,1015,-350,-1619,-614,-728,1,7,11
3.96E+03,-8306,1311,-336,-1804,-421,-936,1,7,11
3.96E+03,-8079,1334,-295,-2068,-791,-1392,1,7,11
3.96E+03,-8121,1316,16,-2395,-680,-1577,1,7,11
3.96E+03,-8120,1293,47,-2482,-1122,-1467,1,7,11
3.96E+03,-8133,996,109,-3122,-1288,-1869,1,7,11
3.96E+03,-8165,932,-71,-3267,-1191,-1728,1,7,11
3.96E+03,-8463,1033,-2,-3934,-1599,-2075,1,7,11
3.96E+03,-8507,644,339,-4366,-1476,-2175,1,7,11
3.96E+03,-8456,439,172,-4531,-1881,-2411,1,7,11
3.96E+03,-8313,224,517,-4844,-1803,-2627,1,7,11
3.96E+03,-7912,261,598,-5044,-2092,-2896,1,7,11
3.96E+03,-7809,40,443,-5395,-2051,-3152,1,7,11
3.96E+03,-7984,-170,798,-5045,-1729,-3366,1,7,11
3.96E+03,-7960,-621,640,-4831,-1867,-3283,1,7,11
3.96E+03,-7974,-815,745,-4505,-1475,-3595,1,7,11
3.96E+03,-8001,-699,1081,-4067,-1570,-3268,1,7,11
3.96E+03,-8059,-1057,1146,-3562,-1397,-3064,1,7,11
3.96E+03,-7846,-939,961,-3035,-972,-2741,1,7,11
3.96E+03,-8200,-1356,1020,-2437,-1055,-2623,1,7,11
3.96E+03,-8226,-1393,1296,-2074,-691,-2025,1,7,11
3.96E+03,-8239,-1163,1328,-1182,-893,-1718,1,7,11
3.97E+03,-8271,-1387,1340,-865,-860,-1436,1,7,11
3.97E+03,-8296,-1309,1340,-162,-872,-1405,1,7,11
3.97E+03,-8310,-988,1358,-113,-666,-1107,1,7,11
3.97E+03,-8074,-940,1384,363,-726,-820,1,7,11
3.97E+03,-8087,-918,1171,533,-1051,-582,1,7,11
3.97E+03,-8121,-1141,1222,440,-1125,-138,1,7,11
3.97E+03,-8147,-1122,1255,824,-966,26,1,7,11
3.97E+03,-8183,-1136,1559,654,-1301,125,1,7,11
3.97E+03,-8545,-1134,1624,708,-1385,-78,1,7,11
3.97E+03,-8397,-1108,1437,1026,-1559,-33,1,7,11
3.97E+03,-8414,-1090,1519,1080,-1832,-26,1,7,11
3.97E+03,-8571,-1072,1869,1114,-2102,-6,1,7,11
3.97E+03,-8129,-1029,1740,1113,-2012,-19,1,7,11
3.97E+03,-7927,-743,1932,1062,-1996,-92,1,7,11
3.97E+03,-8008,-729,2407,756,-2068,45,1,7,11
3.97E+03,-7640,-719,2614,730,-1520,-364,1,7,11
3.97E+03,-7566,-733,2476,711,-1188,-251,1,7,11
3.97E+03,-7768,-1070,2538,683,-1076,-401,1,7,11
3.97E+03,-7771,-1082,2507,698,-430,-795,1,7,11
3.97E+03,-7768,-1047,2680,702,-304,-879,1,7,11
3.97E+03,-7780,-1072,2648,641,139,-895,1,7,11
3.97E+03,-7581,-1076,2578,847,838,-873,1,7,11
3.97E+03,-7622,-1066,2238,772,942,-851,1,7,11
3.97E+03,-7961,-1074,2428,607,1263,-828,1,7,11
3.97E+03,-8022,-1092,2269,156,1474,-815,1,7,11
3.97E+03,-7852,-738,2145,-18,1860,-856,1,7,11
3.97E+03,-7878,-685,2005,-260,1679,-841,1,7,11
3.97E+03,-8220,-890,1903,-635,1706,-509,1,7,11
3.97E+03,-8275,-831,1527,-1033,1892,-631,1,7,11
3.97E+03,-8301,-498,1429,-1169,1508,-175,1,7,11
3.97E+03,-8145,-816,1636,-1860,1425,-122,1,7,11
3.97E+03,-8459,-740,1648,-2035,1610,210,1,7,11
3.97E+03,-8468,-1136,1638,-2576,1200,494,1,7,11
3.97E+03,-8175,-926,1645,-2669,902,819,1,7,11
3.97E+03,-8156,-949,1662,-2667,1039,855,1,7,11
3.97E+03,-8083,-1302,1417,-1990,886,465,1,7,11
3.97E+03,-8245,-1337,1648,-1781,645,627,1,7,11
3.97E+03,-7907,-1361,1607,-1520,730,221,1,7,11
3.97E+03,-7857,-1367,1541,-1258,896,328,1,7,11
3.97E+03,-7861,-1384,1238,-1289,1376,-37,1,7,11
3.98E+03,-7865,-1161,1167,-1072,1572,-122,1,7,11
3.98E+03,-7853,-1404,1327,-862,1491,58,1,7,11
3.98E+03,-7834,-1397,978,-464,1911,15,1,7,11
3.98E+03,-7810,-1396,1125,-620,2054,-271,1,7,11
3.98E+03,-7820,-1381,1028,-549,2162,-291,1,7,11
3.98E+03,-7852,-1345,670,-241,1978,-274,1,7,11
3.98E+03,-7924,-1300,820,-212,2017,51,1,7,11
3.98E+03,-8227,-976,448,-162,2001,-77,1,7,11
3.98E+03,-8226,-1150,559,-364,1942,338,1,7,11
3.98E+03,-8243,-1085,151,-294,2165,251,1,7,11
3.98E+03,-8078,-739,318,27,2142,415,1,7,11
3.98E+03,-8451,-641,-27,60,2049,867,1,7,11
3.98E+03,-8560,-859,-81,38,1884,1094,1,7,11
3.98E+03,-8359,-841,-120,31,1662,1310,1,7,11
3.98E+03,-8385,-796,108,43,1389,1226,1,7,11
3.98E+03,-8382,-511,88,51,1096,1586,1,7,11
3.98E+03,-8572,-479,87,82,813,1608,1,7,11
3.98E+03,-8516,-428,76,-93,597,1552,1,7,11
3.98E+03,-8472,-633,79,-5,190,1185,1,7,11
3.98E+03,-8127,-610,78,345,351,1287,1,7,11
3.98E+03,-8277,-582,82,248,358,1037,1,7,11
3.98E+03,-8229,-543,108,395,206,467,1,7,11
3.98E+03,-7933,-240,-102,453,583,134,1,7,11
3.98E+03,-7891,-215,-96,415,463,76,1,7,11
3.98E+03,-7832,-194,-60,575,881,-169,1,7,11
3.98E+03,-8054,-139,259,201,1090,-628,1,7,11
3.98E+03,-8012,-277,272,312,1298,-468,1,7,11
3.98E+03,-7610,7,-10,92,1229,-492,1,7,11
3.98E+03,-7641,-313,-102,-187,1497,-493,1,7,11
3.98E+03,-7515,-378,-257,-451,2065,-780,1,7,11
3.98E+03,-7302,-232,-172,-686,2185,-704,1,7,11
3.98E+03,-7745,-558,-615,-1123,2708,-1079,1,7,11
3.98E+03,-7981,-557,-823,-906,3126,-1116,1,7,11
3.98E+03,-8208,-573,-1045,-981,3102,-1056,1,7,11
3.98E+03,-8097,-629,-959,-1313,2689,-653,1,7,11
3.98E+03,-8497,-439,-1338,-1375,2453,-497,1,7,11
3.98E+03,-8350,-784,-1405,-1381,2372,-555,1,7,11
3.98E+03,-8559,-848,-1182,-1332,1737,-147,1,7,11
3.98E+03,-8348,-660,-1179,-1015,1658,-285,1,7,11
3.98E+03,-8562,-700,-1156,-898,1017,100,1,7,11
3.99E+03,-8528,-740,-1388,-755,670,-76,1,7,11
3.99E+03,-8468,-744,-1368,-797,616,273,1,7,11
3.99E+03,-8079,-736,-1355,-550,374,322,1,7,11
3.99E+03,-8219,-712,-1338,-293,-7,328,1,7,11
3.99E+03,-7864,-680,-1305,-85,-55,279,1,7,11
3.99E+03,-8041,-895,-1287,307,-52,-67,1,7,11
3.99E+03,-7969,-642,-1000,377,-11,78,1,7,11
3.99E+03,-7662,-680,-979,190,299,-342,1,7,11
3.99E+03,-7585,-662,-972,514,372,-539,1,7,11
3.99E+03,-7576,-878,-1001,513,234,-446,1,7,11
3.99E+03,-7569,-884,-1281,187,613,-806,1,7,11
3.99E+03,-7569,-893,-1305,366,494,-886,1,7,11
3.99E+03,-7630,-878,-1343,-2,663,-645,1,7,11
3.99E+03,-7976,-685,-1356,117,756,-821,1,7,11
3.99E+03,-7968,-696,-1396,57,1051,-782,1,7,11
3.99E+03,-8041,-677,-1203,23,1122,-448,1,7,11
3.99E+03,-8032,-685,-1261,-298,1146,-579,1,7,11
3.99E+03,-7822,-684,-1241,-376,950,-220,1,7,11
3.99E+03,-8242,-730,-1162,-215,1004,-346,1,7,11
3.99E+03,-8104,-1058,-1166,-247,896,-92,1,7,11
3.99E+03,-7934,-1052,-1634,-147,815,350,1,7,11
3.99E+03,-7655,-713,-1878,-297,153,155,1,7,11
3.99E+03,-7748,-894,-2049,-315,147,128,1,7,11
3.99E+03,-7729,-877,-2144,-184,519,322,1,7,11
3.99E+03,-7807,-894,-2169,-594,489,-22,1,7,11
3.99E+03,-7627,-656,-2167,-457,777,-120,1,7,11
3.99E+03,-7937,-702,-2147,-833,469,45,1,7,11
3.99E+03,-7962,-759,-2119,-860,622,-298,1,7,11
3.99E+03,-7958,-1030,-2110,-822,221,-381,1,7,11
3.99E+03,-7952,-1043,-2097,-775,339,-186,1,7,11
3.99E+03,-7978,-1059,-2063,-461,-35,-203,1,7,11
3.99E+03,-8006,-1072,-1768,-638,86,-177,1,7,11
3.99E+03,-8006,-1101,-1730,-551,-312,-373,1,7,11
3.99E+03,-8005,-1096,-1697,-169,-168,-301,1,7,11
3.99E+03,-8026,-1110,-1898,-321,-253,56,1,7,11
3.99E+03,-8039,-1127,-1845,55,-597,-92,1,7,11
3.99E+03,-8046,-1141,-1523,-83,-434,-7,1,7,11
3.99E+03,-8048,-1145,-1454,280,-784,327,1,7,11
3.99E+03,-8049,-1141,-1640,364,-878,380,1,7,11
3.99E+03,-8053,-1109,-1558,185,-700,188,1,7,11
4.00E+03,-8040,-1061,-1236,245,-757,529,1,7,11
4.00E+03,-8023,-1035,-1155,537,-1041,633,1,7,11
4.00E+03,-8039,-714,-1337,598,-1045,477,1,7,11
4.00E+03,-7814,-657,-1022,638,-1068,818,1,7,11
4.00E+03,-7841,-880,-962,405,-1096,880,1,7,11
4.00E+03,-7866,-856,-903,421,-1125,656,1,7,11
4.00E+03,-7856,-847,-1109,446,-900,658,1,7,11
4.00E+03,-7834,-813,-1065,507,-907,858,1,7,11
4.00E+03,-7856,-487,-763,791,-1151,773,1,7,11
4.00E+03,-7893,-425,-692,777,-1146,450,1,7,11
4.00E+03,-7908,-395,-645,497,-909,396,1,7,11
4.00E+03,-7879,-633,-841,484,-920,572,1,7,11
4.00E+03,-7846,-608,-798,482,-1151,229,1,7,11
4.00E+03,-7827,-577,-773,460,-1079,144,1,7,11
4.00E+03,-7864,-576,-465,397,-729,314,1,7,11
4.00E+03,-7924,-615,-397,601,-676,-35,1,7,11
4.00E+03,-8237,-409,-611,617,-705,107,1,7,11
4.00E+03,-8226,-415,-387,470,-1059,3,1,7,11
4.00E+03,-7908,-440,-434,816,-1148,-374,1,7,11
4.00E+03,-7830,-474,-488,663,-914,-233,1,7,11
4.00E+03,-8016,-475,-796,758,-1129,-606,1,7,11
4.00E+03,-8001,-420,-826,1072,-764,-434,1,7,11
4.00E+03,-8028,-395,-813,1034,-892,-453,1,7,11
4.00E+03,-8044,-626,-791,729,-774,-421,1,7,11
4.00E+03,-8041,-610,-502,894,-420,-618,1,7,11
4.00E+03,-8042,-584,-479,779,-555,-535,1,7,11
4.00E+03,-7810,-607,-455,611,-189,-188,1,7,11
4.00E+03,-8062,-628,-426,185,-341,-360,1,7,11
4.00E+03,-7814,-433,-405,272,9,-288,1,7,11
4.00E+03,-7826,-470,-400,-86,114,30,1,7,11
4.00E+03,-7846,-452,-402,89,-31,121,1,7,11
4.00E+03,-7917,-508,-405,24,343,269,1,7,11
4.00E+03,-7899,-811,-400,40,165,375,1,7,11
4.00E+03,-7916,-828,-412,-127,209,179,1,7,11
4.00E+03,-7930,-835,-421,-100,220,235,1,7,11
4.00E+03,-7919,-880,-426,107,193,516,1,7,11
4.00E+03,-7895,-896,-442,89,154,512,1,7,11
4.00E+03,-7913,-642,-446,74,365,186,1,7,11
4.00E+03,-8258,-861,-453,60,345,340,1,7,11
4.00E+03,-8256,-838,-467,20,198,-38,1,7,11
4.01E+03,-8284,-833,-477,-305,116,52,1,7,11
4.01E+03,-8297,-825,-444,-129,-265,-338,1,7,11
4.01E+03,-8243,-501,-441,-168,-360,-166,1,7,11
4.01E+03,-8226,-463,-438,-202,-317,-171,1,7,11
4.01E+03,-7886,-843,-423,-389,39,-129,1,7,11
4.01E+03,-7924,-730,-395,-618,-101,-223,1,7,11
4.01E+03,-7849,-763,-630,-210,-114,-398,1,7,11
4.01E+03,-7819,-696,-389,-138,-58,-836,1,7,11
4.01E+03,-7862,-663,-631,-216,308,-840,1,7,11
4.01E+03,-7908,-706,-607,-579,383,-797,1,7,11
4.01E+03,-8211,-1045,-597,-608,171,-492,1,7,11
4.01E+03,-8219,-1096,-608,-565,201,-432,1,7,11
4.01E+03,-8221,-1127,-405,-255,248,-633,1,7,11
4.01E+03,-8212,-930,-436,-195,556,-554,1,7,11
4.01E+03,-7904,-953,-487,-343,630,-252,1,7,11
4.01E+03,-7896,-922,-500,-271,477,-161,1,7,11
4.01E+03,-7856,-903,-772,11,788,-282,1,7,11
4.01E+03,-8034,-907,-799,37,792,111,1,7,11
4.01E+03,-8005,-1112,-821,76,807,-5,1,7,11
4.01E+03,-8006,-1054,-836,43,794,187,1,7,11
4.01E+03,-7992,-737,-851,-277,493,413,1,7,11
4.01E+03,-8001,-649,-871,-339,451,893,1,7,11
4.01E+03,-8028,-843,-884,-159,416,1113,1,7,11
4.01E+03,-7811,-781,-647,-208,636,1325,1,7,11
4.01E+03,-7861,-810,-651,-525,612,1242,1,7,11
4.01E+03,-7914,-820,-647,-174,593,1565,1,7,11
4.01E+03,-8260,-800,-659,50,537,1548,1,7,11
4.01E+03,-8283,-495,-699,357,221,1268,1,7,11
4.01E+03,-8290,-458,-740,414,175,1213,1,7,11
4.01E+03,-8264,-434,-1042,735,145,1405,1,7,11
4.01E+03,-8226,-412,-1074,1316,147,1311,1,7,11
4.01E+03,-8218,-385,-1082,1611,173,953,1,7,11
4.01E+03,-8217,-387,-1073,1869,198,1122,1,7,11
4.01E+03,-8211,-639,-1060,2114,212,1034,1,7,11
4.01E+03,-8195,-629,-1051,2313,211,702,1,7,11
4.01E+03,-7898,-611,-1031,2206,194,644,1,7,11
4.01E+03,-7857,-588,-1034,2273,168,849,1,7,11
4.01E+03,-7813,-548,-1039,2257,137,809,1,7,11
4.01E+03,-7820,-218,-1032,2186,137,786,1,7,11
4.01E+03,-8058,-141,-1059,2362,145,791,1,7,11
4.02E+03,-8034,-340,-1076,1984,174,792,1,7,11
4.02E+03,-8040,-289,-1087,2083,514,795,1,7,11
4.02E+03,-8059,35,-1114,1892,607,510,1,7,11
4.02E+03,-7829,102,-1136,1434,395,477,1,7,11
4.02E+03,-7881,-118,-1151,1324,425,446,1,7,11
4.02E+03,-8195,-97,-902,1103,390,397,1,7,11
4.02E+03,-8244,-89,-911,645,563,596,1,7,11
4.02E+03,-8263,-109,-902,446,205,535,1,7,11
4.02E+03,-8248,-126,-906,550,342,222,1,7,11
4.02E+03,-8227,116,-904,193,-17,168,1,7,11
4.02E+03,-8207,111,-898,383,-96,128,1,7,11
4.02E+03,-8200,96,-1131,316,93,363,1,7,11
4.02E+03,-7924,55,-1111,262,25,363,1,7,11
4.02E+03,-7901,8,-1094,-24,-291,338,1,7,11
4.02E+03,-7868,-281,-1093,-18,-344,290,1,7,11
4.02E+03,-7837,-296,-1088,263,-382,-35,1,7,11
4.02E+03,-7830,-302,-1090,281,-136,-108,1,7,11
4.02E+03,-7838,-293,-1094,309,-134,95,1,7,11
4.02E+03,-7825,-281,-1092,323,-134,62,1,7,11
4.02E+03,-7812,-271,-1094,318,-359,57,1,7,11
4.02E+03,-8062,-261,-1116,298,-306,77,1,7,11
4.02E+03,-8051,-264,-1131,271,8,114,1,7,11
4.02E+03,-8032,-266,-1138,-20,71,-118,1,7,11
4.02E+03,-8051,-263,-1131,-60,-122,-97,1,7,11
4.02E+03,-8046,3,-901,-99,-87,-81,1,7,11
4.02E+03,-8050,25,-945,108,-61,-81,1,7,11
4.02E+03,-8051,81,-984,29,-34,-103,1,7,11
4.02E+03,-7822,-122,-993,-352,-11,-122,1,7,11
4.02E+03,-7873,-120,-974,-247,-2,-115,1,7,11
4.02E+03,-7936,105,-946,-638,-33,-86,1,7,11
4.02E+03,-8194,74,-925,-460,-116,-26,1,7,11
4.02E+03,-7898,38,-914,-483,44,315,1,7,11
4.02E+03,-7875,-257,-899,-444,-335,351,1,7,11
4.02E+03,-7873,-275,-1131,-623,-384,374,1,7,11
4.02E+03,-7877,-298,-1126,-546,-174,155,1,7,11
4.02E+03,-7845,-289,-1100,-190,-221,178,1,7,11
4.02E+03,-7853,-282,-1083,-355,-223,179,1,7,11
4.02E+03,-7869,-257,-1075,-269,-215,207,1,7,11
4.02E+03,-7878,29,-1060,51,-209,238,1,7,11
4.02E+03,-7909,33,-1040,87,-199,524,1,7,11
4.03E+03,-8217,29,-748,109,-193,545,1,7,11
4.03E+03,-7860,9,-735,120,-245,542,1,7,11
4.03E+03,-7853,11,-706,-112,-220,226,1,7,11
4.03E+03,-7860,52,-680,-76,-211,198,1,7,11
4.03E+03,-7848,84,-675,-68,-201,198,1,7,11
4.03E+03,-7857,108,-670,-80,-144,240,1,7,11
4.03E+03,-7859,121,-672,-93,-341,539,1,7,11
4.03E+03,-7823,118,-664,-114,-271,569,1,7,11
4.03E+03,-7851,125,-659,126,75,597,1,7,11
4.03E+03,-7871,-111,-661,113,118,624,1,7,11
4.03E+03,-7889,-106,-648,79,-99,636,1,7,11
4.03E+03,-7915,-109,-895,43,-72,393,1,7,11
4.03E+03,-7924,-104,-645,38,-82,393,1,7,11
4.03E+03,-7926,-59,-665,49,-90,637,1,7,11
4.03E+03,-8196,-4,-673,40,-99,387,1,7,11
4.03E+03,-8193,302,-676,18,-124,415,1,7,11
4.03E+03,-7932,366,-680,9,117,443,1,7,11
4.03E+03,-7926,175,-671,-269,112,463,1,7,11
4.03E+03,-7919,219,-669,-312,107,458,1,7,11
4.03E+03,-7913,517,-662,-355,112,427,1,7,11
4.03E+03,-7907,567,-677,-134,123,393,1,7,11
4.03E+03,-7898,633,-684,-185,-118,584,1,7,11
4.03E+03,-7919,421,-694,-238,-88,254,1,7,11
4.03E+03,-7932,450,-696,-549,-94,189,1,7,11
4.03E+03,-7923,461,-698,-620,-115,326,1,7,11
4.03E+03,-7903,475,-701,-423,99,-20,1,7,11
4.03E+03,-7898,472,-705,-480,77,-110,1,7,11
4.03E+03,-7888,446,-671,-829,57,67,1,7,11
4.03E+03,-7912,431,-647,-851,45,13,1,7,11
4.03E+03,-7905,414,-879,-852,12,-260,1,7,11
4.03E+03,-7890,409,-846,-838,-269,-266,1,7,11
4.03E+03,-7884,398,-821,-821,-272,1,1,7,11
4.03E+03,-7872,395,-807,-801,-275,12,1,7,11
4.03E+03,-7855,395,-790,-778,-261,20,1,7,11
4.03E+03,-7836,638,-764,-504,20,28,1,7,11
4.03E+03,-7833,625,-506,-479,61,20,1,7,11
4.03E+03,-7839,621,-507,-438,99,10,1,7,11
4.03E+03,-7843,622,-771,-401,-118,1,1,7,11
4.03E+03,-7852,613,-512,-626,-77,-261,1,7,11
4.03E+03,-7853,602,-771,-590,-38,-262,1,7,11
4.04E+03,-7870,595,-512,-554,-3,0,1,7,11
4.04E+03,-7895,589,-781,-518,279,13,1,7,11
4.04E+03,-7907,587,-793,-227,296,33,1,7,11
4.04E+03,-7925,585,-801,-199,303,50,1,7,11
4.04E+03,-7922,579,-815,-176,298,67,1,7,11
4.04E+03,-7923,574,-829,-160,301,77,1,7,11
4.04E+03,-7934,574,-837,-143,297,91,1,7,11
4.04E+03,-7933,563,-845,-131,275,102,1,7,11
4.04E+03,-7936,565,-835,-369,-1,113,1,7,11
4.04E+03,-7927,566,-838,-357,-26,-120,1,7,11
4.04E+03,-7906,567,-842,-346,-48,-92,1,7,11
4.04E+03,-7930,573,-833,-341,-49,-80,1,7,11
4.04E+03,-7934,568,-825,-342,-82,-81,1,7,11
4.04E+03,-7919,572,-841,-330,-106,-94,1,7,11
4.04E+03,-7900,585,-841,-314,-109,-117,1,7,11
4.04E+03,-7889,603,-840,-316,-91,110,1,7,11
4.04E+03,-7886,626,-842,-330,-67,104,1,7,11
4.04E+03,-7883,384,-838,-369,-37,-128,1,7,11
4.04E+03,-7882,634,-825,-156,-11,-97,1,7,11
4.04E+03,-7887,628,-819,-189,-3,-78,1,7,11
4.04E+03,-7881,628,-821,-207,-5,-69,1,7,11
4.04E+03,-7876,628,-829,-225,258,-70,1,7,11
4.04E+03,-7887,630,-837,-242,270,-84,1,7,11
4.04E+03,-7889,635,-836,-252,285,-99,1,7,11
4.04E+03,-7909,635,-843,-523,292,-102,1,7,11
4.04E+03,-7895,630,-845,-534,285,-95,1,7,11
4.04E+03,-7892,624,-846,-536,290,-110,1,7,11
4.04E+03,-7894,620,-846,-523,291,122,1,7,11
4.04E+03,-7886,613,-844,-242,289,103,1,7,11
4.04E+03,-7883,621,-847,-205,290,84,1,7,11
4.04E+03,-7891,628,-863,-183,290,73,1,7,11
4.04E+03,-7890,636,-881,-165,288,70,1,7,11
4.04E+03,-7888,639,-883,-150,292,60,1,7,11
4.04E+03,-7902,397,-884,-384,295,63,1,7,11
4.04E+03,-7911,401,-887,-371,288,75,1,7,11
4.04E+03,-7908,392,-884,-362,268,96,1,7,11
4.04E+03,-7901,395,-641,-344,-2,109,1,7,11
4.04E+03,-7896,405,-644,-335,-16,115,1,7,11
4.04E+03,-7899,413,-891,-332,-30,124,1,7,11
4.04E+03,-7901,423,-883,-327,-47,-116,1,7,11
4.05E+03,-7867,423,-886,-328,-62,-97,1,7,11
4.05E+03,-7848,429,-885,-322,-64,-95,1,7,11
4.05E+03,-7834,433,-887,-311,-45,-102,1,7,11
4.05E+03,-7838,433,-893,-309,-23,-103,1,7,11
4.05E+03,-7855,434,-891,-308,-6,-96,1,7,11
4.05E+03,-7856,434,-642,-307,261,-85,1,7,11
4.05E+03,-7874,436,-646,-295,269,-81,1,7,11
4.05E+03,-7863,441,-654,-284,265,-82,1,7,11
4.05E+03,-7857,444,-663,-275,269,-90,1,7,11
4.05E+03,-7853,449,-667,-262,277,-108,1,7,11
4.05E+03,-7870,454,-677,2,279,-118,1,7,11
4.05E+03,-7855,455,-683,14,271,-123,1,7,11
4.05E+03,-7874,461,-688,19,276,125,1,7,11
4.05E+03,-7904,459,-685,21,271,124,1,7,11
4.05E+03,-7910,461,-694,21,-57,119,1,7,11
4.05E+03,-7887,460,-711,23,-95,-127,1,7,11
4.05E+03,-7880,458,-712,23,-107,-119,1,7,11
4.05E+03,-7867,464,-716,26,-114,-107,1,7,11
4.05E+03,-7861,462,-716,21,-108,-99,1,7,11
4.05E+03,-7868,469,-707,24,-100,-95,1,7,11
4.05E+03,-7876,487,-696,27,-110,-92,1,7,11
4.05E+03,-7872,488,-689,20,-127,-82,1,7,11
4.05E+03,-7861,492,-696,20,121,-80,1,7,11
4.05E+03,-7847,494,-691,19,126,-87,1,7,11
4.05E+03,-7851,493,-681,6,-111,-102,1,7,11
4.05E+03,-7859,495,-686,-260,-105,-122,1,7,11
4.05E+03,-7858,498,-687,-269,-102,116,1,7,11
4.05E+03,-7847,498,-696,-276,-93,99,1,7,11
4.05E+03,-7868,494,-700,-278,-76,91,1,7,11
4.05E+03,-7868,474,-690,-281,-77,85,1,7,11
4.05E+03,-7874,471,-686,-274,-80,74,1,7,11
4.05E+03,-7873,475,-679,-272,-88,66,1,7,11
4.05E+03,-7873,479,-688,-263,-92,65,1,7,11
4.05E+03,-7867,481,-692,-264,-100,68,1,7,11
4.05E+03,-7863,482,-689,-261,-98,72,1,7,11
4.05E+03,-7872,483,-690,-261,-92,77,1,7,11
4.05E+03,-7878,490,-682,-260,-99,80,1,7,11
4.05E+03,-7868,495,-685,-267,-107,96,1,7,11
4.05E+03,-7865,481,-680,-278,-105,116,1,7,11
4.05E+03,-7871,478,-670,-273,-105,-127,1,7,11
4.06E+03,-7869,476,-669,-265,-107,-121,1,7,11
4.06E+03,-7873,481,-673,3,-111,-128,1,7,11
4.06E+03,-7865,490,-679,12,-125,109,1,7,11
4.06E+03,-7866,509,-673,20,124,92,1,7,11
4.06E+03,-7858,497,-663,23,125,80,1,7,11
4.06E+03,-7865,506,-667,32,-125,72,1,7,11
4.06E+03,-7869,503,-662,38,-124,71,1,7,11
4.06E+03,-7864,499,-662,28,-127,69,1,7,11
4.06E+03,-7857,504,-663,24,-128,69,1,7,11
4.06E+03,-7859,498,-656,21,-124,73,1,7,11
4.06E+03,-7849,500,-661,21,-122,75,1,7,11
4.06E+03,-7860,501,-663,24,-115,79,1,7,11
4.06E+03,-7866,508,-664,22,-112,86,1,7,11
4.06E+03,-7846,500,-664,16,-119,78,1,7,11
4.06E+03,-7877,506,-658,23,-111,59,1,7,11
4.06E+03,-7898,777,-655,17,117,39,1,7,11
4.06E+03,-7901,511,-645,0,86,31,1,7,11
4.06E+03,-7891,770,-656,-259,67,42,1,7,11
4.06E+03,-7877,500,-657,-267,64,57,1,7,11
4.06E+03,-7866,489,-654,-263,82,74,1,7,11
4.06E+03,-7843,486,-643,7,105,83,1,7,11
4.06E+03,-7837,476,-889,37,127,78,1,7,11
4.06E+03,-7847,488,-892,86,-112,53,1,7,11
4.06E+03,-7853,505,-892,116,-105,28,1,7,11
4.06E+03,-7866,774,-896,114,-107,22,1,7,11
4.06E+03,-7870,778,-643,101,-108,26,1,7,11
4.06E+03,-7879,770,-642,87,-109,27,1,7,11
4.06E+03,-7877,504,-892,74,-107,26,1,7,11
4.06E+03,-7874,489,-889,66,-98,21,1,7,11
4.06E+03,-7858,479,-890,74,-88,17,1,7,11
4.06E+03,-7853,466,-896,84,-70,1,1,7,11
4.06E+03,-7868,456,-884,99,-57,-267,1,7,11
4.06E+03,-7881,456,-882,106,-61,-264,1,7,11
4.06E+03,-7890,463,-880,102,-76,1,1,7,11
4.06E+03,-7885,453,-887,94,-87,18,1,7,11
4.06E+03,-7889,452,-885,88,-92,32,1,7,11
4.06E+03,-7897,459,-879,75,-93,54,1,7,11
4.06E+03,-7907,468,-872,62,-98,80,1,7,11
4.06E+03,-7917,488,-873,47,-114,111,1,7,11
4.06E+03,-7902,503,-874,17,123,-121,1,7,11
4.07E+03,-7899,775,-871,-308,109,-99,1,7,11
4.07E+03,-7894,782,-858,-377,94,-101,1,7,11
4.07E+03,-7898,783,-854,-190,68,-107,1,7,11
4.07E+03,-7894,782,-855,-249,37,-127,1,7,11
4.07E+03,-7891,774,-845,-538,18,114,1,7,11
4.07E+03,-7864,499,-835,-553,5,106,1,7,11
4.07E+03,-7847,478,-824,-539,26,92,1,7,11
4.07E+03,-7852,483,-835,-251,62,78,1,7,11
4.07E+03,-7850,470,-829,-224,84,79,1,7,11
4.07E+03,-7853,471,-823,-179,118,87,1,7,11
4.07E+03,-7848,476,-822,-138,-109,95,1,7,11
4.07E+03,-7836,487,-832,-364,-78,104,1,7,11
4.07E+03,-7844,504,-847,-343,-41,115,1,7,11
4.07E+03,-7841,787,-861,-334,-14,116,1,7,11
4.07E+03,-7871,789,-864,-352,269,113,1,7,11
4.07E+03,-7870,807,-869,-362,272,109,1,7,11
4.07E+03,-7867,812,-872,-133,268,80,1,7,11
4.07E+03,-7886,818,-876,-160,268,51,1,7,11
4.07E+03,-7905,811,-876,-204,-13,22,1,7,11
4.07E+03,-7906,803,-876,-234,-46,1,1,7,11
4.07E+03,-7895,808,-886,-514,-67,-261,1,7,11
4.07E+03,-7873,812,-642,-540,-72,3,1,7,11
4.07E+03,-7863,783,-894,-569,-41,18,1,7,11
4.07E+03,-7868,770,-646,-529,263,5,1,7,11
4.07E+03,-7884,787,-894,-188,318,-283,1,7,11
4.07E+03,-7879,770,-883,-354,361,-332,1,7,11
4.07E+03,-7893,780,-877,35,164,-174,1,7,11
4.07E+03,-7895,817,-647,-25,217,-251,1,7,11
4.07E+03,-7911,641,-677,167,547,-606,1,7,11
4.07E+03,-8195,665,-692,575,637,-502,1,7,11
4.07E+03,-7891,876,-695,612,406,-865,1,7,11
4.07E+03,-7853,820,-709,634,403,-686,1,7,11
4.07E+03,-7838,800,-727,410,406,-1095,1,7,11
4.07E+03,-7837,507,-754,404,398,-994,1,7,11
4.07E+03,-7828,470,-1031,638,638,-1304,1,7,11
4.07E+03,-7833,420,-1041,588,628,-1334,1,7,11
4.07E+03,-7845,627,-1056,541,599,-1338,1,7,11
4.07E+03,-7858,554,-1079,219,539,-1325,1,7,11
4.07E+03,-7862,217,-1084,142,207,-1319,1,7,11
4.07E+03,-7873,141,-1106,349,372,-1316,1,7,11
4.08E+03,-7876,339,-1125,324,263,-1310,1,7,11
4.08E+03,-7935,273,-1127,291,-106,-1290,1,7,11
4.08E+03,-8221,-61,-1117,262,-274,-981,1,7,11
4.08E+03,-8238,114,-1104,259,-196,-939,1,7,11
4.08E+03,-8212,73,-1102,292,-609,-1151,1,7,11
4.08E+03,-7923,44,-1109,350,-466,-1111,1,7,11
4.08E+03,-7888,27,-1091,167,-789,-1094,1,7,11
4.08E+03,-7894,13,-1053,211,-825,-1082,1,7,11
4.08E+03,-7888,-294,-755,187,-875,-1048,1,7,11
4.08E+03,-7851,-316,-734,167,-677,-759,1,7,11
4.08E+03,-7863,-286,-727,161,-696,-742,1,7,11
4.08E+03,-7899,-336,-696,351,-706,-701,1,7,11
4.08E+03,-7911,-182,-648,290,-713,-689,1,7,11
4.08E+03,-7928,-539,-844,-6,-725,-724,1,7,11
4.08E+03,-8197,-620,-791,-17,-767,-1059,1,7,11
4.08E+03,-7892,-415,-512,258,-1084,-905,1,7,11
4.08E+03,-8052,-408,-501,297,-1085,-1019,1,7,11
4.08E+03,-8040,-427,-461,257,-713,-1384,1,7,11
4.08E+03,-7845,-785,-639,-57,-815,-1203,1,7,11
4.08E+03,-7888,-651,-550,-113,-453,-1239,1,7,11
4.08E+03,-7921,-1027,-234,79,-410,-1556,1,7,11
4.08E+03,-7927,-1083,-226,20,-424,-1598,1,7,11
4.08E+03,-8226,-1127,-222,-364,-423,-1589,1,7,11
4.08E+03,-8286,-979,-198,-586,-427,-1218,1,7,11
4.08E+03,-8310,-1303,-173,-426,-444,-1347,1,7,11
4.08E+03,-8286,-1387,-165,-473,-477,-957,1,7,11
4.08E+03,-8251,-1171,-165,-486,-489,-1070,1,7,11
4.08E+03,-8283,-1207,-146,-508,-484,-681,1,7,11
4.08E+03,-8297,-1225,-379,-512,-770,-800,1,7,11
4.08E+03,-8302,-1216,-379,-496,-819,-411,1,7,11
4.08E+03,-8284,-1220,-358,-488,-863,-541,1,7,11
4.08E+03,-8260,-1257,-327,-474,-642,-224,1,7,11
4.08E+03,-8260,-1556,-309,-634,-659,-200,1,7,11
4.08E+03,-8280,-1551,-320,-204,-672,-170,1,7,11
4.08E+03,-8272,-1259,-346,-274,-686,-380,1,7,11
4.08E+03,-8289,-1234,-342,116,-662,-295,1,7,11
4.08E+03,-8320,-1198,-321,-37,-886,114,1,7,11
4.08E+03,-8079,-1393,-280,326,-889,291,1,7,11
4.08E+03,-8318,-1326,-266,179,-671,236,1,7,11
4.08E+03,-8068,-982,6,544,-698,413,1,7,11
4.09E+03,-8256,-1143,26,389,-759,854,1,7,11
4.09E+03,-8242,-1051,54,455,-749,693,1,7,11
4.09E+03,-8252,-733,81,443,-755,1099,1,7,11
4.09E+03,-7889,-667,89,417,-1052,961,1,7,11
4.09E+03,-7864,-471,105,638,-1031,1384,1,7,11
4.09E+03,-8213,-170,-77,213,-724,1629,1,7,11
4.09E+03,-8200,-158,323,61,-718,1686,1,7,11
4.09E+03,-7895,-567,379,-211,-871,2127,1,7,11
4.09E+03,-7926,-385,143,-592,-478,2130,1,7,11
4.09E+03,-8289,-557,160,-610,-618,2067,1,7,11
4.09E+03,-8080,-529,176,-402,-548,2048,1,7,11
4.09E+03,-8068,-249,180,-631,-522,1712,1,7,11
4.09E+03,-8098,-349,203,-525,-521,1807,1,7,11
4.09E+03,-8091,-272,235,-145,-541,1543,1,7,11
4.09E+03,-8318,82,237,-299,-636,1120,1,7,11
4.09E+03,-8268,60,243,27,-452,838,1,7,11
4.09E+03,-8289,29,538,-109,-774,245,1,7,11
4.09E+03,-8271,50,564,306,-822,257,1,7,11
4.09E+03,-8301,122,608,139,-870,-119,1,7,11
4.09E+03,-8075,39,432,146,-653,52,1,7,11
4.09E+03,-8132,51,449,243,-673,-258,1,7,11
4.09E+03,-8131,64,468,246,-733,3,1,7,11
4.09E+03,-8115,104,473,211,-1034,76,1,7,11
4.09E+03,-8084,-75,504,187,-1050,-71,1,7,11
4.09E+03,-8134,323,808,364,-1035,350,1,7,11
4.09E+03,-8114,332,849,-42,-1047,229,1,7,11
4.09E+03,-8314,349,879,-122,-1049,252,1,7,11
4.09E+03,-8298,140,653,4,-1046,197,1,7,11
4.09E+03,-8234,343,686,-149,-1044,191,1,7,11
4.09E+03,-8253,363,745,-249,-727,214,1,7,11
4.09E+03,-8282,176,1046,-409,-724,566,1,7,11
4.09E+03,-8251,128,1097,-870,-721,464,1,7,11
4.09E+03,-8101,213,1115,-681,-718,781,1,7,11
4.09E+03,-8282,370,903,-724,-1045,798,1,7,11
4.09E+03,-8235,330,951,-858,-725,633,1,7,11
4.09E+03,-8235,220,947,-434,-652,553,1,7,11
4.09E+03,-8214,531,951,-430,-789,581,1,7,11
4.09E+03,-8239,551,989,-449,-630,417,1,7,11
4.09E+03,-8251,588,1016,-468,-248,789,1,7,11
4.09E+03,-8256,633,1288,-504,-147,879,1,7,11
4.10E+03,-8261,386,1332,-849,-320,691,1,7,11
4.10E+03,-8296,614,1377,-642,-292,658,1,7,11
4.10E+03,-8293,395,1402,-802,-343,774,1,7,11
4.10E+03,-8235,490,1155,-432,-149,573,1,7,11
4.10E+03,-7918,844,1157,-405,-162,130,1,7,11
4.10E+03,-7932,679,1158,-466,-146,289,1,7,11
4.10E+03,-7884,698,1398,-865,-131,-94,1,7,11
4.10E+03,-7883,904,1341,-728,-362,-266,1,7,11
4.10E+03,-7926,1004,1290,-956,-301,-201,1,7,11
4.10E+03,-8213,975,1286,-1572,9,-399,1,7,11
4.10E+03,-8263,958,1303,-1756,61,-1047,1,7,11
4.10E+03,-8309,976,1303,-2177,56,-1303,1,7,11
4.10E+03,-8293,898,1331,-3006,60,-1173,1,7,11
4.10E+03,-8275,757,1357,-3543,96,-1540,1,7,11
