timestamp,ax,ay,az,gx,gy,gz,Label1,Label2,Label3
6.74E+02,-7140,3305,-444,-366,-260,122,1,7,11
6.72E+02,-7129,3283,-441,-172,51,76,1,7,11
6.72E+02,-7116,3241,-436,-220,108,22,1,7,11
6.73E+02,-7099,3448,-438,-243,-89,-299,1,7,11
6.76E+02,-7090,3405,-440,-245,-27,-363,1,7,11
6.82E+02,-7114,3375,-440,-238,291,-155,1,7,11
6.91E+02,-7159,3341,-439,-229,322,-173,1,7,11
7.05E+02,-7447,3054,-439,-202,324,-162,1,7,11
7.21E+02,-7462,3022,-447,-150,319,-383,1,7,11
7.35E+02,-7462,2995,-445,-334,302,-335,1,7,11
7.43E+02,-7452,2994,-443,13,279,-283,1,7,11
7.44E+02,-7438,3003,-449,99,-4,20,1,7,11
7.39E+02,-7432,3024,-464,-83,-28,64,1,7,11
7.29E+02,-7168,3062,-483,-25,-53,99,1,7,11
7.15E+02,-7156,3363,-499,258,-74,127,1,7,11
6.97E+02,-7143,3399,-769,-5,-86,-107,1,7,11
6.77E+02,-7145,3429,-779,-40,-85,-96,1,7,11
6.57E+02,-7147,3453,-786,-93,-72,-101,1,7,11
6.47E+02,-7151,3213,-790,100,-53,-114,1,7,11
6.57E+02,-7156,3217,-782,34,-28,123,1,7,11
6.90E+02,-7149,3214,-798,-285,-2,108,1,7,11
7.31E+02,-7146,3204,-792,-346,298,74,1,7,11
7.69E+02,-7147,3449,-798,-141,354,51,1,7,11
7.93E+02,-7163,3436,-806,-192,131,36,1,7,11
8.06E+02,-7430,3412,-808,-210,149,26,1,7,11
8.06E+02,-7435,3384,-808,-206,156,8,1,7,11
7.95E+02,-7443,3367,-825,-188,152,-270,1,7,11
7.73E+02,-7453,3349,-834,-156,141,-284,1,7,11
7.41E+02,-7456,3332,-847,-372,382,-288,1,7,11
7.00E+02,-7457,3065,-846,-330,357,-283,1,7,11
6.56E+02,-7452,3055,-851,-290,328,-273,1,7,11
6.19E+02,-7441,3050,-857,5,301,-266,1,7,11
5.97E+02,-7441,3058,-863,39,278,-262,1,7,11
5.91E+02,-7437,3069,-864,62,-3,4,1,7,11
5.96E+02,-7432,3341,-871,65,-22,17,1,7,11
6.10E+02,-7425,3351,-866,57,-37,36,1,7,11
6.30E+02,-7157,3351,-875,41,-45,50,1,7,11
6.50E+02,-7152,3353,-872,20,-47,57,1,7,11
6.66E+02,-7143,3348,-870,-258,-44,59,1,7,11
6.79E+02,-7146,3339,-865,-278,-31,54,1,7,11
6.88E+02,-7149,3340,-861,-289,-16,55,1,7,11
6.96E+02,-7146,3340,-859,-294,-5,60,1,7,11
7.03E+02,-7139,3347,-868,-296,269,72,1,7,11
7.12E+02,-7140,3360,-875,-304,292,91,1,7,11
7.22E+02,-7139,3372,-886,-313,310,110,1,7,11
7.34E+02,-7142,3382,-649,-326,328,120,1,7,11
7.46E+02,-7152,3381,-654,-343,339,122,1,7,11
7.56E+02,-7155,3376,-669,-357,344,114,1,7,11
7.63E+02,-7161,3362,-674,-368,348,97,1,7,11
7.68E+02,-7429,3355,-678,-361,342,82,1,7,11
7.70E+02,-7441,3347,-682,-349,329,68,1,7,11
7.70E+02,-7440,3342,-682,-330,307,62,1,7,11
7.66E+02,-7166,3337,-683,-305,286,55,1,7,11
7.60E+02,-7431,3345,-688,-288,270,47,1,7,11
7.49E+02,-7446,3356,-680,-287,-14,45,1,7,11
7.30E+02,-7442,3364,-683,-291,-52,54,1,7,11
7.01E+02,-7434,3364,-690,-293,-75,68,1,7,11
6.67E+02,-7164,3364,-687,-300,-81,88,1,7,11
6.36E+02,-7152,3360,-693,-298,-75,102,1,7,11
6.17E+02,-7140,3360,-695,-301,-61,107,1,7,11
6.09E+02,-7136,3362,-690,-306,-43,112,1,7,11
6.10E+02,-7135,3371,-682,-311,-30,114,1,7,11
6.16E+02,-7134,3375,-679,-313,-30,117,1,7,11
6.24E+02,-7130,3374,-683,-318,-30,123,1,7,11
6.31E+02,-7132,3373,-686,-322,-22,-128,1,7,11
6.38E+02,-7135,3368,-683,-323,-17,-126,1,7,11
6.44E+02,-7138,3375,-688,-316,-15,-126,1,7,11
6.51E+02,-7142,3384,-692,-310,-16,-128,1,7,11
6.64E+02,-7134,3384,-696,-301,-21,126,1,7,11
6.83E+02,-7128,3387,-694,-298,-15,118,1,7,11
7.04E+02,-7137,3394,-699,-304,-18,108,1,7,11
7.21E+02,-7136,3389,-703,-312,-24,92,1,7,11
7.32E+02,-7146,3388,-702,-321,-30,81,1,7,11
7.36E+02,-7150,3385,-709,-328,-39,80,1,7,11
7.36E+02,-7146,3381,-712,-329,-48,87,1,7,11
7.34E+02,-7143,3383,-714,-329,-52,99,1,7,11
7.30E+02,-7140,3385,-717,-325,-45,115,1,7,11
7.25E+02,-7144,3385,-706,-318,-36,125,1,7,11
7.19E+02,-7153,3387,-701,-303,-36,124,1,7,11
7.13E+02,-7150,3400,-702,-289,-46,121,1,7,11
7.10E+02,-7138,3409,-709,-282,-60,100,1,7,11
7.09E+02,-7135,3414,-714,-284,-68,82,1,7,11
7.12E+02,-7135,3422,-708,-294,-72,62,1,7,11
7.12E+02,-7131,3418,-703,-312,-74,45,1,7,11
7.02E+02,-7130,3411,-700,-330,-75,26,1,7,11
6.88E+02,-7123,3404,-700,-333,-75,12,1,7,11
6.84E+02,-7119,3401,-696,-332,-78,2,1,7,11
7.03E+02,-7118,3396,-693,-325,-67,-261,1,7,11
7.42E+02,-7120,3403,-700,-316,-56,-267,1,7,11
7.85E+02,-7129,3410,-699,-304,-46,-272,1,7,11
8.20E+02,-7138,3416,-705,-308,-39,-284,1,7,11
8.40E+02,-7154,3427,-691,-308,-40,-293,1,7,11
8.46E+02,-7154,3453,-702,-306,-52,-291,1,7,11
8.43E+02,-7133,3233,-737,-322,-55,-278,1,7,11
8.32E+02,-7135,3255,-751,-375,-32,-270,1,7,11
8.15E+02,-7149,3242,-766,-199,-9,-275,1,7,11
7.97E+02,-7148,3449,-764,-541,-10,-304,1,7,11
7.79E+02,-7130,3372,-1026,-615,-18,-369,1,7,11
7.64E+02,-7109,3032,-768,-408,-11,-194,1,7,11
7.54E+02,-7109,2951,-761,-423,278,-524,1,7,11
7.49E+02,-7133,3149,-754,-392,312,-562,1,7,11
7.47E+02,-7141,3089,-753,-588,338,-542,1,7,11
7.48E+02,-7168,2800,-739,-235,367,-230,1,7,11
7.50E+02,-7461,2784,-722,-370,369,-144,1,7,11
7.54E+02,-7501,2792,-715,16,328,-304,1,7,11
7.58E+02,-7523,2807,-701,-106,-2,57,1,7,11
7.60E+02,-7517,3092,-707,276,-91,-96,1,7,11
7.60E+02,-7491,3136,-721,383,75,-6,1,7,11
7.54E+02,-7461,3193,-746,203,9,319,1,7,11
7.42E+02,-7439,3009,-750,231,-291,364,1,7,11
7.21E+02,-7431,3340,-749,213,-319,147,1,7,11
6.91E+02,-7430,3410,-736,162,-336,181,1,7,11
6.65E+02,-7161,3208,-726,348,-353,213,1,7,11
6.59E+02,-7115,3252,-730,267,-356,228,1,7,11
6.85E+02,-7076,3290,-743,-78,-319,217,1,7,11
7.27E+02,-7047,3585,-757,85,9,183,1,7,11
7.70E+02,-7290,3612,-767,-268,96,135,1,7,11
7.99E+02,-7051,3636,-1034,-364,-81,336,1,7,11
8.15E+02,-7076,3639,-1029,-204,-26,283,1,7,11
8.17E+02,-7087,3612,-762,-534,-7,-26,1,7,11
8.09E+02,-7109,3315,-755,-586,-17,-88,1,7,11
7.91E+02,-7122,3258,-742,-603,-51,102,1,7,11
7.66E+02,-7129,3436,-713,-596,-97,42,1,7,11
7.34E+02,-7142,3330,-653,-565,109,-273,1,7,11
7.01E+02,-7437,2967,-817,-238,41,-322,1,7,11
6.77E+02,-7492,3127,-468,-371,-319,-344,1,7,11
6.71E+02,-7304,3120,-396,73,-197,-321,1,7,11
6.81E+02,-7548,2965,-390,-6,-603,38,1,7,11
6.97E+02,-7488,3336,-428,323,-428,-57,1,7,11
7.08E+02,-7112,3435,-498,282,-413,130,1,7,11
7.12E+02,-7259,3205,-810,-120,-534,251,1,7,11
7.10E+02,-7217,3451,-825,-306,-328,521,1,7,11
7.01E+02,-7246,3433,-813,-231,126,183,1,7,11
6.86E+02,-7291,3438,-800,-638,264,343,1,7,11
6.65E+02,-7069,3455,-803,-492,363,277,1,7,11
6.40E+02,-7097,3204,-822,-820,191,266,1,7,11
6.19E+02,-7114,3455,-845,-848,531,293,1,7,11
6.21E+02,-7167,3451,-855,-825,610,330,1,7,11
6.52E+02,-7464,3219,-877,-490,639,369,1,7,11
6.98E+02,-7501,3247,-649,-397,622,374,1,7,11
7.45E+02,-7506,3259,-671,-551,565,358,1,7,11
7.84E+02,-7505,3271,-670,-190,226,310,1,7,11
8.15E+02,-7490,3253,-668,-344,383,-9,1,7,11
8.39E+02,-7460,3230,-650,33,280,-69,1,7,11
8.58E+02,-7168,3225,-895,-98,-69,-115,1,7,11
8.67E+02,-7104,3248,-646,310,77,123,1,7,11
8.59E+02,-7056,3281,-651,365,35,-124,1,7,11
8.25E+02,-7271,3310,-670,365,24,-109,1,7,11
7.64E+02,-7245,3587,-684,319,36,-95,1,7,11
7.02E+02,-7220,3615,-702,-16,54,-82,1,7,11
6.69E+02,-7230,3635,-707,-127,78,-63,1,7,11
6.75E+02,-7232,3639,-706,-258,95,-32,1,7,11
7.02E+02,-7215,3636,-699,-135,105,258,1,7,11
7.31E+02,-7214,3627,-681,-515,122,293,1,7,11
7.48E+02,-7241,3611,-651,-614,-121,326,1,7,11
7.48E+02,-7253,3604,-887,-409,-126,365,1,7,11
7.23E+02,-7239,3610,-885,-415,-124,143,1,7,11
6.82E+02,-7231,3631,-885,-391,-97,168,1,7,11
6.44E+02,-7218,3660,-884,-606,-53,186,1,7,11
6.25E+02,-7219,3697,-881,-552,-8,183,1,7,11
6.20E+02,-7223,3471,-886,-240,285,167,1,7,11
6.21E+02,-7235,3508,-888,-187,309,139,1,7,11
6.23E+02,-7247,3530,-895,-140,319,353,1,7,11
6.25E+02,-7247,3544,-649,-358,321,297,1,7,11
6.27E+02,-7262,3550,-656,-332,328,-21,1,7,11
6.28E+02,-7274,3548,-673,-320,327,-83,1,7,11
6.30E+02,-7273,3542,-691,-321,319,113,1,7,11
6.30E+02,-7289,3525,-685,-333,307,60,1,7,11
6.31E+02,-7292,3490,-692,-346,284,20,1,7,11
6.31E+02,-7280,3466,-685,-354,258,-269,1,7,11
6.32E+02,-7278,3700,-676,-374,-16,-290,1,7,11
6.33E+02,-7275,3674,-665,-138,-31,-297,1,7,11
6.36E+02,-7272,3652,-657,-159,-43,-291,1,7,11
6.41E+02,-7262,3627,-651,-171,-50,-271,1,7,11
6.47E+02,-7259,3607,-650,-181,-52,5,1,7,11
6.55E+02,-7264,3601,-645,-185,-55,30,1,7,11
6.62E+02,-7259,3604,-890,-185,-54,55,1,7,11
6.68E+02,-7261,3607,-877,-188,-47,85,1,7,11
6.73E+02,-7264,3617,-873,-188,-42,113,1,7,11
6.76E+02,-7265,3618,-872,-186,-38,-119,1,7,11
6.78E+02,-7263,3622,-867,-176,-32,-101,1,7,11
6.80E+02,-7259,3634,-863,-161,-30,-91,1,7,11
6.81E+02,-7256,3646,-860,-148,-24,-85,1,7,11
6.83E+02,-7259,3660,-869,-134,-16,-83,1,7,11
6.84E+02,-7259,3678,-873,-375,-9,-84,1,7,11
6.86E+02,-7261,3693,-876,-367,-3,-89,1,7,11
6.87E+02,-7263,3702,-883,-361,-1,-91,1,7,11
6.89E+02,-7269,3707,-875,-355,261,-99,1,7,11
6.91E+02,-7262,3705,-880,-352,260,-110,1,7,11
6.94E+02,-7254,3705,-888,-343,-4,-126,1,7,11
6.97E+02,-7251,3456,-893,-329,-7,116,1,7,11
7.00E+02,-7254,3458,-889,-317,-12,106,1,7,11
7.04E+02,-7250,3462,-896,-307,-18,97,1,7,11
7.08E+02,-7234,3467,-648,-298,-25,90,1,7,11
7.11E+02,-7229,3459,-645,-300,-27,80,1,7,11
7.13E+02,-7222,3707,-652,-302,-30,71,1,7,11
7.13E+02,-7229,3706,-652,-301,-34,63,1,7,11
7.12E+02,-7226,3706,-665,-300,-46,65,1,7,11
7.12E+02,-7227,3701,-666,-303,-55,71,1,7,11
7.12E+02,-7222,3697,-662,-303,-66,78,1,7,11
7.14E+02,-7220,3690,-676,-299,-74,80,1,7,11
7.18E+02,-7249,3708,-660,-300,-86,77,1,7,11
7.26E+02,-7272,3711,-647,-303,-124,84,1,7,11
7.38E+02,-7265,3462,-658,-299,88,94,1,7,11
7.55E+02,-7252,3473,-655,-289,68,108,1,7,11
7.77E+02,-7241,3481,-653,-279,68,127,1,7,11
8.05E+02,-7232,3489,-641,-268,79,-114,1,7,11
8.38E+02,-7226,3496,-884,-263,90,-110,1,7,11
8.75E+02,-7226,3499,-872,-258,98,-112,1,7,11
9.14E+02,-7224,3498,-866,3,94,-121,1,7,11
9.52E+02,-7216,3496,-866,11,89,118,1,7,11
9.84E+02,-7205,3499,-867,12,97,100,1,7,11
1.01E+03,-7205,3493,-872,10,118,83,1,7,11
1.02E+03,-7207,3489,-873,6,-97,63,1,7,11
1.04E+03,-7218,3481,-867,2,-69,60,1,7,11
1.05E+03,-7219,3472,-860,5,-49,63,1,7,11
1.07E+03,-7222,3467,-865,6,-24,64,1,7,11
1.08E+03,-7224,3457,-866,5,-10,63,1,7,11
1.10E+03,-7226,3703,-873,5,-2,61,1,7,11
1.12E+03,-7237,3696,-874,0,261,62,1,7,11
1.13E+03,-7238,3692,-880,0,260,73,1,7,11
1.15E+03,-7234,3690,-893,-257,256,85,1,7,11
1.16E+03,-7230,3693,-648,-259,258,98,1,7,11
1.17E+03,-7227,3704,-655,-264,266,116,1,7,11
1.18E+03,-7225,3465,-660,-274,284,-122,1,7,11
1.19E+03,-7233,3468,-662,-286,294,-103,1,7,11
1.21E+03,-7240,3477,-667,-289,295,-90,1,7,11
1.22E+03,-7242,3487,-668,-288,291,-87,1,7,11
1.24E+03,-7232,3490,-672,-285,285,-91,1,7,11
1.27E+03,-7227,3497,-679,-279,282,-100,1,7,11
1.29E+03,-7224,3505,-687,-278,283,-113,1,7,11
1.30E+03,-7214,3511,-695,-278,285,-126,1,7,11
1.32E+03,-7218,3511,-696,-280,285,119,1,7,11
1.33E+03,-7221,3506,-697,-282,280,112,1,7,11
1.33E+03,-7213,3504,-699,-281,275,107,1,7,11
1.34E+03,-7205,3502,-702,-275,276,99,1,7,11
1.34E+03,-7200,3499,-693,-273,275,95,1,7,11
1.34E+03,-7198,3500,-698,-268,276,92,1,7,11
1.34E+03,-7199,3505,-710,-264,280,89,1,7,11
1.34E+03,-7200,3501,-723,-261,285,86,1,7,11
1.34E+03,-7195,3504,-728,-260,286,88,1,7,11
1.34E+03,-7186,3503,-728,-259,289,87,1,7,11
1.35E+03,-7187,3510,-737,-260,294,86,1,7,11
1.35E+03,-7186,3513,-737,-261,302,89,1,7,11
1.35E+03,-7190,3521,-747,-269,317,96,1,7,11
1.35E+03,-7190,3522,-757,-276,319,95,1,7,11
1.35E+03,-7187,3515,-761,-280,322,93,1,7,11
1.35E+03,-7184,3510,-1025,-285,328,91,1,7,11
1.34E+03,-7182,3502,-1030,-283,334,80,1,7,11
1.34E+03,-7185,3510,-1034,-283,341,69,1,7,11
1.34E+03,-7185,3503,-1042,-289,338,67,1,7,11
1.35E+03,-7185,3504,-1052,-291,333,62,1,7,11
1.37E+03,-7190,3501,-1054,-298,324,53,1,7,11
1.38E+03,-7205,3495,-1055,-317,302,42,1,7,11
1.40E+03,-7221,3491,-1063,-333,272,37,1,7,11
1.42E+03,-7216,3486,-1066,-336,-13,38,1,7,11
1.43E+03,-7202,3476,-1070,-332,-27,49,1,7,11
1.45E+03,-7188,3475,-1074,-317,-22,57,1,7,11
1.48E+03,-7181,3474,-1069,-303,-8,61,1,7,11
1.50E+03,-7185,3472,-1069,-293,262,68,1,7,11
1.52E+03,-7186,3474,-1068,-281,268,77,1,7,11
1.53E+03,-7186,3482,-1074,-271,259,87,1,7,11
1.53E+03,-7176,3486,-1075,-265,-3,92,1,7,11
1.53E+03,-6911,3494,-1085,-265,-3,93,1,7,11
1.53E+03,-6911,3497,-1091,-267,257,83,1,7,11
1.52E+03,-7170,3496,-1099,-269,259,73,1,7,11
1.50E+03,-7181,3497,-1113,-267,260,61,1,7,11
1.49E+03,-7188,3497,-1115,-264,259,55,1,7,11
1.47E+03,-7172,3495,-1112,-259,-1,56,1,7,11
1.44E+03,-7176,3492,-1120,-263,-1,51,1,7,11
1.41E+03,-6911,3479,-1130,-272,-10,48,1,7,11
1.39E+03,-7176,3473,-1133,-277,-13,40,1,7,11
1.36E+03,-7179,3467,-1137,-284,-14,39,1,7,11
1.34E+03,-7182,3467,-1138,-292,-19,41,1,7,11
1.32E+03,-7194,3474,-901,-292,-27,51,1,7,11
1.32E+03,-7197,3474,-901,-296,-41,79,1,7,11
1.31E+03,-7207,3469,-1150,-299,-53,97,1,7,11
1.31E+03,-7211,3472,-1152,-289,-73,107,1,7,11
1.32E+03,-7210,3483,-1146,-282,-95,110,1,7,11
1.32E+03,-7210,3483,-1134,-275,-114,108,1,7,11
1.33E+03,-7202,3487,-1126,-270,126,101,1,7,11
1.33E+03,-7197,3483,-1118,-265,114,95,1,7,11
1.33E+03,-7195,3480,-1121,-263,107,91,1,7,11
1.34E+03,-7184,3481,-1119,-261,103,88,1,7,11
1.34E+03,-7180,3477,-1117,-261,102,80,1,7,11
1.34E+03,-7176,3479,-1114,-262,98,74,1,7,11
1.33E+03,-7173,3478,-1105,-267,96,70,1,7,11
1.33E+03,-7175,3478,-1102,-275,96,72,1,7,11
1.33E+03,-7171,3473,-1094,-283,94,79,1,7,11
1.32E+03,-6909,3468,-1080,-291,98,88,1,7,11
1.32E+03,-6909,3468,-1075,-296,104,95,1,7,11
1.32E+03,-6909,3468,-1075,-301,107,100,1,7,11
1.31E+03,-6908,3475,-1085,-305,114,102,1,7,11
1.31E+03,-6911,3476,-1081,-309,127,98,1,7,11
1.31E+03,-7176,3473,-1080,-303,-119,95,1,7,11
1.30E+03,-7185,3480,-1074,-302,-118,95,1,7,11
1.30E+03,-7189,3484,-1071,-296,-120,100,1,7,11
1.30E+03,-7183,3491,-1069,-289,-123,104,1,7,11
1.31E+03,-7178,3491,-1073,-287,-126,106,1,7,11
1.32E+03,-7171,3500,-1069,-280,-122,105,1,7,11
1.33E+03,-7177,3507,-1071,-279,-114,101,1,7,11
1.34E+03,-7190,3518,-1069,-281,-109,100,1,7,11
1.35E+03,-7193,3523,-1066,-289,-109,96,1,7,11
1.36E+03,-7193,3518,-1065,-293,-114,88,1,7,11
1.36E+03,-7188,3513,-1069,-296,-122,76,1,7,11
1.36E+03,-7186,3501,-1064,-297,-122,66,1,7,11
1.36E+03,-7182,3500,-1055,-288,-118,59,1,7,11
1.36E+03,-7185,3493,-1057,-281,-114,58,1,7,11
1.36E+03,-7180,3486,-1060,-274,-118,66,1,7,11
1.36E+03,-7185,3485,-1063,-261,-124,69,1,7,11
1.36E+03,-7202,3488,-1059,-260,112,69,1,7,11
1.35E+03,-7216,3494,-1044,-279,76,71,1,7,11
1.35E+03,-7212,3495,-1035,-289,41,83,1,7,11
1.35E+03,-7192,3492,-1030,-296,24,98,1,7,11
1.34E+03,-6910,3491,-1029,-296,34,104,1,7,11
1.33E+03,-6892,3493,-1026,-294,71,102,1,7,11
1.32E+03,-6887,3497,-768,-297,115,99,1,7,11
1.31E+03,-6896,3503,-768,-300,-102,98,1,7,11
1.30E+03,-6906,3512,-1025,-300,-81,102,1,7,11
1.28E+03,-6908,3516,-1025,-299,-71,110,1,7,11
1.27E+03,-6910,3521,-1028,-299,-62,114,1,7,11
1.26E+03,-7172,3523,-1032,-297,-56,109,1,7,11
1.26E+03,-7187,3530,-1050,-293,-57,97,1,7,11
1.25E+03,-7197,3533,-1056,-291,-70,79,1,7,11
1.25E+03,-7205,3529,-1056,-288,-88,61,1,7,11
1.26E+03,-7194,3526,-1054,-286,-108,47,1,7,11
1.28E+03,-7192,3524,-1052,-288,-116,28,1,7,11
1.30E+03,-7188,3513,-1045,-306,-127,14,1,7,11
1.32E+03,-7179,3502,-1038,-322,123,-257,1,7,11
1.34E+03,-7178,3490,-1040,-341,-126,-268,1,7,11
1.36E+03,-7186,3483,-1034,-358,-113,-265,1,7,11
1.38E+03,-7195,3470,-1027,-367,-101,8,1,7,11
1.39E+03,-7196,3464,-765,-368,-90,34,1,7,11
1.40E+03,-7209,3703,-765,-365,-78,60,1,7,11
1.41E+03,-7216,3696,-765,-351,-77,75,1,7,11
1.41E+03,-7230,3692,-765,-330,-86,79,1,7,11
1.41E+03,-7233,3704,-1025,-312,-108,87,1,7,11
1.40E+03,-7224,3709,-1026,-295,-120,93,1,7,11
1.40E+03,-7217,3460,-1027,-290,-123,104,1,7,11
1.40E+03,-7206,3467,-763,-290,-122,121,1,7,11
1.39E+03,-7198,3465,-765,-294,-124,-120,1,7,11
1.39E+03,-7191,3470,-753,-291,-122,-110,1,7,11
1.39E+03,-7187,3477,-752,-289,-118,-105,1,7,11
1.38E+03,-7181,3487,-756,-285,-111,-103,1,7,11
1.37E+03,-7180,3501,-755,-284,-104,-100,1,7,11
1.37E+03,-7174,3507,-759,-284,-95,-101,1,7,11
1.36E+03,-7169,3509,-751,-287,-90,-103,1,7,11
1.35E+03,-7172,3521,-753,-295,-83,-110,1,7,11
1.34E+03,-7177,3525,-759,-304,-81,-117,1,7,11
1.34E+03,-7181,3530,-764,-313,-78,-128,1,7,11
1.33E+03,-7178,3535,-761,-321,-76,122,1,7,11
1.32E+03,-7176,3540,-766,-331,-77,116,1,7,11
1.32E+03,-6909,3544,-1032,-339,-74,111,1,7,11
1.32E+03,-6912,3547,-1026,-346,-66,110,1,7,11
1.33E+03,-6910,3546,-1027,-356,-61,112,1,7,11
1.35E+03,-7174,3542,-1025,-356,-58,112,1,7,11
1.38E+03,-7185,3544,-768,-351,-62,108,1,7,11
1.41E+03,-7182,3537,-765,-339,-73,101,1,7,11
1.44E+03,-7174,3533,-763,-321,-85,87,1,7,11
1.46E+03,-7176,3536,-765,-307,-89,74,1,7,11
1.47E+03,-7179,3530,-768,-297,-97,68,1,7,11
1.48E+03,-7176,3526,-763,-286,-105,70,1,7,11
1.48E+03,-7173,3525,-751,-274,-111,76,1,7,11
1.49E+03,-7170,3522,-744,-263,-116,89,1,7,11
1.49E+03,-7174,3523,-737,0,-115,101,1,7,11
1.49E+03,-7170,3522,-735,6,-118,117,1,7,11
1.50E+03,-7173,3521,-737,9,-119,122,1,7,11
1.50E+03,-6900,3516,-740,12,-122,120,1,7,11
1.50E+03,-6890,3525,-743,14,-116,104,1,7,11
1.50E+03,-7170,3545,-741,1,-106,83,1,7,11
1.50E+03,-7197,3549,-737,-284,-120,72,1,7,11
1.49E+03,-7193,3546,-743,-303,112,75,1,7,11
1.48E+03,-7179,3541,-742,-319,112,77,1,7,11
1.47E+03,-7175,3540,-748,-329,-122,80,1,7,11
1.45E+03,-6910,3535,-750,-338,-97,79,1,7,11
1.43E+03,-6903,3531,-747,-346,-71,73,1,7,11
1.40E+03,-7169,3538,-744,-355,-49,67,1,7,11
1.37E+03,-6910,3542,-739,-356,-39,66,1,7,11
1.34E+03,-6907,3540,-747,-345,-42,68,1,7,11
1.31E+03,-6909,3533,-752,-333,-39,68,1,7,11
1.28E+03,-7180,3519,-750,-314,-41,65,1,7,11
1.26E+03,-7191,3505,-755,-293,-55,54,1,7,11
1.24E+03,-7196,3502,-757,-266,-75,38,1,7,11
1.23E+03,-7194,3511,-762,17,-95,29,1,7,11
1.22E+03,-7175,3508,-760,34,-110,30,1,7,11
1.22E+03,-7170,3510,-763,36,-108,29,1,7,11
1.22E+03,-6903,3505,-766,32,-112,37,1,7,11
1.22E+03,-6901,3513,-1026,27,-110,44,1,7,11
1.23E+03,-6902,3517,-1041,17,-101,57,1,7,11
1.24E+03,-6907,3526,-1047,5,-93,76,1,7,11
1.25E+03,-7170,3535,-1045,-268,-84,91,1,7,11
1.26E+03,-7180,3543,-1046,-284,-81,106,1,7,11
1.27E+03,-7186,3551,-1034,-302,-83,114,1,7,11
1.27E+03,-7197,3551,-1027,-323,-96,115,1,7,11
1.28E+03,-7208,3552,-768,-340,-117,104,1,7,11
1.29E+03,-7208,3542,-763,-363,115,87,1,7,11
1.29E+03,-7208,3528,-755,-383,93,65,1,7,11
1.29E+03,-7191,3513,-748,-135,80,43,1,7,11
1.30E+03,-7175,3497,-743,-138,78,27,1,7,11
1.30E+03,-6912,3485,-745,-129,96,23,1,7,11
1.31E+03,-7176,3477,-740,-367,119,32,1,7,11
1.31E+03,-7190,3468,-732,-338,-121,52,1,7,11
1.31E+03,-7204,3461,-725,-295,-119,82,1,7,11
1.32E+03,-7212,3465,-719,5,-125,107,1,7,11
1.32E+03,-7212,3473,-718,49,110,124,1,7,11
1.32E+03,-7205,3490,-721,83,86,127,1,7,11
1.33E+03,-7189,3512,-724,99,67,124,1,7,11
1.33E+03,-7177,3530,-728,92,59,112,1,7,11
1.33E+03,-6907,3538,-727,65,61,93,1,7,11
1.34E+03,-6897,3546,-729,29,75,79,1,7,11
1.34E+03,-6898,3555,-732,-273,95,71,1,7,11
1.34E+03,-6902,3550,-717,-320,121,75,1,7,11
1.34E+03,-6906,3543,-715,-360,-114,90,1,7,11
1.34E+03,-6911,3530,-705,-131,-93,107,1,7,11
1.34E+03,-7181,3526,-705,-133,-68,-124,1,7,11
1.35E+03,-7195,3525,-695,-374,-63,-112,1,7,11
1.35E+03,-7204,3530,-700,-355,-69,-101,1,7,11
1.35E+03,-7208,3541,-704,-335,-87,-94,1,7,11
1.35E+03,-7202,3546,-703,-318,-103,-97,1,7,11
1.35E+03,-7190,3544,-698,-308,-115,-108,1,7,11
1.34E+03,-7183,3546,-701,-292,-125,-123,1,7,11
1.34E+03,-7185,3557,-697,-286,127,125,1,7,11
1.34E+03,-7175,3553,-687,-283,120,-128,1,7,11
1.34E+03,-6908,3544,-672,-273,121,124,1,7,11
1.34E+03,-7171,3545,-666,-265,123,120,1,7,11
1.34E+03,-7183,3555,-656,-265,109,112,1,7,11
1.34E+03,-7186,3564,-659,-264,91,113,1,7,11
1.33E+03,-7179,3572,-663,-264,85,124,1,7,11
1.33E+03,-6909,3580,-673,-265,99,-122,1,7,11
1.32E+03,-6900,3583,-677,-263,124,-119,1,7,11
1.32E+03,-6893,3846,-683,-265,-102,-125,1,7,11
1.31E+03,-6888,3850,-672,-268,-78,121,1,7,11
1.30E+03,-6887,3855,-675,-271,-58,112,1,7,11
1.30E+03,-6875,3856,-683,-277,-50,103,1,7,11
1.29E+03,-6867,3859,-687,-281,-35,94,1,7,11
1.28E+03,-6866,3853,-699,-289,-12,87,1,7,11
1.27E+03,-6879,3855,-705,-295,269,75,1,7,11
1.26E+03,-6897,3854,-716,-298,283,66,1,7,11
1.25E+03,-6909,3845,-725,-297,282,58,1,7,11
1.23E+03,-7175,3579,-723,-290,273,52,1,7,11
1.22E+03,-6903,3572,-735,-280,-1,53,1,7,11
1.20E+03,-6906,3563,-753,-269,-13,46,1,7,11
1.19E+03,-6909,3556,-759,-252,-23,43,1,7,11
1.18E+03,-7179,3558,-760,17,-31,53,1,7,11
1.17E+03,-7186,3560,-754,29,-52,79,1,7,11
1.16E+03,-7188,3576,-762,49,-78,107,1,7,11
1.15E+03,-7172,3845,-764,69,-100,-128,1,7,11
1.15E+03,-6899,3858,-1030,90,-112,-120,1,7,11
1.14E+03,-6909,3868,-1026,97,-114,120,1,7,11
1.13E+03,-7171,3886,-1027,95,125,94,1,7,11
1.13E+03,-7170,3899,-764,76,100,60,1,7,11
1.12E+03,-7172,3897,-767,37,82,22,1,7,11
1.11E+03,-7172,3883,-752,-276,69,-267,1,7,11
1.09E+03,-7175,3851,-738,-337,65,-297,1,7,11
1.07E+03,-6907,3545,-722,-384,65,-315,1,7,11
1.04E+03,-6901,3507,-708,-156,83,-329,1,7,11
1.02E+03,-6911,3699,-699,-150,-104,-312,1,7,11
1.01E+03,-7177,3689,-691,-377,-61,-279,1,7,11
1.00E+03,-7198,3685,-694,-341,-28,24,1,7,11
9.98E+02,-7214,3685,-694,-297,-13,71,1,7,11
9.94E+02,-7228,3695,-698,5,-18,101,1,7,11
9.88E+02,-7232,3710,-703,46,-41,116,1,7,11
9.78E+02,-7237,3472,-713,73,-75,112,1,7,11
9.64E+02,-7226,3499,-713,84,-115,100,1,7,11
9.46E+02,-7205,3515,-712,73,109,84,1,7,11
9.26E+02,-7190,3529,-715,46,91,67,1,7,11
9.06E+02,-7181,3534,-705,9,87,46,1,7,11
8.86E+02,-6911,3544,-705,-284,94,27,1,7,11
8.68E+02,-6904,3551,-698,-321,113,15,1,7,11
8.53E+02,-6906,3554,-701,-356,-113,18,1,7,11
8.43E+02,-7175,3549,-708,-384,-79,32,1,7,11
8.40E+02,-7193,3536,-702,-148,-55,53,1,7,11
8.45E+02,-7221,3511,-704,-380,-54,71,1,7,11
8.57E+02,-7225,3499,-699,-348,-71,74,1,7,11
8.76E+02,-7228,3495,-692,-301,-96,75,1,7,11
9.02E+02,-7223,3504,-694,1,126,79,1,7,11
9.31E+02,-7208,3506,-695,39,93,93,1,7,11
9.54E+02,-7181,3522,-702,75,69,106,1,7,11
9.61E+02,-7175,3550,-694,92,59,114,1,7,11
9.43E+02,-7198,3569,-679,90,40,123,1,7,11
9.00E+02,-7203,3581,-669,83,11,-121,1,7,11
8.49E+02,-7184,3583,-666,75,-260,-112,1,7,11
8.06E+02,-6901,3841,-657,67,9,-116,1,7,11
7.82E+02,-6877,3850,-663,61,47,106,1,7,11
7.74E+02,-6873,3853,-657,29,121,83,1,7,11
7.75E+02,-6876,3854,-647,-259,-95,63,1,7,11
7.80E+02,-6885,3852,-896,-290,-72,52,1,7,11
7.88E+02,-6877,3852,-656,-321,-58,47,1,7,11
7.98E+02,-6878,3850,-680,-351,-36,46,1,7,11
8.11E+02,-6894,3574,-696,-378,257,46,1,7,11
8.29E+02,-7185,3554,-701,-137,285,50,1,7,11
8.51E+02,-7216,3531,-692,-383,294,54,1,7,11
8.77E+02,-7237,3514,-687,-350,281,50,1,7,11
9.00E+02,-7248,3504,-688,-308,256,45,1,7,11
9.15E+02,-7238,3505,-700,-267,-32,36,1,7,11
9.16E+02,-7242,3510,-696,9,-57,19,1,7,11
9.05E+02,-7232,3510,-682,13,-88,7,1,7,11
8.85E+02,-7225,3515,-677,5,-113,-258,1,7,11
8.63E+02,-7205,3514,-693,-275,-127,3,1,7,11
8.42E+02,-7185,3512,-700,-314,-124,11,1,7,11
8.25E+02,-7169,3509,-708,-353,-96,23,1,7,11
8.16E+02,-7173,3504,-706,-137,-53,41,1,7,11
8.14E+02,-7187,3486,-696,-172,-13,64,1,7,11
8.23E+02,-7205,3465,-699,-186,264,79,1,7,11
8.40E+02,-7216,3707,-690,-176,268,87,1,7,11
8.66E+02,-7234,3698,-699,-148,262,84,1,7,11
8.97E+02,-7236,3710,-705,-369,-29,86,1,7,11
9.30E+02,-7233,3470,-704,-314,-55,95,1,7,11
9.62E+02,-7230,3482,-711,-291,-78,104,1,7,11
9.86E+02,-7222,3494,-714,-272,-101,110,1,7,11
9.91E+02,-7205,3508,-706,-263,-120,110,1,7,11
9.66E+02,-7187,3524,-705,-262,125,105,1,7,11
9.03E+02,-7169,3539,-699,-272,126,98,1,7,11
8.18E+02,-6900,3543,-697,-286,-113,91,1,7,11
7.34E+02,-6898,3553,-701,-302,-84,84,1,7,11
6.74E+02,-6899,3554,-707,-318,-53,82,1,7,11
6.38E+02,-6910,3551,-711,-337,-25,84,1,7,11
6.19E+02,-7178,3549,-711,-343,-7,88,1,7,11
6.12E+02,-7191,3553,-719,-338,258,92,1,7,11
6.11E+02,-7201,3547,-719,-330,-3,95,1,7,11
6.13E+02,-7200,3536,-722,-315,-22,93,1,7,11
6.18E+02,-7194,3543,-726,-298,-40,84,1,7,11
6.26E+02,-7190,3555,-724,-290,-58,75,1,7,11
6.35E+02,-7184,3563,-730,-290,-77,68,1,7,11
6.46E+02,-7179,3572,-732,-297,-88,60,1,7,11
6.59E+02,-7172,3572,-731,-310,-93,51,1,7,11
6.72E+02,-7169,3564,-727,-323,-92,41,1,7,11
6.88E+02,-6912,3559,-718,-330,-86,34,1,7,11
7.05E+02,-7174,3558,-713,-329,-75,29,1,7,11
7.23E+02,-7179,3548,-712,-326,-71,28,1,7,11
7.40E+02,-7189,3543,-708,-319,-72,24,1,7,11
7.51E+02,-7182,3541,-712,-314,-75,9,1,7,11
7.49E+02,-7202,3552,-714,-327,-73,-269,1,7,11
7.34E+02,-7228,3551,-702,-359,-96,-280,1,7,11
7.17E+02,-7224,3543,-704,-135,122,-284,1,7,11
7.09E+02,-7213,3532,-698,-160,106,-284,1,7,11
7.13E+02,-7200,3515,-696,-179,107,-275,1,7,11
7.28E+02,-7190,3496,-693,-178,123,-267,1,7,11
7.52E+02,-7182,3488,-695,-170,-108,0,1,7,11
7.79E+02,-7183,3482,-687,-157,-84,12,1,7,11
8.03E+02,-7193,3472,-680,-137,-68,21,1,7,11
8.20E+02,-7209,3467,-677,-373,-70,32,1,7,11
8.26E+02,-7220,3461,-677,-348,-82,36,1,7,11
8.23E+02,-7231,3463,-673,-324,-99,40,1,7,11
8.13E+02,-7237,3469,-675,-301,-120,37,1,7,11
7.98E+02,-7233,3474,-666,-277,115,34,1,7,11
7.78E+02,-7222,3471,-657,-259,101,29,1,7,11
7.53E+02,-7195,3460,-656,7,103,27,1,7,11
7.20E+02,-7197,3710,-641,10,126,17,1,7,11
6.79E+02,-7201,3703,-896,1,-120,19,1,7,11
6.36E+02,-7199,3696,-892,-262,-113,23,1,7,11
5.98E+02,-7200,3699,-644,-269,-104,46,1,7,11
5.70E+02,-7204,3701,-643,-278,-90,77,1,7,11
5.51E+02,-7209,3703,-896,-281,-76,107,1,7,11
5.42E+02,-7218,3702,-896,-276,-60,-123,1,7,11
5.43E+02,-7236,3710,-644,-268,-52,-100,1,7,11
5.54E+02,-7249,3469,-649,0,-57,-85,1,7,11
5.73E+02,-7254,3486,-656,19,-72,-78,1,7,11
6.06E+02,-7248,3505,-658,40,-85,-78,1,7,11
6.56E+02,-7234,3516,-665,48,-102,-78,1,7,11
7.27E+02,-7219,3518,-660,55,-116,-98,1,7,11
8.00E+02,-7213,3522,-665,68,-124,-115,1,7,11
8.55E+02,-7208,3521,-664,83,127,121,1,7,11
8.79E+02,-7207,3531,-671,96,125,100,1,7,11
8.65E+02,-7200,3541,-670,101,121,88,1,7,11
8.04E+02,-7190,3547,-672,95,125,75,1,7,11
7.07E+02,-7191,3545,-671,84,-122,63,1,7,11
6.11E+02,-7191,3546,-670,72,-113,54,1,7,11
5.46E+02,-7193,3547,-668,54,-107,44,1,7,11
5.18E+02,-7192,3532,-661,43,-101,35,1,7,11
5.25E+02,-7180,3524,-660,35,-92,30,1,7,11
5.55E+02,-7174,3525,-667,26,-75,32,1,7,11
5.93E+02,-7174,3528,-672,15,-52,42,1,7,11
6.28E+02,-7179,3534,-676,2,-31,54,1,7,11
6.58E+02,-7183,3526,-685,-268,-13,63,1,7,11
6.79E+02,-7181,3526,-692,-283,259,69,1,7,11
6.82E+02,-7177,3528,-702,-302,280,66,1,7,11
6.61E+02,-7177,3526,-706,-320,302,62,1,7,11
6.15E+02,-7172,3521,-722,-348,323,61,1,7,11
5.70E+02,-6909,3521,-739,-366,339,46,1,7,11
5.46E+02,-7177,3534,-750,-138,361,21,1,7,11
5.45E+02,-7210,3541,-749,-180,366,-264,1,7,11
5.63E+02,-7226,3532,-751,-222,343,-282,1,7,11
5.94E+02,-7232,3515,-739,-249,321,-284,1,7,11
6.33E+02,-7230,3492,-734,-516,310,-275,1,7,11
6.75E+02,-7219,3469,-737,-240,302,-263,1,7,11
7.13E+02,-7214,3456,-731,-203,304,0,1,7,11
7.45E+02,-7213,3702,-730,-159,312,10,1,7,11
7.72E+02,-7216,3703,-732,-367,315,19,1,7,11
7.96E+02,-7224,3707,-734,-321,300,30,1,7,11
8.17E+02,-7222,3711,-739,-278,275,41,1,7,11
8.36E+02,-7217,3467,-758,10,-7,48,1,7,11
8.53E+02,-7214,3476,-767,24,-27,51,1,7,11
8.69E+02,-7208,3482,-1029,28,-43,54,1,7,11
8.84E+02,-7204,3477,-1036,21,-53,53,1,7,11
8.98E+02,-7206,3473,-1038,14,-59,56,1,7,11
9.12E+02,-7199,3466,-1041,2,-67,65,1,7,11
9.24E+02,-7195,3463,-1041,-262,-68,72,1,7,11
9.37E+02,-7191,3456,-1037,-273,-76,80,1,7,11
9.48E+02,-7199,3457,-1036,-281,-80,90,1,7,11
9.58E+02,-7207,3456,-1027,-289,-85,105,1,7,11
9.67E+02,-7208,3456,-766,-287,-94,118,1,7,11
9.74E+02,-7208,3711,-764,-277,-101,126,1,7,11
9.79E+02,-7202,3462,-1030,-268,-99,-124,1,7,11
9.83E+02,-7194,3471,-1033,-264,-87,-126,1,7,11
9.85E+02,-7193,3485,-1040,-260,-74,120,1,7,11
9.86E+02,-7200,3498,-1038,-264,-66,99,1,7,11
9.85E+02,-7212,3513,-1040,-279,-61,77,1,7,11
9.84E+02,-7212,3516,-1035,-302,-61,54,1,7,11
9.81E+02,-7213,3509,-1039,-321,-65,32,1,7,11
9.77E+02,-7210,3494,-1026,-333,-71,16,1,7,11
9.69E+02,-7214,3478,-1025,-331,-75,7,1,7,11
9.56E+02,-7218,3464,-1027,-317,-80,7,1,7,11
9.39E+02,-7215,3705,-766,-293,-89,12,1,7,11
9.15E+02,-7212,3701,-764,-265,-97,25,1,7,11
8.81E+02,-7214,3456,-762,14,-107,44,1,7,11
8.33E+02,-7210,3460,-752,28,-117,62,1,7,11
7.65E+02,-7207,3467,-759,25,127,76,1,7,11
6.89E+02,-7196,3480,-1027,16,121,87,1,7,11
6.38E+02,-7194,3491,-1028,-264,122,93,1,7,11
6.37E+02,-7195,3496,-1027,-297,-126,98,1,7,11
6.71E+02,-7200,3489,-1026,-351,-112,97,1,7,11
7.13E+02,-7193,3465,-761,-378,-102,92,1,7,11
7.53E+02,-7196,3698,-754,-135,-94,82,1,7,11
7.87E+02,-7198,3680,-747,-379,-84,69,1,7,11
8.08E+02,-7212,3677,-742,-353,-76,72,1,7,11
8.18E+02,-7228,3677,-736,-323,-76,87,1,7,11
8.17E+02,-7241,3684,-727,-284,-88,116,1,7,11
8.07E+02,-7243,3696,-721,13,-108,-118,1,7,11
7.90E+02,-7223,3709,-733,47,-126,-107,1,7,11
7.71E+02,-7199,3470,-753,69,-127,-114,1,7,11
7.54E+02,-7189,3502,-764,77,-115,124,1,7,11
7.40E+02,-7183,3528,-1025,54,-100,112,1,7,11
7.29E+02,-7175,3541,-1033,13,-90,108,1,7,11
7.21E+02,-6909,3538,-1027,-296,-80,100,1,7,11
7.16E+02,-7179,3522,-760,-348,-75,88,1,7,11
7.13E+02,-7201,3485,-746,-129,-89,78,1,7,11
7.14E+02,-7215,3464,-744,-130,-105,78,1,7,11
7.17E+02,-7218,3705,-738,-357,-112,91,1,7,11
7.24E+02,-7216,3694,-730,-299,-117,117,1,7,11
7.34E+02,-7205,3697,-728,28,-119,-113,1,7,11
7.47E+02,-7196,3457,-735,91,-122,-91,1,7,11
7.65E+02,-7192,3493,-737,-119,-124,-77,1,7,11
7.87E+02,-7186,3556,-743,-99,122,-71,1,7,11
8.14E+02,-7175,3843,-746,-114,105,-73,1,7,11
8.41E+02,-6903,3858,-745,81,93,-90,1,7,11
8.62E+02,-6900,3860,-746,26,107,-110,1,7,11
8.77E+02,-6898,3851,-735,-289,114,124,1,7,11
8.87E+02,-6892,3845,-727,-338,-128,96,1,7,11
8.95E+02,-6898,3566,-726,-135,-102,60,1,7,11
9.04E+02,-6904,3538,-726,-174,-76,19,1,7,11
9.15E+02,-6909,3518,-725,-204,-45,-285,1,7,11
9.31E+02,-7179,3496,-726,-233,-18,-322,1,7,11
9.49E+02,-7202,3468,-713,-252,266,-339,1,7,11
9.64E+02,-7225,3697,-704,-253,283,-322,1,7,11
9.74E+02,-7233,3669,-699,-229,282,-284,1,7,11
9.76E+02,-7243,3651,-701,-179,273,10,1,7,11
9.74E+02,-7247,3652,-716,-379,258,44,1,7,11
9.66E+02,-7250,3665,-737,-330,-15,68,1,7,11
9.54E+02,-7257,3688,-745,-287,-36,82,1,7,11
9.36E+02,-7250,3462,-760,-263,-67,94,1,7,11
9.12E+02,-7233,3481,-768,3,-94,101,1,7,11
8.84E+02,-7227,3492,-1034,0,-111,102,1,7,11
8.60E+02,-7215,3495,-768,-262,-123,100,1,7,11
8.46E+02,-7203,3495,-764,-264,122,98,1,7,11
8.48E+02,-7191,3491,-743,-259,113,100,1,7,11
8.64E+02,-7187,3485,-743,10,108,100,1,7,11
8.91E+02,-7178,3484,-740,30,103,96,1,7,11
9.26E+02,-7173,3491,-745,48,101,86,1,7,11
9.64E+02,-7173,3511,-747,57,99,80,1,7,11
1.00E+03,-7180,3522,-751,56,99,73,1,7,11
1.03E+03,-7180,3530,-755,44,101,72,1,7,11
1.06E+03,-7166,3528,-753,20,104,70,1,7,11
1.07E+03,-6904,3531,-758,-262,115,62,1,7,11
1.09E+03,-6900,3533,-765,-287,-123,54,1,7,11
1.10E+03,-6910,3525,-763,-314,-101,53,1,7,11
1.11E+03,-7180,3513,-764,-343,-68,65,1,7,11
1.12E+03,-7199,3502,-766,-345,-59,73,1,7,11
1.13E+03,-7211,3493,-1029,-333,-65,76,1,7,11
1.14E+03,-7214,3480,-1029,-309,-82,73,1,7,11
1.15E+03,-7221,3482,-1030,-279,-98,66,1,7,11
1.17E+03,-7229,3490,-1027,1,-121,66,1,7,11
1.18E+03,-7233,3499,-764,20,105,72,1,7,11
1.21E+03,-7229,3509,-760,29,72,76,1,7,11
1.23E+03,-7227,3513,-749,32,42,71,1,7,11
1.25E+03,-7223,3518,-736,29,16,61,1,7,11
1.27E+03,-7222,3524,-730,22,1,42,1,7,11
1.29E+03,-7219,3525,-708,6,-263,25,1,7,11
1.30E+03,-7219,3513,-698,-280,-272,9,1,7,11
1.31E+03,-7210,3491,-686,-306,-281,-261,1,7,11
1.31E+03,-7207,3471,-671,-330,-277,-279,1,7,11
1.32E+03,-7234,3459,-651,-361,-278,-293,1,7,11
1.32E+03,-7253,3701,-894,-139,-301,-289,1,7,11
1.33E+03,-7249,3685,-895,-157,-320,-269,1,7,11
1.34E+03,-7235,3672,-887,-167,-305,12,1,7,11
1.35E+03,-7229,3663,-878,-158,-270,46,1,7,11
1.37E+03,-7221,3662,-870,-138,27,82,1,7,11
1.39E+03,-7219,3663,-863,-369,69,118,1,7,11
1.41E+03,-7228,3671,-854,-337,106,-106,1,7,11
1.43E+03,-7236,3686,-840,-304,115,-80,1,7,11
1.45E+03,-7237,3456,-830,-270,105,-64,1,7,11
1.46E+03,-7226,3473,-830,10,97,-60,1,7,11
1.45E+03,-7225,3512,-838,19,94,-73,1,7,11
1.44E+03,-7219,3524,-838,12,92,-95,1,7,11
1.41E+03,-7211,3531,-841,-265,98,-123,1,7,11
1.37E+03,-7208,3531,-841,-297,110,107,1,7,11
1.34E+03,-7188,3529,-831,-329,126,86,1,7,11
1.30E+03,-7181,3511,-826,-361,-97,65,1,7,11
1.27E+03,-7183,3487,-818,-133,-71,54,1,7,11
1.25E+03,-7198,3475,-817,-142,-48,49,1,7,11
1.24E+03,-7208,3472,-819,-133,-23,64,1,7,11
1.23E+03,-7217,3474,-819,-361,-12,78,1,7,11
1.23E+03,-7225,3477,-829,-331,-8,94,1,7,11
1.23E+03,-7229,3488,-832,-303,-8,108,1,7,11
1.24E+03,-7235,3498,-842,-280,-10,114,1,7,11
1.25E+03,-7240,3502,-853,-263,-21,111,1,7,11
1.26E+03,-7240,3509,-863,6,-38,102,1,7,11
1.27E+03,-7228,3513,-867,15,-46,89,1,7,11
1.29E+03,-7204,3504,-877,22,-47,74,1,7,11
1.30E+03,-7200,3492,-887,33,-32,59,1,7,11
1.31E+03,-7217,3485,-888,52,-15,53,1,7,11
1.31E+03,-7225,3483,-887,77,-10,61,1,7,11
1.32E+03,-7238,3486,-887,105,-15,73,1,7,11
1.33E+03,-7232,3495,-890,-122,-27,90,1,7,11
1.33E+03,-7219,3496,-642,-99,-38,95,1,7,11
1.34E+03,-7204,3514,-657,-93,-44,89,1,7,11
1.35E+03,-7193,3532,-667,-106,-39,74,1,7,11
1.36E+03,-7187,3541,-677,116,-27,59,1,7,11
1.37E+03,-7187,3545,-687,68,-13,49,1,7,11
1.37E+03,-7188,3538,-685,18,259,41,1,7,11
1.36E+03,-7189,3526,-688,-286,272,37,1,7,11
1.35E+03,-7184,3512,-686,-325,290,39,1,7,11
1.35E+03,-7176,3496,-698,-352,313,38,1,7,11
1.34E+03,-7183,3485,-709,-364,338,37,1,7,11
1.34E+03,-7212,3475,-717,-366,358,38,1,7,11
1.33E+03,-7233,3472,-727,-363,355,40,1,7,11
1.33E+03,-7243,3469,-740,-364,342,37,1,7,11
1.32E+03,-7252,3468,-747,-366,326,30,1,7,11
1.32E+03,-7250,3709,-749,-371,303,24,1,7,11
1.31E+03,-7251,3695,-748,-368,279,20,1,7,11
1.30E+03,-7244,3678,-742,-364,-3,20,1,7,11
1.29E+03,-7233,3667,-740,-348,-22,28,1,7,11
1.28E+03,-7226,3667,-739,-325,-40,40,1,7,11
1.27E+03,-7233,3682,-742,-312,-52,59,1,7,11
1.27E+03,-7248,3694,-730,-311,-71,91,1,7,11
1.26E+03,-7243,3458,-733,-309,-105,126,1,7,11
1.25E+03,-7223,3466,-744,-311,-127,-100,1,7,11
1.25E+03,-7212,3467,-748,-311,125,-76,1,7,11
1.24E+03,-7207,3476,-747,-301,-121,-77,1,7,11
1.24E+03,-7214,3481,-736,-295,-105,-94,1,7,11
1.23E+03,-7211,3481,-712,-289,-100,-113,1,7,11
1.23E+03,-7205,3494,-700,-281,-109,126,1,7,11
1.22E+03,-7190,3497,-689,-271,-122,118,1,7,11
1.22E+03,-7178,3501,-691,-260,-117,119,1,7,11
1.22E+03,-6912,3510,-700,-256,-99,119,1,7,11
1.23E+03,-7171,3516,-704,3,-73,122,1,7,11
1.23E+03,-7180,3525,-705,5,-49,-127,1,7,11
1.24E+03,-7185,3532,-707,8,-30,-121,1,7,11
1.25E+03,-7188,3536,-716,7,-19,-120,1,7,11
1.26E+03,-7185,3543,-727,4,-8,127,1,7,11
1.28E+03,-7197,3544,-735,-268,-4,115,1,7,11
1.30E+03,-7194,3536,-739,-283,-12,97,1,7,11
1.32E+03,-7195,3535,-743,-297,-22,81,1,7,11
1.34E+03,-7197,3522,-733,-311,-36,73,1,7,11
1.36E+03,-7194,3516,-729,-314,-55,68,1,7,11
1.38E+03,-7187,3521,-737,-312,-65,67,1,7,11
1.40E+03,-7187,3525,-740,-310,-62,73,1,7,11
1.41E+03,-7189,3519,-742,-311,-58,81,1,7,11
1.42E+03,-7198,3519,-741,-305,-55,81,1,7,11
1.42E+03,-7210,3518,-754,-296,-56,77,1,7,11
1.42E+03,-7209,3513,-751,-293,-61,73,1,7,11
1.42E+03,-7210,3512,-751,-287,-70,67,1,7,11
1.42E+03,-7211,3505,-753,-281,-76,60,1,7,11
1.41E+03,-7211,3496,-748,-272,-84,58,1,7,11
1.41E+03,-7213,3485,-758,-257,-92,61,1,7,11
1.40E+03,-7210,3478,-760,13,-93,68,1,7,11
1.39E+03,-7213,3482,-757,30,-98,77,1,7,11
1.38E+03,-7209,3490,-749,47,-104,93,1,7,11
1.37E+03,-7205,3497,-741,59,-110,112,1,7,11
1.35E+03,-7201,3502,-736,64,-120,125,1,7,11
1.33E+03,-7188,3518,-746,69,127,126,1,7,11
1.31E+03,-7181,3528,-737,58,124,110,1,7,11
1.29E+03,-7177,3529,-724,38,124,84,1,7,11
1.26E+03,-7186,3515,-714,6,126,52,1,7,11
1.23E+03,-7188,3495,-708,-284,125,27,1,7,11
1.21E+03,-7181,3478,-710,-310,125,12,1,7,11
1.18E+03,-6912,3460,-718,-333,-116,17,1,7,11
1.15E+03,-7172,3700,-717,-354,-83,36,1,7,11
1.13E+03,-7183,3694,-723,-371,-43,70,1,7,11
1.11E+03,-7198,3690,-733,-374,-7,104,1,7,11
1.09E+03,-7206,3696,-741,-361,276,-102,1,7,11
1.06E+03,-7212,3709,-746,-338,286,-77,1,7,11
1.04E+03,-7222,3485,-742,-279,282,-63,1,7,11
1.01E+03,-7226,3516,-759,9,260,-60,1,7,11
9.80E+02,-7204,3537,-765,33,-26,-68,1,7,11
9.54E+02,-7184,3562,-1030,35,-54,-93,1,7,11
9.34E+02,-7189,3841,-1030,8,-84,-128,1,7,11
9.23E+02,-7194,3841,-1026,-297,-125,89,1,7,11
9.17E+02,-7190,3840,-1032,-350,97,63,1,7,11
9.17E+02,-7179,3571,-1028,-147,84,54,1,7,11
9.20E+02,-6903,3542,-762,-180,93,52,1,7,11
9.24E+02,-6893,3519,-745,-190,126,45,1,7,11
9.28E+02,-6899,3502,-738,-183,-91,47,1,7,11
9.31E+02,-7172,3485,-733,-157,-66,58,1,7,11
9.31E+02,-7195,3491,-719,-369,-69,79,1,7,11
9.28E+02,-7201,3497,-719,-323,-94,109,1,7,11
9.19E+02,-7190,3511,-723,-276,-121,-122,1,7,11
9.05E+02,-7174,3521,-734,17,117,-109,1,7,11
8.89E+02,-6909,3531,-734,46,111,-115,1,7,11
8.77E+02,-6909,3552,-736,65,102,125,1,7,11
8.70E+02,-6902,3568,-738,75,94,107,1,7,11
8.69E+02,-6899,3572,-739,69,96,92,1,7,11
8.75E+02,-6879,3576,-748,58,109,83,1,7,11
8.88E+02,-6875,3580,-752,32,-121,74,1,7,11
9.06E+02,-6885,3576,-750,4,-96,69,1,7,11
9.29E+02,-6905,3574,-749,-279,-76,69,1,7,11
9.55E+02,-7184,3571,-744,-300,-65,73,1,7,11
9.80E+02,-7193,3566,-744,-309,-67,83,1,7,11
1.00E+03,-7193,3559,-749,-312,-71,88,1,7,11
1.02E+03,-7201,3552,-747,-318,-76,85,1,7,11
1.02E+03,-7200,3542,-743,-327,-85,75,1,7,11
1.02E+03,-7205,3535,-742,-331,-103,55,1,7,11
1.01E+03,-7204,3531,-747,-338,-127,37,1,7,11
1.00E+03,-7207,3524,-747,-347,110,24,1,7,11
9.80E+02,-7198,3512,-738,-359,96,16,1,7,11
9.48E+02,-7196,3492,-730,-365,94,12,1,7,11
9.04E+02,-7198,3466,-719,-360,96,21,1,7,11
8.55E+02,-7205,3708,-703,-340,99,34,1,7,11
8.11E+02,-7210,3703,-693,-309,97,49,1,7,11
7.83E+02,-7214,3705,-684,-267,93,65,1,7,11
7.74E+02,-7212,3458,-675,28,86,81,1,7,11
7.79E+02,-7206,3484,-677,54,81,90,1,7,11
7.92E+02,-7199,3507,-676,68,78,89,1,7,11
8.11E+02,-7191,3537,-678,61,74,75,1,7,11
8.32E+02,-7179,3558,-687,34,74,54,1,7,11
8.53E+02,-7176,3574,-691,-263,81,31,1,7,11
8.70E+02,-7170,3573,-692,-310,93,8,1,7,11
8.84E+02,-7171,3562,-694,-356,114,-266,1,7,11
8.93E+02,-7179,3540,-679,-133,-117,-272,1,7,11
8.98E+02,-7183,3515,-669,-148,-95,-270,1,7,11
8.99E+02,-7197,3496,-673,-142,-76,-258,1,7,11
8.95E+02,-7205,3489,-674,-377,-59,16,1,7,11
8.85E+02,-7213,3491,-671,-358,-57,39,1,7,11
8.71E+02,-7221,3493,-671,-333,-63,64,1,7,11
8.52E+02,-7220,3494,-670,-307,-79,73,1,7,11
8.31E+02,-7210,3497,-673,-287,-92,70,1,7,11
8.12E+02,-7205,3507,-673,-258,-107,63,1,7,11
7.97E+02,-7201,3517,-673,7,-120,58,1,7,11
7.85E+02,-7192,3511,-667,6,126,52,1,7,11
7.72E+02,-7177,3505,-670,4,123,39,1,7,11
7.57E+02,-7178,3516,-670,-258,-125,17,1,7,11
7.36E+02,-7213,3533,-660,-276,-127,-261,1,7,11
7.07E+02,-7229,3538,-666,-299,103,-264,1,7,11
6.68E+02,-7218,3539,-674,-314,88,-264,1,7,11
6.28E+02,-7210,3537,-688,-328,98,-259,1,7,11
5.99E+02,-7204,3531,-678,-337,124,1,1,7,11
5.85E+02,-7201,3514,-670,-341,-104,2,1,7,11
5.82E+02,-7205,3504,-658,-335,-81,6,1,7,11
5.86E+02,-7210,3492,-661,-326,-68,11,1,7,11
5.91E+02,-7212,3488,-659,-309,-68,16,1,7,11
5.97E+02,-7212,3490,-667,-295,-71,22,1,7,11
6.07E+02,-7217,3485,-672,-286,-71,27,1,7,11
6.22E+02,-7223,3484,-667,-284,-69,27,1,7,11
6.43E+02,-7227,3480,-665,-284,-73,25,1,7,11
6.69E+02,-7224,3473,-669,-285,-77,17,1,7,11
6.93E+02,-7220,3463,-670,-287,-80,5,1,7,11
7.12E+02,-7202,3459,-680,-294,-72,-261,1,7,11
7.27E+02,-7212,3705,-677,-310,-45,-275,1,7,11
7.37E+02,-7229,3692,-668,-328,-41,-273,1,7,11
7.44E+02,-7234,3683,-664,-334,-41,-257,1,7,11
7.48E+02,-7244,3676,-664,-332,-41,21,1,7,11
7.52E+02,-7247,3671,-673,-323,-45,44,1,7,11
7.54E+02,-7245,3674,-678,-310,-42,63,1,7,11
7.57E+02,-7251,3675,-687,-298,-34,84,1,7,11
7.61E+02,-7253,3684,-687,-289,-31,99,1,7,11
7.66E+02,-7257,3696,-691,-279,-39,109,1,7,11
7.72E+02,-7254,3707,-695,-278,-48,110,1,7,11
7.78E+02,-7248,3463,-705,-286,-53,101,1,7,11
7.84E+02,-7241,3464,-710,-301,-57,84,1,7,11
7.89E+02,-7242,3462,-712,-315,-63,69,1,7,11
7.94E+02,-7240,3711,-704,-327,-66,61,1,7,11
7.97E+02,-7234,3708,-705,-327,-68,55,1,7,11
7.96E+02,-7231,3706,-691,-321,-68,59,1,7,11
7.87E+02,-7229,3701,-688,-312,-68,70,1,7,11
7.66E+02,-7221,3700,-686,-297,-67,74,1,7,11
7.31E+02,-7218,3707,-692,-284,-63,78,1,7,11
6.93E+02,-7224,3466,-688,-274,-62,77,1,7,11
6.59E+02,-7219,3469,-695,-275,-68,74,1,7,11
6.37E+02,-7210,3473,-697,-296,-67,66,1,7,11
6.32E+02,-7213,3470,-694,-319,-62,57,1,7,11
6.42E+02,-7216,3463,-689,-336,-56,52,1,7,11
6.44E+02,-7216,3705,-684,-346,-53,53,1,7,11
6.20E+02,-7211,3695,-687,-345,-50,56,1,7,11
5.89E+02,-7207,3685,-688,-331,-48,63,1,7,11
5.86E+02,-7206,3687,-692,-307,-41,72,1,7,11
6.20E+02,-7206,3697,-693,-281,-31,83,1,7,11
6.74E+02,-7217,3456,-698,-258,-24,95,1,7,11
7.29E+02,-7219,3469,-707,13,-33,105,1,7,11
7.64E+02,-7229,3469,-711,15,-44,104,1,7,11
7.60E+02,-7224,3466,-718,14,-64,89,1,7,11
7.01E+02,-7217,3466,-716,4,-79,57,1,7,11
6.22E+02,-7248,3470,-708,-268,-91,31,1,7,11
5.84E+02,-7273,3471,-697,-295,127,23,1,7,11
6.08E+02,-7261,3462,-696,-311,84,33,1,7,11
6.49E+02,-7232,3456,-708,-320,75,50,1,7,11
6.60E+02,-7208,3711,-705,-326,94,71,1,7,11
6.41E+02,-7207,3711,-700,-326,124,85,1,7,11
6.22E+02,-7209,3705,-703,-327,-104,94,1,7,11
6.18E+02,-7217,3704,-703,-324,-85,93,1,7,11
6.25E+02,-7226,3695,-697,-313,-81,89,1,7,11
6.32E+02,-7230,3692,-696,-296,-93,85,1,7,11
6.36E+02,-7230,3684,-705,-260,-99,81,1,7,11
6.39E+02,-7232,3688,-706,22,-103,80,1,7,11
6.40E+02,-7240,3692,-702,44,-111,87,1,7,11
6.41E+02,-7247,3705,-710,65,-127,104,1,7,11
6.42E+02,-7247,3459,-713,77,115,121,1,7,11
6.43E+02,-7221,3458,-707,77,106,-121,1,7,11
6.45E+02,-7225,3476,-703,60,113,-127,1,7,11
6.47E+02,-7230,3479,-698,29,108,101,1,7,11
6.48E+02,-7231,3476,-682,-263,100,77,1,7,11
6.48E+02,-7235,3472,-681,-322,93,64,1,7,11
6.46E+02,-7229,3471,-668,-351,88,57,1,7,11
6.43E+02,-7212,3466,-672,-380,96,62,1,7,11
6.39E+02,-7201,3456,-681,-146,-127,69,1,7,11
6.33E+02,-7210,3703,-681,-167,-80,82,1,7,11
6.28E+02,-7230,3687,-672,-170,-46,93,1,7,11
6.23E+02,-7249,3679,-674,-148,-30,103,1,7,11
6.19E+02,-7261,3674,-667,-370,-29,114,1,7,11
6.17E+02,-7274,3679,-661,-328,-45,124,1,7,11
6.15E+02,-7277,3684,-656,-284,-72,127,1,7,11
6.16E+02,-7271,3696,-668,17,-107,120,1,7,11
6.18E+02,-7261,3711,-659,49,112,105,1,7,11
6.24E+02,-7245,3466,-660,60,80,84,1,7,11
6.37E+02,-7233,3479,-660,49,54,71,1,7,11
6.63E+02,-7221,3486,-657,15,49,63,1,7,11
6.86E+02,-7209,3483,-662,-285,55,67,1,7,11
6.85E+02,-7196,3479,-662,-330,72,73,1,7,11
6.46E+02,-7191,3468,-652,-372,101,87,1,7,11
5.93E+02,-7200,3464,-896,-143,-124,105,1,7,11
5.59E+02,-7207,3465,-885,-151,-98,-122,1,7,11
5.54E+02,-7212,3469,-873,-142,-77,-90,1,7,11
5.69E+02,-7215,3470,-881,-375,-62,-65,1,7,11
5.96E+02,-7219,3481,-881,-351,-57,-58,1,7,11
6.29E+02,-7216,3490,-642,-318,-55,-77,1,7,11
6.56E+02,-7213,3501,-658,-291,-55,-110,1,7,11
6.68E+02,-7205,3493,-669,-277,-54,106,1,7,11
6.61E+02,-7199,3494,-682,-266,-49,71,1,7,11
6.40E+02,-7210,3479,-691,-261,-38,53,1,7,11
6.17E+02,-7222,3469,-689,4,-36,61,1,7,11
6.05E+02,-7243,3458,-683,32,-40,76,1,7,11
6.24E+02,-7262,3457,-685,78,-70,97,1,7,11
6.79E+02,-7284,3458,-691,118,-118,115,1,7,11
7.50E+02,-7275,3471,-693,-98,86,-124,1,7,11
8.14E+02,-7260,3479,-701,-67,50,-112,1,7,11
8.62E+02,-7246,3500,-701,-40,26,-110,1,7,11
8.94E+02,-7227,3531,-697,-31,13,-113,1,7,11
9.09E+02,-7216,3563,-691,-51,7,-116,1,7,11
9.06E+02,-7203,3843,-677,-93,7,-115,1,7,11
8.91E+02,-7190,3856,-657,107,5,-114,1,7,11
8.69E+02,-7173,3858,-650,37,9,-116,1,7,11
8.47E+02,-6909,3844,-889,-294,26,125,1,7,11
8.28E+02,-6903,3556,-869,-364,48,100,1,7,11
8.15E+02,-6911,3523,-857,-161,68,68,1,7,11
8.10E+02,-7171,3485,-851,-200,85,42,1,7,11
8.11E+02,-7181,3463,-850,-219,116,23,1,7,11
8.14E+02,-7192,3458,-851,-232,-101,28,1,7,11
8.17E+02,-7209,3462,-866,-239,-61,53,1,7,11
8.20E+02,-7219,3468,-860,-244,-13,113,1,7,11
8.23E+02,-7241,3466,-852,-241,260,-113,1,7,11
8.27E+02,-7267,3470,-845,-222,256,-82,1,7,11
8.33E+02,-7278,3475,-836,-186,-25,-64,1,7,11
8.41E+02,-7280,3489,-830,-133,-63,-60,1,7,11
8.51E+02,-7262,3508,-817,-336,-98,-67,1,7,11
8.62E+02,-7243,3522,-820,-293,-120,-83,1,7,11
8.74E+02,-7226,3544,-819,-266,125,-109,1,7,11
8.85E+02,-7214,3559,-822,4,120,121,1,7,11
8.93E+02,-7192,3573,-828,1,-125,92,1,7,11
9.01E+02,-7177,3572,-831,-270,-104,69,1,7,11
9.07E+02,-6912,3561,-833,-288,-74,50,1,7,11
9.12E+02,-6911,3552,-834,-301,-38,39,1,7,11
9.17E+02,-7176,3536,-828,-309,-6,38,1,7,11
9.23E+02,-7187,3510,-825,-298,273,43,1,7,11
9.28E+02,-7198,3504,-829,-282,283,47,1,7,11
9.35E+02,-7211,3503,-836,-257,284,50,1,7,11
9.42E+02,-7209,3509,-845,20,275,49,1,7,11
9.50E+02,-7206,3511,-855,32,263,47,1,7,11
9.58E+02,-7193,3523,-869,34,256,40,1,7,11
9.67E+02,-7182,3527,-874,25,256,36,1,7,11
9.75E+02,-7182,3539,-873,10,274,37,1,7,11
9.80E+02,-7178,3538,-887,-271,289,45,1,7,11
9.84E+02,-7174,3540,-893,-290,308,55,1,7,11
9.88E+02,-7179,3544,-655,-305,326,63,1,7,11
9.92E+02,-7181,3541,-661,-306,345,66,1,7,11
9.97E+02,-7196,3542,-675,-299,357,57,1,7,11
1.00E+03,-7206,3548,-694,-293,355,33,1,7,11
1.01E+03,-7217,3551,-704,-289,346,-258,1,7,11
1.01E+03,-7217,3543,-717,-290,335,-294,1,7,11
1.01E+03,-7221,3527,-725,-291,325,-323,1,7,11
1.01E+03,-7229,3518,-733,-290,315,-342,1,7,11
1.01E+03,-7242,3493,-737,-293,297,-345,1,7,11
1.01E+03,-7233,3469,-738,-285,266,-346,1,7,11
1.01E+03,-7228,3707,-745,-278,-15,-354,1,7,11
1.01E+03,-7242,3698,-744,-279,-45,-369,1,7,11
1.02E+03,-7257,3694,-750,-283,-85,-130,1,7,11
1.02E+03,-7261,3690,-750,-285,-121,-136,1,7,11
1.02E+03,-7253,3684,-755,-282,112,-137,1,7,11
1.03E+03,-7243,3686,-759,-264,103,-142,1,7,11
1.03E+03,-7242,3690,-755,8,103,-150,1,7,11
1.04E+03,-7249,3694,-745,19,106,-158,1,7,11
1.04E+03,-7251,3684,-727,29,94,-171,1,7,11
1.05E+03,-7254,3689,-720,46,68,-201,1,7,11
1.05E+03,-7254,3700,-726,58,37,-242,1,7,11
1.05E+03,-7251,3458,-736,46,12,-542,1,7,11
1.06E+03,-7244,3701,-737,6,5,-571,1,7,11
1.06E+03,-7258,3671,-723,-296,17,-588,1,7,11
1.07E+03,-7269,3638,-712,-330,29,-600,1,7,11
1.07E+03,-7282,3610,-697,-343,46,-599,1,7,11
1.08E+03,-7277,3324,-686,-352,75,-578,1,7,11
1.09E+03,-7285,3313,-688,-346,98,-556,1,7,11
1.10E+03,-7287,3291,-679,-348,115,-527,1,7,11
1.12E+03,-7043,3268,-675,-351,-128,-248,1,7,11
1.13E+03,-7050,3254,-688,-343,-125,-235,1,7,11
1.15E+03,-7065,3241,-684,-337,-124,-244,1,7,11
1.16E+03,-7088,3239,-679,-331,125,-520,1,7,11
1.17E+03,-7102,3236,-679,-332,108,-542,1,7,11
1.18E+03,-7111,3234,-680,-334,86,-568,1,7,11
1.19E+03,-7122,3229,-674,-340,61,-596,1,7,11
1.20E+03,-7137,3230,-674,-346,35,-625,1,7,11
1.21E+03,-7135,3213,-675,-352,4,-394,1,7,11
1.22E+03,-7145,3447,-667,-356,-276,-426,1,7,11
1.23E+03,-7154,3428,-647,-348,-299,-460,1,7,11
1.24E+03,-7428,3413,-891,-331,-325,-499,1,7,11
1.25E+03,-7442,3401,-876,-309,-352,-785,1,7,11
1.27E+03,-7453,3377,-858,-289,-379,-798,1,7,11
1.28E+03,-7455,3352,-838,-260,-144,-800,1,7,11
1.29E+03,-7458,3328,-823,23,-164,-792,1,7,11
1.30E+03,-7458,3053,-810,54,-179,-783,1,7,11
1.30E+03,-7458,3032,-795,84,-185,-772,1,7,11
1.31E+03,-7459,3017,-783,106,-177,-495,1,7,11
1.31E+03,-7463,2990,-512,119,-165,-467,1,7,11
1.32E+03,-7471,2977,-506,-125,-152,-439,1,7,11
1.32E+03,-7473,2957,-494,-125,-137,-411,1,7,11
1.31E+03,-7481,3194,-492,124,-374,-388,1,7,11
1.31E+03,-7492,3184,-482,112,-356,-621,1,7,11
1.30E+03,-7501,3175,-481,101,-338,-604,1,7,11
1.29E+03,-7517,3174,-488,86,-321,-582,1,7,11
1.27E+03,-7529,3175,-482,72,-306,-553,1,7,11
1.25E+03,-7543,3174,-473,49,-287,-513,1,7,11
1.21E+03,-7544,3152,-475,21,-272,-210,1,7,11
1.17E+03,-7551,3131,-465,-263,2,-178,1,7,11
1.14E+03,-7297,3117,-462,-273,14,-165,1,7,11
1.11E+03,-7316,3105,-455,-279,22,-169,1,7,11
1.08E+03,-7331,3098,-457,-275,20,-164,1,7,11
1.07E+03,-7340,3080,-448,-273,10,-152,1,7,11
1.05E+03,-7331,2802,-439,-263,3,-131,1,7,11
1.03E+03,-7329,2782,-428,6,-257,-376,1,7,11
1.02E+03,-7350,2771,-413,26,-262,-370,1,7,11
9.99E+02,-7382,2767,-401,40,-288,-370,1,7,11
9.77E+02,-7387,2757,-397,61,-324,-368,1,7,11
9.53E+02,-7374,2733,-393,82,-349,-366,1,7,11
9.30E+02,-7367,2722,-395,110,-360,-375,1,7,11
9.08E+02,-7353,2722,-385,-116,-360,-140,1,7,11
8.89E+02,-7348,2736,-640,-87,-347,-164,1,7,11
8.73E+02,-7344,2749,-636,-71,-332,-175,1,7,11
8.59E+02,-7337,2755,-627,-66,-317,-172,1,7,11
8.48E+02,-7334,2753,-624,-66,-304,-160,1,7,11
8.39E+02,-7329,2746,-625,-72,-289,-147,1,7,11
8.31E+02,-7334,2742,-625,-80,-270,-141,1,7,11
8.25E+02,-7340,2740,-626,-93,9,-139,1,7,11
8.23E+02,-7356,2731,-628,-108,32,-132,1,7,11
8.28E+02,-7370,2725,-626,-128,55,-376,1,7,11
8.40E+02,-7367,2716,-628,108,72,-358,1,7,11
8.59E+02,-7365,2701,-626,83,96,-347,1,7,11
8.82E+02,-7373,2691,-626,59,110,-338,1,7,11
9.08E+02,-7385,2942,-622,34,119,-322,1,7,11
9.33E+02,-7384,2938,-615,12,126,-297,1,7,11
9.53E+02,-7383,2930,-622,-263,-122,-267,1,7,11
9.62E+02,-7386,2939,-623,-277,-112,19,1,7,11
9.55E+02,-7389,2689,-628,-294,-97,44,1,7,11
9.36E+02,-7392,2941,-626,-308,-80,70,1,7,11
9.10E+02,-7398,2938,-622,-324,-66,89,1,7,11
8.85E+02,-7405,2931,-617,-332,-59,102,1,7,11
8.65E+02,-7410,2927,-620,-332,-60,106,1,7,11
8.51E+02,-7410,2925,-631,-322,-60,101,1,7,11
8.42E+02,-7416,2923,-622,-312,-63,101,1,7,11
8.38E+02,-7415,2924,-613,-304,-67,105,1,7,11
8.39E+02,-7404,2934,-611,-296,-77,110,1,7,11
8.43E+02,-7395,2942,-602,-290,-86,114,1,7,11
8.52E+02,-7384,2689,-603,-285,-93,112,1,7,11
8.64E+02,-7384,2700,-610,-289,-93,107,1,7,11
8.79E+02,-7377,2696,-618,-296,-85,103,1,7,11
8.94E+02,-7381,2696,-619,-308,-75,100,1,7,11
9.07E+02,-7375,2697,-628,-317,-57,103,1,7,11
9.16E+02,-7378,2701,-627,-326,-43,110,1,7,11
9.23E+02,-7376,2705,-626,-343,-28,116,1,7,11
9.26E+02,-7376,2703,-627,-354,-15,120,1,7,11
9.27E+02,-7373,2696,-630,-365,-4,127,1,7,11
9.24E+02,-7371,2700,-635,-368,266,-119,1,7,11
9.16E+02,-7368,2701,-639,-371,282,-105,1,7,11
9.04E+02,-7371,2701,-394,-371,294,-88,1,7,11
8.90E+02,-7378,2706,-395,-366,301,-76,1,7,11
8.76E+02,-7386,2710,-397,-349,304,-66,1,7,11
8.63E+02,-7389,2716,-400,-329,299,-55,1,7,11
8.53E+02,-7391,2721,-410,-309,291,-50,1,7,11
8.46E+02,-7391,2737,-407,-288,283,-48,1,7,11
8.43E+02,-7398,2744,-416,-272,266,-46,1,7,11
8.42E+02,-7389,2752,-416,-266,-14,-50,1,7,11
8.44E+02,-7379,2756,-425,-268,-34,-64,1,7,11
8.47E+02,-7379,2766,-415,-285,-55,-81,1,7,11
8.47E+02,-7388,2772,-413,-315,-83,-100,1,7,11
8.42E+02,-7388,2778,-411,-351,-110,-114,1,7,11
8.33E+02,-7380,2777,-406,-384,-119,-116,1,7,11
8.24E+02,-7373,2765,-407,-153,-113,-110,1,7,11
8.22E+02,-7359,2760,-407,-162,-93,-105,1,7,11
8.28E+02,-7359,2760,-406,-166,-65,-100,1,7,11
8.40E+02,-7354,2765,-396,-168,-44,-91,1,7,11
8.54E+02,-7360,2767,-386,-167,-36,-85,1,7,11
8.66E+02,-7359,2769,-630,-162,-40,-82,1,7,11
8.75E+02,-7349,2769,-635,-149,-45,-84,1,7,11
8.77E+02,-7342,2760,-640,-140,-43,-89,1,7,11
8.71E+02,-7342,2756,-387,-383,-41,-97,1,7,11
8.58E+02,-7349,2752,-633,-363,-38,-106,1,7,11
8.48E+02,-7353,2758,-630,-336,-38,-109,1,7,11
8.51E+02,-7350,2768,-639,-315,-38,-101,1,7,11
8.71E+02,-7340,2783,-639,-302,-38,-86,1,7,11
8.93E+02,-7343,2792,-393,-300,-33,-74,1,7,11
8.94E+02,-7345,2804,-387,-309,-37,-63,1,7,11
8.52E+02,-7347,2814,-640,-323,-41,-57,1,7,11
7.68E+02,-7339,2809,-627,-343,-47,-48,1,7,11
6.75E+02,-7330,2806,-634,-354,-49,-46,1,7,11
6.06E+02,-7312,3072,-387,-354,-46,-48,1,7,11
5.67E+02,-7310,3082,-394,-355,-26,-50,1,7,11
5.55E+02,-7314,3098,-392,-359,-1,-49,1,7,11
5.65E+02,-7321,3114,-401,-360,276,-44,1,7,11
5.92E+02,-7331,3123,-419,-369,286,-40,1,7,11
6.32E+02,-7330,3120,-423,-381,292,-38,1,7,11
6.80E+02,-7337,3117,-432,-135,296,-45,1,7,11
7.28E+02,-7339,3087,-422,-130,286,-77,1,7,11
7.73E+02,-7340,3077,-423,-365,270,-80,1,7,11
8.16E+02,-7340,3077,-418,-333,-6,-77,1,7,11
8.56E+02,-7326,3087,-415,-301,-26,-72,1,7,11
8.94E+02,-7308,3102,-413,-269,-40,-64,1,7,11
9.23E+02,-7549,3123,-421,10,-45,-58,1,7,11
9.37E+02,-7539,3138,-436,20,-42,-63,1,7,11
9.37E+02,-7532,3158,-441,15,-35,-74,1,7,11
9.27E+02,-7530,3174,-453,-257,-24,-86,1,7,11
9.09E+02,-7533,3184,-462,-282,-13,-100,1,7,11
8.87E+02,-7536,3187,-464,-308,-8,-111,1,7,11
8.62E+02,-7545,3181,-470,-335,-3,-125,1,7,11
8.34E+02,-7544,3177,-472,-343,256,124,1,7,11
8.03E+02,-7548,3171,-469,-349,-2,120,1,7,11
7.72E+02,-7546,3164,-475,-346,-7,118,1,7,11
7.45E+02,-7541,3164,-478,-335,-10,114,1,7,11
7.27E+02,-7543,3165,-485,-327,-14,114,1,7,11
7.18E+02,-7300,3165,-490,-322,-20,115,1,7,11
7.15E+02,-7308,3165,-489,-308,-33,119,1,7,11
7.21E+02,-7308,3165,-497,-295,-43,121,1,7,11
7.36E+02,-7303,3167,-507,-280,-51,122,1,7,11
7.62E+02,-7301,3166,-508,-263,-56,119,1,7,11
8.00E+02,-7299,3174,-506,19,-65,115,1,7,11
8.41E+02,-7304,3178,-503,43,-76,112,1,7,11
8.81E+02,-7551,3183,-502,69,-99,110,1,7,11
9.13E+02,-7542,2950,-498,87,-125,106,1,7,11
9.36E+02,-7547,2972,-495,74,105,98,1,7,11
9.50E+02,-7306,2980,-493,41,68,86,1,7,11
9.56E+02,-7308,2978,-494,16,31,80,1,7,11
9.54E+02,-7297,2969,-482,-267,14,76,1,7,11
9.46E+02,-7543,2955,-483,-288,19,81,1,7,11
9.33E+02,-7530,3194,-467,-299,40,88,1,7,11
9.15E+02,-7535,3185,-453,-308,60,89,1,7,11
8.93E+02,-7538,3182,-437,-306,73,90,1,7,11
8.67E+02,-7543,3191,-433,-302,73,90,1,7,11
8.34E+02,-7539,3196,-436,-301,69,90,1,7,11
7.90E+02,-7531,2946,-442,-313,77,89,1,7,11
7.35E+02,-7537,3195,-432,-333,95,80,1,7,11
6.81E+02,-7297,3168,-428,-351,111,70,1,7,11
6.40E+02,-7306,3146,-422,-358,123,55,1,7,11
6.15E+02,-7316,3128,-415,-357,125,43,1,7,11
6.01E+02,-7310,3112,-406,-345,123,44,1,7,11
5.93E+02,-7313,3099,-397,-328,122,43,1,7,11
5.87E+02,-7311,3088,-394,-314,109,50,1,7,11
5.80E+02,-7312,3081,-640,-305,106,56,1,7,11
5.69E+02,-7310,3084,-638,-287,103,75,1,7,11
5.59E+02,-7305,3084,-630,-275,105,94,1,7,11
5.53E+02,-7551,3090,-635,-262,117,117,1,7,11
5.56E+02,-7544,3102,-639,3,-122,-113,1,7,11
5.69E+02,-7543,3115,-639,10,-102,-89,1,7,11
5.98E+02,-7297,3139,-640,13,-86,-67,1,7,11
6.41E+02,-7304,3166,-391,15,-83,-39,1,7,11
6.96E+02,-7300,3196,-399,3,-81,-11,1,7,11
7.59E+02,-7298,2953,-399,-275,-75,269,1,7,11
8.26E+02,-7548,2954,-411,-300,-72,295,1,7,11
8.91E+02,-7543,2952,-404,-324,-69,309,1,7,11
9.47E+02,-7542,3199,-388,-339,-68,318,1,7,11
9.92E+02,-7539,2945,-385,-347,-70,316,1,7,11
1.03E+03,-7531,2953,-639,-346,-73,316,1,7,11
1.05E+03,-7523,2970,-633,-343,-69,315,1,7,11
1.07E+03,-7517,2984,-628,-344,-61,322,1,7,11
1.09E+03,-7509,2994,-637,-341,-50,325,1,7,11
1.10E+03,-7502,3018,-386,-329,-38,324,1,7,11
1.11E+03,-7496,3037,-387,-348,-29,315,1,7,11
1.11E+03,-7488,3041,-390,-369,-22,309,1,7,11
1.12E+03,-7488,3051,-390,-129,-11,292,1,7,11
1.11E+03,-7483,3048,-391,-146,256,278,1,7,11
1.11E+03,-7474,3056,-392,-153,267,263,1,7,11
1.10E+03,-7475,3059,-386,-155,278,-2,1,7,11
1.09E+03,-7473,3066,-394,-155,291,-6,1,7,11
1.08E+03,-7476,3069,-399,-152,295,-7,1,7,11
1.06E+03,-7469,3331,-408,-149,292,-11,1,7,11
1.05E+03,-7467,3333,-417,-142,293,-22,1,7,11
1.03E+03,-7464,3335,-424,-137,295,-34,1,7,11
1.01E+03,-7472,3339,-430,-135,295,-51,1,7,11
9.95E+02,-7474,3349,-440,-131,291,-62,1,7,11
9.77E+02,-7472,3350,-436,-133,285,-66,1,7,11
9.59E+02,-7466,3342,-440,-132,279,-71,1,7,11
9.41E+02,-7452,3345,-442,-380,278,-85,1,7,11
9.22E+02,-7473,3348,-422,-380,275,-108,1,7,11
9.02E+02,-7489,3347,-422,-379,-10,-121,1,7,11
8.80E+02,-7476,3350,-438,-368,-39,-127,1,7,11
8.59E+02,-7460,3361,-457,-353,-42,-125,1,7,11
8.42E+02,-7459,3372,-467,-347,-28,-110,1,7,11
8.31E+02,-7451,3376,-479,-339,-11,-96,1,7,11
8.27E+02,-7441,3383,-475,-334,260,-88,1,7,11
8.29E+02,-7447,3388,-465,-328,266,-89,1,7,11
8.34E+02,-7450,3387,-464,-325,-5,-93,1,7,11
8.41E+02,-7447,3386,-466,-314,-29,-98,1,7,11
8.49E+02,-7439,3390,-465,-304,-49,-103,1,7,11
8.58E+02,-7440,3392,-461,-302,-59,-114,1,7,11
8.70E+02,-7437,3389,-465,-299,-67,-127,1,7,11
8.84E+02,-7434,3385,-470,-292,-70,114,1,7,11
9.01E+02,-7438,3389,-468,-285,-72,100,1,7,11
9.20E+02,-7426,3399,-477,-281,-69,93,1,7,11
9.41E+02,-7432,3402,-475,-293,-51,85,1,7,11
9.62E+02,-7431,3391,-477,-310,-47,85,1,7,11
9.83E+02,-7437,3382,-473,-324,-47,75,1,7,11
1.00E+03,-7447,3372,-472,-334,-46,74,1,7,11
1.02E+03,-7447,3367,-480,-341,-51,82,1,7,11
1.04E+03,-7448,3366,-487,-341,-51,93,1,7,11
1.05E+03,-7447,3370,-484,-336,-44,108,1,7,11
1.06E+03,-7453,3369,-480,-335,-33,126,1,7,11
1.06E+03,-7462,3370,-474,-329,-31,-120,1,7,11
1.07E+03,-7460,3374,-478,-314,-41,-119,1,7,11
1.07E+03,-7456,3382,-478,-305,-53,-125,1,7,11
1.07E+03,-7452,3390,-482,-302,-63,127,1,7,11
1.07E+03,-7447,3392,-478,-306,-74,122,1,7,11
1.06E+03,-7444,3401,-487,-307,-86,115,1,7,11
1.06E+03,-7442,3394,-474,-314,-96,110,1,7,11
1.05E+03,-7439,3387,-467,-319,-106,112,1,7,11
1.04E+03,-7433,3382,-453,-320,-115,111,1,7,11
1.03E+03,-7428,3380,-447,-318,-115,112,1,7,11
1.03E+03,-7429,3378,-438,-315,-115,117,1,7,11
1.02E+03,-7425,3389,-444,-310,-111,121,1,7,11
1.02E+03,-7165,3396,-444,-311,-105,122,1,7,11
1.01E+03,-7161,3406,-450,-316,-98,123,1,7,11
1.01E+03,-7150,3407,-460,-314,-87,124,1,7,11
1.00E+03,-7155,3416,-459,-317,-73,127,1,7,11
9.97E+02,-7425,3416,-459,-318,-59,-121,1,7,11
9.88E+02,-7431,3423,-454,-315,-55,-112,1,7,11
9.79E+02,-7431,3427,-451,-307,-61,-107,1,7,11
9.69E+02,-7425,3429,-451,-299,-65,-109,1,7,11
9.60E+02,-7163,3438,-455,-296,-64,-117,1,7,11
9.51E+02,-7159,3444,-455,-293,-58,-126,1,7,11
9.43E+02,-7165,3201,-464,-299,-55,123,1,7,11
9.34E+02,-7161,3455,-459,-310,-59,122,1,7,11
9.23E+02,-7159,3455,-457,-317,-59,113,1,7,11
9.10E+02,-7163,3208,-456,-327,-65,102,1,7,11
8.95E+02,-7425,3208,-448,-343,-83,92,1,7,11
8.78E+02,-7429,3208,-438,-351,-107,89,1,7,11
8.63E+02,-7165,3201,-450,-351,-122,97,1,7,11
8.51E+02,-7158,3454,-451,-344,-119,107,1,7,11
8.42E+02,-7155,3447,-454,-324,-106,122,1,7,11
8.35E+02,-7155,3448,-458,-304,-85,-127,1,7,11
8.32E+02,-7158,3452,-457,-281,-71,-117,1,7,11
8.30E+02,-7161,3200,-445,-258,-69,-108,1,7,11
8.29E+02,-7160,3211,-447,21,-78,-102,1,7,11
8.31E+02,-7152,3220,-445,36,-93,-96,1,7,11
8.35E+02,-7139,3226,-449,44,-98,-100,1,7,11
8.41E+02,-7142,3228,-444,39,-95,-113,1,7,11
8.47E+02,-7151,3230,-455,31,-96,127,1,7,11
8.52E+02,-7154,3226,-455,18,-98,115,1,7,11
8.55E+02,-7150,3228,-454,4,-97,106,1,7,11
8.56E+02,-7138,3230,-455,-268,-95,101,1,7,11
8.57E+02,-7140,3226,-457,-290,-85,98,1,7,11
8.58E+02,-7131,3225,-455,-315,-78,98,1,7,11
8.59E+02,-7140,3212,-453,-337,-66,98,1,7,11
8.60E+02,-7150,3454,-445,-355,-58,100,1,7,11
8.62E+02,-7156,3441,-447,-351,-48,101,1,7,11
8.66E+02,-7151,3446,-450,-337,-38,103,1,7,11
8.69E+02,-7157,3449,-450,-328,-21,102,1,7,11
8.72E+02,-7159,3455,-450,-316,-11,107,1,7,11
8.72E+02,-7160,3201,-453,-301,-9,110,1,7,11
8.69E+02,-7161,3203,-463,-292,-7,108,1,7,11
8.62E+02,-7156,3200,-474,-289,-7,99,1,7,11
8.51E+02,-7158,3203,-476,-286,-11,89,1,7,11
8.37E+02,-7153,3208,-475,-283,-17,81,1,7,11
8.18E+02,-7154,3209,-473,-284,-24,80,1,7,11
7.97E+02,-7145,3208,-470,-285,-33,81,1,7,11
7.71E+02,-7140,3204,-464,-285,-38,83,1,7,11
7.44E+02,-7140,3206,-469,-287,-39,89,1,7,11
7.20E+02,-7135,3208,-480,-292,-38,97,1,7,11
7.03E+02,-7133,3209,-482,-300,-35,104,1,7,11
6.92E+02,-7132,3212,-482,-306,-26,112,1,7,11
6.83E+02,-7131,3211,-485,-315,-20,121,1,7,11
6.74E+02,-7129,3211,-488,-320,-13,-125,1,7,11
6.59E+02,-7124,3217,-493,-321,-3,-115,1,7,11
6.39E+02,-7129,3230,-493,-321,264,-101,1,7,11
6.15E+02,-7138,3234,-496,-319,273,-85,1,7,11
5.92E+02,-7140,3247,-503,-315,269,-71,1,7,11
5.73E+02,-7136,3257,-507,-310,261,-65,1,7,11
5.60E+02,-7130,3261,-511,-312,-4,-66,1,7,11
5.52E+02,-7126,3256,-772,-311,-7,-80,1,7,11
5.49E+02,-7129,3265,-773,-308,-10,-99,1,7,11
5.49E+02,-7131,3270,-782,-316,-19,-111,1,7,11
5.50E+02,-7117,3262,-780,-321,-27,-123,1,7,11
5.50E+02,-7109,3259,-777,-320,-26,120,1,7,11
5.53E+02,-7112,3262,-512,-330,-26,115,1,7,11
5.60E+02,-7132,3258,-504,-340,-45,116,1,7,11
5.75E+02,-7132,3255,-508,-340,-80,-116,1,7,11
5.96E+02,-7124,3249,-769,-325,-84,-96,1,7,11
6.23E+02,-7116,3249,-775,-304,-74,-76,1,7,11
6.54E+02,-7113,3248,-777,-283,-53,-65,1,7,11
6.84E+02,-7119,3251,-775,-268,-38,-54,1,7,11
7.10E+02,-7120,3256,-770,2,-34,-43,1,7,11
7.31E+02,-7114,3266,-510,15,-43,-27,1,7,11
7.47E+02,-7092,3273,-509,28,-54,-7,1,7,11
7.59E+02,-7082,3283,-777,38,-53,256,1,7,11
7.69E+02,-7081,3297,-782,40,-48,258,1,7,11
7.75E+02,-7080,3307,-797,41,-40,-4,1,7,11
7.80E+02,-7078,3314,-813,39,-37,-11,1,7,11
7.82E+02,-7090,3584,-819,34,-31,-21,1,7,11
7.82E+02,-7083,3587,-818,27,-36,-22,1,7,11
7.80E+02,-7088,3594,-809,16,-37,-25,1,7,11
7.76E+02,-7080,3327,-818,-258,-47,-24,1,7,11
7.69E+02,-7081,3326,-812,-267,-54,-29,1,7,11
7.61E+02,-7081,3589,-812,-278,-62,-32,1,7,11
7.51E+02,-7073,3590,-807,-280,-69,-34,1,7,11
7.41E+02,-7068,3600,-807,-283,-67,-35,1,7,11
7.29E+02,-7063,3612,-813,-284,-61,-33,1,7,11
7.15E+02,-7059,3624,-821,-290,-48,-28,1,7,11
6.99E+02,-7068,3635,-818,-300,-39,-22,1,7,11
6.78E+02,-7065,3641,-817,-303,-40,-13,1,7,11
6.54E+02,-7061,3644,-808,-317,-39,-14,1,7,11
6.27E+02,-7053,3637,-819,-320,-36,-11,1,7,11
6.01E+02,-7050,3641,-819,-320,-30,-10,1,7,11
5.83E+02,-7053,3639,-806,-329,-27,259,1,7,11
5.79E+02,-7048,3643,-802,-330,-27,289,1,7,11
5.93E+02,-7295,3637,-799,-333,-25,320,1,7,11
6.29E+02,-7288,3639,-798,-332,-22,360,1,7,11
6.73E+02,-7271,3648,-800,-329,-13,156,1,7,11
7.06E+02,-7266,3659,-804,-333,-1,190,1,7,11
7.10E+02,-7256,3667,-800,-337,270,225,1,7,11
6.91E+02,-7245,3675,-807,-341,287,514,1,7,11
6.60E+02,-7239,3684,-806,-353,309,539,1,7,11
6.26E+02,-7226,3702,-807,-361,325,555,1,7,11
6.05E+02,-7209,3468,-819,-367,341,555,1,7,11
6.07E+02,-7171,3508,-830,-364,351,556,1,7,11
6.26E+02,-7208,3534,-837,-137,150,548,1,7,11
6.50E+02,-7210,3556,-840,-149,159,578,1,7,11
6.68E+02,-7204,3840,-846,-159,171,586,1,7,11
6.71E+02,-7195,3852,-853,-177,181,605,1,7,11
6.53E+02,-7174,3856,-857,-200,188,616,1,7,11
6.20E+02,-6911,3872,-866,-214,197,605,1,7,11
5.88E+02,-6904,3897,-879,-221,200,586,1,7,11
5.68E+02,-6907,3924,-876,-234,197,567,1,7,11
5.58E+02,-6896,3939,-878,-254,191,556,1,7,11
5.55E+02,-6861,3954,-878,-524,188,559,1,7,11
5.56E+02,-6855,3713,-875,-542,200,574,1,7,11
5.59E+02,-6868,3721,-878,-566,202,610,1,7,11
5.60E+02,-6864,3721,-874,-590,187,399,1,7,11
5.63E+02,-6838,3726,-881,-593,177,444,1,7,11
5.67E+02,-6811,3750,-890,-585,189,492,1,7,11
5.75E+02,-6786,3776,-647,-582,220,800,1,7,11
5.85E+02,-7020,3799,-652,-576,250,846,1,7,11
5.94E+02,-7006,3831,-659,-571,529,878,1,7,11
5.99E+02,-6990,4115,-654,-561,538,651,1,7,11
6.05E+02,-6970,4152,-663,-554,531,675,1,7,11
6.15E+02,-6963,4154,-661,-544,519,693,1,7,11
6.26E+02,-6945,4183,-664,-529,249,688,1,7,11
6.36E+02,-6933,4203,-671,-521,241,657,1,7,11
6.41E+02,-6921,3982,-685,-252,226,862,1,7,11
6.44E+02,-6918,4006,-683,-237,202,789,1,7,11
6.45E+02,-6624,4031,-695,-211,166,459,1,7,11
6.45E+02,-6615,4055,-699,-185,139,631,1,7,11
6.45E+02,-6608,4068,-703,-161,372,515,1,7,11
6.46E+02,-6599,4083,-707,-382,341,192,1,7,11
6.46E+02,-6591,4094,-713,-342,303,141,1,7,11
6.49E+02,-6583,4385,-725,-270,266,323,1,7,11
6.52E+02,-6566,4406,-736,2,257,290,1,7,11
6.56E+02,-6564,4421,-748,2,256,261,1,7,11
6.60E+02,-6560,4429,-745,-264,-1,-21,1,7,11
6.64E+02,-6553,4432,-751,-278,-11,-45,1,7,11
6.69E+02,-6544,4431,-757,-289,-20,-68,1,7,11
6.75E+02,-6535,4423,-762,-305,-27,-91,1,7,11
6.81E+02,-6532,4421,-760,-313,-33,-115,1,7,11
6.87E+02,-6531,4416,-756,-318,-39,123,1,7,11
6.94E+02,-6533,4407,-751,-322,-48,112,1,7,11
6.98E+02,-6783,4400,-755,-318,-56,102,1,7,11
7.00E+02,-6784,4390,-760,-310,-65,94,1,7,11
6.97E+02,-6529,4386,-760,-298,-73,85,1,7,11
6.88E+02,-6529,4391,-755,-283,-79,83,1,7,11
6.70E+02,-6535,4400,-752,-270,-87,86,1,7,11
6.48E+02,-6533,4414,-756,-261,-91,94,1,7,11
6.33E+02,-6534,4421,-762,-257,-92,103,1,7,11
6.29E+02,-6533,4426,-763,-257,-90,112,1,7,11
6.33E+02,-6782,4424,-758,-260,-92,114,1,7,11
6.44E+02,-6782,4421,-761,-258,-94,106,1,7,11
6.55E+02,-6531,4432,-765,-258,-90,92,1,7,11
6.62E+02,-6539,4442,-765,-258,-88,80,1,7,11
6.59E+02,-6542,4444,-760,-266,-90,65,1,7,11
6.42E+02,-6543,4439,-765,-270,-95,46,1,7,11
6.15E+02,-6545,4430,-766,-270,-99,27,1,7,11
5.83E+02,-6545,4419,-763,-273,-98,8,1,7,11
5.59E+02,-6545,4409,-758,-275,-95,-261,1,7,11
5.56E+02,-6550,4406,-758,-274,-94,-270,1,7,11
5.74E+02,-6557,4381,-754,-289,-104,-270,1,7,11
5.95E+02,-6546,4368,-757,-293,-114,-276,1,7,11
6.05E+02,-6557,4373,-748,-297,-120,-287,1,7,11
6.09E+02,-6579,4364,-739,-309,117,-295,1,7,11
6.09E+02,-6592,4362,-722,-320,85,-296,1,7,11
6.08E+02,-6590,4356,-725,-319,62,-285,1,7,11
6.05E+02,-6575,4353,-731,-310,59,-273,1,7,11
6.01E+02,-6568,4364,-733,-290,68,-264,1,7,11
5.97E+02,-6561,4372,-728,-279,86,0,1,7,11
5.91E+02,-6565,4377,-727,-273,104,9,1,7,11
5.86E+02,-6568,4373,-722,-275,114,21,1,7,11
5.80E+02,-6568,4374,-714,-272,109,27,1,7,11
5.75E+02,-6562,4382,-725,-266,104,24,1,7,11
5.71E+02,-6563,4385,-723,-265,104,16,1,7,11
5.70E+02,-6565,4382,-722,-266,110,6,1,7,11
5.72E+02,-6563,4373,-716,-264,118,-270,1,7,11
5.77E+02,-6566,4364,-704,4,-127,-304,1,7,11
5.87E+02,-6568,4363,-706,22,-118,-345,1,7,11
6.01E+02,-6565,4359,-709,39,-112,-380,1,7,11
6.15E+02,-6577,4367,-709,55,-108,-153,1,7,11
6.30E+02,-6583,4364,-706,56,-108,-167,1,7,11
6.39E+02,-6593,4354,-709,57,-106,-172,1,7,11
6.33E+02,-6611,4079,-711,52,-106,-164,1,7,11
6.07E+02,-6617,4071,-713,53,-107,-140,1,7,11
5.80E+02,-6621,4063,-723,51,-107,-371,1,7,11
5.83E+02,-6628,4061,-725,47,-102,-345,1,7,11
6.17E+02,-6632,4058,-722,34,-93,-314,1,7,11
6.53E+02,-6631,4056,-724,25,-89,-291,1,7,11
6.65E+02,-6634,4059,-728,17,-90,-273,1,7,11
6.57E+02,-6635,4050,-736,2,-89,-259,1,7,11
6.43E+02,-6632,4046,-737,-269,-91,8,1,7,11
6.32E+02,-6631,4032,-739,-275,-88,14,1,7,11
6.23E+02,-6631,4019,-730,-279,-87,20,1,7,11
6.15E+02,-6635,4012,-728,-278,-87,24,1,7,11
6.06E+02,-6641,4011,-722,-273,-89,27,1,7,11
5.98E+02,-6637,4001,-721,-270,-94,29,1,7,11
5.94E+02,-6635,3997,-723,-265,-93,35,1,7,11
5.96E+02,-6632,3998,-725,-262,-89,47,1,7,11
6.04E+02,-6639,3998,-729,-261,-83,59,1,7,11
6.17E+02,-6642,3998,-727,-266,-77,67,1,7,11
6.25E+02,-6639,4003,-728,-268,-68,72,1,7,11
6.18E+02,-6641,4004,-730,-273,-60,75,1,7,11
5.98E+02,-6635,4006,-734,-278,-51,80,1,7,11
5.89E+02,-6638,4009,-734,-284,-38,79,1,7,11
6.08E+02,-6643,4010,-738,-291,-30,83,1,7,11
6.42E+02,-6640,4010,-733,-294,-23,91,1,7,11
6.73E+02,-6640,4013,-742,-295,-19,98,1,7,11
6.91E+02,-6635,4011,-746,-296,-13,100,1,7,11
6.98E+02,-6637,4006,-750,-296,-11,98,1,7,11
6.96E+02,-6630,4008,-747,-294,-13,89,1,7,11
6.87E+02,-6631,4007,-750,-292,-13,87,1,7,11
6.69E+02,-6636,4012,-751,-289,-16,89,1,7,11
6.42E+02,-6644,4012,-761,-288,-21,94,1,7,11
6.19E+02,-6638,4011,-1030,-295,-30,101,1,7,11
6.10E+02,-6625,4006,-1031,-298,-38,103,1,7,11
6.12E+02,-6612,4009,-1032,-298,-36,106,1,7,11
5.99E+02,-6613,4006,-1039,-296,-26,104,1,7,11
5.58E+02,-6621,4025,-1033,-293,-16,105,1,7,11
5.16E+02,-6627,4028,-1041,-294,-20,111,1,7,11
4.98E+02,-6617,4032,-1052,-292,-27,111,1,7,11
4.97E+02,-6627,4042,-1045,-305,-32,105,1,7,11
4.99E+02,-6647,4041,-1047,-329,-54,99,1,7,11
5.02E+02,-6650,4045,-1048,-347,-87,101,1,7,11
5.09E+02,-6646,4038,-1054,-359,-112,110,1,7,11
5.20E+02,-6623,4028,-1053,-361,-116,120,1,7,11
5.37E+02,-6603,4023,-1050,-345,-104,124,1,7,11
5.63E+02,-6593,4024,-1050,-330,-81,121,1,7,11
5.95E+02,-6603,4032,-1042,-314,-65,117,1,7,11
6.30E+02,-6613,4039,-1036,-304,-66,112,1,7,11
6.62E+02,-6609,4048,-1042,-295,-82,108,1,7,11
6.80E+02,-6602,4057,-1053,-294,-92,100,1,7,11
6.69E+02,-6601,4060,-1056,-297,-93,92,1,7,11
6.26E+02,-6610,4058,-1055,-306,-93,76,1,7,11
5.85E+02,-6619,4056,-1060,-312,-99,63,1,7,11
5.81E+02,-6624,4051,-1056,-311,-108,53,1,7,11
6.07E+02,-6625,4048,-1045,-311,-113,49,1,7,11
6.34E+02,-6610,4048,-1047,-307,-119,54,1,7,11
6.41E+02,-6614,4051,-1046,-308,-120,55,1,7,11
6.33E+02,-6610,4048,-1036,-313,-126,58,1,7,11
6.15E+02,-6612,4040,-1031,-317,125,52,1,7,11
5.94E+02,-6622,4037,-1028,-319,117,47,1,7,11
5.78E+02,-6624,4036,-1025,-319,108,44,1,7,11
5.82E+02,-6628,4040,-1025,-319,101,42,1,7,11
6.08E+02,-6628,4038,-1026,-322,104,48,1,7,11
6.40E+02,-6634,4037,-767,-328,112,54,1,7,11
6.59E+02,-6641,4036,-765,-333,113,60,1,7,11
6.61E+02,-6643,4038,-760,-333,109,58,1,7,11
6.48E+02,-6646,4036,-755,-335,107,54,1,7,11
6.25E+02,-6642,4033,-742,-336,103,48,1,7,11
6.01E+02,-6642,4023,-732,-330,96,43,1,7,11
5.82E+02,-6633,4018,-738,-321,92,37,1,7,11
5.70E+02,-6630,4011,-728,-319,89,35,1,7,11
5.65E+02,-6630,3998,-722,-316,88,36,1,7,11
5.63E+02,-6630,3996,-714,-313,89,38,1,7,11
5.64E+02,-6633,3998,-711,-311,89,46,1,7,11
5.65E+02,-6636,3996,-702,-312,90,57,1,7,11
5.65E+02,-6639,3994,-697,-309,94,72,1,7,11
5.65E+02,-6639,4000,-691,-309,95,94,1,7,11
5.67E+02,-6640,4006,-690,-304,95,103,1,7,11
5.75E+02,-6637,4019,-695,-301,98,109,1,7,11
5.87E+02,-6636,4036,-704,-302,102,111,1,7,11
5.99E+02,-6633,4051,-692,-305,108,113,1,7,11
6.09E+02,-6628,4059,-684,-314,114,113,1,7,11
6.15E+02,-6628,4064,-686,-323,122,111,1,7,11
6.20E+02,-6627,4065,-696,-328,126,99,1,7,11
6.25E+02,-6630,4060,-694,-330,-124,85,1,7,11
6.29E+02,-6634,4059,-687,-333,-123,71,1,7,11
6.36E+02,-6641,4056,-686,-333,-122,59,1,7,11
6.44E+02,-6631,4048,-677,-336,-124,50,1,7,11
6.54E+02,-6627,4036,-665,-332,-124,41,1,7,11
6.64E+02,-6634,4028,-667,-325,-121,36,1,7,11
6.74E+02,-6640,4018,-668,-316,-119,38,1,7,11
6.83E+02,-6634,4016,-667,-305,-122,44,1,7,11
6.90E+02,-6636,4017,-666,-291,-123,51,1,7,11
6.95E+02,-6640,4019,-659,-279,-121,61,1,7,11
6.98E+02,-6634,4017,-665,-270,-118,73,1,7,11
7.00E+02,-6632,4028,-672,-261,-111,83,1,7,11
7.00E+02,-6633,4037,-669,-259,-110,89,1,7,11
6.97E+02,-6637,4031,-669,-263,-112,92,1,7,11
6.93E+02,-6626,4028,-660,-265,-114,85,1,7,11
6.86E+02,-6623,4030,-663,-271,-116,70,1,7,11
6.77E+02,-6650,4042,-651,-286,-116,58,1,7,11
6.67E+02,-6927,4045,-647,-315,116,62,1,7,11
6.56E+02,-6919,4046,-644,-336,92,84,1,7,11
6.46E+02,-6645,4051,-660,-350,95,108,1,7,11
6.39E+02,-6630,4050,-659,-354,120,-126,1,7,11
6.36E+02,-6628,4044,-651,-351,-109,-119,1,7,11
6.37E+02,-6625,4040,-652,-339,-83,-123,1,7,11
6.42E+02,-6626,4042,-646,-321,-66,121,1,7,11
6.50E+02,-6629,4043,-895,-303,-64,108,1,7,11
6.61E+02,-6620,4049,-643,-287,-70,94,1,7,11
6.74E+02,-6622,4053,-643,-276,-68,77,1,7,11
6.89E+02,-6626,4053,-645,-273,-65,59,1,7,11
7.08E+02,-6633,4044,-656,-273,-62,44,1,7,11
7.32E+02,-6631,4036,-658,-275,-59,30,1,7,11
7.64E+02,-6629,4033,-661,-277,-54,22,1,7,11
8.00E+02,-6618,4016,-671,-280,-47,23,1,7,11
8.32E+02,-6630,4007,-666,-285,-30,23,1,7,11
8.53E+02,-6634,3995,-665,-292,-22,34,1,7,11
8.64E+02,-6637,3989,-666,-294,-25,40,1,7,11
8.68E+02,-6638,3998,-670,-289,-28,69,1,7,11
8.65E+02,-6634,3996,-674,-287,-31,91,1,7,11
8.58E+02,-6638,4007,-687,-281,-33,109,1,7,11
8.48E+02,-6640,4023,-693,-277,-24,125,1,7,11
8.35E+02,-6648,4037,-705,-277,-22,-118,1,7,11
8.22E+02,-6653,4044,-715,-280,-32,-113,1,7,11
8.10E+02,-6650,4054,-714,-279,-47,-119,1,7,11
8.02E+02,-6648,4063,-714,-278,-61,-128,1,7,11
7.97E+02,-6650,4066,-714,-278,-78,116,1,7,11
7.94E+02,-6646,4067,-711,-277,-92,105,1,7,11
7.92E+02,-6642,4060,-703,-274,-104,96,1,7,11
7.91E+02,-6641,4057,-698,-266,-121,89,1,7,11
7.91E+02,-6631,4054,-692,-258,124,78,1,7,11
7.94E+02,-6627,4058,-689,5,118,66,1,7,11
7.99E+02,-6619,4057,-686,5,121,57,1,7,11
8.08E+02,-6617,4058,-680,1,126,50,1,7,11
8.19E+02,-6617,4052,-678,-270,-123,48,1,7,11
8.31E+02,-6622,4051,-675,-285,-113,44,1,7,11
8.41E+02,-6625,4043,-673,-301,-100,43,1,7,11
8.50E+02,-6626,4035,-672,-315,-86,42,1,7,11
8.58E+02,-6630,4026,-671,-324,-77,49,1,7,11
8.65E+02,-6629,4011,-670,-330,-66,58,1,7,11
8.71E+02,-6624,4001,-666,-330,-53,65,1,7,11
8.77E+02,-6631,3991,-671,-323,-39,64,1,7,11
8.81E+02,-6641,3983,-666,-309,-33,62,1,7,11
8.84E+02,-6638,3981,-677,-297,-37,62,1,7,11
8.84E+02,-6636,3994,-688,-287,-39,69,1,7,11
8.79E+02,-6636,4013,-690,-281,-33,93,1,7,11
8.71E+02,-6645,4031,-693,-283,-23,123,1,7,11
8.63E+02,-6653,4044,-705,-282,-22,-102,1,7,11
8.55E+02,-6653,4049,-701,-280,-30,-84,1,7,11
8.47E+02,-6646,4056,-703,-275,-44,-83,1,7,11
8.37E+02,-6634,4064,-707,-273,-56,-97,1,7,11
8.23E+02,-6627,4073,-713,-269,-66,-121,1,7,11
8.08E+02,-6623,4082,-717,-275,-71,111,1,7,11
7.95E+02,-6614,4076,-720,-292,-73,88,1,7,11
7.85E+02,-6615,4075,-716,-305,-75,75,1,7,11
7.78E+02,-6630,4072,-703,-321,-80,67,1,7,11
7.73E+02,-6644,4064,-694,-350,-108,64,1,7,11
7.69E+02,-6644,4055,-685,-355,122,69,1,7,11
7.66E+02,-6637,4047,-690,-353,110,83,1,7,11
7.61E+02,-6630,4043,-689,-338,114,99,1,7,11
7.56E+02,-6612,4040,-682,-313,-124,108,1,7,11
7.50E+02,-6603,4052,-681,-292,-100,113,1,7,11
7.43E+02,-6603,4063,-677,-274,-79,122,1,7,11
7.36E+02,-6606,4079,-678,-264,-76,127,1,7,11
7.29E+02,-6588,4095,-679,-260,-83,126,1,7,11
7.23E+02,-6584,4356,-680,-260,-83,117,1,7,11
7.17E+02,-6587,4358,-689,-268,-66,103,1,7,11
7.11E+02,-6594,4362,-684,-275,-56,85,1,7,11
7.05E+02,-6598,4365,-689,-278,-47,68,1,7,11
7.00E+02,-6596,4360,-695,-286,-37,54,1,7,11
6.96E+02,-6593,4352,-702,-289,-25,49,1,7,11
6.92E+02,-6591,4092,-703,-294,-7,43,1,7,11
6.90E+02,-6597,4080,-701,-300,-1,43,1,7,11
6.88E+02,-6601,4067,-693,-302,259,36,1,7,11
6.87E+02,-6612,4058,-691,-293,-2,35,1,7,11
6.87E+02,-6618,4055,-695,-280,-15,38,1,7,11
6.91E+02,-6612,4053,-705,-260,-30,38,1,7,11
6.97E+02,-6610,4058,-710,16,-34,40,1,7,11
7.08E+02,-6608,4061,-712,29,-28,41,1,7,11
7.21E+02,-6612,4065,-707,34,-21,37,1,7,11
7.38E+02,-6620,4073,-711,36,-22,29,1,7,11
7.57E+02,-6623,4074,-722,28,-20,22,1,7,11
7.76E+02,-6619,4072,-728,12,-14,15,1,7,11
7.96E+02,-6623,4071,-730,-267,-5,6,1,7,11
8.13E+02,-6622,4056,-746,-294,258,0,1,7,11
8.26E+02,-6628,4044,-742,-313,264,-265,1,7,11
8.34E+02,-6640,4031,-739,-327,264,-268,1,7,11
8.39E+02,-6640,4012,-740,-333,260,-267,1,7,11
8.40E+02,-6643,3992,-735,-335,-2,-266,1,7,11
8.40E+02,-6646,3986,-736,-326,-5,-264,1,7,11
8.39E+02,-6648,3975,-739,-314,-10,-258,1,7,11
8.38E+02,-6649,3975,-741,-302,-15,7,1,7,11
8.39E+02,-6656,3971,-738,-291,-19,20,1,7,11
8.38E+02,-6651,3975,-734,-284,-26,36,1,7,11
8.35E+02,-6638,3977,-741,-276,-30,53,1,7,11
8.30E+02,-6634,3977,-747,-272,-32,67,1,7,11
8.23E+02,-6626,3982,-749,-267,-26,79,1,7,11
8.17E+02,-6627,3993,-760,-268,-20,90,1,7,11
8.12E+02,-6631,4001,-766,-272,-15,99,1,7,11
8.11E+02,-6627,4011,-1028,-274,-13,107,1,7,11
8.14E+02,-6626,4012,-1031,-279,-10,112,1,7,11
8.21E+02,-6617,4016,-1041,-284,-10,114,1,7,11
8.28E+02,-6608,4022,-1052,-289,-6,109,1,7,11
8.35E+02,-6609,4041,-1054,-293,259,106,1,7,11
8.41E+02,-6624,4052,-1061,-306,267,108,1,7,11
8.48E+02,-6625,4047,-1055,-321,265,112,1,7,11
8.56E+02,-6623,4039,-1056,-329,-4,114,1,7,11
8.65E+02,-6618,4027,-1052,-329,-20,110,1,7,11
8.78E+02,-6608,4026,-1059,-322,-22,101,1,7,11
8.95E+02,-6610,4039,-1064,-308,-23,95,1,7,11
9.12E+02,-6618,4039,-1059,-300,-28,98,1,7,11
9.23E+02,-6611,4042,-1059,-290,-44,106,1,7,11
9.23E+02,-6604,4048,-1058,-278,-57,104,1,7,11
9.13E+02,-6615,4061,-1050,-279,-79,97,1,7,11
8.92E+02,-6623,4069,-1046,-295,-117,83,1,7,11
8.64E+02,-6627,4073,-1043,-310,105,79,1,7,11
8.29E+02,-6618,4074,-1047,-328,90,78,1,7,11
7.92E+02,-6603,4064,-1048,-336,96,78,1,7,11
7.56E+02,-6592,4047,-1040,-338,122,70,1,7,11
7.25E+02,-6583,4041,-1031,-339,-106,67,1,7,11
7.08E+02,-6576,4047,-1029,-340,-74,68,1,7,11
7.12E+02,-6577,4052,-1029,-340,-53,78,1,7,11
7.45E+02,-6582,4055,-1033,-345,-40,94,1,7,11
7.99E+02,-6586,4052,-1036,-351,-30,107,1,7,11
8.56E+02,-6598,4052,-1042,-349,-26,112,1,7,11
8.98E+02,-6615,4045,-1046,-338,-31,109,1,7,11
9.16E+02,-6620,4052,-1044,-322,-44,96,1,7,11
9.08E+02,-6619,4054,-1051,-307,-60,78,1,7,11
8.81E+02,-6621,4062,-1060,-298,-69,59,1,7,11
8.38E+02,-6614,4064,-1057,-299,-77,45,1,7,11
7.84E+02,-6619,4069,-1056,-311,-82,37,1,7,11
7.27E+02,-6612,4059,-1062,-340,-93,34,1,7,11
6.73E+02,-6616,4053,-1065,-365,-95,35,1,7,11
6.31E+02,-6620,4034,-1049,-130,-99,43,1,7,11
6.03E+02,-6622,4012,-1034,-383,-107,57,1,7,11
5.90E+02,-6618,4003,-766,-363,-112,67,1,7,11
5.89E+02,-6616,4010,-760,-336,-110,78,1,7,11
5.98E+02,-6618,4023,-762,-308,-105,82,1,7,11
6.15E+02,-6623,4039,-764,-285,-106,83,1,7,11
6.40E+02,-6625,4056,-1029,-277,-106,80,1,7,11
6.70E+02,-6623,4062,-1038,-285,-104,72,1,7,11
7.03E+02,-6625,4056,-1035,-302,-102,61,1,7,11
7.36E+02,-6625,4048,-1036,-321,-105,51,1,7,11
7.66E+02,-6621,4043,-1030,-334,-108,44,1,7,11
7.92E+02,-6610,4026,-765,-341,-103,36,1,7,11
8.13E+02,-6613,4019,-755,-345,-98,39,1,7,11
8.31E+02,-6606,4018,-754,-341,-94,46,1,7,11
8.47E+02,-6604,4018,-748,-337,-86,57,1,7,11
8.60E+02,-6603,4029,-757,-335,-72,73,1,7,11
8.69E+02,-6605,4039,-758,-336,-63,85,1,7,11
8.75E+02,-6606,4048,-757,-340,-55,88,1,7,11
8.82E+02,-6613,4055,-755,-346,-51,88,1,7,11
8.92E+02,-6615,4055,-758,-351,-51,81,1,7,11
9.09E+02,-6614,4055,-758,-353,-53,74,1,7,11
9.26E+02,-6615,4053,-759,-352,-56,68,1,7,11
9.37E+02,-6603,4051,-755,-340,-55,58,1,7,11
9.34E+02,-6605,4048,-750,-331,-51,55,1,7,11
9.13E+02,-6606,4051,-752,-318,-50,52,1,7,11
8.66E+02,-6603,4059,-752,-309,-52,50,1,7,11
7.95E+02,-6601,4069,-763,-303,-53,51,1,7,11
7.20E+02,-6603,4077,-761,-306,-50,54,1,7,11
6.73E+02,-6613,4081,-762,-316,-48,57,1,7,11
6.67E+02,-6615,4070,-765,-326,-55,51,1,7,11
6.95E+02,-6608,4068,-767,-333,-61,40,1,7,11
7.43E+02,-6607,4055,-761,-344,-62,30,1,7,11
7.98E+02,-6613,4049,-757,-340,-65,23,1,7,11
8.44E+02,-6609,4038,-761,-339,-67,22,1,7,11
8.63E+02,-6604,4028,-752,-339,-68,24,1,7,11
8.33E+02,-6597,4025,-756,-336,-64,23,1,7,11
7.54E+02,-6608,4033,-751,-339,-59,18,1,7,11
6.57E+02,-6645,4043,-742,-357,-73,21,1,7,11
5.82E+02,-6654,4038,-740,-378,-104,33,1,7,11
5.35E+02,-6641,4037,-750,-131,-120,48,1,7,11
5.09E+02,-6635,4029,-750,-136,-116,62,1,7,11
4.95E+02,-6628,4022,-734,-380,-103,75,1,7,11
4.86E+02,-6621,4023,-728,-358,-93,81,1,7,11
4.86E+02,-6612,4027,-720,-328,-83,81,1,7,11
4.99E+02,-6610,4033,-722,-296,-75,79,1,7,11
5.27E+02,-6603,4043,-727,-268,-78,79,1,7,11
5.63E+02,-6602,4053,-728,7,-80,74,1,7,11
5.92E+02,-6607,4054,-731,14,-74,65,1,7,11
6.12E+02,-6616,4059,-739,5,-64,48,1,7,11
6.24E+02,-6621,4060,-745,-265,-61,36,1,7,11
6.32E+02,-6627,4053,-752,-283,-58,29,1,7,11
6.38E+02,-6614,4043,-757,-297,-52,32,1,7,11
6.47E+02,-6613,4031,-757,-313,-33,28,1,7,11
6.59E+02,-6615,4019,-758,-325,-24,33,1,7,11
6.79E+02,-6623,4005,-748,-333,-26,37,1,7,11
7.02E+02,-6625,3994,-744,-331,-30,46,1,7,11
7.25E+02,-6623,3992,-746,-323,-34,64,1,7,11
7.43E+02,-6625,3991,-750,-308,-40,70,1,7,11
7.55E+02,-6624,4000,-756,-293,-41,75,1,7,11
7.63E+02,-6632,4000,-763,-279,-41,78,1,7,11
7.67E+02,-6644,4004,-760,-266,-48,81,1,7,11
7.67E+02,-6646,4014,-768,-257,-61,83,1,7,11
7.64E+02,-6639,4019,-1028,-257,-71,81,1,7,11
7.58E+02,-6634,4023,-1032,-261,-77,82,1,7,11
7.50E+02,-6626,4032,-1027,-264,-81,81,1,7,11
7.39E+02,-6627,4028,-766,-270,-82,82,1,7,11
7.21E+02,-6623,4029,-767,-274,-85,81,1,7,11
6.87E+02,-6625,4025,-759,-274,-89,79,1,7,11
6.31E+02,-6613,4031,-752,-275,-89,83,1,7,11
5.76E+02,-6607,4036,-761,-273,-85,87,1,7,11
5.48E+02,-6595,4036,-762,-278,-76,90,1,7,11
5.52E+02,-6599,4037,-1033,-296,-54,81,1,7,11
5.77E+02,-6604,4028,-1033,-297,-45,75,1,7,11
6.13E+02,-6609,4023,-1029,-297,-34,70,1,7,11
6.47E+02,-6609,4016,-1028,-292,-25,72,1,7,11
6.60E+02,-6604,4012,-1040,-287,-15,76,1,7,11
6.35E+02,-6608,4021,-1052,-278,-2,78,1,7,11
5.87E+02,-6613,4027,-1051,-279,262,82,1,7,11
5.64E+02,-6616,4035,-1060,-286,262,86,1,7,11
5.86E+02,-6617,4044,-1063,-292,258,89,1,7,11
6.22E+02,-6615,4048,-1067,-302,-6,92,1,7,11
6.35E+02,-6606,4044,-1071,-315,-8,93,1,7,11
6.26E+02,-6615,4033,-1061,-323,-9,91,1,7,11
6.17E+02,-6626,4020,-1060,-316,-17,86,1,7,11
6.19E+02,-6628,4007,-1062,-300,-32,80,1,7,11
6.27E+02,-6617,3995,-1068,-275,-44,71,1,7,11
6.33E+02,-6615,4000,-1082,3,-43,58,1,7,11
6.34E+02,-6627,4016,-1085,5,-49,52,1,7,11
6.33E+02,-6640,4022,-1086,-261,-79,56,1,7,11
6.31E+02,-6636,4034,-1100,-270,-109,73,1,7,11
6.28E+02,-6615,4039,-1101,-285,-124,107,1,7,11
6.23E+02,-6604,4044,-1105,-291,-125,127,1,7,11
6.16E+02,-6595,4049,-1106,-297,-113,-118,1,7,11
6.16E+02,-6595,4055,-1095,-301,-103,-112,1,7,11
6.29E+02,-6610,4059,-1083,-300,-106,-115,1,7,11
6.48E+02,-6609,4055,-1068,-296,-125,-118,1,7,11
6.60E+02,-6595,4049,-1062,-296,111,-126,1,7,11
6.67E+02,-6588,4041,-1058,-297,104,116,1,7,11
6.70E+02,-6593,4035,-1056,-302,103,98,1,7,11
6.69E+02,-6607,4024,-1044,-313,99,81,1,7,11
6.67E+02,-6599,4015,-1040,-315,95,73,1,7,11
6.64E+02,-6599,4011,-1049,-310,97,72,1,7,11
6.63E+02,-6588,4007,-1038,-303,110,84,1,7,11
6.63E+02,-6604,4010,-1032,-294,-120,101,1,7,11
6.66E+02,-6617,4013,-1029,-283,-114,124,1,7,11
6.72E+02,-6636,4014,-760,-266,-112,-116,1,7,11
6.78E+02,-6642,4017,-751,12,-125,-101,1,7,11
6.81E+02,-6632,4026,-758,36,114,-99,1,7,11
6.79E+02,-6628,4037,-763,51,102,-110,1,7,11
6.71E+02,-6617,4058,-765,53,99,-124,1,7,11
6.57E+02,-6609,4070,-763,36,106,117,1,7,11
6.35E+02,-6603,4073,-765,7,120,102,1,7,11
6.05E+02,-6595,4074,-767,-282,-125,88,1,7,11
5.74E+02,-6589,4070,-1028,-321,-103,81,1,7,11
5.60E+02,-6589,4053,-1028,-356,-78,82,1,7,11
5.75E+02,-6601,4042,-764,-129,-48,95,1,7,11
5.98E+02,-6607,4030,-757,-381,-38,110,1,7,11
6.03E+02,-6616,4026,-756,-367,-40,126,1,7,11
5.90E+02,-6616,4025,-753,-338,-48,-118,1,7,11
5.75E+02,-6615,4032,-761,-304,-62,-113,1,7,11
5.67E+02,-6609,4042,-760,-273,-79,-113,1,7,11
5.63E+02,-6601,4064,-760,8,-98,-114,1,7,11
5.64E+02,-6591,4081,-765,18,-113,-114,1,7,11
5.68E+02,-6581,4095,-764,19,-122,-117,1,7,11
5.75E+02,-6571,4357,-1029,8,-124,-119,1,7,11
5.88E+02,-6567,4361,-766,-262,-118,-123,1,7,11
6.13E+02,-6558,4361,-763,-278,-107,-128,1,7,11
6.57E+02,-6553,4365,-761,-287,-92,123,1,7,11
7.11E+02,-6552,4367,-768,-289,-70,120,1,7,11
7.49E+02,-6558,4372,-1031,-288,-47,123,1,7,11
7.44E+02,-6568,4381,-1031,-283,-34,126,1,7,11
6.94E+02,-6568,4383,-1028,-275,-33,116,1,7,11
6.29E+02,-6562,4379,-1037,-273,-36,96,1,7,11
5.78E+02,-6560,4376,-1045,-267,-36,73,1,7,11
5.46E+02,-6569,4387,-1050,-264,-39,54,1,7,11
5.30E+02,-6571,4378,-1047,-267,-48,41,1,7,11
5.26E+02,-6565,4365,-1049,-266,-52,28,1,7,11
5.33E+02,-6577,4363,-1045,-271,-54,15,1,7,11
5.46E+02,-6599,4358,-1034,-287,-70,4,1,7,11
5.64E+02,-6601,4095,-1040,-301,-96,-257,1,7,11
5.85E+02,-6605,4074,-1043,-314,-106,7,1,7,11
6.08E+02,-6596,4055,-1048,-317,-102,21,1,7,11
6.34E+02,-6583,4046,-1057,-303,-85,30,1,7,11
6.62E+02,-6581,4046,-1044,-285,-55,35,1,7,11
6.89E+02,-6591,4050,-1048,-277,-29,47,1,7,11
7.15E+02,-6602,4051,-1046,-267,-19,56,1,7,11
7.36E+02,-6602,4049,-1050,-262,-31,66,1,7,11
7.45E+02,-6597,4046,-1058,-263,-40,73,1,7,11
7.36E+02,-6596,4035,-1060,-263,-43,76,1,7,11
7.10E+02,-6603,4028,-1068,-263,-46,79,1,7,11
6.76E+02,-6604,4030,-1071,-266,-54,81,1,7,11
6.45E+02,-6604,4036,-1077,-264,-58,80,1,7,11
6.26E+02,-6604,4044,-1074,-271,-53,84,1,7,11
6.26E+02,-6591,4044,-1072,-276,-46,91,1,7,11
6.47E+02,-6594,4039,-1079,-289,-36,93,1,7,11
6.79E+02,-6593,4034,-1079,-306,-43,97,1,7,11
7.09E+02,-6600,4033,-1074,-314,-49,98,1,7,11
7.31E+02,-6602,4029,-1069,-317,-58,104,1,7,11
7.45E+02,-6597,4035,-1069,-313,-68,113,1,7,11
7.52E+02,-6594,4046,-1080,-296,-71,126,1,7,11
7.54E+02,-6583,4062,-1087,-284,-64,-113,1,7,11
7.51E+02,-6588,4084,-1077,-276,-54,-101,1,7,11
7.45E+02,-6598,4354,-1084,-273,-58,-99,1,7,11
7.38E+02,-6598,4366,-1091,-272,-75,-106,1,7,11
7.31E+02,-6586,4371,-1090,-279,-88,-121,1,7,11
7.24E+02,-6577,4375,-1097,-286,-94,113,1,7,11
7.19E+02,-6576,4372,-1091,-299,-93,91,1,7,11
7.17E+02,-6572,4362,-1083,-309,-94,77,1,7,11
7.17E+02,-6570,4357,-1083,-308,-96,71,1,7,11
7.19E+02,-6562,4093,-1084,-303,-99,71,1,7,11
7.21E+02,-6559,4087,-1074,-300,-99,77,1,7,11
7.21E+02,-6557,4088,-1071,-295,-99,83,1,7,11
7.17E+02,-6560,4089,-1069,-292,-97,88,1,7,11
7.10E+02,-6562,4090,-1071,-288,-93,89,1,7,11
7.02E+02,-6559,4092,-1072,-287,-94,93,1,7,11
6.94E+02,-6560,4093,-1069,-288,-93,95,1,7,11
6.85E+02,-6560,4092,-1069,-294,-88,98,1,7,11
6.74E+02,-6557,4085,-1077,-300,-87,98,1,7,11
6.60E+02,-6546,4092,-1084,-296,-87,94,1,7,11
6.43E+02,-6555,4356,-1083,-296,-77,90,1,7,11
6.20E+02,-6561,4363,-1086,-300,-69,92,1,7,11
6.01E+02,-6565,4363,-1088,-298,-66,93,1,7,11
5.98E+02,-6563,4366,-1090,-296,-67,93,1,7,11
6.16E+02,-6564,4361,-1085,-291,-65,86,1,7,11
6.42E+02,-6567,4359,-1084,-283,-62,75,1,7,11
6.62E+02,-6572,4364,-1081,-272,-61,56,1,7,11
6.72E+02,-6575,4355,-1083,-268,-66,48,1,7,11
6.74E+02,-6563,4089,-1093,-267,-79,37,1,7,11
6.67E+02,-6563,4091,-1102,-268,-81,22,1,7,11
6.56E+02,-6581,4095,-1097,-283,-88,11,1,7,11
6.42E+02,-6609,4352,-1088,-311,-114,12,1,7,11
6.27E+02,-6608,4081,-1087,-332,106,30,1,7,11
6.17E+02,-6588,4074,-1084,-339,90,43,1,7,11
6.20E+02,-6579,4068,-1090,-335,93,56,1,7,11
6.39E+02,-6569,4067,-1086,-327,103,65,1,7,11
6.58E+02,-6561,4063,-1079,-320,117,67,1,7,11
6.59E+02,-6562,4071,-1066,-310,-128,67,1,7,11
6.36E+02,-6570,4082,-1052,-301,125,67,1,7,11
6.03E+02,-6561,4088,-1045,-299,113,70,1,7,11
5.73E+02,-6549,4354,-1049,-309,112,72,1,7,11
5.49E+02,-6556,4357,-1052,-326,122,69,1,7,11
5.32E+02,-6571,4354,-1046,-346,-122,65,1,7,11
5.23E+02,-6582,4093,-1047,-359,-119,64,1,7,11
5.22E+02,-6590,4091,-1032,-361,-110,66,1,7,11
5.31E+02,-6582,4081,-1032,-356,-102,75,1,7,11
5.50E+02,-6580,4064,-764,-342,-88,74,1,7,11
5.76E+02,-6584,4047,-764,-319,-80,67,1,7,11
6.05E+02,-6589,4033,-754,-289,-89,39,1,7,11
6.34E+02,-6588,4033,-1027,14,-97,27,1,7,11
6.63E+02,-6592,4042,-1027,37,-102,24,1,7,11
6.93E+02,-6594,4054,-1033,48,-105,34,1,7,11
7.27E+02,-6597,4060,-1040,46,-103,52,1,7,11
7.65E+02,-6608,4068,-1044,35,-99,71,1,7,11
8.08E+02,-6564,4062,-1047,17,-111,82,1,7,11
8.56E+02,-6549,4072,-1045,8,-97,75,1,7,11
8.91E+02,-6569,4077,-1041,-261,-78,77,1,7,11
8.88E+02,-6590,4077,-1042,-277,-73,81,1,7,11
8.25E+02,-6594,4071,-1047,-288,-70,77,1,7,11
7.19E+02,-6601,4064,-1053,-294,-64,66,1,7,11
6.38E+02,-6596,4058,-1056,-291,-65,58,1,7,11
6.45E+02,-6597,4057,-1065,-289,-59,52,1,7,11
7.22E+02,-6612,4054,-1056,-289,-51,58,1,7,11
8.22E+02,-6606,4046,-1050,-284,-63,76,1,7,11
8.97E+02,-6593,4040,-1043,-270,-72,79,1,7,11
9.26E+02,-6594,4042,-1051,0,-73,78,1,7,11
9.17E+02,-6582,4042,-1051,13,-81,71,1,7,11
8.84E+02,-6576,4052,-1052,18,-82,61,1,7,11
8.41E+02,-6577,4065,-1061,11,-73,59,1,7,11
8.02E+02,-6582,4076,-1068,-263,-64,61,1,7,11
7.80E+02,-6583,4074,-1074,-290,-61,68,1,7,11
7.76E+02,-6579,4072,-1080,-321,-59,76,1,7,11
7.82E+02,-6581,4060,-1083,-345,-51,84,1,7,11
7.90E+02,-6582,4047,-1078,-361,-47,94,1,7,11
7.92E+02,-6584,4041,-1069,-357,-45,106,1,7,11
7.83E+02,-6594,4035,-1067,-341,-57,119,1,7,11
7.59E+02,-6597,4030,-1069,-317,-74,-123,1,7,11
7.32E+02,-6582,4027,-1063,-284,-96,-119,1,7,11
7.10E+02,-6581,4047,-1058,-257,-110,-127,1,7,11
6.99E+02,-6605,4077,-1050,9,125,127,1,7,11
6.98E+02,-6612,4092,-1059,1,84,-127,1,7,11
7.05E+02,-6595,4364,-1063,-265,51,-120,1,7,11
7.17E+02,-6569,4378,-1075,-280,46,-113,1,7,11
7.30E+02,-6553,4389,-1075,-295,63,-106,1,7,11
7.42E+02,-6541,4391,-1072,-309,96,-108,1,7,11
7.53E+02,-6544,4387,-1062,-321,-122,-117,1,7,11
7.67E+02,-6551,4387,-1048,-326,-95,124,1,7,11
7.91E+02,-6556,4381,-1043,-321,-86,107,1,7,11
8.20E+02,-6556,4380,-1036,-312,-87,91,1,7,11
8.46E+02,-6552,4376,-1043,-310,-87,77,1,7,11
8.60E+02,-6553,4369,-1049,-305,-77,63,1,7,11
8.56E+02,-6561,4367,-1049,-305,-71,52,1,7,11
8.42E+02,-6570,4360,-1053,-305,-73,45,1,7,11
8.25E+02,-6577,4095,-1044,-307,-76,40,1,7,11
8.14E+02,-6571,4083,-1045,-306,-80,44,1,7,11
8.10E+02,-6571,4082,-1045,-306,-75,45,1,7,11
8.10E+02,-6572,4071,-1039,-314,-79,52,1,7,11
8.14E+02,-6580,4065,-1031,-315,-82,57,1,7,11
8.20E+02,-6583,4063,-1036,-316,-86,67,1,7,11
8.26E+02,-6583,4062,-1041,-308,-91,83,1,7,11
8.30E+02,-6583,4063,-1042,-298,-95,99,1,7,11
8.28E+02,-6585,4068,-1041,-286,-92,118,1,7,11
8.17E+02,-6589,4076,-1030,-279,-84,-119,1,7,11
7.96E+02,-6597,4078,-1029,-271,-81,-105,1,7,11
7.73E+02,-6597,4089,-768,-257,-87,-102,1,7,11
7.59E+02,-6588,4357,-762,7,-91,-110,1,7,11
7.61E+02,-6583,4357,-764,4,-95,-122,1,7,11
7.73E+02,-6577,4364,-1027,-257,-100,115,1,7,11
7.84E+02,-6569,4370,-768,-263,-96,96,1,7,11
7.87E+02,-6563,4372,-1027,-272,-87,83,1,7,11
7.81E+02,-6553,4370,-1033,-278,-78,82,1,7,11
7.69E+02,-6546,4363,-1033,-281,-57,88,1,7,11
7.56E+02,-6550,4358,-1033,-279,-26,92,1,7,11
7.44E+02,-6559,4353,-1036,-275,-15,91,1,7,11
7.38E+02,-6561,4359,-1038,-265,-11,83,1,7,11
7.39E+02,-6563,4365,-1046,-270,-10,72,1,7,11
7.46E+02,-6565,4365,-1058,-293,-8,67,1,7,11
7.56E+02,-6570,4366,-1056,-322,-7,64,1,7,11
7.67E+02,-6565,4090,-1060,-343,-9,66,1,7,11
7.76E+02,-6554,4082,-1059,-354,-5,71,1,7,11
7.83E+02,-6559,4083,-1060,-355,257,84,1,7,11
7.86E+02,-6557,4084,-1064,-351,261,104,1,7,11
7.85E+02,-6552,4092,-1062,-335,259,122,1,7,11
7.81E+02,-6545,4356,-1071,-317,257,-119,1,7,11
7.74E+02,-6542,4360,-1075,-296,258,-112,1,7,11
7.66E+02,-6546,4374,-1082,-268,-1,-116,1,7,11
7.59E+02,-6562,4387,-1093,7,-8,-125,1,7,11
7.51E+02,-6558,4388,-1101,17,-24,117,1,7,11
7.44E+02,-6555,4393,-1100,25,-38,93,1,7,11
7.36E+02,-6570,4396,-1084,16,-60,68,1,7,11
7.28E+02,-6579,4398,-1080,-259,-103,48,1,7,11
7.21E+02,-6570,4397,-1089,-275,116,43,1,7,11
7.18E+02,-6546,4394,-1092,-294,106,51,1,7,11
7.28E+02,-6529,4383,-1093,-309,123,66,1,7,11
7.61E+02,-6773,4386,-1091,-315,-97,75,1,7,11
8.08E+02,-6772,4386,-1092,-321,-52,76,1,7,11
8.53E+02,-6778,4384,-1083,-324,-20,78,1,7,11
8.89E+02,-6540,4384,-1084,-324,-5,75,1,7,11
9.18E+02,-6546,4381,-1092,-324,-13,69,1,7,11
9.45E+02,-6542,4374,-1100,-318,-26,62,1,7,11
9.71E+02,-6546,4370,-1101,-312,-32,52,1,7,11
9.96E+02,-6553,4353,-1097,-307,-37,43,1,7,11
1.01E+03,-6559,4090,-1093,-295,-48,38,1,7,11
1.02E+03,-6556,4092,-1099,-280,-57,35,1,7,11
1.00E+03,-6560,4088,-1102,-270,-62,38,1,7,11
9.78E+02,-6548,4087,-1109,-264,-65,52,1,7,11
9.35E+02,-6550,4091,-1113,-266,-58,64,1,7,11
8.81E+02,-6550,4084,-1104,-276,-64,76,1,7,11
8.31E+02,-6558,4081,-1100,-276,-69,80,1,7,11
8.04E+02,-6556,4084,-1099,-286,-76,84,1,7,11
8.13E+02,-6553,4086,-1102,-286,-79,90,1,7,11
8.48E+02,-6552,4093,-1105,-288,-74,94,1,7,11
8.92E+02,-6554,4366,-1112,-291,-62,101,1,7,11
9.29E+02,-6560,4369,-1108,-298,-54,106,1,7,11
9.50E+02,-6568,4375,-1100,-300,-57,110,1,7,11
9.57E+02,-6566,4371,-1098,-301,-64,111,1,7,11
9.57E+02,-6563,4362,-1098,-299,-70,100,1,7,11
9.55E+02,-6560,4355,-1100,-292,-74,82,1,7,11
9.54E+02,-6558,4353,-1100,-276,-76,63,1,7,11
9.53E+02,-6554,4094,-1096,-266,-74,57,1,7,11
9.49E+02,-6546,4353,-1099,-261,-73,62,1,7,11
9.43E+02,-6543,4353,-1108,-261,-69,67,1,7,11
9.35E+02,-6542,4352,-1108,-267,-64,69,1,7,11
9.28E+02,-6546,4094,-1108,-276,-59,71,1,7,11
9.23E+02,-6547,4094,-1108,-292,-55,78,1,7,11
9.19E+02,-6544,4094,-1104,-308,-53,85,1,7,11
9.17E+02,-6541,4093,-1103,-319,-50,95,1,7,11
9.16E+02,-6540,4357,-1111,-330,-44,105,1,7,11
9.16E+02,-6539,4352,-1110,-333,-37,118,1,7,11
9.16E+02,-6534,4362,-1115,-332,-29,-128,1,7,11
9.17E+02,-6536,4373,-1120,-328,-27,-118,1,7,11
9.19E+02,-6538,4381,-1119,-322,-32,-110,1,7,11
9.22E+02,-6536,4384,-1126,-306,-44,-110,1,7,11
9.26E+02,-6536,4401,-1128,-292,-55,-114,1,7,11
9.31E+02,-6542,4413,-1127,-281,-63,-120,1,7,11
9.37E+02,-6547,4420,-1125,-276,-71,125,1,7,11
9.44E+02,-6550,4427,-1123,-270,-85,115,1,7,11
9.51E+02,-6532,4422,-1121,-272,-99,92,1,7,11
9.57E+02,-6784,4415,-1128,-274,-93,71,1,7,11
9.64E+02,-6783,4415,-1134,-278,-85,56,1,7,11
9.72E+02,-6784,4400,-1132,-289,-80,47,1,7,11
9.80E+02,-6772,4391,-1129,-294,-79,41,1,7,11
9.88E+02,-6776,4391,-1128,-299,-77,33,1,7,11
9.94E+02,-6543,4383,-1122,-316,-89,31,1,7,11
9.94E+02,-6562,4375,-1116,-334,-122,34,1,7,11
9.90E+02,-6559,4371,-1126,-346,104,47,1,7,11
9.81E+02,-6549,4360,-1133,-353,99,60,1,7,11
9.67E+02,-6538,4093,-1134,-351,112,70,1,7,11
9.49E+02,-6541,4095,-1130,-344,-121,74,1,7,11
9.32E+02,-6543,4086,-1114,-337,-107,82,1,7,11
9.18E+02,-6540,4086,-1095,-320,-101,89,1,7,11
9.12E+02,-6534,4094,-1096,-299,-107,99,1,7,11
9.12E+02,-6777,4363,-1104,-281,-110,106,1,7,11
9.14E+02,-6772,4379,-1106,-274,-103,111,1,7,11
9.10E+02,-6775,4390,-1107,-275,-95,110,1,7,11
8.98E+02,-6784,4393,-1108,-279,-91,105,1,7,11
8.83E+02,-6534,4399,-1113,-284,-91,94,1,7,11
8.73E+02,-6548,4403,-1113,-291,-88,81,1,7,11
8.76E+02,-6545,4396,-1109,-301,-87,76,1,7,11
8.91E+02,-6542,4387,-1110,-311,-83,68,1,7,11
9.10E+02,-6541,4373,-1100,-322,-84,59,1,7,11
9.22E+02,-6542,4360,-1099,-326,-87,48,1,7,11
9.20E+02,-6543,4354,-1094,-319,-93,50,1,7,11
9.05E+02,-6538,4360,-1102,-308,-98,59,1,7,11
8.86E+02,-6537,4364,-1107,-300,-96,69,1,7,11
8.70E+02,-6534,4375,-1114,-298,-86,83,1,7,11
8.59E+02,-6539,4388,-1113,-299,-75,96,1,7,11
8.58E+02,-6551,4388,-1112,-303,-73,104,1,7,11
8.70E+02,-6556,4391,-1117,-305,-86,102,1,7,11
8.92E+02,-6556,4391,-1101,-305,-98,92,1,7,11
9.18E+02,-6556,4396,-1105,-302,-111,83,1,7,11
9.42E+02,-6553,4397,-1105,-298,-124,73,1,7,11
9.58E+02,-6551,4396,-1098,-294,119,70,1,7,11
9.65E+02,-6542,4393,-1091,-292,110,69,1,7,11
9.64E+02,-6534,4390,-1088,-289,105,67,1,7,11
9.58E+02,-6531,4382,-1087,-287,105,60,1,7,11
9.47E+02,-6532,4381,-1075,-288,106,50,1,7,11
9.33E+02,-6529,4377,-1076,-289,110,52,1,7,11
9.20E+02,-6529,4375,-1067,-286,114,54,1,7,11
9.10E+02,-6529,4379,-1068,-281,124,60,1,7,11
9.04E+02,-6533,4377,-1067,-273,-118,69,1,7,11
9.02E+02,-6538,4382,-1060,-266,-103,79,1,7,11
9.04E+02,-6542,4386,-1065,-264,-91,86,1,7,11
9.09E+02,-6537,4390,-1065,-262,-82,84,1,7,11
9.15E+02,-6546,4403,-1075,-263,-77,80,1,7,11
9.20E+02,-6552,4401,-1074,-276,-70,74,1,7,11
9.21E+02,-6551,4397,-1072,-296,-70,67,1,7,11
9.15E+02,-6543,4390,-1065,-325,-68,58,1,7,11
9.01E+02,-6537,4377,-1063,-335,-62,55,1,7,11
8.76E+02,-6536,4365,-1064,-341,-54,50,1,7,11
8.43E+02,-6536,4355,-1063,-332,-48,53,1,7,11
8.07E+02,-6532,4095,-1063,-321,-40,63,1,7,11
7.74E+02,-6530,4089,-1065,-308,-33,75,1,7,11
7.52E+02,-6776,4084,-1073,-287,-30,79,1,7,11
7.45E+02,-6548,4087,-1074,-274,-22,73,1,7,11
7.61E+02,-6587,4355,-1080,-277,-45,73,1,7,11
8.01E+02,-6591,4354,-1092,-285,-91,81,1,7,11
8.58E+02,-6574,4361,-1101,-289,-118,90,1,7,11
9.26E+02,-6564,4363,-1103,-301,-122,104,1,7,11
9.99E+02,-6556,4359,-1103,-307,-112,116,1,7,11
1.07E+03,-6539,4362,-1095,-313,-100,124,1,7,11
1.13E+03,-6782,4372,-1088,-315,-86,-123,1,7,11
1.16E+03,-6530,4377,-1078,-314,-78,-113,1,7,11
1.18E+03,-6773,4384,-1077,-309,-78,-106,1,7,11
1.18E+03,-6759,4395,-1080,-303,-75,-105,1,7,11
1.17E+03,-6758,4405,-1091,-297,-61,-111,1,7,11
1.16E+03,-6763,4415,-1095,-292,-44,-119,1,7,11
1.15E+03,-6770,4420,-1095,-287,-30,-128,1,7,11
1.14E+03,-6782,4426,-1096,-280,-22,118,1,7,11
1.13E+03,-6778,4426,-1105,-278,-23,108,1,7,11
1.11E+03,-6778,4421,-1121,-275,-17,91,1,7,11
1.07E+03,-6532,4416,-1115,-283,-21,75,1,7,11
1.02E+03,-6537,4409,-1111,-294,-35,64,1,7,11
9.61E+02,-6535,4403,-1110,-303,-49,62,1,7,11
9.18E+02,-6530,4398,-1115,-312,-58,70,1,7,11
8.88E+02,-6776,4394,-1119,-315,-68,82,1,7,11
8.67E+02,-6767,4393,-1120,-315,-67,95,1,7,11
8.50E+02,-6767,4394,-1117,-313,-56,107,1,7,11
8.33E+02,-6780,4398,-1113,-310,-44,115,1,7,11
8.13E+02,-6534,4402,-1113,-297,-45,115,1,7,11
7.86E+02,-6532,4404,-1120,-283,-51,111,1,7,11
7.55E+02,-6782,4417,-1119,-274,-55,99,1,7,11
7.22E+02,-6780,4419,-1131,-269,-58,87,1,7,11
6.91E+02,-6780,4413,-1128,-268,-63,77,1,7,11
6.62E+02,-6530,4414,-1124,-269,-69,69,1,7,11
6.36E+02,-6533,4407,-1122,-271,-74,74,1,7,11
6.09E+02,-6532,4405,-1115,-267,-81,88,1,7,11
5.82E+02,-6780,4399,-1114,-259,-90,96,1,7,11
5.56E+02,-6776,4399,-1106,7,-91,105,1,7,11
5.42E+02,-6774,4399,-1097,14,-92,103,1,7,11
5.43E+02,-6772,4400,-1099,25,-95,99,1,7,11
5.47E+02,-6769,4401,-1104,25,-95,89,1,7,11
5.45E+02,-6770,4410,-1106,14,-95,77,1,7,11
5.44E+02,-6767,4412,-1102,-262,-97,68,1,7,11
5.53E+02,-6764,4415,-1101,-285,-98,62,1,7,11
5.67E+02,-6764,4411,-1095,-310,-95,62,1,7,11
5.79E+02,-6756,4401,-1094,-331,-87,68,1,7,11
5.89E+02,-6757,4389,-1103,-343,-69,74,1,7,11
6.00E+02,-6759,4382,-1105,-340,-47,79,1,7,11
6.12E+02,-6760,4373,-1105,-332,-23,91,1,7,11
6.28E+02,-6773,4372,-1112,-311,258,106,1,7,11
6.43E+02,-6532,4385,-1107,-279,270,123,1,7,11
6.55E+02,-6543,4394,-1118,3,263,-119,1,7,11
6.57E+02,-6529,4415,-1125,26,-8,-121,1,7,11
6.43E+02,-6778,4430,-1123,36,-20,118,1,7,11
6.11E+02,-6780,4445,-1127,15,-42,92,1,7,11
5.76E+02,-6529,4460,-1134,-279,-76,63,1,7,11
5.53E+02,-6771,4451,-1138,-347,-104,43,1,7,11
5.45E+02,-6758,4433,-1145,-130,-98,46,1,7,11
5.49E+02,-6739,4415,-1147,-148,-73,53,1,7,11
5.64E+02,-6739,4400,-1138,-150,-38,60,1,7,11
5.86E+02,-6752,4390,-1124,-138,-6,74,1,7,11
6.13E+02,-6768,4388,-1114,-366,260,95,1,7,11
6.38E+02,-6773,4396,-1113,-329,-11,115,1,7,11
6.54E+02,-6765,4394,-1122,-289,-32,-128,1,7,11
6.54E+02,-6759,4400,-1123,-258,-48,127,1,7,11
6.43E+02,-6764,4413,-1130,20,-63,112,1,7,11
6.29E+02,-6769,4424,-1131,35,-84,93,1,7,11
6.20E+02,-6759,4428,-1129,47,-101,77,1,7,11
6.19E+02,-6748,4432,-1135,48,-107,64,1,7,11
6.28E+02,-6729,4431,-1148,46,-103,61,1,7,11
6.39E+02,-6718,4438,-1151,33,-77,55,1,7,11
6.37E+02,-6709,4434,-1150,13,-52,58,1,7,11
6.21E+02,-6721,4430,-904,-268,-19,61,1,7,11
6.03E+02,-6730,4426,-905,-289,261,69,1,7,11
5.98E+02,-6741,4430,-916,-303,273,73,1,7,11
6.07E+02,-6753,4428,-932,-316,279,73,1,7,11
6.27E+02,-6768,4432,-939,-329,285,71,1,7,11
6.56E+02,-6781,4432,-941,-346,285,55,1,7,11
6.92E+02,-6540,4422,-937,-359,272,38,1,7,11
7.32E+02,-6544,4416,-935,-364,-26,27,1,7,11
7.69E+02,-6534,4400,-929,-364,-54,15,1,7,11
7.94E+02,-6531,4382,-932,-355,-72,10,1,7,11
8.00E+02,-6782,4366,-925,-350,-82,8,1,7,11
7.90E+02,-6775,4353,-916,-322,-88,19,1,7,11
7.81E+02,-6773,4092,-912,-293,-89,34,1,7,11
7.87E+02,-6773,4094,-916,-263,-91,49,1,7,11
8.16E+02,-6768,4357,-910,17,-96,66,1,7,11
8.61E+02,-6766,4371,-922,29,-99,79,1,7,11
9.16E+02,-6766,4384,-927,26,-99,90,1,7,11
9.73E+02,-6768,4392,-930,11,-100,94,1,7,11
1.03E+03,-6771,4395,-925,-266,-104,95,1,7,11
1.07E+03,-6756,4392,-922,-286,-107,97,1,7,11
1.10E+03,-6747,4394,-917,-308,-103,97,1,7,11
1.11E+03,-6744,4397,-914,-325,-95,101,1,7,11
1.12E+03,-6738,4391,-909,-340,-86,108,1,7,11
1.12E+03,-6743,4392,-905,-344,-74,117,1,7,11
1.12E+03,-6744,4393,-910,-335,-65,124,1,7,11
1.11E+03,-6752,4393,-907,-316,-59,-121,1,7,11
1.11E+03,-6757,4405,-900,-292,-62,-109,1,7,11
1.10E+03,-6757,4420,-900,-262,-69,-102,1,7,11
1.10E+03,-6750,4436,-907,18,-76,-101,1,7,11
1.10E+03,-6744,4448,-915,33,-80,-110,1,7,11
1.10E+03,-6741,4462,-919,43,-85,125,1,7,11
1.10E+03,-6745,4477,-925,36,-93,102,1,7,11
1.10E+03,-6740,4472,-930,22,-107,80,1,7,11
1.12E+03,-6735,4224,-928,-258,-110,54,1,7,11
1.14E+03,-6747,4226,-917,-294,-113,33,1,7,11
1.17E+03,-6772,4476,-907,-341,116,22,1,7,11
1.19E+03,-6775,4453,-900,-380,80,23,1,7,11
1.22E+03,-6763,4417,-1147,-142,61,29,1,7,11
1.24E+03,-6752,4402,-1145,-368,64,39,1,7,11
1.26E+03,-6738,4402,-1147,-334,91,47,1,7,11
1.27E+03,-6738,4407,-1136,-302,123,62,1,7,11
1.27E+03,-6746,4424,-1127,-276,-110,74,1,7,11
1.27E+03,-6757,4425,-1135,-259,-112,75,1,7,11
1.27E+03,-6759,4428,-1143,8,125,67,1,7,11
1.27E+03,-6757,4430,-1145,5,111,51,1,7,11
1.26E+03,-6760,4427,-898,-266,106,32,1,7,11
1.26E+03,-6766,4417,-1143,-281,107,16,1,7,11
1.26E+03,-6773,4400,-1137,-289,106,7,1,7,11
1.26E+03,-6780,4385,-1129,-289,108,3,1,7,11
1.26E+03,-6769,4371,-1130,-286,106,4,1,7,11
1.26E+03,-6767,4370,-1127,-285,122,7,1,7,11
1.27E+03,-6763,4365,-1131,-295,-124,15,1,7,11
1.27E+03,-6760,4362,-1131,-306,-108,28,1,7,11
1.29E+03,-6765,4361,-1128,-316,-90,44,1,7,11
1.30E+03,-6770,4363,-1129,-328,-77,61,1,7,11
1.33E+03,-6784,4365,-1130,-332,-70,75,1,7,11
1.36E+03,-6539,4367,-1128,-333,-64,87,1,7,11
1.39E+03,-6542,4376,-1127,-336,-59,100,1,7,11
1.42E+03,-6548,4381,-1128,-334,-62,103,1,7,11
1.44E+03,-6539,4385,-1132,-326,-71,104,1,7,11
1.44E+03,-6536,4390,-1130,-321,-79,98,1,7,11
1.43E+03,-6529,4396,-1132,-316,-83,91,1,7,11
1.39E+03,-6532,4405,-1136,-315,-91,84,1,7,11
1.33E+03,-6530,4407,-1141,-314,-99,80,1,7,11
1.27E+03,-6530,4407,-1131,-316,-109,78,1,7,11
1.20E+03,-6780,4400,-1132,-315,-121,76,1,7,11
1.15E+03,-6768,4392,-1118,-310,-128,69,1,7,11
1.12E+03,-6768,4386,-1103,-301,124,60,1,7,11
1.09E+03,-6768,4392,-1088,-284,122,54,1,7,11
1.08E+03,-6761,4400,-1089,-269,122,51,1,7,11
1.07E+03,-6753,4415,-1100,-258,125,55,1,7,11
1.08E+03,-6752,4424,-1100,-260,-122,66,1,7,11
1.08E+03,-6751,4431,-1103,-271,-109,75,1,7,11
1.09E+03,-6750,4428,-1100,-288,-99,82,1,7,11
1.10E+03,-6754,4435,-1098,-305,-94,79,1,7,11
1.11E+03,-6752,4437,-1106,-318,-84,74,1,7,11
1.13E+03,-6758,4430,-1104,-330,-77,72,1,7,11
1.15E+03,-6767,4418,-1104,-338,-69,70,1,7,11
1.17E+03,-6769,4401,-1100,-335,-60,65,1,7,11
1.19E+03,-6775,4399,-1095,-325,-56,65,1,7,11
1.22E+03,-6773,4397,-1093,-308,-56,64,1,7,11
1.24E+03,-6780,4400,-1087,-287,-60,64,1,7,11
1.27E+03,-6782,4400,-1090,-268,-69,65,1,7,11
1.29E+03,-6771,4401,-1098,-257,-78,65,1,7,11
1.31E+03,-6759,4401,-1109,9,-78,55,1,7,11
1.33E+03,-6776,4407,-1104,7,-70,40,1,7,11
1.34E+03,-6548,4421,-1099,-265,-83,31,1,7,11
1.34E+03,-6558,4421,-1108,-291,-116,30,1,7,11
1.34E+03,-6543,4417,-1105,-305,122,34,1,7,11
1.34E+03,-6783,4408,-1114,-313,127,35,1,7,11
1.34E+03,-6768,4396,-1111,-318,-108,38,1,7,11
1.34E+03,-6769,4390,-1102,-323,-80,35,1,7,11
1.34E+03,-6776,4384,-1098,-318,-48,30,1,7,11
1.35E+03,-6782,4382,-1092,-308,-46,32,1,7,11
1.35E+03,-6771,4375,-1085,-292,-52,36,1,7,11
1.36E+03,-6769,4381,-1094,-274,-48,39,1,7,11
1.37E+03,-6772,4383,-1110,-265,-37,44,1,7,11
1.38E+03,-6782,4380,-1119,0,-27,40,1,7,11
1.38E+03,-6534,4379,-1127,3,-25,34,1,7,11
1.38E+03,-6540,4376,-1131,7,-27,27,1,7,11
1.38E+03,-6777,4368,-1139,9,-35,25,1,7,11
1.38E+03,-6779,4363,-1142,3,-26,17,1,7,11
1.39E+03,-6776,4093,-1145,-264,-29,17,1,7,11
1.39E+03,-6782,4093,-1149,-272,-35,23,1,7,11
1.41E+03,-6535,4090,-907,-282,-41,42,1,7,11
1.44E+03,-6535,4093,-912,-288,-52,67,1,7,11
1.48E+03,-6533,4354,-916,-291,-63,90,1,7,11
1.54E+03,-6533,4360,-918,-294,-67,110,1,7,11
1.61E+03,-6538,4361,-917,-296,-68,124,1,7,11
1.69E+03,-6549,4367,-918,-295,-72,-124,1,7,11
1.76E+03,-6560,4370,-913,-290,-87,-121,1,7,11
1.81E+03,-6559,4379,-903,-282,-110,-121,1,7,11
1.85E+03,-6555,4385,-903,-278,126,122,1,7,11
1.88E+03,-6547,4384,-1146,-278,106,105,1,7,11
1.89E+03,-6544,4383,-1138,-282,91,90,1,7,11
1.90E+03,-6529,4378,-1140,-288,76,76,1,7,11
1.90E+03,-6767,4374,-1138,-296,82,65,1,7,11
1.90E+03,-6759,4365,-1131,-303,101,66,1,7,11
1.90E+03,-6762,4368,-1118,-308,126,79,1,7,11
1.91E+03,-6771,4366,-1113,-303,-109,98,1,7,11
1.91E+03,-6775,4372,-1111,-297,-91,112,1,7,11
1.92E+03,-6781,4382,-1118,-292,-79,114,1,7,11
1.92E+03,-6532,4388,-1123,-299,-65,102,1,7,11
1.93E+03,-6532,4387,-1135,-319,-58,81,1,7,11
1.93E+03,-6783,4384,-1140,-344,-55,54,1,7,11
1.93E+03,-6782,4382,-1135,-373,-53,38,1,7,11
1.92E+03,-6784,4375,-1129,-149,-49,39,1,7,11
1.90E+03,-6531,4363,-1129,-173,-46,52,1,7,11
1.89E+03,-6541,4085,-1125,-178,-47,74,1,7,11
1.86E+03,-6550,4072,-1125,-160,-50,100,1,7,11
1.84E+03,-6555,4060,-1121,-379,-55,126,1,7,11
1.82E+03,-6555,4066,-1111,-327,-67,-106,1,7,11
1.80E+03,-6562,4084,-1108,-280,-86,-91,1,7,11
1.78E+03,-6557,4357,-1119,11,-112,-86,1,7,11
1.77E+03,-6542,4388,-1134,30,120,-97,1,7,11
1.75E+03,-6544,4419,-1139,21,104,-114,1,7,11
1.75E+03,-6557,4435,-1133,-272,71,-128,1,7,11
1.74E+03,-6550,4436,-1119,-311,35,127,1,7,11
1.74E+03,-6531,4427,-1114,-344,18,-123,1,7,11
1.75E+03,-6764,4409,-1100,-357,22,-117,1,7,11
1.76E+03,-6752,4400,-1096,-347,46,-121,1,7,11
1.77E+03,-6747,4404,-1083,-329,78,-123,1,7,11
1.78E+03,-6751,4418,-1075,-309,110,-122,1,7,11
1.80E+03,-6758,4432,-1072,-286,-124,-118,1,7,11
1.82E+03,-6756,4448,-1070,-271,-124,-109,1,7,11
1.84E+03,-6752,4459,-1072,-266,-126,-108,1,7,11
1.86E+03,-6746,4459,-1068,-271,-118,-116,1,7,11
1.87E+03,-6745,4462,-1063,-283,-109,123,1,7,11
1.89E+03,-6752,4457,-1068,-295,-99,103,1,7,11
1.91E+03,-6750,4449,-1063,-303,-88,80,1,7,11
1.92E+03,-6739,4438,-1057,-305,-79,79,1,7,11
1.94E+03,-6742,4432,-1058,-302,-54,77,1,7,11
1.95E+03,-6748,4424,-1048,-297,-51,81,1,7,11
1.96E+03,-6758,4414,-1041,-293,-50,87,1,7,11
1.97E+03,-6757,4421,-1045,-275,-53,97,1,7,11
1.98E+03,-6759,4419,-1059,-261,-57,108,1,7,11
1.98E+03,-6755,4428,-1060,11,-57,115,1,7,11
1.99E+03,-6757,4435,-1067,23,-53,119,1,7,11
1.99E+03,-6763,4448,-1071,30,-37,119,1,7,11
2.00E+03,-6761,4462,-1073,32,-25,116,1,7,11
2.00E+03,-6759,4466,-1082,33,-18,104,1,7,11
2.00E+03,-6759,4472,-1094,27,-8,85,1,7,11
2.01E+03,-6758,4475,-1104,14,261,63,1,7,11
2.02E+03,-6763,4473,-1108,0,271,43,1,7,11
2.03E+03,-6768,4466,-1113,-274,276,28,1,7,11
2.03E+03,-6774,4458,-1119,-290,273,20,1,7,11
2.04E+03,-6778,4443,-1115,-309,269,17,1,7,11
2.05E+03,-6776,4426,-1112,-314,260,14,1,7,11
2.05E+03,-6773,4410,-1110,-315,-4,11,1,7,11
2.05E+03,-6771,4399,-1119,-309,-9,14,1,7,11
2.05E+03,-6770,4388,-1125,-295,-13,18,1,7,11
2.05E+03,-6766,4386,-1128,-282,-16,30,1,7,11
2.05E+03,-6763,4387,-1133,-267,-16,41,1,7,11
2.04E+03,-6751,4382,-1127,1,-17,52,1,7,11
2.04E+03,-6738,4384,-1138,6,-10,55,1,7,11
2.04E+03,-6735,4397,-901,15,260,57,1,7,11
2.04E+03,-6739,4418,-913,16,278,65,1,7,11
2.04E+03,-6747,4428,-929,12,286,84,1,7,11
2.04E+03,-6747,4441,-945,5,287,101,1,7,11
2.04E+03,-6749,4440,-952,-260,285,104,1,7,11
2.04E+03,-6746,4434,-964,-270,284,94,1,7,11
2.04E+03,-6740,4431,-973,-274,280,79,1,7,11
2.04E+03,-6753,4448,-968,-267,274,64,1,7,11
2.05E+03,-6765,4460,-971,-271,260,58,1,7,11
2.05E+03,-6762,4455,-970,-283,-21,57,1,7,11
2.06E+03,-6764,4448,-973,-295,-43,41,1,7,11
2.07E+03,-6783,4439,-955,-317,-75,15,1,7,11
2.08E+03,-6548,4422,-938,-349,122,-269,1,7,11
2.08E+03,-6548,4403,-929,-372,67,-285,1,7,11
2.10E+03,-6541,4374,-927,-134,38,-284,1,7,11
2.11E+03,-6777,4087,-915,-133,35,-270,1,7,11
2.12E+03,-6768,4071,-906,-375,59,1,1,7,11
2.13E+03,-6765,4062,-1152,-361,97,17,1,7,11
2.14E+03,-6772,4069,-1148,-344,-125,46,1,7,11
2.15E+03,-6783,4083,-1149,-320,-101,80,1,7,11
2.15E+03,-6784,4356,-1151,-304,-91,118,1,7,11
2.15E+03,-6529,4375,-899,-287,-79,-94,1,7,11
2.15E+03,-6534,4389,-901,-278,-80,-79,1,7,11
2.14E+03,-6541,4405,-1146,-274,-92,-84,1,7,11
2.12E+03,-6784,4420,-1150,-279,-114,-98,1,7,11
2.10E+03,-6769,4433,-900,-298,-128,-120,1,7,11
2.07E+03,-6727,4442,-912,-341,-123,96,1,7,11
2.05E+03,-6727,4433,-909,-136,-95,74,1,7,11
2.04E+03,-6735,4406,-897,-183,-76,57,1,7,11
2.03E+03,-6757,4383,-1129,-201,-66,53,1,7,11
2.02E+03,-6766,4359,-1125,-190,-73,65,1,7,11
2.02E+03,-6772,4095,-1111,-150,-86,92,1,7,11
2.02E+03,-6782,4359,-1112,-352,-99,-127,1,7,11
2.02E+03,-6538,4376,-1111,-291,-116,-89,1,7,11
2.03E+03,-6535,4405,-1112,25,118,-65,1,7,11
2.04E+03,-6530,4441,-1111,77,84,-55,1,7,11
2.05E+03,-6775,4226,-1123,107,55,-64,1,7,11
2.06E+03,-6753,4261,-1133,112,33,-86,1,7,11
2.07E+03,-6728,4285,-1127,94,27,-125,1,7,11
2.08E+03,-6712,4302,-1127,60,36,83,1,7,11
2.08E+03,-6704,4295,-1114,15,53,32,1,7,11
2.07E+03,-6705,4275,-1099,-279,71,-275,1,7,11
2.06E+03,-6706,4251,-1090,-308,91,-315,1,7,11
2.04E+03,-6706,4228,-1088,-322,117,-341,1,7,11
2.02E+03,-6708,4466,-1083,-328,-108,-348,1,7,11
1.98E+03,-6716,4447,-1081,-329,-74,-343,1,7,11
1.94E+03,-6731,4434,-1092,-326,-47,-334,1,7,11
1.90E+03,-6767,4410,-1095,-322,-28,-324,1,7,11
1.86E+03,-6775,4400,-1100,-315,-28,-322,1,7,11
1.82E+03,-6777,4387,-1107,-312,-34,-331,1,7,11
1.78E+03,-6529,4377,-1110,-309,-38,-336,1,7,11
1.75E+03,-6536,4367,-1110,-311,-40,-329,1,7,11
1.72E+03,-6537,4355,-1105,-312,-48,-313,1,7,11
1.70E+03,-6539,4078,-1093,-305,-54,-300,1,7,11
1.68E+03,-6542,4069,-1103,-286,-61,-285,1,7,11
1.67E+03,-6547,4069,-1109,-263,-65,-277,1,7,11
1.66E+03,-6554,4084,-1115,15,-66,-262,1,7,11
1.65E+03,-6563,4356,-1123,27,-63,12,1,7,11
1.65E+03,-6558,4355,-1128,27,-67,29,1,7,11
1.64E+03,-6549,4354,-1128,25,-67,27,1,7,11
1.64E+03,-6559,4356,-1130,15,-68,10,1,7,11
1.64E+03,-6592,4371,-1126,-261,-84,-265,1,7,11
1.64E+03,-6599,4364,-1128,-301,-124,-273,1,7,11
1.64E+03,-6588,4358,-1133,-330,104,-274,1,7,11
1.64E+03,-6573,4091,-1126,-353,106,-269,1,7,11
1.65E+03,-6548,4078,-1128,-366,126,-259,1,7,11
1.65E+03,-6784,4068,-1131,-371,-96,2,1,7,11
1.65E+03,-6782,4061,-1130,-368,-59,9,1,7,11
1.65E+03,-6533,4057,-1127,-364,-33,20,1,7,11
1.65E+03,-6542,4048,-1124,-349,-29,33,1,7,11
1.65E+03,-6549,4047,-1120,-331,-35,44,1,7,11
1.65E+03,-6553,4048,-1127,-313,-41,50,1,7,11
1.65E+03,-6565,4057,-1137,-301,-52,54,1,7,11
1.65E+03,-6568,4066,-1139,-293,-67,55,1,7,11
1.65E+03,-6564,4063,-1140,-293,-79,59,1,7,11
1.65E+03,-6553,4061,-1135,-293,-86,64,1,7,11
1.65E+03,-6530,4062,-1134,-295,-81,68,1,7,11
1.64E+03,-6532,4067,-1126,-304,-66,73,1,7,11
1.64E+03,-6530,4068,-1122,-312,-62,81,1,7,11
1.64E+03,-6530,4070,-1121,-309,-61,92,1,7,11
1.63E+03,-6544,4075,-1118,-303,-60,106,1,7,11
1.63E+03,-6545,4078,-1115,-285,-64,118,1,7,11
1.62E+03,-6542,4089,-1118,-258,-69,-127,1,7,11
1.62E+03,-6541,4368,-1137,23,-67,-122,1,7,11
1.61E+03,-6548,4386,-1131,41,-66,-120,1,7,11
1.61E+03,-6553,4398,-1142,52,-79,127,1,7,11
1.60E+03,-6552,4419,-901,55,-93,109,1,7,11
1.60E+03,-6548,4436,-907,36,-100,84,1,7,11
1.59E+03,-6541,4435,-911,-260,-103,60,1,7,11
1.59E+03,-6542,4428,-904,-302,-105,33,1,7,11
1.58E+03,-6556,4403,-1131,-338,-107,12,1,7,11
1.57E+03,-6559,4368,-1122,-355,-116,-262,1,7,11
1.56E+03,-6557,4082,-1103,-356,-124,-274,1,7,11
1.55E+03,-6553,4060,-1092,-334,-126,-272,1,7,11
1.53E+03,-6547,4047,-1095,-311,-120,-264,1,7,11
1.52E+03,-6553,4048,-1095,-275,-105,17,1,7,11
1.50E+03,-6560,4046,-1108,-260,-99,29,1,7,11
1.47E+03,-6565,4047,-1106,4,-101,33,1,7,11
1.45E+03,-6569,4045,-1112,0,-102,29,1,7,11
1.43E+03,-6570,4052,-1121,-267,-102,27,1,7,11
1.40E+03,-6572,4050,-1123,-284,-102,32,1,7,11
1.38E+03,-6568,4046,-1110,-300,-100,42,1,7,11
1.36E+03,-6568,4038,-1100,-313,-96,55,1,7,11
1.34E+03,-6567,4033,-1102,-315,-88,70,1,7,11
1.32E+03,-6567,4035,-1107,-310,-80,86,1,7,11
1.30E+03,-6568,4044,-1109,-303,-68,101,1,7,11
1.28E+03,-6566,4057,-1113,-301,-57,117,1,7,11
1.26E+03,-6557,4063,-1123,-304,-50,-122,1,7,11
1.23E+03,-6555,4074,-1135,-312,-39,-121,1,7,11
1.19E+03,-6574,4092,-1136,-333,-32,-127,1,7,11
1.16E+03,-6596,4357,-1124,-368,-54,124,1,7,11
1.13E+03,-6596,4359,-1120,-141,-90,-128,1,7,11
1.10E+03,-6584,4352,-1127,-156,-109,-122,1,7,11
1.08E+03,-6573,4084,-1128,-157,-109,-117,1,7,11
1.07E+03,-6556,4075,-1115,-138,-98,-112,1,7,11
1.06E+03,-6557,4070,-1094,-346,-77,-103,1,7,11
1.06E+03,-6559,4079,-1078,-306,-76,-92,1,7,11
1.06E+03,-6557,4354,-1074,-258,-95,-80,1,7,11
1.06E+03,-6546,4374,-1080,42,-120,-68,1,7,11
1.07E+03,-6784,4389,-1088,75,121,-60,1,7,11
1.08E+03,-6767,4406,-1100,93,120,-64,1,7,11
1.09E+03,-6751,4408,-1108,103,-126,-80,1,7,11
1.10E+03,-6746,4416,-1122,106,-101,-107,1,7,11
1.10E+03,-6748,4427,-1123,98,-73,-127,1,7,11
1.11E+03,-6746,4436,-1133,88,-48,117,1,7,11
1.12E+03,-6758,4441,-1137,71,-22,109,1,7,11
1.13E+03,-6761,4433,-1133,55,-18,107,1,7,11
1.14E+03,-6765,4433,-1131,42,-19,98,1,7,11
1.15E+03,-6779,4433,-1136,24,-25,91,1,7,11
1.16E+03,-6781,4432,-1140,13,-40,82,1,7,11
1.16E+03,-6530,4429,-1150,-259,-57,62,1,7,11
1.15E+03,-6533,4420,-1140,-284,-69,45,1,7,11
1.15E+03,-6544,4404,-1126,-312,-75,25,1,7,11
1.14E+03,-6549,4387,-1120,-337,-87,9,1,7,11
1.12E+03,-6547,4372,-1117,-358,-93,-262,1,7,11
1.10E+03,-6546,4355,-1111,-362,-84,-265,1,7,11
1.08E+03,-6555,4093,-1108,-357,-67,-258,1,7,11
1.05E+03,-6563,4095,-1108,-349,-50,18,1,7,11
1.01E+03,-6558,4353,-1105,-340,-38,43,1,7,11
9.74E+02,-6554,4365,-1117,-331,-24,59,1,7,11
9.34E+02,-6552,4385,-1112,-335,-12,63,1,7,11
8.94E+02,-6551,4392,-1106,-349,-7,58,1,7,11
8.55E+02,-6540,4393,-1101,-371,-8,43,1,7,11
8.17E+02,-6529,4376,-1103,-137,-8,22,1,7,11
7.81E+02,-6533,4095,-1100,-150,-3,-265,1,7,11
7.48E+02,-6534,4072,-1103,-152,259,-296,1,7,11
7.18E+02,-6536,4041,-1098,-148,262,-318,1,7,11
6.91E+02,-6550,4012,-1092,-384,270,-326,1,7,11
6.69E+02,-6564,3998,-1093,-348,275,-315,1,7,11
6.53E+02,-6575,3987,-1099,-302,268,-285,1,7,11
6.44E+02,-6571,3991,-1107,8,-2,5,1,7,11
6.41E+02,-6565,4009,-1117,61,-14,33,1,7,11
6.43E+02,-6565,4031,-1137,96,-19,49,1,7,11
6.48E+02,-6557,4046,-1138,122,-22,51,1,7,11
6.54E+02,-6557,4077,-1146,-112,-22,48,1,7,11
6.59E+02,-6559,4364,-904,-115,-19,50,1,7,11
6.64E+02,-6532,4374,-916,122,-12,54,1,7,11
6.69E+02,-6530,4387,-928,93,268,49,1,7,11
6.75E+02,-6552,4387,-936,44,284,42,1,7,11
6.82E+02,-6560,4375,-945,-284,281,11,1,7,11
6.88E+02,-6550,4362,-961,-321,290,-260,1,7,11
6.91E+02,-6537,4089,-978,-357,311,-271,1,7,11
6.87E+02,-6784,4061,-991,-376,345,-276,1,7,11
6.76E+02,-6533,4032,-997,-133,383,-282,1,7,11
6.63E+02,-6544,4011,-996,-130,145,-281,1,7,11
6.51E+02,-6565,3997,-988,-365,136,-275,1,7,11
6.44E+02,-6572,3995,-988,-332,358,-259,1,7,11
6.41E+02,-6566,3998,-990,-298,317,19,1,7,11
6.43E+02,-6552,4011,-1000,-266,291,40,1,7,11
6.49E+02,-6554,4014,-1013,8,278,53,1,7,11
6.59E+02,-6557,4019,-1288,20,270,60,1,7,11
6.69E+02,-6564,4026,-1296,18,256,63,1,7,11
6.81E+02,-6571,4033,-1306,12,-16,70,1,7,11
6.92E+02,-6552,4040,-1303,-260,-44,84,1,7,11
7.02E+02,-6546,4035,-1304,-270,-60,100,1,7,11
7.10E+02,-6547,4040,-1293,-268,-73,107,1,7,11
7.17E+02,-6546,4050,-1294,-267,-91,116,1,7,11
7.18E+02,-6544,4057,-1292,-258,-105,121,1,7,11
7.07E+02,-6535,4069,-1311,5,-111,125,1,7,11
6.75E+02,-6538,4352,-1322,-259,-102,126,1,7,11
6.31E+02,-6547,4362,-1325,-275,-98,119,1,7,11
5.97E+02,-6553,4366,-1313,-291,-108,107,1,7,11
5.90E+02,-6558,4363,-1304,-304,-121,90,1,7,11
6.03E+02,-6554,4095,-1296,-311,121,71,1,7,11
6.22E+02,-6545,4078,-1291,-309,107,45,1,7,11
6.43E+02,-6551,4062,-1281,-302,98,15,1,7,11
6.64E+02,-6556,4048,-1001,-291,83,-266,1,7,11
6.86E+02,-6555,4029,-991,-280,61,-284,1,7,11
7.09E+02,-6546,4014,-977,-275,44,-297,1,7,11
7.30E+02,-6534,4005,-971,-276,36,-297,1,7,11
7.49E+02,-6781,3998,-970,-284,44,-289,1,7,11
7.63E+02,-6529,3989,-967,-291,65,-271,1,7,11
7.66E+02,-6547,3987,-959,-299,91,14,1,7,11
7.59E+02,-6562,3989,-951,-299,109,46,1,7,11
7.49E+02,-6571,3987,-955,-286,114,76,1,7,11
7.41E+02,-6570,4000,-957,-264,113,98,1,7,11
7.34E+02,-6573,4018,-963,12,115,103,1,7,11
7.26E+02,-6571,4043,-968,21,118,91,1,7,11
7.16E+02,-6568,4059,-966,10,118,69,1,7,11
7.02E+02,-6563,4064,-968,-269,119,35,1,7,11
6.87E+02,-6552,4067,-972,-295,118,-265,1,7,11
6.72E+02,-6554,4067,-975,-321,123,-319,1,7,11
6.56E+02,-6550,4058,-972,-342,123,-373,1,7,11
6.30E+02,-6565,4056,-960,-355,-127,-168,1,7,11
5.91E+02,-6568,4039,-951,-365,124,-205,1,7,11
5.54E+02,-6567,4020,-946,-360,120,-243,1,7,11
5.38E+02,-6586,4015,-941,-349,118,-538,1,7,11
5.42E+02,-6630,4024,-938,-339,100,-576,1,7,11
5.62E+02,-6656,4010,-932,-343,55,-599,1,7,11
5.92E+02,-6648,3995,-930,-332,14,-617,1,7,11
6.25E+02,-6634,3986,-922,-316,-261,-385,1,7,11
6.44E+02,-6601,3973,-909,-303,-260,-415,1,7,11
6.27E+02,-6597,4220,-905,-295,25,-460,1,7,11
5.73E+02,-6608,4214,-1146,-299,65,-522,1,7,11
5.35E+02,-6619,4193,-1132,-303,102,-803,1,7,11
5.51E+02,-6631,4171,-1130,-308,-116,-811,1,7,11
5.87E+02,-6644,4158,-1137,-306,-91,-807,1,7,11
5.94E+02,-6918,4124,-901,-319,-55,-792,1,7,11
5.76E+02,-6935,4104,-901,-334,-26,-774,1,7,11
5.70E+02,-6958,3813,-903,-347,-5,-495,1,7,11
5.85E+02,-6984,3776,-899,-354,264,-467,1,7,11
5.90E+02,-6997,3755,-904,-345,260,-429,1,7,11
5.62E+02,-7011,3725,-898,-346,260,-393,1,7,11
5.22E+02,-7032,3946,-1151,-345,-7,-604,1,7,11
4.98E+02,-6796,3919,-1150,-338,-24,-556,1,7,11
4.90E+02,-6806,3904,-1149,-329,-46,-237,1,7,11
4.92E+02,-6810,3888,-1152,-320,-68,-162,1,7,11
4.95E+02,-6810,3879,-900,-312,-81,-338,1,7,11
4.94E+02,-6808,3874,-915,-310,-84,-258,1,7,11
5.06E+02,-6819,3870,-914,-307,-80,69,1,7,11
5.46E+02,-6831,3876,-914,-297,-85,127,1,7,11
6.06E+02,-6836,3887,-914,-286,-98,-84,1,7,11
6.66E+02,-6831,3903,-919,-277,-112,-50,1,7,11
7.16E+02,-6827,3915,-918,-272,-123,-19,1,7,11
7.45E+02,-6816,3918,-923,-265,124,258,1,7,11
7.48E+02,-6806,3922,-918,-258,113,260,1,7,11
7.21E+02,-6793,3935,-913,7,102,-13,1,7,11
6.67E+02,-6790,3942,-903,19,93,-42,1,7,11
6.10E+02,-7038,3941,-902,27,89,-70,1,7,11
5.76E+02,-7032,3939,-1148,30,91,-91,1,7,11
5.74E+02,-7026,3939,-1140,30,98,-103,1,7,11
6.07E+02,-7018,3935,-1142,26,110,-103,1,7,11
6.64E+02,-7008,3934,-1142,19,-127,-96,1,7,11
7.12E+02,-7002,3938,-1139,9,-102,-77,1,7,11
7.20E+02,-7003,3941,-1131,-264,-74,-50,1,7,11
6.87E+02,-6996,3955,-1131,-283,-47,-21,1,7,11
6.56E+02,-6991,3958,-1138,-305,-18,264,1,7,11
6.61E+02,-6990,3717,-1147,-321,260,290,1,7,11
6.99E+02,-6987,3717,-1150,-341,278,308,1,7,11
7.46E+02,-6988,3731,-898,-348,289,324,1,7,11
7.83E+02,-6988,3742,-913,-355,289,337,1,7,11
8.04E+02,-6982,3756,-917,-357,278,343,1,7,11
8.12E+02,-6974,3770,-923,-345,263,335,1,7,11
8.09E+02,-6985,3796,-923,-338,-9,323,1,7,11
7.97E+02,-7003,3816,-921,-339,-45,315,1,7,11
7.80E+02,-6998,3826,-912,-336,-90,312,1,7,11
7.58E+02,-6976,4101,-927,-325,-115,308,1,7,11
7.35E+02,-6958,4121,-934,-308,-119,301,1,7,11
7.12E+02,-6944,4140,-942,-295,-108,293,1,7,11
6.93E+02,-6934,4150,-949,-287,-98,280,1,7,11
6.79E+02,-6930,4160,-931,-282,-89,265,1,7,11
6.71E+02,-6929,4173,-930,-282,-84,-10,1,7,11
6.68E+02,-6917,4180,-927,-283,-91,-39,1,7,11
6.71E+02,-6653,4181,-932,-287,-93,-58,1,7,11
6.80E+02,-6650,4178,-928,-291,-89,-74,1,7,11
6.94E+02,-6644,4170,-924,-296,-87,-90,1,7,11
7.13E+02,-6646,4162,-915,-296,-83,-106,1,7,11
7.37E+02,-6642,4159,-913,-292,-79,-114,1,7,11
7.66E+02,-6634,4152,-920,-288,-70,-120,1,7,11
7.95E+02,-6637,4151,-915,-288,-57,-125,1,7,11
8.22E+02,-6635,4149,-915,-295,-54,-127,1,7,11
8.45E+02,-6644,4151,-911,-299,-52,-126,1,7,11
8.65E+02,-6648,4149,-910,-306,-52,-123,1,7,11
8.82E+02,-6649,4146,-918,-303,-55,-121,1,7,11
8.96E+02,-6641,4151,-925,-298,-55,-121,1,7,11
9.10E+02,-6639,4161,-927,-292,-48,-116,1,7,11
9.23E+02,-6645,4172,-930,-290,-36,-109,1,7,11
9.37E+02,-6916,4176,-928,-286,-26,-106,1,7,11
9.53E+02,-6920,4182,-940,-275,-26,-108,1,7,11
9.74E+02,-6919,4190,-935,-269,-27,-119,1,7,11
9.99E+02,-6914,4194,-946,-263,-26,118,1,7,11
1.02E+03,-6654,4194,-955,-262,-22,94,1,7,11
1.04E+03,-6656,4200,-951,-267,-18,70,1,7,11
1.05E+03,-6920,4192,-944,-277,-19,51,1,7,11
1.05E+03,-6921,4178,-937,-287,-29,34,1,7,11
1.06E+03,-6920,4166,-937,-292,-40,26,1,7,11
1.06E+03,-6654,4155,-941,-294,-47,19,1,7,11
1.07E+03,-6647,4145,-948,-292,-43,20,1,7,11
1.07E+03,-6644,4145,-946,-288,-40,28,1,7,11
1.08E+03,-6638,4134,-938,-282,-36,39,1,7,11
1.08E+03,-6639,4134,-942,-270,-32,48,1,7,11
1.08E+03,-6638,4145,-940,-266,-27,59,1,7,11
1.08E+03,-6647,4144,-952,-264,-24,64,1,7,11
1.08E+03,-6644,4138,-954,-266,-24,61,1,7,11
1.08E+03,-6642,4137,-956,-271,-24,56,1,7,11
1.08E+03,-6642,4140,-966,-278,-21,55,1,7,11
1.07E+03,-6646,4140,-969,-283,-19,56,1,7,11
1.06E+03,-6656,4146,-973,-279,-13,60,1,7,11
1.05E+03,-6656,4144,-979,-279,-16,72,1,7,11
1.05E+03,-6648,4150,-990,-276,-24,74,1,7,11
1.04E+03,-6915,4164,-998,-274,-24,61,1,7,11
1.04E+03,-6931,4167,-992,-289,-44,44,1,7,11
1.03E+03,-6937,4169,-996,-310,-80,31,1,7,11
1.03E+03,-6932,4169,-996,-321,-120,28,1,7,11
1.03E+03,-6918,4152,-997,-325,125,28,1,7,11
1.02E+03,-6650,4142,-990,-314,-124,24,1,7,11
1.02E+03,-6650,4133,-983,-283,-110,15,1,7,11
1.01E+03,-6651,4134,-975,-262,-101,6,1,7,11
1.01E+03,-6654,4138,-967,15,-100,1,1,7,11
1.00E+03,-6646,4140,-966,27,-108,-258,1,7,11
9.98E+02,-6638,4141,-970,28,-110,-260,1,7,11
9.91E+02,-6626,4140,-977,22,-99,-267,1,7,11
9.83E+02,-6635,4143,-983,13,-80,-282,1,7,11
9.75E+02,-6644,4136,-981,4,-67,-301,1,7,11
9.67E+02,-6916,4128,-982,-263,-56,-312,1,7,11
9.59E+02,-6923,4120,-975,-271,-52,-315,1,7,11
9.51E+02,-6920,4103,-984,-277,-51,-312,1,7,11
9.43E+02,-6925,4098,-986,-283,-47,-310,1,7,11
9.35E+02,-6930,3831,-985,-287,-55,-308,1,7,11
9.27E+02,-6937,3824,-976,-287,-64,-307,1,7,11
9.18E+02,-6944,3820,-978,-286,-75,-302,1,7,11
