timestamp,ax,ay,az,gx,gy,gz,Label1,Label2,Label3
8.71E+02,-7906,743,-468,-160,-23,-81,1,7,11
8.43E+02,-8211,738,-473,-166,257,-84,1,7,11
8.14E+02,-8254,727,-466,-153,-19,-95,1,7,11
7.84E+02,-8278,690,-429,-344,-121,125,1,7,11
7.57E+02,-8272,675,-433,-273,39,95,1,7,11
7.35E+02,-8241,651,-420,65,-305,54,1,7,11
7.20E+02,-7932,887,-413,-108,-377,0,1,7,11
7.14E+02,-7882,862,-398,-37,-159,-325,1,7,11
7.19E+02,-7899,844,-630,277,-172,-156,1,7,11
7.34E+02,-8194,833,-600,330,-204,-219,1,7,11
7.58E+02,-8233,852,-522,144,-558,-216,1,7,11
7.83E+02,-8199,848,-246,149,-602,-155,1,7,11
7.97E+02,-7904,860,-225,134,-599,-352,1,7,11
7.93E+02,-7882,868,-199,341,-569,-299,1,7,11
7.79E+02,-7872,872,-171,276,-534,2,1,7,11
7.66E+02,-7853,889,-133,-50,-244,43,1,7,11
7.66E+02,-7824,650,-380,-119,-211,82,1,7,11
7.81E+02,-8042,667,-158,74,-151,115,1,7,11
8.05E+02,-8015,691,-207,7,-295,-125,1,7,11
8.34E+02,-8022,705,-256,-333,113,-123,1,7,11
8.63E+02,-7819,694,-541,-163,273,126,1,7,11
8.85E+02,-7884,668,-551,-224,139,116,1,7,11
8.93E+02,-8220,887,-555,-249,212,92,1,7,11
8.83E+02,-8253,851,-554,-237,242,27,1,7,11
8.60E+02,-8272,821,-568,-157,197,-291,1,7,11
8.34E+02,-8291,818,-582,-333,129,-359,1,7,11
8.12E+02,-8303,839,-578,-264,303,-159,1,7,11
7.97E+02,-8316,859,-562,35,-53,-189,1,7,11
7.84E+02,-8301,853,-538,53,83,-191,1,7,11
7.70E+02,-8252,833,-254,53,-285,-193,1,7,11
7.55E+02,-8198,792,-227,38,-365,-210,1,7,11
7.36E+02,-7872,500,-214,22,-152,-231,1,7,11
7.14E+02,-7826,481,-215,-260,-134,-518,1,7,11
6.92E+02,-8053,470,-232,-292,-329,-531,1,7,11
6.77E+02,-8030,461,-256,-334,26,-520,1,7,11
6.74E+02,-8032,449,-530,-371,-108,-232,1,7,11
6.78E+02,-8225,435,-550,-131,155,-303,1,7,11
6.78E+02,-8278,428,-542,-346,151,33,1,7,11
6.71E+02,-8298,424,-537,-284,368,102,1,7,11
6.60E+02,-8313,427,-534,53,313,-105,1,7,11
6.52E+02,-8316,450,-529,-121,-6,-71,1,7,11
6.50E+02,-8306,489,-522,-56,-73,-53,1,7,11
6.58E+02,-8272,777,-256,-21,122,-54,1,7,11
6.74E+02,-8234,790,-252,-17,74,-87,1,7,11
6.90E+02,-8217,796,-236,-43,40,109,1,7,11
6.93E+02,-7936,790,-214,-86,5,35,1,7,11
6.77E+02,-7924,770,-201,113,-265,-298,1,7,11
6.56E+02,-7908,480,-213,46,-258,-364,1,7,11
6.48E+02,-7893,452,-236,-276,39,-168,1,7,11
6.52E+02,-7901,434,-526,-333,115,-202,1,7,11
6.55E+02,-7920,406,-539,-142,-62,-199,1,7,11
6.48E+02,-7934,616,-540,-189,263,-167,1,7,11
6.37E+02,-8213,567,-540,-192,309,-377,1,7,11
6.31E+02,-8219,572,-546,-158,320,-324,1,7,11
6.34E+02,-8235,600,-545,-351,312,-241,1,7,11
6.37E+02,-8266,395,-534,-288,264,88,1,7,11
6.35E+02,-8280,449,-514,48,-70,-83,1,7,11
6.25E+02,-8275,508,-235,90,77,260,1,7,11
6.07E+02,-8252,809,-220,114,-286,335,1,7,11
5.87E+02,-8212,847,-213,120,-369,383,1,7,11
5.78E+02,-7918,852,-205,106,-150,135,1,7,11
5.86E+02,-7891,855,-197,89,-135,356,1,7,11
5.98E+02,-7884,840,-180,72,-338,290,1,7,11
6.01E+02,-7895,814,-158,65,-262,-47,1,7,11
5.95E+02,-7917,791,-139,70,67,125,1,7,11
5.95E+02,-7928,777,-129,84,127,52,1,7,11
6.03E+02,-7927,500,-132,94,-84,-264,1,7,11
6.06E+02,-7905,484,-158,98,-43,-315,1,7,11
5.94E+02,-7889,478,-184,81,-4,-359,1,7,11
5.79E+02,-7879,485,-213,46,293,-132,1,7,11
5.80E+02,-7904,484,-223,-274,319,-147,1,7,11
5.95E+02,-7925,479,-247,-345,309,-135,1,7,11
6.07E+02,-7932,470,-515,-150,296,-360,1,7,11
6.07E+02,-7932,444,-528,-197,290,-319,1,7,11
6.04E+02,-7927,412,-541,-216,298,-289,1,7,11
6.06E+02,-7916,389,-550,-208,314,-277,1,7,11
6.12E+02,-7911,615,-564,-193,338,-288,1,7,11
6.15E+02,-7921,596,-581,-152,367,-312,1,7,11
6.16E+02,-8199,604,-596,-354,130,-333,1,7,11
6.19E+02,-8204,617,-616,-313,135,-334,1,7,11
6.30E+02,-8217,613,-634,-276,145,-317,1,7,11
6.48E+02,-8231,618,-637,17,156,-288,1,7,11
6.71E+02,-8261,619,-632,60,156,-260,1,7,11
6.94E+02,-8292,609,-607,106,132,24,1,7,11
7.09E+02,-8303,603,-595,-104,337,47,1,7,11
7.10E+02,-8298,604,-577,-55,279,52,1,7,11
6.95E+02,-8252,614,-562,-20,-44,37,1,7,11
6.79E+02,-8218,620,-561,-11,-87,-264,1,7,11
6.72E+02,-7908,636,-580,-36,-120,-311,1,7,11
6.78E+02,-7878,390,-604,-94,-116,-374,1,7,11
6.93E+02,-7856,414,-627,77,-93,-162,1,7,11
7.13E+02,-7839,416,-410,-291,-61,-185,1,7,11
7.31E+02,-7821,409,-426,-157,-22,-190,1,7,11
7.42E+02,-7850,636,-439,-544,281,-187,1,7,11
7.41E+02,-7903,593,-436,-397,306,-170,1,7,11
7.31E+02,-8233,531,-425,-473,299,-144,1,7,11
7.20E+02,-8078,237,-401,-510,261,-347,1,7,11
7.12E+02,-8100,210,-633,-480,-98,32,1,7,11
7.08E+02,-8099,194,-608,-408,89,125,1,7,11
7.07E+02,-8088,184,-569,-559,23,-30,1,7,11
7.08E+02,-8068,191,-519,-168,-290,321,1,7,11
7.11E+02,-8303,215,-220,2,-338,152,1,7,11
7.17E+02,-8272,518,-178,-65,-374,228,1,7,11
7.23E+02,-8241,578,-165,373,-133,538,1,7,11
7.29E+02,-8201,395,-163,527,-375,563,1,7,11
7.31E+02,-7899,457,-154,637,-339,557,1,7,11
7.30E+02,-7878,493,-145,449,-293,512,1,7,11
7.31E+02,-7873,775,-147,496,7,185,1,7,11
7.37E+02,-7884,803,-158,771,40,360,1,7,11
7.52E+02,-7904,802,-169,507,73,283,1,7,11
7.73E+02,-7926,806,-172,494,104,-17,1,7,11
7.97E+02,-8220,796,-163,471,-128,-23,1,7,11
8.21E+02,-8239,780,-158,478,-116,265,1,7,11
8.41E+02,-8264,774,-152,506,-108,312,1,7,11
8.53E+02,-8280,505,-147,786,-117,368,1,7,11
8.58E+02,-8290,500,-165,812,118,150,1,7,11
8.57E+02,-8284,494,-165,824,93,160,1,7,11
8.53E+02,-8292,470,-143,821,75,153,1,7,11
8.49E+02,-8302,443,-359,831,43,143,1,7,11
8.49E+02,-8278,413,-310,851,-269,382,1,7,11
8.59E+02,-8239,638,-261,875,-319,344,1,7,11
8.79E+02,-8215,601,58,893,-353,291,1,7,11
8.97E+02,-8202,553,125,656,-135,-27,1,7,11
8.99E+02,-7915,513,-88,680,-181,-91,1,7,11
8.74E+02,-7851,237,-93,709,-198,98,1,7,11
8.26E+02,-8022,240,113,716,-160,41,1,7,11
7.75E+02,-7938,522,38,685,-300,-259,1,7,11
7.42E+02,-7598,549,-329,858,-118,-278,1,7,11
7.28E+02,-7568,574,-188,482,133,-281,1,7,11
7.25E+02,-7585,615,-572,606,408,1,1,7,11
7.22E+02,-7615,405,-434,222,668,56,1,7,11
7.18E+02,-7942,451,-794,354,910,-118,1,7,11
7.20E+02,-8046,510,-873,261,1361,266,1,7,11
7.32E+02,-7909,840,-686,-35,1221,174,1,7,11
7.55E+02,-8282,696,-714,-27,1242,623,1,7,11
7.85E+02,-8092,765,-758,278,1161,811,1,7,11
8.21E+02,-8115,1076,-1060,340,1001,676,1,7,11
8.58E+02,-8107,1126,-1100,145,1050,684,1,7,11
8.96E+02,-8086,929,-1139,199,462,482,1,7,11
9.30E+02,-8318,1003,-903,233,531,525,1,7,11
9.58E+02,-8290,1308,-903,181,376,310,1,7,11
9.82E+02,-8256,1320,-1109,329,264,115,1,7,11
1.00E+03,-8206,1011,-1063,-77,-71,-317,1,7,11
1.01E+03,-7902,945,-759,13,121,-283,1,7,11
1.02E+03,-7858,1124,-714,-211,57,-408,1,7,11
1.03E+03,-7819,1037,-687,-607,34,-505,1,7,11
1.04E+03,-8031,682,-680,-485,20,-832,1,7,11
1.04E+03,-8006,839,-687,-859,40,-891,1,7,11
1.04E+03,-8010,496,-683,-704,75,-671,1,7,11
1.04E+03,-8030,405,-678,-792,112,-684,1,7,11
1.03E+03,-7809,575,-660,-1110,-108,-664,1,7,11
1.01E+03,-7855,242,-895,-1134,-88,-875,1,7,11
9.72E+02,-7905,185,-883,-1113,-72,-819,1,7,11
9.21E+02,-8202,157,-864,-1050,-61,-494,1,7,11
8.75E+02,-8248,151,-849,-707,-59,-409,1,7,11
8.50E+02,-8238,153,-847,-866,-79,-568,1,7,11
8.55E+02,-8220,156,-837,-502,-88,-234,1,7,11
8.83E+02,-7918,167,-852,-395,-94,-173,1,7,11
9.22E+02,-7876,179,-854,-553,-85,-144,1,7,11
9.62E+02,-7866,200,-854,-212,-73,-136,1,7,11
9.96E+02,-7871,220,-843,-156,-76,-133,1,7,11
1.02E+03,-7892,232,-820,-378,-97,-129,1,7,11
1.03E+03,-7876,249,-821,-354,114,-378,1,7,11
1.03E+03,-7842,522,-839,-364,87,-137,1,7,11
1.01E+03,-7845,533,-859,-149,93,-163,1,7,11
9.86E+02,-7855,546,-877,-217,108,-197,1,7,11
9.65E+02,-7900,565,-879,-541,-114,-223,1,7,11
9.55E+02,-8221,601,-881,-394,-92,-188,1,7,11
9.59E+02,-8201,599,-649,-475,-103,-383,1,7,11
9.71E+02,-8193,565,-665,-803,-85,-339,1,7,11
9.89E+02,-8226,522,-646,-852,-57,-309,1,7,11
1.01E+03,-8261,234,-870,-864,-62,-287,1,7,11
1.02E+03,-8299,224,-823,-841,-93,-265,1,7,11
1.03E+03,-8301,203,-777,-795,86,23,1,7,11
1.04E+03,-8250,166,-495,-484,-264,21,1,7,11
1.04E+03,-7920,141,-497,-406,-339,-276,1,7,11
1.04E+03,-7848,382,-504,-585,-360,-358,1,7,11
1.04E+03,-8058,144,-510,-517,-330,-183,1,7,11
1.04E+03,-7839,192,-468,-175,86,-207,1,7,11
1.04E+03,-7860,182,-463,-151,101,-150,1,7,11
1.04E+03,-7888,171,-463,-130,105,-340,1,7,11
1.03E+03,-7918,156,-447,-381,101,-284,1,7,11
1.02E+03,-8206,141,-439,-379,84,16,1,7,11
1.02E+03,-8235,148,-439,-134,57,40,1,7,11
1.03E+03,-8259,172,-438,-180,24,54,1,7,11
1.04E+03,-8262,204,-449,-516,-257,67,1,7,11
1.05E+03,-8260,234,-458,-634,-259,74,1,7,11
1.06E+03,-8250,255,-464,-769,14,92,1,7,11
1.06E+03,-8239,520,-450,-652,48,118,1,7,11
1.06E+03,-8221,511,-422,-1031,90,-86,1,7,11
1.06E+03,-7935,248,-426,-1110,-118,-28,1,7,11
1.04E+03,-7896,252,-432,-1128,-62,269,1,7,11
1.01E+03,-7872,537,-446,-1125,-1,278,1,7,11
9.65E+02,-7857,568,-437,-1085,310,281,1,7,11
9.26E+02,-7844,603,-421,-736,355,276,1,7,11
8.97E+02,-7848,621,-416,-664,360,274,1,7,11
8.91E+02,-7826,627,-402,-830,337,256,1,7,11
9.08E+02,-8052,623,-416,-476,314,-43,1,7,11
9.39E+02,-8020,605,-435,-386,304,-115,1,7,11
9.79E+02,-8032,588,-456,-556,330,45,1,7,11
1.02E+03,-7833,575,-460,-223,345,-304,1,7,11
1.06E+03,-7896,571,-466,-146,328,-363,1,7,11
1.09E+03,-7933,589,-494,-329,315,-377,1,7,11
1.11E+03,-8248,621,-769,-281,309,-342,1,7,11
1.11E+03,-8276,639,-784,-272,284,-273,1,7,11
1.09E+03,-8308,629,-793,-292,259,41,1,7,11
1.07E+03,-8082,618,-789,-324,-42,79,1,7,11
1.05E+03,-8084,605,-779,-364,-111,90,1,7,11
1.03E+03,-8070,585,-770,-160,64,77,1,7,11
1.02E+03,-8294,571,-496,-215,-263,41,1,7,11
1.02E+03,-8273,541,-463,-535,-317,-259,1,7,11
1.02E+03,-8237,250,-444,-584,-367,-302,1,7,11
1.04E+03,-8201,218,-431,-604,-131,-342,1,7,11
1.05E+03,-7915,205,-416,-592,-374,-358,1,7,11
1.05E+03,-7917,202,-416,-563,-331,-348,1,7,11
1.06E+03,-8197,213,-403,-521,-285,-293,1,7,11
1.05E+03,-8232,241,-637,-206,-257,53,1,7,11
1.03E+03,-8267,530,-592,-137,1,-101,1,7,11
1.01E+03,-8294,557,-538,-312,-294,259,1,7,11
9.80E+02,-8270,573,-245,33,-371,351,1,7,11
9.59E+02,-8215,582,-229,126,-174,144,1,7,11
9.49E+02,-7898,604,-232,-51,-188,139,1,7,11
9.50E+02,-7844,628,-232,265,-162,340,1,7,11
9.59E+02,-7826,414,-238,295,-357,-1,1,7,11
9.71E+02,-7824,446,-232,288,-287,-80,1,7,11
9.83E+02,-7828,460,-221,263,30,114,1,7,11
9.93E+02,-7829,472,-227,-28,79,71,1,7,11
9.99E+02,-7830,485,-256,-74,-121,45,1,7,11
9.96E+02,-7857,771,-580,117,-50,32,1,7,11
9.88E+02,-7878,772,-600,16,287,37,1,7,11
9.79E+02,-7918,504,-637,-352,342,46,1,7,11
9.75E+02,-8204,464,-407,-194,366,54,1,7,11
9.83E+02,-8214,408,-419,-532,367,44,1,7,11
1.00E+03,-8226,636,-424,-581,351,10,1,7,11
1.03E+03,-8248,623,-431,-599,328,-266,1,7,11
1.05E+03,-8280,620,-407,-581,269,-263,1,7,11
1.07E+03,-8313,599,-629,-549,-50,9,1,7,11
1.09E+03,-8302,565,-619,-240,124,34,1,7,11
1.09E+03,-8260,528,-612,-170,47,29,1,7,11
1.09E+03,-8214,252,-607,-355,7,-272,1,7,11
1.07E+03,-7920,245,-605,-296,-268,-334,1,7,11
1.05E+03,-7893,241,-586,-259,-264,-141,1,7,11
1.02E+03,-7900,516,-572,26,15,-172,1,7,11
9.95E+02,-7905,536,-567,47,29,-155,1,7,11
9.81E+02,-7900,558,-578,58,49,-357,1,7,11
9.76E+02,-7889,570,-594,56,91,-282,1,7,11
9.81E+02,-7916,581,-606,52,-91,56,1,7,11
9.95E+02,-8214,587,-600,42,-31,-115,1,7,11
1.02E+03,-8255,557,-562,35,-1,-46,1,7,11
1.04E+03,-8271,551,-543,43,-7,262,1,7,11
1.07E+03,-8264,552,-534,54,-39,260,1,7,11
1.09E+03,-8242,570,-532,61,-91,-32,1,7,11
1.09E+03,-8215,606,-532,57,-106,-69,1,7,11
1.09E+03,-7927,624,-539,3,-106,-84,1,7,11
1.08E+03,-7880,635,-552,-313,-79,-80,1,7,11
1.06E+03,-7851,632,-578,-375,-20,-63,1,7,11
1.03E+03,-7862,625,-595,-189,311,-43,1,7,11
1.00E+03,-7898,609,-598,-249,361,256,1,7,11
9.69E+02,-7928,583,-592,-530,139,324,1,7,11
9.45E+02,-8217,564,-593,-517,172,159,1,7,11
9.32E+02,-8234,558,-601,-214,189,518,1,7,11
9.30E+02,-8229,570,-616,-147,199,613,1,7,11
9.42E+02,-8229,600,-613,-335,193,437,1,7,11
9.67E+02,-8223,627,-612,-273,161,481,1,7,11
1.00E+03,-8224,405,-613,44,364,484,1,7,11
1.04E+03,-8232,462,-629,102,285,458,1,7,11
1.07E+03,-8234,782,-630,-105,-56,411,1,7,11
1.08E+03,-8227,846,-631,-79,117,622,1,7,11
1.07E+03,-8218,886,-618,-75,38,588,1,7,11
1.03E+03,-8197,644,-605,-62,-279,558,1,7,11
9.95E+02,-7918,646,-604,-43,-315,519,1,7,11
9.71E+02,-7904,650,-597,-19,-329,213,1,7,11
9.74E+02,-7912,655,-581,265,-321,154,1,7,11
9.96E+02,-7918,671,-567,294,-309,352,1,7,11
1.03E+03,-7931,676,-541,313,-295,298,1,7,11
1.06E+03,-8196,684,-525,323,-288,-3,1,7,11
1.08E+03,-7926,693,-239,317,-271,-71,1,7,11
1.09E+03,-7895,695,-234,304,9,-109,1,7,11
1.08E+03,-7866,687,-249,282,59,100,1,7,11
1.06E+03,-7848,693,-534,-9,-126,61,1,7,11
1.04E+03,-7827,690,-570,-67,-42,23,1,7,11
1.01E+03,-8063,677,-592,122,308,-267,1,7,11
9.83E+02,-8063,661,-610,51,148,-294,1,7,11
9.55E+02,-7821,644,-621,-265,229,-310,1,7,11
9.32E+02,-7835,873,-629,-315,544,-315,1,7,11
9.16E+02,-7852,850,-386,-343,579,-316,1,7,11
9.07E+02,-7867,847,-395,-351,597,-308,1,7,11
9.07E+02,-7887,845,-409,-355,595,-294,1,7,11
9.15E+02,-7899,848,-428,-356,580,-272,1,7,11
9.30E+02,-7906,847,-463,-363,563,-259,1,7,11
9.53E+02,-7905,853,-508,-375,548,0,1,7,11
9.82E+02,-7904,850,-804,-154,542,-271,1,7,11
1.01E+03,-7903,841,-845,-195,546,-297,1,7,11
1.04E+03,-7911,822,-870,-244,552,-328,1,7,11
1.05E+03,-7924,799,-887,-541,555,-353,1,7,11
1.03E+03,-8199,778,-642,-560,544,-360,1,7,11
9.86E+02,-8226,511,-884,-554,517,-336,1,7,11
9.24E+02,-8238,494,-874,-525,209,-281,1,7,11
8.73E+02,-8223,476,-869,-216,144,36,1,7,11
8.55E+02,-8202,463,-867,-146,336,79,1,7,11
8.73E+02,-7913,468,-881,-327,279,100,1,7,11
9.12E+02,-7885,473,-882,-257,-23,95,1,7,11
9.57E+02,-7862,499,-884,54,-55,83,1,7,11
9.95E+02,-7850,788,-884,89,-79,80,1,7,11
1.02E+03,-7851,826,-884,98,-102,95,1,7,11
1.02E+03,-7853,832,-890,79,-117,115,1,7,11
1.01E+03,-7855,826,-892,57,-121,122,1,7,11
9.78E+02,-7869,823,-885,39,-120,122,1,7,11
9.33E+02,-7881,808,-874,25,-124,127,1,7,11
8.95E+02,-7903,803,-855,37,-128,-125,1,7,11
8.78E+02,-7922,818,-844,64,104,-122,1,7,11
8.93E+02,-7900,834,-854,76,82,108,1,7,11
9.29E+02,-7892,869,-873,72,70,43,1,7,11
9.75E+02,-7906,645,-877,28,48,-299,1,7,11
1.02E+03,-7921,647,-873,-299,5,-382,1,7,11
1.05E+03,-7923,886,-858,-366,-292,-183,1,7,11
1.07E+03,-7912,854,-831,-167,-320,-219,1,7,11
1.08E+03,-7888,812,-807,-189,-336,-229,1,7,11
1.07E+03,-7877,782,-799,-197,-320,-226,1,7,11
1.07E+03,-7876,479,-782,-201,-289,-184,1,7,11
1.05E+03,-7885,454,-507,-191,-244,-142,1,7,11
1.04E+03,-7891,421,-492,-151,29,-346,1,7,11
1.02E+03,-7893,410,-473,-361,39,-279,1,7,11
9.98E+02,-7891,401,-462,-306,49,41,1,7,11
9.81E+02,-7888,422,-463,3,59,94,1,7,11
9.66E+02,-7895,441,-463,32,74,-125,1,7,11
9.57E+02,-7906,467,-473,46,79,-97,1,7,11
9.55E+02,-7914,494,-479,39,74,-76,1,7,11
9.59E+02,-7923,774,-486,15,62,-66,1,7,11
9.66E+02,-7913,796,-486,-277,38,-79,1,7,11
9.74E+02,-7915,830,-484,-314,18,122,1,7,11
9.82E+02,-7931,864,-478,-365,-269,34,1,7,11
9.84E+02,-8204,875,-473,-197,-315,-338,1,7,11
9.78E+02,-8202,661,-480,-538,-371,-226,1,7,11
9.59E+02,-8201,691,-480,-402,-171,-405,1,7,11
9.28E+02,-8201,690,-481,-792,-219,-812,1,7,11
8.98E+02,-7926,675,-476,-684,-518,-689,1,7,11
8.82E+02,-7916,877,-453,-1088,-536,-1059,1,7,11
8.92E+02,-7918,816,-418,-938,-535,-902,1,7,11
9.27E+02,-7917,494,-640,-1006,-528,-969,1,7,11
9.74E+02,-7921,420,-609,-1301,-252,-986,1,7,11
1.02E+03,-7916,576,-550,-1313,-223,-954,1,7,11
1.05E+03,-7925,219,-523,-1019,-186,-1147,1,7,11
1.07E+03,-7915,361,-256,-939,-154,-1019,1,7,11
1.07E+03,-7918,312,-248,-1081,-368,-714,1,7,11
1.06E+03,-8220,275,-235,-701,-316,-869,1,7,11
1.05E+03,-8274,262,-215,-817,-266,-437,1,7,11
1.04E+03,-8315,-7,-180,-409,6,-540,1,7,11
1.02E+03,-8313,-27,-146,-513,-263,-195,1,7,11
1.01E+03,-8281,-55,-379,-360,-298,-198,1,7,11
1.01E+03,-8259,-59,-362,125,-336,-84,1,7,11
1.00E+03,-8227,-31,-363,266,-362,-22,1,7,11
1.00E+03,-8207,277,-371,362,-377,-6,1,7,11
1.01E+03,-7920,346,-132,159,-384,-14,1,7,11
1.02E+03,-7904,178,-155,168,-369,-60,1,7,11
1.03E+03,-7900,252,-193,129,-336,-116,1,7,11
1.04E+03,-7895,562,-228,296,-289,88,1,7,11
1.06E+03,-7905,582,-256,-79,35,29,1,7,11
1.07E+03,-7922,531,-539,54,105,-280,1,7,11
1.08E+03,-8220,254,-533,-302,-93,-336,1,7,11
1.09E+03,-8280,216,-255,-362,-54,-131,1,7,11
1.09E+03,-8078,174,-215,-134,-62,-160,1,7,11
1.08E+03,-8104,147,-164,-380,-113,-163,1,7,11
1.05E+03,-8113,378,-360,-358,64,-152,1,7,11
1.03E+03,-8094,340,-321,-323,-289,-135,1,7,11
1.01E+03,-8301,326,-303,-273,-371,-129,1,7,11
9.97E+02,-8244,323,-287,25,-154,-379,1,7,11
1.00E+03,-8193,332,-288,43,-153,-365,1,7,11
1.01E+03,-7874,344,-301,45,-371,-343,1,7,11
1.03E+03,-7837,348,-320,25,-290,-327,1,7,11
1.04E+03,-7837,358,-340,-271,82,-317,1,7,11
1.05E+03,-7912,350,-358,-317,-64,-301,1,7,11
1.04E+03,-8195,344,-354,-353,273,-269,1,7,11
1.03E+03,-8258,321,-347,-370,324,30,1,7,11
1.02E+03,-8305,317,-339,-367,341,88,1,7,11
1.00E+03,-8066,317,-340,-348,328,-111,1,7,11
9.81E+02,-8077,329,-349,-311,301,-61,1,7,11
9.69E+02,-8318,348,-370,-274,266,-32,1,7,11
9.71E+02,-8289,364,-131,10,-19,-21,1,7,11
9.90E+02,-8267,143,-144,27,-40,-37,1,7,11
1.02E+03,-8286,176,-136,19,-49,-57,1,7,11
1.05E+03,-8317,183,-367,5,-65,-64,1,7,11
1.09E+03,-8307,176,-342,-273,97,-59,1,7,11
1.12E+03,-8287,177,-331,-268,72,-59,1,7,11
1.14E+03,-8271,171,-312,-260,37,-61,1,7,11
1.15E+03,-8242,169,-299,9,19,-81,1,7,11
1.13E+03,-8226,179,-289,33,27,-104,1,7,11
1.10E+03,-8220,188,-275,50,45,-123,1,7,11
1.04E+03,-8210,202,-285,66,65,117,1,7,11
9.84E+02,-7936,218,-299,59,89,107,1,7,11
9.38E+02,-7924,224,-328,29,-127,94,1,7,11
9.20E+02,-8193,221,-338,-272,-71,83,1,7,11
9.28E+02,-8219,206,-342,-319,-24,76,1,7,11
9.52E+02,-8255,185,-342,-351,261,76,1,7,11
9.84E+02,-8280,155,-345,-367,263,87,1,7,11
1.01E+03,-8284,381,-339,-364,259,97,1,7,11
1.04E+03,-8288,369,-333,-338,-4,104,1,7,11
1.06E+03,-8262,360,-343,-312,-18,104,1,7,11
1.07E+03,-8264,363,-332,-291,-22,95,1,7,11
1.08E+03,-8262,366,-314,-276,-49,92,1,7,11
1.08E+03,-8261,131,-300,0,-78,96,1,7,11
1.08E+03,-8243,162,-308,10,-103,117,1,7,11
1.08E+03,-8225,188,-330,-258,-103,-108,1,7,11
1.07E+03,-8211,211,-356,-292,-82,-77,1,7,11
1.06E+03,-8208,212,-134,-353,-41,-59,1,7,11
1.05E+03,-8215,189,-137,-166,258,-57,1,7,11
1.05E+03,-8226,148,-143,-210,287,-77,1,7,11
1.05E+03,-8246,379,-143,-226,299,-103,1,7,11
1.06E+03,-8264,372,-144,-212,300,-122,1,7,11
1.08E+03,-8280,380,-148,-191,294,-122,1,7,11
1.11E+03,-8297,135,-159,-166,279,-102,1,7,11
1.13E+03,-8308,143,-144,-139,-4,-64,1,7,11
1.14E+03,-8308,141,-377,-364,-42,-24,1,7,11
1.15E+03,-8300,133,-346,-323,-89,268,1,7,11
1.14E+03,-8280,128,-327,-266,119,283,1,7,11
1.12E+03,-8251,129,-310,53,91,280,1,7,11
1.09E+03,-8227,141,-306,99,87,257,1,7,11
1.05E+03,-8213,144,-312,127,102,-28,1,7,11
1.00E+03,-8200,154,-317,-115,127,-65,1,7,11
9.70E+02,-8193,156,-324,-116,-98,-100,1,7,11
9.60E+02,-8196,148,-327,124,-63,120,1,7,11
9.77E+02,-8206,149,-340,107,-28,91,1,7,11
1.01E+03,-8224,150,-351,86,-1,80,1,7,11
1.06E+03,-8229,137,-366,51,279,94,1,7,11
1.10E+03,-8220,129,-133,19,300,119,1,7,11
1.12E+03,-8218,136,-149,-263,335,-108,1,7,11
1.13E+03,-8224,159,-172,-281,363,-68,1,7,11
1.12E+03,-8248,207,-185,-293,128,-7,1,7,11
1.11E+03,-8277,244,-171,-310,377,340,1,7,11
1.09E+03,-8291,534,-149,-310,346,195,1,7,11
1.07E+03,-8285,562,-371,-288,299,570,1,7,11
1.05E+03,-8280,599,-354,23,257,423,1,7,11
1.03E+03,-8273,634,-347,87,-30,781,1,7,11
1.02E+03,-8234,415,-360,-105,-37,864,1,7,11
1.00E+03,-8209,437,-378,-56,-9,661,1,7,11
9.83E+02,-7928,433,-140,-19,295,686,1,7,11
9.61E+02,-7909,411,-154,274,347,660,1,7,11
9.34E+02,-7908,394,-172,322,137,836,1,7,11
9.07E+02,-7910,639,-193,373,168,456,1,7,11
8.82E+02,-7930,403,-201,163,175,565,1,7,11
8.62E+02,-8203,445,-221,199,154,168,1,7,11
8.49E+02,-8223,508,-245,216,375,309,1,7,11
8.45E+02,-8254,818,-242,192,310,-16,1,7,11
8.50E+02,-8239,843,-254,383,-46,-47,1,7,11
8.63E+02,-8194,851,-524,314,-116,-64,1,7,11
8.83E+02,-7904,844,-546,-20,115,-80,1,7,11
9.07E+02,-7893,821,-559,-80,-119,-96,1,7,11
9.31E+02,-7916,825,-561,-116,-55,-102,1,7,11
9.50E+02,-8219,835,-533,124,272,-73,1,7,11
9.61E+02,-8268,846,-237,-118,312,-5,1,7,11
9.64E+02,-8284,838,-193,-69,314,331,1,7,11
9.61E+02,-8260,824,-174,273,288,132,1,7,11
9.56E+02,-7895,822,-219,129,261,133,1,7,11
9.50E+02,-7844,862,-543,228,284,258,1,7,11
9.47E+02,-7837,658,-608,544,348,-106,1,7,11
9.53E+02,-7875,717,-388,554,215,73,1,7,11
9.69E+02,-7917,751,-404,235,513,54,1,7,11
9.98E+02,-8208,753,-405,178,516,70,1,7,11
1.03E+03,-8251,721,-635,370,222,98,1,7,11
1.06E+03,-8289,667,-590,329,136,120,1,7,11
1.08E+03,-8313,852,-546,313,265,122,1,7,11
1.08E+03,-8296,791,-254,321,125,87,1,7,11
1.06E+03,-8267,498,-236,343,15,29,1,7,11
1.03E+03,-8231,478,-230,363,-318,-283,1,7,11
9.84E+02,-7914,495,-253,375,-346,-326,1,7,11
9.31E+02,-7852,775,-532,349,-321,-346,1,7,11
8.80E+02,-8052,781,-574,279,4,-347,1,7,11
8.39E+02,-8039,511,-608,-69,110,-346,1,7,11
8.20E+02,-7821,497,-638,101,-38,-352,1,7,11
8.21E+02,-7883,490,-386,24,293,-344,1,7,11
8.33E+02,-8208,488,-640,-294,332,-311,1,7,11
8.47E+02,-8281,476,-609,-343,324,16,1,7,11
8.57E+02,-8067,455,-569,-364,264,108,1,7,11
8.64E+02,-8078,430,-533,-342,-87,-64,1,7,11
8.69E+02,-8315,407,-240,-288,69,-12,1,7,11
8.74E+02,-8275,404,-216,36,-259,262,1,7,11
8.79E+02,-8228,422,-199,106,-301,-2,1,7,11
8.84E+02,-7915,468,-198,-93,-307,-34,1,7,11
8.89E+02,-7851,484,-203,-60,-276,-78,1,7,11
8.93E+02,-8063,785,-221,-58,93,98,1,7,11
8.99E+02,-8058,805,-249,-90,-71,56,1,7,11
9.04E+02,-8064,819,-527,83,279,20,1,7,11
9.10E+02,-8064,815,-559,10,364,-261,1,7,11
9.17E+02,-7815,813,-616,-325,193,-286,1,7,11
9.25E+02,-7839,817,-414,-155,533,-311,1,7,11
9.34E+02,-7878,821,-451,-241,604,-316,1,7,11
9.43E+02,-8193,815,-467,-584,397,-297,1,7,11
9.53E+02,-8258,798,-455,-401,397,1,1,7,11
9.63E+02,-8307,508,-433,-439,599,49,1,7,11
9.73E+02,-8081,463,-416,-440,250,78,1,7,11
9.84E+02,-8313,429,-405,-391,141,88,1,7,11
9.95E+02,-8247,422,-406,-577,310,76,1,7,11
1.01E+03,-7910,431,-408,-256,279,53,1,7,11
1.02E+03,-7848,443,-428,-198,295,31,1,7,11
1.03E+03,-8064,451,-455,-146,344,3,1,7,11
1.04E+03,-8040,472,-485,-360,147,-275,1,7,11
1.05E+03,-8047,501,-772,-330,204,-287,1,7,11
1.06E+03,-7817,811,-837,-317,513,-259,1,7,11
1.06E+03,-7851,834,-869,-341,539,27,1,7,11
1.06E+03,-7901,830,-876,-373,542,55,1,7,11
1.06E+03,-8212,813,-874,-140,254,73,1,7,11
1.06E+03,-8247,806,-881,-138,199,80,1,7,11
1.05E+03,-8264,808,-880,-382,129,80,1,7,11
1.04E+03,-8269,819,-877,-366,321,73,1,7,11
1.03E+03,-8259,829,-872,-361,266,70,1,7,11
1.02E+03,-8239,824,-868,-364,-33,57,1,7,11
1.00E+03,-8193,803,-866,-367,-69,23,1,7,11
9.91E+02,-7907,778,-853,-369,-83,-295,1,7,11
9.82E+02,-7910,507,-835,-377,-100,-365,1,7,11
9.75E+02,-7907,479,-821,-131,116,-172,1,7,11
9.72E+02,-7887,457,-815,-381,82,-212,1,7,11
9.70E+02,-7870,437,-816,-375,75,-231,1,7,11
9.70E+02,-7854,410,-815,-373,89,-226,1,7,11
9.69E+02,-7850,390,-814,-373,122,-213,1,7,11
9.67E+02,-7864,631,-810,-375,-97,-198,1,7,11
9.58E+02,-7893,620,-812,-381,-79,-172,1,7,11
9.42E+02,-7919,613,-800,-129,-86,-138,1,7,11
9.19E+02,-8195,608,-793,-132,-109,-353,1,7,11
8.97E+02,-8202,604,-789,-140,118,-307,1,7,11
8.84E+02,-8201,601,-771,-146,95,-265,1,7,11
8.85E+02,-8204,601,-503,-148,78,25,1,7,11
9.00E+02,-8200,590,-491,-140,50,64,1,7,11
9.24E+02,-7933,586,-489,-375,37,75,1,7,11
9.53E+02,-7936,594,-466,-352,38,73,1,7,11
9.83E+02,-7922,599,-460,-332,38,74,1,7,11
1.01E+03,-7909,601,-456,-316,47,66,1,7,11
1.03E+03,-7903,605,-439,-306,53,54,1,7,11
1.03E+03,-7895,602,-429,-293,56,36,1,7,11
1.01E+03,-7886,602,-419,-281,67,19,1,7,11
9.77E+02,-7877,605,-428,-276,85,7,1,7,11
9.38E+02,-7882,617,-433,-278,113,5,1,7,11
9.07E+02,-7895,625,-443,-292,-115,12,1,7,11
8.97E+02,-7901,629,-458,-316,-94,28,1,7,11
9.02E+02,-7913,635,-458,-340,-79,48,1,7,11
9.10E+02,-7930,387,-465,-363,-76,69,1,7,11
9.08E+02,-8209,386,-462,-135,-89,88,1,7,11
8.90E+02,-8215,637,-461,-149,-116,107,1,7,11
8.67E+02,-8211,630,-460,-149,108,120,1,7,11
8.54E+02,-8211,630,-447,-136,82,125,1,7,11
8.63E+02,-8211,634,-443,-368,52,-125,1,7,11
8.90E+02,-8205,639,-445,-341,24,-121,1,7,11
9.24E+02,-8193,389,-432,-311,4,-117,1,7,11
9.52E+02,-7935,396,-417,-279,-265,-116,1,7,11
9.63E+02,-7934,403,-402,3,-274,-115,1,7,11
9.59E+02,-7927,406,-387,24,-275,-115,1,7,11
9.46E+02,-7916,414,-640,42,-266,-118,1,7,11
9.28E+02,-7910,421,-638,57,6,-122,1,7,11
9.12E+02,-7901,433,-629,64,28,126,1,7,11
9.00E+02,-7906,451,-631,57,50,122,1,7,11
8.96E+02,-7915,461,-630,37,66,-127,1,7,11
9.02E+02,-7921,466,-615,13,80,-124,1,7,11
9.17E+02,-7917,464,-617,-274,88,-117,1,7,11
9.35E+02,-7926,462,-620,-300,96,-114,1,7,11
9.50E+02,-7927,453,-618,-326,101,-112,1,7,11
9.57E+02,-7921,445,-614,-349,105,-119,1,7,11
9.58E+02,-7922,438,-616,-351,115,126,1,7,11
9.57E+02,-7923,437,-609,-347,121,116,1,7,11
9.56E+02,-7917,428,-604,-342,127,108,1,7,11
9.60E+02,-7915,426,-604,-336,-120,98,1,7,11
9.63E+02,-7928,422,-604,-330,-110,91,1,7,11
9.60E+02,-7929,418,-608,-318,-105,83,1,7,11
9.44E+02,-7927,417,-608,-305,-105,74,1,7,11
9.15E+02,-7928,419,-610,-293,-96,66,1,7,11
8.82E+02,-8201,436,-617,-278,-91,62,1,7,11
8.59E+02,-8207,439,-619,-282,-92,67,1,7,11
8.57E+02,-8207,438,-611,-291,-92,73,1,7,11
8.74E+02,-8197,432,-604,-297,-103,80,1,7,11
9.02E+02,-8193,430,-603,-298,-114,83,1,7,11
9.32E+02,-7930,419,-604,-295,-115,78,1,7,11
9.56E+02,-7933,422,-601,-287,-116,80,1,7,11
9.71E+02,-7922,423,-601,-283,-113,83,1,7,11
9.74E+02,-7919,425,-601,-286,-104,84,1,7,11
9.64E+02,-7910,430,-606,-288,-96,76,1,7,11
9.39E+02,-7926,438,-597,-292,-82,64,1,7,11
9.10E+02,-8218,443,-585,-298,-104,55,1,7,11
8.86E+02,-8221,436,-582,-306,105,53,1,7,11
8.77E+02,-8206,442,-597,-310,85,59,1,7,11
8.82E+02,-7929,454,-609,-323,100,66,1,7,11
8.93E+02,-7911,463,-611,-329,-127,83,1,7,11
9.04E+02,-7916,448,-610,-352,-70,85,1,7,11
9.08E+02,-7912,441,-601,-361,-34,96,1,7,11
9.10E+02,-7911,447,-602,-357,-10,82,1,7,11
9.13E+02,-7913,457,-616,-355,265,68,1,7,11
9.24E+02,-7909,463,-626,-365,276,52,1,7,11
9.39E+02,-7908,464,-630,-379,287,38,1,7,11
9.49E+02,-7917,460,-635,-143,295,15,1,7,11
9.43E+02,-7932,421,-388,-175,282,-270,1,7,11
9.09E+02,-7931,414,-387,-173,282,-277,1,7,11
8.58E+02,-8203,399,-392,-135,-40,13,1,7,11
8.14E+02,-7932,400,-397,-381,-53,24,1,7,11
8.01E+02,-7932,411,-401,-371,-55,33,1,7,11
8.22E+02,-7924,415,-411,-369,-48,47,1,7,11
8.58E+02,-7932,413,-410,-370,-37,60,1,7,11
8.86E+02,-7936,414,-407,-363,-37,72,1,7,11
8.88E+02,-8194,411,-406,-355,-42,78,1,7,11
8.70E+02,-7929,418,-411,-345,-51,79,1,7,11
8.50E+02,-7915,422,-409,-341,-59,73,1,7,11
8.45E+02,-7910,424,-399,-338,-61,62,1,7,11
8.59E+02,-7907,428,-396,-335,-68,54,1,7,11
8.88E+02,-7914,424,-635,-334,-74,58,1,7,11
9.27E+02,-7917,426,-637,-324,-80,67,1,7,11
9.71E+02,-7912,429,-395,-315,-81,85,1,7,11
1.01E+03,-7916,436,-409,-316,-64,103,1,7,11
1.03E+03,-7930,427,-422,-319,-49,107,1,7,11
1.03E+03,-8197,422,-423,-322,-47,109,1,7,11
9.97E+02,-8205,408,-419,-323,-55,106,1,7,11
9.35E+02,-8220,397,-418,-319,-72,107,1,7,11
8.69E+02,-8228,388,-422,-305,-90,105,1,7,11
8.19E+02,-8221,634,-434,-300,-106,102,1,7,11
7.96E+02,-8213,615,-428,-305,-113,90,1,7,11
7.91E+02,-8201,591,-408,-310,124,72,1,7,11
7.92E+02,-7933,564,-640,-302,104,41,1,7,11
7.92E+02,-7925,559,-619,-277,84,22,1,7,11
7.90E+02,-7919,575,-607,9,75,24,1,7,11
7.86E+02,-7881,610,-599,26,71,59,1,7,11
7.82E+02,-7844,629,-594,20,94,106,1,7,11
7.79E+02,-7822,408,-605,18,-106,-96,1,7,11
7.83E+02,-7809,475,-388,4,-36,-52,1,7,11
7.96E+02,-7817,499,-404,-266,307,263,1,7,11
8.14E+02,-7850,800,-454,-302,130,310,1,7,11
8.31E+02,-7876,817,-489,-344,191,339,1,7,11
8.41E+02,-7903,823,-776,-378,236,328,1,7,11
8.43E+02,-8199,819,-794,-157,253,288,1,7,11
8.37E+02,-8253,794,-794,-202,246,-33,1,7,11
8.26E+02,-8291,507,-783,-251,193,124,1,7,11
8.11E+02,-8311,502,-773,-253,375,79,1,7,11
7.98E+02,-8272,510,-784,-243,291,59,1,7,11
7.91E+02,-8201,509,-800,-246,-24,46,1,7,11
7.95E+02,-7885,777,-835,-515,-32,17,1,7,11
8.06E+02,-7856,778,-867,-548,-11,-275,1,7,11
8.21E+02,-7854,510,-890,-590,272,-307,1,7,11
8.38E+02,-7858,497,-654,-640,284,-325,1,7,11
8.53E+02,-7892,463,-653,-422,285,-331,1,7,11
8.67E+02,-8202,416,-884,-439,-14,-332,1,7,11
8.77E+02,-8258,613,-846,-425,-100,-321,1,7,11
8.84E+02,-8303,564,-805,-613,41,-293,1,7,11
8.88E+02,-8068,534,-505,-245,-349,12,1,7,11
8.90E+02,-8303,529,-477,-363,-215,63,1,7,11
8.90E+02,-8282,545,-440,24,-559,111,1,7,11
8.89E+02,-8280,571,-392,-118,-612,-97,1,7,11
8.88E+02,-8295,622,-596,-12,-399,-47,1,7,11
8.87E+02,-8286,427,-544,340,-454,268,1,7,11
8.88E+02,-8244,503,-514,164,-503,322,1,7,11
8.92E+02,-7933,829,-229,208,-777,346,1,7,11
8.99E+02,-7878,883,-216,215,-506,320,1,7,11
9.12E+02,-7860,667,-208,194,-470,-13,1,7,11
9.31E+02,-7862,688,-204,153,-431,-127,1,7,11
9.53E+02,-7874,684,-199,357,-396,4,1,7,11
9.74E+02,-7878,681,-194,299,-621,-364,1,7,11
9.88E+02,-7892,661,-191,-19,-584,-188,1,7,11
9.92E+02,-7896,890,-188,-83,-551,-233,1,7,11
9.86E+02,-7930,858,-163,110,-520,-514,1,7,11
9.73E+02,-8223,800,-144,64,-513,-249,1,7,11
9.55E+02,-8252,478,-340,54,-520,-223,1,7,11
9.36E+02,-8289,454,-292,65,-544,-176,1,7,11
9.19E+02,-8301,388,14,108,-581,-371,1,7,11
9.08E+02,-8279,623,52,-78,-614,-314,1,7,11
9.07E+02,-8257,604,85,-17,-636,8,1,7,11
9.16E+02,-8226,601,109,332,-389,32,1,7,11
9.34E+02,-7936,617,126,381,-627,30,1,7,11
9.57E+02,-7907,629,125,147,-586,12,1,7,11
9.82E+02,-7881,390,121,152,-522,-277,1,7,11
1.01E+03,-7874,408,113,383,-181,-322,1,7,11
1.03E+03,-7873,422,109,331,-340,-360,1,7,11
1.05E+03,-7891,417,117,265,13,-133,1,7,11
1.05E+03,-7918,406,115,-62,102,-158,1,7,11
1.05E+03,-8199,388,116,123,-82,-177,1,7,11
1.03E+03,-8215,622,106,64,-22,-195,1,7,11
1.01E+03,-8224,595,96,6,285,-212,1,7,11
9.86E+02,-8233,576,71,-307,331,-229,1,7,11
9.72E+02,-8235,557,55,-363,372,-245,1,7,11
9.67E+02,-8232,539,33,-165,149,-516,1,7,11
9.69E+02,-8233,524,17,-218,170,-528,1,7,11
9.77E+02,-8232,253,-267,-526,188,-536,1,7,11
9.90E+02,-8230,241,-286,-574,201,-535,1,7,11
1.00E+03,-8226,229,-304,-616,208,-523,1,7,11
1.00E+03,-8232,214,-309,-394,219,-245,1,7,11
9.79E+02,-8225,190,-319,-421,221,-214,1,7,11
9.33E+02,-8225,166,-333,-437,223,-197,1,7,11
8.75E+02,-8231,374,-335,-435,223,-178,1,7,11
8.27E+02,-8242,340,-356,-400,227,-166,1,7,11
8.09E+02,-8256,327,-370,-604,227,-145,1,7,11
8.19E+02,-8267,324,-151,-543,236,-360,1,7,11
8.39E+02,-8273,328,-166,-221,245,-302,1,7,11
8.51E+02,-8280,332,-210,-145,254,17,1,7,11
8.45E+02,-8277,330,-232,-286,521,72,1,7,11
8.36E+02,-8273,377,-237,-120,542,77,1,7,11
8.37E+02,-8286,170,-239,-8,559,86,1,7,11
8.62E+02,-8314,210,-238,-20,522,-108,1,7,11
9.04E+02,-8309,514,-240,-128,183,-39,1,7,11
9.51E+02,-8288,540,-253,-266,353,284,1,7,11
9.89E+02,-8268,536,-519,-144,262,320,1,7,11
1.01E+03,-8223,532,-526,-232,-72,310,1,7,11
1.01E+03,-8207,542,-530,-540,-100,261,1,7,11
1.01E+03,-8202,539,-531,-571,-102,-47,1,7,11
1.00E+03,-8208,519,-516,-583,-96,-89,1,7,11
1.01E+03,-8205,231,-244,-568,-86,-115,1,7,11
1.02E+03,-8198,206,-237,-523,-74,127,1,7,11
1.04E+03,-8224,189,-224,-205,-56,114,1,7,11
1.05E+03,-8267,175,-206,-380,-66,112,1,7,11
1.05E+03,-8278,180,-201,-283,-101,127,1,7,11
1.04E+03,-8280,208,-212,67,-120,-114,1,7,11
1.02E+03,-8266,233,-221,-116,122,-97,1,7,11
1.00E+03,-8242,520,-226,-64,124,-96,1,7,11
9.83E+02,-8237,553,-215,-42,-122,-108,1,7,11
9.61E+02,-8233,573,-201,-48,-125,-125,1,7,11
9.42E+02,-8227,584,-189,-65,120,110,1,7,11
9.29E+02,-8211,596,-186,-92,103,97,1,7,11
9.24E+02,-7927,599,-195,121,105,77,1,7,11
9.24E+02,-7901,601,-208,66,-120,56,1,7,11
9.28E+02,-7892,591,-220,1,-62,34,1,7,11
9.33E+02,-7917,583,-227,-317,262,16,1,7,11
9.36E+02,-8203,567,-227,-367,314,18,1,7,11
9.39E+02,-8220,561,-224,-142,345,33,1,7,11
9.43E+02,-8240,542,-222,-161,360,55,1,7,11
9.47E+02,-8239,530,-213,-173,350,79,1,7,11
9.51E+02,-8251,247,-207,-174,330,75,1,7,11
9.50E+02,-8244,223,-198,-165,291,53,1,7,11
9.40E+02,-8229,206,-202,-140,260,14,1,7,11
9.17E+02,-8216,201,-214,-370,-10,-276,1,7,11
8.87E+02,-8193,201,-236,-348,259,-293,1,7,11
8.64E+02,-7922,205,-249,-332,319,-294,1,7,11
8.57E+02,-8196,211,-255,-328,342,-287,1,7,11
8.72E+02,-8229,209,-518,-325,129,6,1,7,11
9.00E+02,-8246,207,-256,-303,382,43,1,7,11
9.31E+02,-8256,203,-517,-287,361,79,1,7,11
9.56E+02,-8252,205,-526,-281,345,107,1,7,11
9.72E+02,-8241,215,-538,-266,304,117,1,7,11
9.80E+02,-8232,235,-549,3,287,115,1,7,11
9.81E+02,-8220,248,-563,-267,276,105,1,7,11
9.77E+02,-8210,255,-567,-295,272,92,1,7,11
9.69E+02,-8206,516,-582,-331,271,75,1,7,11
9.58E+02,-8200,524,-587,-370,272,61,1,7,11
9.44E+02,-8195,529,-594,-156,275,54,1,7,11
9.27E+02,-8207,534,-601,-198,278,55,1,7,11
9.12E+02,-8227,530,-596,-236,267,67,1,7,11
9.04E+02,-8230,255,-575,-526,-16,81,1,7,11
9.10E+02,-8234,224,-543,-540,-42,88,1,7,11
9.31E+02,-8222,182,-530,-525,-67,84,1,7,11
9.60E+02,-8197,158,-519,-223,-73,58,1,7,11
9.91E+02,-7909,158,-541,-170,-54,28,1,7,11
1.01E+03,-7878,174,-582,-130,-4,5,1,7,11
1.03E+03,-7876,193,-620,-367,327,-267,1,7,11
1.03E+03,-7897,212,-391,-362,138,-266,1,7,11
1.02E+03,-7936,221,-401,-367,179,1,1,7,11
1.00E+03,-8234,208,-393,-383,179,25,1,7,11
9.77E+02,-8264,204,-634,-384,143,44,1,7,11
9.53E+02,-8273,207,-625,-375,344,56,1,7,11
9.34E+02,-8256,213,-621,-362,285,67,1,7,11
9.25E+02,-8225,207,-634,-354,-13,67,1,7,11
9.29E+02,-8200,215,-385,-343,-30,53,1,7,11
9.42E+02,-7929,218,-400,-336,-23,22,1,7,11
9.62E+02,-7922,226,-420,-330,-1,-271,1,7,11
9.88E+02,-7923,217,-458,-345,280,-310,1,7,11
1.02E+03,-8196,214,-464,-357,301,-349,1,7,11
1.04E+03,-8217,212,-459,-368,300,-379,1,7,11
1.07E+03,-8232,215,-459,-377,275,-135,1,7,11
1.08E+03,-8265,216,-435,-139,-19,-129,1,7,11
1.09E+03,-8282,222,-415,-152,-85,-343,1,7,11
1.09E+03,-8300,225,-389,-167,95,-291,1,7,11
1.08E+03,-8263,217,-621,-177,-262,83,1,7,11
1.06E+03,-8210,224,-608,-172,-356,-96,1,7,11
1.02E+03,-7932,222,-586,-162,-360,-59,1,7,11
9.81E+02,-7873,230,-577,-138,-312,303,1,7,11
9.49E+02,-7853,236,-574,-335,22,345,1,7,11
9.35E+02,-7864,230,-578,-299,115,371,1,7,11
9.42E+02,-7889,234,-578,12,-61,363,1,7,11
9.62E+02,-7925,246,-571,74,-5,333,1,7,11
9.86E+02,-8213,518,-590,-125,279,287,1,7,11
1.00E+03,-8232,547,-613,-87,286,-23,1,7,11
1.01E+03,-8248,566,-633,-82,276,-78,1,7,11
1.00E+03,-8257,584,-385,-91,-1,-128,1,7,11
9.88E+02,-8262,590,-635,-122,-35,93,1,7,11
9.61E+02,-8254,588,-627,95,-72,67,1,7,11
9.29E+02,-8236,591,-632,49,-101,49,1,7,11
8.99E+02,-8197,582,-633,-260,-115,37,1,7,11
8.83E+02,-7923,565,-629,-317,-99,19,1,7,11
8.88E+02,-7904,537,-635,-373,-83,-258,1,7,11
9.08E+02,-7899,246,-631,-152,-59,-287,1,7,11
9.34E+02,-7903,225,-631,-171,-35,-304,1,7,11
9.56E+02,-7924,201,-632,-179,-22,-313,1,7,11
9.65E+02,-8210,184,-630,-172,-21,-307,1,7,11
9.63E+02,-8250,179,-617,-160,-35,-283,1,7,11
9.51E+02,-8273,171,-598,-141,-71,18,1,7,11
9.32E+02,-8272,172,-576,-377,-116,65,1,7,11
9.11E+02,-8227,172,-578,-357,100,97,1,7,11
8.93E+02,-7932,189,-581,-346,82,92,1,7,11
8.85E+02,-7894,212,-583,-359,106,69,1,7,11
8.92E+02,-7838,241,-611,-129,-113,39,1,7,11
9.11E+02,-7811,247,-639,-172,-52,11,1,7,11
9.32E+02,-8062,240,-409,-220,271,-264,1,7,11
9.48E+02,-8052,193,-426,-522,321,-277,1,7,11
9.52E+02,-7819,370,-438,-538,376,-298,1,7,11
9.49E+02,-7882,300,-459,-237,184,-317,1,7,11
9.50E+02,-8234,279,-459,-130,241,-309,1,7,11
9.65E+02,-8079,294,-410,5,524,19,1,7,11
9.98E+02,-8125,318,-386,-93,238,-101,1,7,11
1.04E+03,-8091,343,-385,333,173,302,1,7,11
1.08E+03,-8300,138,-406,233,358,146,1,7,11
1.09E+03,-8215,210,-445,621,291,174,1,7,11
1.08E+03,-8198,253,-494,432,-9,133,1,7,11
1.04E+03,-7919,597,-797,420,-28,325,1,7,11
9.96E+02,-7911,433,-835,585,-43,261,1,7,11
9.58E+02,-7903,462,-874,183,-50,-48,1,7,11
9.41E+02,-7951,463,-884,261,-43,-88,1,7,11
9.43E+02,-8253,441,-868,82,-53,-110,1,7,11
9.56E+02,-8291,420,-820,-326,-93,-101,1,7,11
9.73E+02,-8065,397,-493,-183,47,-70,1,7,11
9.87E+02,-8067,629,-437,-249,-317,-28,1,7,11
9.94E+02,-8290,617,-391,-537,-167,262,1,7,11
9.89E+02,-8252,622,-596,-539,-244,274,1,7,11
9.71E+02,-7932,629,-552,-538,-553,269,1,7,11
9.38E+02,-7866,636,-531,-533,-563,-10,1,7,11
9.00E+02,-7812,637,-246,-530,-530,-47,1,7,11
8.70E+02,-8025,624,-231,-518,-205,-88,1,7,11
8.58E+02,-8018,607,-232,-225,-351,125,1,7,11
8.66E+02,-8041,576,-251,-177,48,86,1,7,11
8.85E+02,-8062,539,-529,-371,-59,56,1,7,11
9.09E+02,-7832,513,-570,-275,339,28,1,7,11
9.33E+02,-7870,247,-618,77,213,-257,1,7,11
9.52E+02,-8197,241,-405,-100,551,-283,1,7,11
9.65E+02,-8275,236,-416,-29,565,-303,1,7,11
9.68E+02,-8093,239,-421,294,514,-311,1,7,11
9.61E+02,-8149,520,-401,349,145,-301,1,7,11
9.45E+02,-8176,559,-627,377,-12,-265,1,7,11
9.22E+02,-8117,593,-607,368,59,33,1,7,11
8.94E+02,-8299,627,-584,317,-336,47,1,7,11
8.66E+02,-8219,400,-589,-32,-170,52,1,7,11
8.46E+02,-7880,407,-605,95,-194,39,1,7,11
8.44E+02,-8050,405,-639,-310,-143,13,1,7,11
8.63E+02,-7994,632,-405,-212,-272,-281,1,7,11
8.96E+02,-7999,594,-417,-603,-103,-313,1,7,11
9.35E+02,-8043,541,-405,-441,313,-323,1,7,11
9.70E+02,-7903,192,-631,-476,174,-300,1,7,11
9.96E+02,-8228,141,-617,-450,221,-259,1,7,11
1.01E+03,-8285,373,-596,-624,191,61,1,7,11
1.02E+03,-8306,380,-603,-247,378,106,1,7,11
1.02E+03,-8071,168,-619,-310,304,-112,1,7,11
1.02E+03,-8312,224,-640,31,-36,-60,1,7,11
1.01E+03,-8251,536,-403,89,-99,-26,1,7,11
9.98E+02,-7932,589,-431,106,-123,-18,1,7,11
9.78E+02,-7893,613,-464,90,-119,-39,1,7,11
9.53E+02,-7893,629,-488,54,-85,-90,1,7,11
9.30E+02,-7934,635,-473,5,-52,110,1,7,11
9.17E+02,-8225,613,-441,-298,-51,71,1,7,11
9.19E+02,-8251,579,-404,-320,-80,48,1,7,11
9.36E+02,-8257,545,-619,-310,123,37,1,7,11
9.63E+02,-8236,521,-605,-275,70,26,1,7,11
9.95E+02,-8198,525,-609,21,45,10,1,7,11
1.03E+03,-7902,544,-627,43,53,5,1,7,11
1.05E+03,-7863,565,-403,34,95,4,1,7,11
1.07E+03,-7856,589,-434,-257,-89,1,1,7,11
1.07E+03,-7881,598,-444,-321,-20,8,1,7,11
1.05E+03,-7933,585,-438,-135,270,21,1,7,11
1.01E+03,-8226,532,-412,-190,-8,40,1,7,11
9.58E+02,-8248,223,-630,-207,-61,44,1,7,11
9.19E+02,-8261,172,-599,-193,118,41,1,7,11
9.03E+02,-8238,151,-587,-144,49,34,1,7,11
9.07E+02,-8206,152,-562,-340,17,29,1,7,11
9.24E+02,-7892,538,-640,38,79,81,1,7,11
9.44E+02,-7859,574,-408,60,-86,-121,1,7,11
9.59E+02,-7839,388,-481,30,287,-71,1,7,11
9.65E+02,-7849,435,-814,-295,160,-35,1,7,11
9.62E+02,-7882,454,-838,-137,251,-24,1,7,11
9.48E+02,-7935,432,-818,-238,542,-49,1,7,11
9.24E+02,-8310,386,-777,-573,513,-106,1,7,11
8.97E+02,-8082,582,-481,-611,309,49,1,7,11
8.75E+02,-8315,538,-439,-576,-124,-275,1,7,11
8.65E+02,-8274,515,-398,-522,-273,-328,1,7,11
8.66E+02,-8216,246,-622,-200,-371,-349,1,7,11
8.73E+02,-7914,235,-605,-136,-150,-340,1,7,11
8.79E+02,-7871,238,-604,-335,-137,-303,1,7,11
8.82E+02,-7828,229,-607,-295,-333,-273,1,7,11
8.84E+02,-7818,219,-598,-259,15,-258,1,7,11
8.92E+02,-7830,213,-601,41,115,3,1,7,11
9.11E+02,-7875,211,-608,88,-50,5,1,7,11
9.37E+02,-8225,207,-601,123,-4,7,1,7,11
9.60E+02,-8291,207,-600,-95,-36,26,1,7,11
9.68E+02,-8314,221,-611,-60,-94,49,1,7,11
9.50E+02,-8287,250,-412,-56,68,74,1,7,11
9.13E+02,-8246,528,-435,-81,34,63,1,7,11
8.77E+02,-8242,561,-425,115,35,35,1,7,11
8.60E+02,-8267,566,-385,30,23,24,1,7,11
8.72E+02,-8263,555,-590,-303,-284,30,1,7,11
9.04E+02,-8224,527,-557,-368,-340,27,1,7,11
9.42E+02,-7917,245,-540,-166,-370,1,1,7,11
9.74E+02,-7873,216,-526,-203,-369,-290,1,7,11
9.92E+02,-7844,207,-521,-224,-328,-313,1,7,11
1.00E+03,-7832,197,-256,-243,-258,-305,1,7,11
1.00E+03,-7849,188,-244,-241,78,-265,1,7,11
1.01E+03,-7879,176,-243,-208,-106,64,1,7,11
1.01E+03,-7894,160,-249,-149,-48,-103,1,7,11
1.01E+03,-7906,156,-513,-327,271,-25,1,7,11
1.00E+03,-8206,153,-514,12,318,286,1,7,11
9.87E+02,-8235,162,-518,106,335,310,1,7,11
9.63E+02,-8275,198,-539,-48,337,310,1,7,11
9.37E+02,-8289,246,-556,284,318,305,1,7,11
9.18E+02,-8294,556,-580,327,294,287,1,7,11
9.15E+02,-8294,605,-608,324,267,263,1,7,11
9.25E+02,-8278,632,-614,281,-15,-31,1,7,11
9.39E+02,-8260,388,-599,-38,-43,-82,1,7,11
9.49E+02,-8232,389,-595,-114,-75,124,1,7,11
9.49E+02,-8196,387,-593,66,-99,83,1,7,11
9.38E+02,-7909,631,-588,-270,-121,48,1,7,11
9.22E+02,-7891,617,-582,-338,-112,48,1,7,11
9.03E+02,-7879,592,-573,-173,-87,59,1,7,11
8.84E+02,-7884,569,-566,-205,-57,71,1,7,11
8.69E+02,-7898,554,-569,-222,-36,88,1,7,11
8.60E+02,-7913,538,-565,-224,-19,112,1,7,11
8.58E+02,-7930,538,-576,-204,-5,-119,1,7,11
8.64E+02,-8198,542,-586,-180,259,-88,1,7,11
8.75E+02,-8207,551,-594,-150,272,-60,1,7,11
8.90E+02,-8216,558,-599,-375,280,-40,1,7,11
9.06E+02,-8215,561,-609,-343,286,-35,1,7,11
9.23E+02,-8217,568,-613,-307,285,-41,1,7,11
9.38E+02,-8216,583,-615,-277,279,-60,1,7,11
9.50E+02,-8215,589,-612,2,265,-81,1,7,11
9.56E+02,-8216,602,-609,17,-3,-108,1,7,11
9.53E+02,-8217,610,-616,19,-18,125,1,7,11
9.41E+02,-8195,615,-616,18,-33,95,1,7,11
9.17E+02,-7930,618,-622,8,-32,65,1,7,11
8.88E+02,-7927,612,-622,-261,-24,45,1,7,11
8.65E+02,-7928,614,-627,-281,-11,28,1,7,11
8.59E+02,-7930,608,-627,-306,256,29,1,7,11
8.73E+02,-7928,602,-638,-334,265,33,1,7,11
8.99E+02,-7932,585,-639,-355,272,41,1,7,11
9.28E+02,-7924,564,-385,-366,278,48,1,7,11
9.51E+02,-7925,556,-390,-362,288,55,1,7,11
9.66E+02,-7934,553,-396,-353,297,64,1,7,11
9.75E+02,-8194,548,-404,-342,297,77,1,7,11
9.82E+02,-7930,550,-413,-321,292,84,1,7,11
9.89E+02,-8200,561,-417,-310,288,86,1,7,11
9.94E+02,-8219,570,-417,-307,264,84,1,7,11
9.93E+02,-8226,565,-420,-305,-41,84,1,7,11
9.81E+02,-8225,570,-425,-292,-78,85,1,7,11
9.55E+02,-8209,576,-428,-285,-100,95,1,7,11
9.22E+02,-7935,574,-438,-277,-100,106,1,7,11
8.93E+02,-7920,587,-431,-264,-78,113,1,7,11
8.81E+02,-7920,595,-429,-263,-50,121,1,7,11
8.93E+02,-7921,606,-421,-261,-31,-128,1,7,11
9.20E+02,-7920,611,-427,-260,-27,-125,1,7,11
9.54E+02,-7912,615,-430,-262,-33,-127,1,7,11
9.83E+02,-7908,624,-434,-274,-34,120,1,7,11
1.00E+03,-7915,636,-434,-293,-33,108,1,7,11
1.00E+03,-7920,629,-439,-311,-33,98,1,7,11
9.92E+02,-7927,616,-440,-320,-31,91,1,7,11
9.60E+02,-7924,608,-439,-324,-29,87,1,7,11
9.14E+02,-7930,606,-446,-321,-23,79,1,7,11
8.67E+02,-7920,608,-452,-320,-10,83,1,7,11
8.36E+02,-8196,609,-453,-318,-1,82,1,7,11
8.30E+02,-8196,597,-455,-322,-13,83,1,7,11
8.44E+02,-8197,589,-449,-317,-21,73,1,7,11
8.66E+02,-7936,587,-454,-312,-36,70,1,7,11
8.89E+02,-7930,584,-451,-304,-48,64,1,7,11
9.05E+02,-7927,591,-457,-294,-50,59,1,7,11
9.11E+02,-7922,591,-461,-292,-47,63,1,7,11
9.04E+02,-7922,591,-452,-291,-42,70,1,7,11
8.84E+02,-7927,593,-459,-292,-39,78,1,7,11
8.58E+02,-7927,593,-464,-295,-42,83,1,7,11
8.38E+02,-7933,595,-471,-300,-44,87,1,7,11
8.34E+02,-7932,596,-465,-305,-43,87,1,7,11
8.46E+02,-7930,606,-459,-307,-43,88,1,7,11
8.64E+02,-7930,601,-454,-310,-46,91,1,7,11
8.80E+02,-7929,602,-457,-311,-51,97,1,7,11
8.86E+02,-7926,604,-464,-308,-52,102,1,7,11
8.86E+02,-7924,602,-455,-305,-53,102,1,7,11
8.88E+02,-7924,601,-458,-299,-52,99,1,7,11
8.96E+02,-7920,606,-460,-294,-51,94,1,7,11
9.09E+02,-7924,613,-466,-293,-51,88,1,7,11
9.20E+02,-7928,610,-452,-296,-53,85,1,7,11
9.19E+02,-7924,611,-457,-299,-52,83,1,7,11
9.01E+02,-7924,610,-463,-302,-52,79,1,7,11
8.74E+02,-7923,611,-465,-309,-53,78,1,7,11
8.53E+02,-7920,609,-466,-315,-48,76,1,7,11
8.52E+02,-7922,606,-469,-320,-39,74,1,7,11
8.72E+02,-7924,609,-470,-324,-29,75,1,7,11
9.03E+02,-7924,616,-476,-322,-25,84,1,7,11
9.31E+02,-7910,623,-491,-315,-16,100,1,7,11
9.45E+02,-7897,635,-509,-314,257,108,1,7,11
9.45E+02,-7892,387,-782,-317,276,112,1,7,11
9.38E+02,-7906,400,-792,-320,290,112,1,7,11
9.31E+02,-7933,416,-792,-329,282,115,1,7,11
9.28E+02,-8221,426,-773,-344,-7,-128,1,7,11
9.28E+02,-8226,414,-484,-352,-67,-108,1,7,11
9.26E+02,-8219,396,-460,-352,-120,-105,1,7,11
9.17E+02,-8199,616,-456,-340,95,-122,1,7,11
9.00E+02,-7913,604,-447,-311,87,93,1,7,11
8.82E+02,-7885,600,-448,-272,-125,39,1,7,11
8.69E+02,-7875,601,-438,-257,-76,15,1,7,11
8.69E+02,-7875,607,-425,17,-30,10,1,7,11
8.78E+02,-7875,625,-440,38,257,25,1,7,11
8.91E+02,-7879,396,-473,48,285,53,1,7,11
9.02E+02,-7882,422,-499,36,312,89,1,7,11
9.08E+02,-7898,438,-773,0,334,109,1,7,11
9.09E+02,-7920,433,-781,-297,334,113,1,7,11
9.08E+02,-7923,408,-791,-340,312,91,1,7,11
9.07E+02,-7920,386,-810,-370,280,49,1,7,11
9.05E+02,-7926,608,-816,-139,-4,-264,1,7,11
9.00E+02,-8208,577,-814,-150,-44,-310,1,7,11
8.90E+02,-8218,558,-813,-143,-98,-333,1,7,11
8.76E+02,-8223,557,-807,-130,124,-330,1,7,11
8.60E+02,-8245,571,-803,-377,96,-294,1,7,11
8.50E+02,-8248,587,-785,-369,52,25,1,7,11
8.50E+02,-8206,601,-499,-374,0,84,1,7,11
8.60E+02,-7925,595,-457,-140,-287,118,1,7,11
8.76E+02,-7891,568,-412,-148,-310,-125,1,7,11
8.93E+02,-7855,546,-386,-378,-309,115,1,7,11
9.06E+02,-8053,540,-395,-336,-274,92,1,7,11
9.17E+02,-8006,551,-437,-297,80,60,1,7,11
9.26E+02,-8005,559,-476,-287,-30,24,1,7,11
9.33E+02,-8059,570,-501,-294,372,-257,1,7,11
9.37E+02,-7868,569,-790,-308,205,-264,1,7,11
9.36E+02,-7936,563,-806,-315,243,-257,1,7,11
9.26E+02,-8269,568,-805,-318,230,27,1,7,11
9.05E+02,-8307,572,-800,-312,153,83,1,7,11
8.78E+02,-8285,577,-811,-294,306,-116,1,7,11
8.58E+02,-8234,567,-821,-289,-31,-90,1,7,11
8.55E+02,-8190,555,-833,-295,-69,-113,1,7,11
8.74E+02,-7912,557,-830,-290,-88,80,1,7,11
9.06E+02,-7898,551,-831,-285,-93,50,1,7,11
9.41E+02,-7876,549,-846,-271,-90,44,1,7,11
9.70E+02,-7868,550,-870,-260,-73,42,1,7,11
9.86E+02,-7887,572,-883,11,-53,61,1,7,11
9.90E+02,-7926,601,-883,22,-56,98,1,7,11
9.83E+02,-8225,635,-863,18,-94,-97,1,7,11
9.67E+02,-8258,405,-831,5,89,-26,1,7,11
9.45E+02,-8264,415,-786,-267,-272,290,1,7,11
9.23E+02,-8230,423,-502,-275,-376,317,1,7,11
9.09E+02,-8200,433,-471,-286,-188,309,1,7,11
9.07E+02,-7908,454,-429,-298,-217,287,1,7,11
9.13E+02,-7862,468,-412,-306,-210,257,1,7,11
9.20E+02,-7814,481,-399,-314,-154,-27,1,7,11
9.21E+02,-8032,480,-409,-323,-314,-65,1,7,11
9.13E+02,-8028,470,-412,-320,64,-110,1,7,11
9.03E+02,-8059,461,-418,-301,-72,104,1,7,11
9.00E+02,-7852,460,-437,-268,279,69,1,7,11
9.13E+02,-7907,466,-459,27,335,52,1,7,11
9.38E+02,-8205,462,-462,60,349,45,1,7,11
9.61E+02,-8235,458,-459,87,320,42,1,7,11
9.67E+02,-8250,447,-458,106,258,30,1,7,11
9.45E+02,-8250,439,-458,113,-78,5,1,7,11
9.04E+02,-8227,440,-454,108,98,-285,1,7,11
8.66E+02,-8205,431,-453,80,43,-321,1,7,11
8.51E+02,-7921,417,-443,43,17,-346,1,7,11
8.67E+02,-7885,638,-449,-258,22,-359,1,7,11
9.00E+02,-7866,611,-462,-306,53,-371,1,7,11
9.35E+02,-7857,586,-473,-348,-119,-380,1,7,11
9.55E+02,-7881,572,-479,-130,-61,-384,1,7,11
9.56E+02,-7924,566,-472,-165,-29,-366,1,7,11
9.44E+02,-8218,554,-451,-170,-35,-326,1,7,11
9.25E+02,-8253,535,-422,-176,-70,-268,1,7,11
9.04E+02,-8231,516,-396,-149,119,56,1,7,11
8.87E+02,-8205,245,-629,-364,70,90,1,7,11
8.75E+02,-7923,239,-616,-317,43,105,1,7,11
8.71E+02,-7911,249,-607,-267,48,103,1,7,11
8.76E+02,-7893,524,-611,35,72,102,1,7,11
8.87E+02,-7860,541,-385,64,121,107,1,7,11
8.99E+02,-7833,562,-438,78,-55,107,1,7,11
9.09E+02,-7842,578,-491,66,302,93,1,7,11
9.18E+02,-7888,594,-779,23,373,73,1,7,11
9.30E+02,-7933,586,-803,-290,380,57,1,7,11
9.49E+02,-8253,567,-792,-352,364,39,1,7,11
9.78E+02,-8297,539,-770,-140,290,44,1,7,11
1.01E+03,-8290,512,-497,-150,-77,60,1,7,11
1.03E+03,-8277,524,-486,-142,77,84,1,7,11
1.04E+03,-8223,544,-481,-154,-270,121,1,7,11
1.02E+03,-7892,569,-467,-173,-328,-96,1,7,11
9.85E+02,-7818,585,-464,-192,-339,-63,1,7,11
9.44E+02,-8041,610,-480,-197,-296,-26,1,7,11
9.12E+02,-8053,385,-490,-189,46,279,1,7,11
8.98E+02,-7849,412,-452,-162,-112,360,1,7,11
9.00E+02,-7917,428,-441,-361,-39,209,1,7,11
9.12E+02,-8231,415,-402,-289,-16,552,1,7,11
9.31E+02,-8270,405,-626,81,-41,582,1,7,11
9.52E+02,-8274,433,-627,-51,-85,531,1,7,11
9.68E+02,-8239,480,-634,306,-119,340,1,7,11
9.73E+02,-8236,783,-389,350,107,-65,1,7,11
9.63E+02,-8214,823,-389,332,91,60,1,7,11
9.40E+02,-7931,859,-394,276,62,-289,1,7,11
9.16E+02,-7916,874,-415,-76,66,-331,1,7,11
9.03E+02,-7889,865,-463,-15,91,-329,1,7,11
9.09E+02,-7863,817,-501,-170,-112,-313,1,7,11
9.29E+02,-7857,478,-792,-553,-32,-309,1,7,11
9.55E+02,-7864,407,-792,-629,295,-317,1,7,11
9.77E+02,-7887,592,-788,-393,340,-331,1,7,11
9.88E+02,-8203,543,-501,-605,356,-328,1,7,11
9.90E+02,-8300,531,-455,-255,315,-285,1,7,11
9.85E+02,-8126,544,-397,-131,-63,60,1,7,11
9.77E+02,-8148,578,-604,5,0,-82,1,7,11
9.68E+02,-8113,627,-562,127,-205,276,1,7,11
9.57E+02,-8300,432,-532,-40,-632,344,1,7,11
9.42E+02,-8226,503,-252,259,-476,370,1,7,11
9.23E+02,-7890,802,-220,-6,-771,366,1,7,11
9.00E+02,-7823,828,-186,-40,-477,322,1,7,11
8.80E+02,-8021,825,-159,-85,-394,260,1,7,11
8.69E+02,-7988,802,-153,-126,-525,-80,1,7,11
8.72E+02,-7993,789,-156,93,-360,86,1,7,11
8.84E+02,-8026,777,-184,54,71,14,1,7,11
8.98E+02,-7823,771,-201,16,-18,-283,1,7,11
9.07E+02,-7877,510,-230,-279,376,-287,1,7,11
9.06E+02,-7922,501,-256,-320,214,-259,1,7,11
8.97E+02,-8246,479,-526,-352,533,50,1,7,11
8.81E+02,-8275,475,-528,-344,255,84,1,7,11
8.60E+02,-8270,481,-557,-327,197,115,1,7,11
8.38E+02,-8242,490,-596,-311,141,127,1,7,11
8.21E+02,-8205,494,-633,-311,363,113,1,7,11
8.14E+02,-7932,482,-394,-325,349,75,1,7,11
8.17E+02,-7912,451,-409,-336,337,24,1,7,11
8.29E+02,-7898,419,-410,-333,331,-292,1,7,11
8.44E+02,-7891,407,-429,-324,336,-337,1,7,11
8.61E+02,-7907,415,-442,-303,349,-349,1,7,11
8.77E+02,-8200,440,-434,-288,354,-318,1,7,11
8.93E+02,-8228,473,-418,-281,336,15,1,7,11
9.08E+02,-8254,502,-392,-282,294,111,1,7,11
9.20E+02,-8255,501,-625,-289,-30,-61,1,7,11
9.29E+02,-8217,497,-617,-286,-90,-27,1,7,11
9.34E+02,-7928,499,-600,-289,-119,-45,1,7,11
9.34E+02,-7881,499,-600,-300,-125,-102,1,7,11
9.30E+02,-7846,768,-602,-319,-93,71,1,7,11
9.24E+02,-7827,772,-627,-351,-29,-264,1,7,11
9.18E+02,-7843,509,-393,-147,300,-330,1,7,11
9.13E+02,-7856,480,-424,-200,354,-376,1,7,11
9.11E+02,-7861,448,-453,-237,159,-146,1,7,11
9.13E+02,-7887,412,-480,-513,220,-151,1,7,11
9.19E+02,-7909,635,-500,-252,518,-129,1,7,11
9.29E+02,-8196,612,-776,-220,548,-350,1,7,11
9.40E+02,-8251,573,-512,-177,546,-304,1,7,11
9.50E+02,-8273,549,-504,-367,245,2,1,7,11
9.56E+02,-8272,537,-511,13,378,16,1,7,11
9.57E+02,-8242,545,-784,87,288,13,1,7,11
9.52E+02,-8207,560,-798,-123,-32,-257,1,7,11
9.38E+02,-7932,575,-792,-112,-73,-270,1,7,11
9.16E+02,-7918,593,-784,-122,-105,-267,1,7,11
8.92E+02,-7902,608,-773,106,127,-257,1,7,11
8.73E+02,-7886,612,-509,63,117,21,1,7,11
8.67E+02,-7881,605,-493,22,122,49,1,7,11
8.74E+02,-7864,595,-489,-269,-116,73,1,7,11
8.89E+02,-7866,590,-488,-298,-82,95,1,7,11
9.02E+02,-7873,574,-481,-323,-56,121,1,7,11
9.09E+02,-7882,560,-478,-328,-23,-118,1,7,11
9.10E+02,-7904,556,-487,-317,262,-104,1,7,11
9.07E+02,-7920,561,-486,-293,280,-86,1,7,11
9.04E+02,-7935,589,-504,-261,295,-66,1,7,11
9.02E+02,-8200,620,-781,13,296,-36,1,7,11
8.98E+02,-8203,404,-809,24,297,-9,1,7,11
8.92E+02,-8205,449,-836,20,291,263,1,7,11
8.82E+02,-8207,480,-847,-263,272,273,1,7,11
8.70E+02,-8201,498,-852,-299,-15,270,1,7,11
8.62E+02,-8193,509,-848,-331,-52,-7,1,7,11
8.62E+02,-7930,774,-835,-354,-92,-37,1,7,11
8.74E+02,-7926,787,-828,-363,124,-65,1,7,11
8.92E+02,-7909,798,-812,-362,86,-81,1,7,11
9.15E+02,-7893,799,-784,-357,56,-89,1,7,11
9.36E+02,-7874,795,-773,-344,40,-103,1,7,11
9.52E+02,-7862,781,-505,-322,43,-124,1,7,11
9.61E+02,-7875,775,-478,-296,57,105,1,7,11
9.59E+02,-7890,773,-470,-262,72,87,1,7,11
9.44E+02,-7907,788,-460,39,93,72,1,7,11
9.20E+02,-7914,798,-462,61,106,68,1,7,11
8.97E+02,-7916,808,-471,68,118,54,1,7,11
8.85E+02,-7913,804,-482,56,-124,36,1,7,11
8.88E+02,-7911,791,-506,39,-103,3,1,7,11
9.00E+02,-7906,774,-504,17,-84,-300,1,7,11
9.14E+02,-7907,508,-500,-270,-67,-347,1,7,11
9.23E+02,-7918,458,-487,-301,-62,-381,1,7,11
9.25E+02,-7936,428,-472,-319,-74,-143,1,7,11
9.27E+02,-7933,402,-456,-323,-97,-151,1,7,11
9.35E+02,-7923,391,-446,-313,-124,-154,1,7,11
9.53E+02,-7918,392,-438,-300,112,-147,1,7,11
9.75E+02,-7905,399,-441,-300,93,-134,1,7,11
9.91E+02,-7891,401,-434,-321,99,-376,1,7,11
9.87E+02,-7883,394,-436,-349,120,-365,1,7,11
9.56E+02,-7880,631,-442,-381,-107,-357,1,7,11
9.08E+02,-7877,605,-455,-151,-69,-364,1,7,11
8.64E+02,-7892,577,-466,-162,-30,-379,1,7,11
8.42E+02,-7903,558,-482,-163,261,-137,1,7,11
8.48E+02,-7919,538,-483,-154,284,-143,1,7,11
8.67E+02,-7932,532,-498,-133,289,-137,1,7,11
8.84E+02,-8210,542,-506,-368,281,-374,1,7,11
8.87E+02,-8216,556,-777,-354,258,-349,1,7,11
8.77E+02,-8208,571,-511,-355,-33,-316,1,7,11
8.65E+02,-8216,579,-490,-374,-72,-289,1,7,11
8.58E+02,-8213,575,-447,-140,119,-259,1,7,11
8.58E+02,-8198,570,-416,-143,55,17,1,7,11
8.55E+02,-7905,572,-399,-133,14,29,1,7,11
8.37E+02,-7874,582,-403,-377,15,34,1,7,11
8.02E+02,-7879,580,-411,-139,47,27,1,7,11
7.65E+02,-7865,554,-439,-162,79,19,1,7,11
7.46E+02,-7880,527,-461,-172,-98,-265,1,7,11
7.56E+02,-7891,246,-475,-176,-22,-284,1,7,11
7.82E+02,-7882,221,-495,-159,304,-298,1,7,11
8.04E+02,-7879,216,-771,-371,378,-308,1,7,11
8.06E+02,-7894,228,-790,-323,181,-305,1,7,11
7.91E+02,-7929,539,-822,-269,209,-289,1,7,11
7.68E+02,-8200,563,-844,31,188,7,1,7,11
7.48E+02,-8218,606,-851,43,140,51,1,7,11
7.34E+02,-8244,625,-839,18,271,108,1,7,11
7.28E+02,-8255,384,-819,1,-97,-128,1,7,11
7.33E+02,-8235,399,-804,-277,46,-111,1,7,11
7.49E+02,-8205,410,-785,-305,-289,-104,1,7,11
7.75E+02,-7911,404,-508,-341,-322,-101,1,7,11
8.10E+02,-7866,639,-497,-371,-311,-106,1,7,11
8.46E+02,-7830,609,-484,-134,2,127,1,7,11
8.71E+02,-7836,579,-459,-135,81,95,1,7,11
8.73E+02,-7845,550,-443,-377,-106,59,1,7,11
8.50E+02,-7867,524,-446,-346,-47,38,1,7,11
8.19E+02,-7892,514,-467,-304,-6,36,1,7,11
8.01E+02,-7917,249,-491,-262,279,45,1,7,11
8.08E+02,-8201,250,-507,30,289,66,1,7,11
8.30E+02,-8226,523,-773,57,282,87,1,7,11
8.55E+02,-8251,530,-775,67,-8,116,1,7,11
8.67E+02,-8254,539,-778,69,-66,-114,1,7,11
8.66E+02,-8252,544,-778,58,-125,-98,1,7,11
8.62E+02,-8234,531,-509,34,72,-90,1,7,11
8.63E+02,-8220,528,-477,21,31,-90,1,7,11
8.74E+02,-8202,520,-457,13,2,-84,1,7,11
8.87E+02,-7927,515,-434,17,-274,-73,1,7,11
8.95E+02,-7909,512,-415,29,-276,-59,1,7,11
8.88E+02,-7894,251,-390,42,-263,-42,1,7,11
8.70E+02,-7887,254,-630,57,19,-23,1,7,11
8.49E+02,-7882,254,-627,67,53,258,1,7,11
8.35E+02,-7874,521,-628,78,94,285,1,7,11
8.32E+02,-7865,549,-386,85,-117,308,1,7,11
8.40E+02,-7863,581,-413,83,-62,320,1,7,11
8.53E+02,-7880,628,-431,73,-4,320,1,7,11
8.70E+02,-7912,406,-444,44,292,331,1,7,11
8.87E+02,-8195,435,-444,17,306,347,1,7,11
8.99E+02,-8210,445,-442,-260,299,362,1,7,11
9.03E+02,-8208,455,-441,-264,277,369,1,7,11
8.99E+02,-8193,463,-449,0,-6,356,1,7,11
8.89E+02,-7930,484,-445,8,-21,321,1,7,11
8.78E+02,-7927,503,-436,3,-34,284,1,7,11
8.69E+02,-7920,773,-423,-262,-48,-5,1,7,11
8.63E+02,-7923,783,-412,-278,-61,-30,1,7,11
8.61E+02,-7902,776,-418,-291,-75,-44,1,7,11
8.62E+02,-7874,775,-417,-310,-71,-69,1,7,11
8.65E+02,-7856,508,-425,-332,-54,-111,1,7,11
8.70E+02,-7857,495,-435,-352,-1,114,1,7,11
8.76E+02,-7848,488,-448,-365,292,98,1,7,11
8.82E+02,-7851,480,-457,-368,337,92,1,7,11
8.90E+02,-7851,475,-474,-371,383,92,1,7,11
8.97E+02,-7845,465,-497,-370,164,93,1,7,11
9.04E+02,-7827,460,-809,-371,197,86,1,7,11
9.11E+02,-7816,476,-886,-379,239,73,1,7,11
9.18E+02,-7838,504,-669,-158,543,60,1,7,11
9.24E+02,-7906,779,-686,-217,564,68,1,7,11
9.30E+02,-8233,777,-669,-519,545,108,1,7,11
9.35E+02,-8293,501,-646,-534,230,-93,1,7,11
9.41E+02,-8298,474,-885,-243,133,-42,1,7,11
9.46E+02,-8270,471,-876,-178,307,-33,1,7,11
9.52E+02,-8227,474,-862,-367,-4,-54,1,7,11
9.57E+02,-7913,493,-856,-307,-32,-99,1,7,11
9.62E+02,-7859,511,-854,-262,-35,98,1,7,11
9.65E+02,-8062,789,-868,13,-13,30,1,7,11
9.65E+02,-8026,813,-895,4,288,-291,1,7,11
9.62E+02,-8013,822,-671,-289,345,-342,1,7,11
9.55E+02,-8019,813,-691,-341,139,-374,1,7,11
9.43E+02,-8044,791,-705,-131,171,-384,1,7,11
9.24E+02,-7830,502,-717,-163,182,-378,1,7,11
8.99E+02,-7865,476,-730,-174,171,-350,1,7,11
8.74E+02,-7913,452,-737,-170,148,-308,1,7,11
8.57E+02,-7933,446,-735,-141,357,5,1,7,11
8.57E+02,-8211,452,-736,-366,301,49,1,7,11
8.74E+02,-8208,438,-742,-339,-22,79,1,7,11
9.00E+02,-8206,438,-741,-298,-76,78,1,7,11
9.24E+02,-8206,446,-734,-263,-124,67,1,7,11
9.38E+02,-8196,446,-720,21,88,52,1,7,11
9.43E+02,-7911,460,-706,46,55,29,1,7,11
9.43E+02,-7882,462,-690,63,30,2,1,7,11
9.44E+02,-7844,457,-678,76,14,-275,1,7,11
9.48E+02,-7828,460,-681,79,24,-295,1,7,11
9.53E+02,-7825,466,-677,71,43,-312,1,7,11
9.53E+02,-7850,465,-670,60,71,-315,1,7,11
9.42E+02,-7875,459,-662,47,85,-303,1,7,11
9.20E+02,-7899,444,-646,39,86,-282,1,7,11
8.96E+02,-7923,425,-882,34,77,-260,1,7,11
8.82E+02,-8194,409,-868,39,52,11,1,7,11
8.88E+02,-8195,401,-848,44,26,9,1,7,11
9.12E+02,-7931,405,-841,37,2,4,1,7,11
9.44E+02,-7903,411,-852,18,-268,-268,1,7,11
9.74E+02,-7874,418,-861,-276,-261,-289,1,7,11
9.93E+02,-7836,429,-876,-330,15,-308,1,7,11
9.98E+02,-7819,426,-891,-134,57,-327,1,7,11
9.92E+02,-7833,411,-888,-201,96,-331,1,7,11
9.76E+02,-7885,628,-871,-247,117,-320,1,7,11
9.53E+02,-7925,580,-835,-253,91,-298,1,7,11
9.28E+02,-8217,531,-780,-167,15,-264,1,7,11
9.06E+02,-8200,517,-492,-331,-291,16,1,7,11
8.93E+02,-7934,528,-466,28,-310,38,1,7,11
8.90E+02,-7929,558,-455,121,-302,68,1,7,11
8.96E+02,-7925,590,-457,-62,-274,107,1,7,11
9.05E+02,-7905,625,-477,-20,19,-117,1,7,11
9.15E+02,-7879,395,-489,-14,65,-108,1,7,11
9.24E+02,-7858,414,-501,-30,117,127,1,7,11
9.33E+02,-7859,440,-771,-69,-100,85,1,7,11
9.42E+02,-7869,456,-783,118,-81,41,1,7,11
9.53E+02,-7888,457,-781,33,-82,7,1,7,11
9.61E+02,-7897,439,-511,-300,-114,-260,1,7,11
9.60E+02,-7895,400,-499,-360,108,-258,1,7,11
9.47E+02,-7875,631,-489,-139,85,10,1,7,11
9.19E+02,-7869,609,-469,-143,87,26,1,7,11
8.87E+02,-7884,595,-469,-384,112,48,1,7,11
8.65E+02,-7900,605,-463,-354,-122,91,1,7,11
8.66E+02,-7917,620,-465,-317,-98,-122,1,7,11
8.88E+02,-8211,632,-462,-289,-80,-82,1,7,11
9.22E+02,-8229,635,-469,-268,-97,-57,1,7,11
9.54E+02,-8224,634,-480,10,121,-67,1,7,11
9.77E+02,-8198,636,-498,33,97,-99,1,7,11
9.86E+02,-7903,389,-778,52,110,108,1,7,11
9.83E+02,-7898,416,-787,64,-94,57,1,7,11
9.72E+02,-7923,439,-796,48,-55,30,1,7,11
9.52E+02,-8207,449,-791,9,-55,26,1,7,11
9.26E+02,-8226,441,-504,-322,-91,32,1,7,11
8.95E+02,-8207,416,-477,-376,97,40,1,7,11
8.61E+02,-7911,386,-453,-165,40,20,1,7,11
8.27E+02,-7880,607,-434,-202,13,-268,1,7,11
8.03E+02,-7852,572,-410,-223,20,-292,1,7,11
7.95E+02,-7834,553,-409,-211,60,-294,1,7,11
8.07E+02,-7825,551,-432,-188,-123,-268,1,7,11
8.31E+02,-7830,562,-470,-157,-22,38,1,7,11
8.56E+02,-7849,574,-506,-132,342,101,1,7,11
8.73E+02,-7857,581,-798,-355,175,-94,1,7,11
8.85E+02,-7906,591,-823,-314,233,-51,1,7,11
8.98E+02,-8195,609,-842,-266,230,-17,1,7,11
9.17E+02,-8246,385,-856,45,201,-9,1,7,11
9.46E+02,-8295,414,-847,86,378,257,1,7,11
9.79E+02,-8311,446,-817,-127,258,265,1,7,11
1.01E+03,-8283,490,-819,-98,127,261,1,7,11
1.02E+03,-8240,776,-808,-104,25,-20,1,7,11
1.02E+03,-8170,791,-790,117,-304,-66,1,7,11
1.01E+03,-7874,803,-770,60,-339,111,1,7,11
9.85E+02,-7834,799,-491,-309,-319,72,1,7,11
9.48E+02,-8062,778,-477,-381,-265,40,1,7,11
9.12E+02,-8050,496,-459,-175,72,19,1,7,11
8.86E+02,-7810,458,-450,-199,-99,10,1,7,11
8.81E+02,-7828,425,-445,-193,-30,1,1,7,11
8.93E+02,-7857,402,-472,-171,284,-261,1,7,11
9.14E+02,-7883,397,-491,-138,323,-267,1,7,11
9.37E+02,-7928,391,-505,-365,347,-271,1,7,11
9.55E+02,-8218,391,-773,-341,343,-267,1,7,11
9.67E+02,-8243,394,-783,-317,313,3,1,7,11
9.69E+02,-8247,393,-792,-293,265,20,1,7,11
9.60E+02,-8235,396,-799,-272,-43,29,1,7,11
9.39E+02,-8221,399,-803,1,-85,30,1,7,11
9.14E+02,-8206,408,-787,7,-116,27,1,7,11
8.89E+02,-7935,400,-505,10,106,21,1,7,11
8.68E+02,-7916,401,-489,17,75,8,1,7,11
8.54E+02,-7902,400,-486,20,58,-264,1,7,11
8.47E+02,-7895,397,-469,-4,56,-284,1,7,11
8.48E+02,-7897,390,-458,-270,62,-283,1,7,11
8.55E+02,-7898,623,-432,-288,66,-275,1,7,11
8.63E+02,-7905,599,-418,-289,78,-265,1,7,11
8.71E+02,-7894,581,-407,-272,96,11,1,7,11
8.77E+02,-7883,570,-408,10,-124,27,1,7,11
8.83E+02,-7865,569,-414,34,-73,35,1,7,11
8.89E+02,-7854,558,-422,52,-11,26,1,7,11
8.95E+02,-7858,562,-448,62,306,12,1,7,11
9.01E+02,-7856,568,-471,61,356,-258,1,7,11
9.06E+02,-7862,582,-505,48,148,-275,1,7,11
9.11E+02,-7853,602,-827,25,183,-277,1,7,11
9.14E+02,-7833,604,-848,-268,220,-277,1,7,11
9.16E+02,-7824,618,-648,-310,522,-270,1,7,11
9.15E+02,-7849,629,-675,-356,568,-257,1,7,11
9.14E+02,-7917,632,-671,-148,578,30,1,7,11
9.11E+02,-8267,595,-891,-193,523,66,1,7,11
9.08E+02,-8068,566,-871,-202,145,111,1,7,11
9.05E+02,-8292,545,-858,-167,258,-123,1,7,11
9.03E+02,-8232,548,-856,-358,104,122,1,7,11
9.02E+02,-7921,563,-865,-331,72,86,1,7,11
9.02E+02,-7872,584,-870,-334,77,54,1,7,11
9.03E+02,-7837,592,-855,-354,103,25,1,7,11
9.03E+02,-7824,590,-853,-368,-120,20,1,7,11
9.01E+02,-7818,587,-867,-374,-85,37,1,7,11
8.98E+02,-7826,575,-892,-374,-43,61,1,7,11
8.95E+02,-7855,549,-651,-361,259,86,1,7,11
8.91E+02,-7905,537,-655,-327,284,110,1,7,11
8.87E+02,-8207,530,-649,-283,276,-124,1,7,11
8.84E+02,-8248,530,-896,19,-21,-108,1,7,11
8.82E+02,-8277,542,-875,66,-96,-91,1,7,11
8.80E+02,-8237,590,-872,126,36,-80,1,7,11
8.77E+02,-8199,631,-870,122,-286,-76,1,7,11
8.75E+02,-7897,400,-855,82,-321,-83,1,7,11
8.73E+02,-7855,420,-850,27,-325,-90,1,7,11
8.70E+02,-7824,421,-834,-292,-300,-96,1,7,11
8.68E+02,-7810,414,-814,-345,3,-100,1,7,11
8.68E+02,-7809,396,-798,-380,64,-97,1,7,11
8.69E+02,-7825,633,-797,-133,-119,-95,1,7,11
8.71E+02,-7854,618,-803,-375,-55,-93,1,7,11
8.73E+02,-7882,614,-797,-337,-9,-93,1,7,11
8.72E+02,-7913,624,-807,-290,275,-90,1,7,11
8.69E+02,-7930,392,-828,2,289,-87,1,7,11
8.66E+02,-8210,417,-857,16,287,-91,1,7,11
8.65E+02,-8214,441,-879,12,260,-98,1,7,11
8.68E+02,-8206,463,-643,-265,-30,-115,1,7,11
8.69E+02,-8207,458,-645,-308,-71,118,1,7,11
8.64E+02,-8195,436,-883,-346,-122,88,1,7,11
8.48E+02,-8198,404,-853,-366,78,58,1,7,11
8.25E+02,-7933,639,-829,-364,15,42,1,7,11
8.05E+02,-7931,622,-791,-360,-289,39,1,7,11
7.96E+02,-7918,600,-497,-343,-331,58,1,7,11
8.01E+02,-7904,572,-467,-308,-351,74,1,7,11
8.12E+02,-7880,559,-458,1,-351,90,1,7,11
8.21E+02,-7858,566,-461,59,-321,101,1,7,11
8.25E+02,-7826,628,-507,107,-261,110,1,7,11
8.27E+02,-7809,433,-811,120,90,118,1,7,11
8.32E+02,-7849,468,-837,91,-61,-116,1,7,11
8.45E+02,-7901,476,-842,31,275,-70,1,7,11
8.62E+02,-8202,471,-828,-285,301,-41,1,7,11
8.80E+02,-8236,454,-806,-334,-6,-25,1,7,11
8.95E+02,-8245,434,-777,-341,-90,-22,1,7,11
9.03E+02,-8227,417,-485,-337,78,-39,1,7,11
9.06E+02,-8194,400,-453,-321,11,-73,1,7,11
9.03E+02,-7900,387,-431,-285,-278,-109,1,7,11
8.95E+02,-7878,403,-425,9,-266,111,1,7,11
8.85E+02,-7822,435,-461,22,101,78,1,7,11
8.78E+02,-7812,439,-498,-261,-61,66,1,7,11
8.79E+02,-7821,431,-789,-291,285,60,1,7,11
8.89E+02,-7836,425,-822,-318,347,57,1,7,11
9.04E+02,-7874,429,-836,-338,380,61,1,7,11
9.21E+02,-8197,433,-837,-348,380,88,1,7,11
9.32E+02,-8261,426,-819,-343,326,-113,1,7,11
9.37E+02,-8298,416,-785,-317,-31,-50,1,7,11
9.36E+02,-8296,413,-497,-270,94,-4,1,7,11
9.28E+02,-8270,414,-466,25,-294,-3,1,7,11
9.15E+02,-8233,428,-430,55,-151,-38,1,7,11
8.99E+02,-7924,456,-414,74,-211,-79,1,7,11
8.85E+02,-7860,494,-430,74,-204,-115,1,7,11
8.76E+02,-8049,778,-450,47,-131,121,1,7,11
8.74E+02,-8017,788,-461,-260,5,111,1,7,11
8.79E+02,-8021,509,-449,-314,-102,112,1,7,11
8.90E+02,-8056,469,-437,-329,273,127,1,7,11
9.04E+02,-7833,466,-457,-299,350,-109,1,7,11
9.21E+02,-7863,454,-485,5,150,-87,1,7,11
9.34E+02,-7911,459,-771,58,181,-68,1,7,11
9.41E+02,-7938,468,-804,112,190,-64,1,7,11
9.37E+02,-8218,493,-838,-103,167,-81,1,7,11
9.24E+02,-8236,778,-851,-86,368,-124,1,7,11
9.04E+02,-8270,803,-852,-114,246,105,1,7,11
8.79E+02,-8294,822,-822,58,-113,94,1,7,11
8.53E+02,-8291,828,-774,-266,26,105,1,7,11
8.31E+02,-8248,818,-486,-339,-328,121,1,7,11
8.18E+02,-7927,792,-461,-168,-134,117,1,7,11
8.16E+02,-7852,503,-426,-239,-137,91,1,7,11
8.22E+02,-8058,479,-407,-547,-341,51,1,7,11
8.28E+02,-8024,443,-396,-569,5,27,1,7,11
8.30E+02,-8014,416,-403,-551,123,26,1,7,11
8.28E+02,-8022,410,-418,-253,-1,49,1,7,11
8.27E+02,-8060,408,-444,-192,375,95,1,7,11
8.31E+02,-7840,421,-458,-367,198,-97,1,7,11
8.40E+02,-7909,439,-486,-280,236,-30,1,7,11
8.47E+02,-8224,460,-507,61,214,286,1,7,11
8.46E+02,-8259,488,-784,-115,146,317,1,7,11
8.33E+02,-8274,793,-794,-48,310,322,1,7,11
8.14E+02,-8267,843,-814,-15,-41,304,1,7,11
8.00E+02,-8241,641,-822,-21,-117,274,1,7,11
7.98E+02,-8193,673,-839,-63,86,-19,1,7,11
8.07E+02,-7898,690,-860,122,68,-71,1,7,11
8.20E+02,-7889,696,-857,21,81,123,1,7,11
8.34E+02,-7906,674,-836,-347,93,70,1,7,11
8.47E+02,-7925,880,-779,-192,83,26,1,7,11
8.61E+02,-7911,798,-470,-252,42,-266,1,7,11
8.78E+02,-7875,471,-413,-519,6,-309,1,7,11
8.98E+02,-7842,452,-400,-247,-261,-335,1,7,11
9.18E+02,-7811,451,-410,-217,14,-328,1,7,11
9.30E+02,-8057,460,-431,-182,78,-264,1,7,11
9.29E+02,-8058,471,-460,-156,-86,60,1,7,11
9.13E+02,-7831,484,-490,-384,302,122,1,7,11
8.91E+02,-7864,505,-776,-344,362,-73,1,7,11
8.74E+02,-7892,791,-799,-312,137,-23,1,7,11
8.68E+02,-7930,809,-815,-290,138,267,1,7,11
8.74E+02,-8222,821,-812,-259,360,288,1,7,11
8.88E+02,-8246,839,-820,35,294,283,1,7,11
9.06E+02,-8243,859,-814,69,-46,257,1,7,11
9.24E+02,-8230,888,-796,92,-121,-39,1,7,11
9.43E+02,-8201,655,-784,102,72,-84,1,7,11
9.60E+02,-7914,678,-780,98,33,127,1,7,11
9.76E+02,-7885,695,-780,63,26,89,1,7,11
9.89E+02,-7864,691,-775,2,40,60,1,7,11
9.95E+02,-7836,670,-493,-323,63,32,1,7,11
9.89E+02,-7827,879,-476,-379,96,-257,1,7,11
9.67E+02,-7831,822,-454,-152,-114,-288,1,7,11
9.32E+02,-7838,500,-450,-147,-67,-316,1,7,11
8.96E+02,-7838,439,-440,-371,-23,-338,1,7,11
8.68E+02,-7857,408,-447,-299,277,-349,1,7,11
8.58E+02,-7888,407,-479,36,306,-337,1,7,11
8.65E+02,-7911,425,-780,99,321,-310,1,7,11
8.85E+02,-8203,472,-828,-123,322,-273,1,7,11
9.13E+02,-8264,775,-840,119,298,33,1,7,11
9.44E+02,-8316,807,-821,67,-48,94,1,7,11
9.71E+02,-8293,805,-512,-282,-260,-76,1,7,11
9.83E+02,-8216,788,-477,-332,-374,-56,1,7,11
9.75E+02,-7886,773,-438,-359,-165,-85,1,7,11
9.46E+02,-7826,774,-409,-358,-150,-122,1,7,11
9.10E+02,-8039,792,-402,-358,-333,102,1,7,11
8.78E+02,-8018,804,-403,-367,28,98,1,7,11
8.63E+02,-8006,802,-422,-379,-116,102,1,7,11
8.60E+02,-8020,797,-445,-383,-6,96,1,7,11
8.64E+02,-8055,801,-480,-379,343,98,1,7,11
8.66E+02,-7859,824,-499,-363,154,113,1,7,11
8.66E+02,-7931,849,-777,-342,184,-99,1,7,11
8.64E+02,-8256,864,-772,-320,159,-28,1,7,11
8.62E+02,-8269,859,-771,-277,345,290,1,7,11
8.64E+02,-8260,862,-772,38,259,310,1,7,11
8.71E+02,-8227,883,-780,99,-69,286,1,7,11
8.83E+02,-7935,678,-778,-116,-114,-25,1,7,11
9.03E+02,-7926,691,-794,-112,116,-95,1,7,11
9.29E+02,-7897,697,-800,118,98,93,1,7,11
9.54E+02,-7882,683,-796,64,102,22,1,7,11
9.75E+02,-7870,661,-781,3,109,-311,1,7,11
9.90E+02,-7868,641,-508,-308,113,-340,1,7,11
1.00E+03,-7872,874,-496,-360,119,-341,1,7,11
1.00E+03,-7876,849,-481,-158,122,-313,1,7,11
1.00E+03,-7890,835,-469,-172,123,-270,1,7,11
9.98E+02,-7893,836,-461,-171,117,45,1,7,11
9.89E+02,-7890,838,-460,-167,113,98,1,7,11
9.76E+02,-7890,835,-461,-150,115,-120,1,7,11
9.61E+02,-7888,846,-461,-133,121,-101,1,7,11
9.42E+02,-7888,860,-463,-366,-125,-101,1,7,11
9.22E+02,-7894,870,-469,-353,-113,-115,1,7,11
9.02E+02,-7896,873,-479,-342,-105,116,1,7,11
8.86E+02,-7904,875,-481,-331,-100,80,1,7,11
8.75E+02,-7904,873,-482,-324,-98,48,1,7,11
8.69E+02,-7906,859,-476,-309,-101,17,1,7,11
8.67E+02,-7900,840,-468,-287,-106,-265,1,7,11
8.67E+02,-7892,827,-466,-263,-108,-290,1,7,11
8.70E+02,-7885,814,-463,11,-101,-315,1,7,11
8.74E+02,-7885,795,-457,21,-89,-335,1,7,11
8.78E+02,-7889,785,-456,22,-80,-343,1,7,11
8.83E+02,-7896,784,-460,19,-80,-340,1,7,11
8.90E+02,-7901,785,-454,2,-81,-322,1,7,11
9.00E+02,-7897,789,-450,-276,-86,-290,1,7,11
9.14E+02,-7890,783,-451,-302,-92,-261,1,7,11
9.30E+02,-7879,770,-448,-322,-88,12,1,7,11
9.46E+02,-7865,504,-466,-333,-75,25,1,7,11
9.63E+02,-7868,502,-477,-337,-48,27,1,7,11
9.78E+02,-7881,489,-483,-342,-15,26,1,7,11
9.88E+02,-7901,477,-495,-333,267,29,1,7,11
9.93E+02,-7925,472,-507,-313,274,34,1,7,11
9.89E+02,-7932,468,-778,-297,271,36,1,7,11
9.76E+02,-8204,474,-786,-286,256,36,1,7,11
9.56E+02,-8228,488,-785,-282,-32,40,1,7,11
9.30E+02,-8233,492,-780,-295,-80,60,1,7,11
9.00E+02,-8209,490,-507,-331,82,74,1,7,11
8.71E+02,-8196,491,-482,-356,30,79,1,7,11
8.49E+02,-7913,487,-455,-382,-264,82,1,7,11
8.41E+02,-7886,490,-429,-135,-277,87,1,7,11
8.47E+02,-7846,502,-410,-136,-266,109,1,7,11
8.63E+02,-7827,508,-407,-129,37,-126,1,7,11
8.79E+02,-8063,773,-418,-368,95,-101,1,7,11
8.89E+02,-8059,786,-439,-349,-89,-87,1,7,11
8.93E+02,-7850,808,-453,-342,-16,-91,1,7,11
8.92E+02,-7901,822,-462,-345,258,-92,1,7,11
8.88E+02,-7929,834,-478,-336,-18,-97,1,7,11
8.82E+02,-8194,848,-487,-325,-40,-97,1,7,11
8.76E+02,-7930,855,-495,-305,-60,-91,1,7,11
8.70E+02,-7916,861,-508,-275,-66,-85,1,7,11
8.63E+02,-7913,878,-769,15,-58,-80,1,7,11
8.56E+02,-7926,889,-511,43,-57,-77,1,7,11
8.48E+02,-7935,643,-508,73,-75,-87,1,7,11
8.42E+02,-7929,894,-499,92,-109,-112,1,7,11
8.36E+02,-7903,886,-484,100,106,104,1,7,11
8.30E+02,-7889,882,-487,101,77,53,1,7,11
8.24E+02,-7885,881,-475,82,61,10,1,7,11
8.17E+02,-7894,868,-480,50,56,-269,1,7,11
8.10E+02,-7894,844,-459,14,55,-269,1,7,11
8.03E+02,-7901,826,-457,-289,57,14,1,7,11
7.98E+02,-7887,816,-442,-304,61,43,1,7,11
7.94E+02,-7884,810,-433,-317,76,67,1,7,11
7.94E+02,-7878,804,-438,-333,82,88,1,7,11
7.95E+02,-7886,811,-449,-344,94,95,1,7,11
8.00E+02,-7921,827,-441,-358,107,108,1,7,11
8.05E+02,-8216,830,-420,-379,103,-124,1,7,11
8.13E+02,-8229,819,-390,-382,74,-95,1,7,11
8.25E+02,-8219,802,-619,-371,47,-82,1,7,11
8.43E+02,-8210,775,-592,-351,30,-96,1,7,11
8.66E+02,-7928,500,-572,-313,24,117,1,7,11
8.90E+02,-7898,505,-562,-267,36,59,1,7,11
9.13E+02,-7861,781,-569,25,71,20,1,7,11
9.30E+02,-7829,801,-601,39,-126,-258,1,7,11
9.40E+02,-7818,815,-622,31,-51,-257,1,7,11
9.41E+02,-7824,811,-395,13,281,11,1,7,11
9.33E+02,-7853,800,-409,-259,340,32,1,7,11
9.14E+02,-7882,781,-427,-271,367,56,1,7,11
8.83E+02,-7914,768,-436,-260,365,77,1,7,11
8.42E+02,-8207,510,-438,21,333,99,1,7,11
7.95E+02,-8243,770,-435,57,278,125,1,7,11
7.48E+02,-8251,807,-442,87,-48,-103,1,7,11
7.05E+02,-8247,851,-441,90,-115,-70,1,7,11
6.73E+02,-8232,894,-436,62,84,-35,1,7,11
6.54E+02,-8210,673,-416,13,40,-9,1,7,11
6.46E+02,-7925,684,-398,-301,15,257,1,7,11
6.44E+02,-7894,683,-390,-362,17,-8,1,7,11
6.46E+02,-7870,663,-626,-153,45,-32,1,7,11
6.49E+02,-7857,886,-624,-173,100,-74,1,7,11
6.53E+02,-7846,850,-603,-162,-87,-123,1,7,11
6.60E+02,-7858,813,-626,-380,-16,85,1,7,11
6.69E+02,-7874,798,-639,-331,301,47,1,7,11
6.81E+02,-7912,780,-394,-282,342,23,1,7,11
6.95E+02,-7920,778,-413,43,350,16,1,7,11
7.13E+02,-7929,792,-434,77,331,25,1,7,11
7.32E+02,-7926,823,-449,96,296,45,1,7,11
7.54E+02,-7931,862,-468,91,-2,80,1,7,11
7.75E+02,-7926,652,-455,59,-46,124,1,7,11
7.96E+02,-7915,691,-444,7,-94,-85,1,7,11
8.14E+02,-7905,722,-439,-303,-126,-44,1,7,11
8.27E+02,-7890,749,-432,-360,116,-15,1,7,11
8.33E+02,-7868,748,-440,-163,-126,-7,1,7,11
8.33E+02,-7844,725,-450,-215,-82,-31,1,7,11
8.27E+02,-7842,697,-475,-235,-11,-87,1,7,11
8.18E+02,-7852,677,-508,-241,322,97,1,7,11
8.06E+02,-7881,664,-793,-238,133,27,1,7,11
7.94E+02,-7928,895,-802,-229,166,-273,1,7,11
7.82E+02,-8243,870,-787,-205,134,-299,1,7,11
7.71E+02,-8291,834,-499,-166,291,-307,1,7,11
7.56E+02,-8067,809,-449,-358,-92,-293,1,7,11
7.38E+02,-8292,798,-409,-275,13,-263,1,7,11
7.20E+02,-8221,803,-632,63,-357,20,1,7,11
7.05E+02,-7901,816,-615,113,-141,32,1,7,11
6.93E+02,-7834,837,-604,-116,-135,36,1,7,11
6.85E+02,-8040,862,-614,-119,-332,27,1,7,11
6.78E+02,-8010,890,-640,92,25,14,1,7,11
6.71E+02,-7999,659,-422,12,-108,11,1,7,11
6.67E+02,-8008,661,-447,-347,277,14,1,7,11
6.68E+02,-8040,640,-471,-185,136,24,1,7,11
6.78E+02,-7834,868,-506,-247,219,42,1,7,11
6.94E+02,-7925,818,-499,-527,523,79,1,7,11
7.17E+02,-8230,782,-498,-252,233,112,1,7,11
7.42E+02,-8258,510,-503,-141,172,-122,1,7,11
7.65E+02,-8261,502,-780,-299,348,-113,1,7,11
7.84E+02,-8262,771,-790,50,271,124,1,7,11
7.99E+02,-8258,794,-798,112,-70,102,1,7,11
8.12E+02,-8247,823,-793,-118,113,78,1,7,11
8.22E+02,-8230,853,-779,-121,46,71,1,7,11
8.31E+02,-8204,861,-496,105,-269,69,1,7,11
8.41E+02,-7922,861,-459,69,-307,65,1,7,11
8.51E+02,-7888,856,-419,32,-330,70,1,7,11
8.61E+02,-7863,833,-640,-258,-324,70,1,7,11
8.74E+02,-7847,816,-600,-280,-304,70,1,7,11
8.88E+02,-7839,811,-590,-289,-266,64,1,7,11
9.05E+02,-7818,819,-601,-289,43,68,1,7,11
9.24E+02,-8045,838,-628,-289,-128,75,1,7,11
9.42E+02,-8045,858,-408,-305,-25,89,1,7,11
9.55E+02,-7810,876,-437,-326,335,112,1,7,11
9.64E+02,-7846,891,-466,-346,159,-116,1,7,11
9.67E+02,-7891,891,-481,-359,204,-80,1,7,11
9.66E+02,-8198,879,-497,-351,213,-46,1,7,11
9.61E+02,-8247,886,-505,-322,176,-20,1,7,11
9.53E+02,-8277,885,-496,-290,358,-16,1,7,11
9.42E+02,-8288,878,-480,-258,260,-32,1,7,11
9.29E+02,-8270,880,-464,37,-108,-70,1,7,11
9.12E+02,-8224,650,-457,69,52,-123,1,7,11
8.92E+02,-7915,684,-445,62,-266,83,1,7,11
8.69E+02,-7867,702,-440,14,-293,48,1,7,11
8.41E+02,-7821,708,-436,-310,-288,34,1,7,11
8.08E+02,-8048,694,-427,-134,10,28,1,7,11
7.69E+02,-8039,645,-426,-227,117,32,1,7,11
7.27E+02,-7813,860,-412,-248,-53,43,1,7,11
6.87E+02,-7848,827,-406,-231,272,74,1,7,11
6.60E+02,-7880,812,-411,-177,321,115,1,7,11
6.46E+02,-7923,812,-417,-350,352,-95,1,7,11
6.39E+02,-8193,837,-437,1,355,-55,1,7,11
6.34E+02,-8198,874,-458,87,342,-28,1,7,11
6.26E+02,-8199,673,-484,-110,321,-17,1,7,11
6.12E+02,-7934,727,-774,-92,291,-25,1,7,11
5.95E+02,-7919,766,-783,-110,-1,-48,1,7,11
5.88E+02,-7907,1043,-791,97,-31,-84,1,7,11
6.12E+02,-7896,1048,-792,32,-55,127,1,7,11
6.77E+02,-7882,1030,-788,-293,-71,81,1,7,11
7.56E+02,-7868,749,-771,-348,-81,37,1,7,11
8.18E+02,-7864,714,-495,-134,-82,1,1,7,11
8.34E+02,-7866,685,-486,-153,-82,-277,1,7,11
8.17E+02,-7868,663,-485,-152,-78,-279,1,7,11
7.90E+02,-7873,658,-501,-142,-66,-264,1,7,11
7.76E+02,-7879,646,-501,-137,-57,23,1,7,11
7.77E+02,-7878,877,-769,-129,-55,52,1,7,11
7.90E+02,-7880,842,-781,-363,-52,65,1,7,11
8.07E+02,-7889,826,-779,-326,-59,65,1,7,11
8.27E+02,-7930,816,-775,-275,-79,51,1,7,11
8.46E+02,-8193,808,-778,46,-117,50,1,7,11
8.62E+02,-7933,819,-789,123,108,64,1,7,11
8.72E+02,-7923,857,-811,-34,92,80,1,7,11
8.75E+02,-7933,651,-810,-2,102,95,1,7,11
8.73E+02,-8206,695,-787,-9,95,117,1,7,11
8.68E+02,-8212,717,-482,-58,57,-117,1,7,11
8.62E+02,-7927,712,-467,-115,-260,-115,1,7,11
8.56E+02,-7895,697,-444,81,-308,100,1,7,11
8.48E+02,-7855,675,-422,27,-328,39,1,7,11
8.39E+02,-7813,664,-412,-281,-308,-276,1,7,11
8.29E+02,-8059,654,-417,-341,12,-315,1,7,11
8.22E+02,-8056,884,-410,-140,89,-320,1,7,11
8.17E+02,-7821,832,-431,-172,-29,-275,1,7,11
8.15E+02,-7857,824,-449,-161,280,22,1,7,11
8.15E+02,-7882,837,-475,-138,309,76,1,7,11
8.17E+02,-7931,855,-487,-362,317,-118,1,7,11
8.24E+02,-8206,871,-499,-328,280,-52,1,7,11
8.37E+02,-8220,640,-504,-280,-30,-1,1,7,11
8.55E+02,-8226,672,-502,24,-86,287,1,7,11
8.75E+02,-8236,711,-505,66,109,299,1,7,11
8.92E+02,-8250,746,-481,92,41,289,1,7,11
9.04E+02,-8245,765,-446,102,-291,267,1,7,11
9.10E+02,-8210,754,-396,98,-364,-42,1,7,11
9.09E+02,-7912,727,-613,88,-151,127,1,7,11
9.00E+02,-7854,705,-600,84,-159,20,1,7,11
8.82E+02,-8045,685,-604,67,-380,-335,1,7,11
8.57E+02,-7996,678,-620,47,-287,-153,1,7,11
8.32E+02,-7989,681,-635,15,107,-183,1,7,11
8.14E+02,-8031,673,-637,-280,-9,-157,1,7,11
8.11E+02,-7825,662,-392,-303,347,-343,1,7,11
8.18E+02,-7876,640,-403,-315,144,-259,1,7,11
8.29E+02,-7926,878,-413,-306,151,61,1,7,11
8.34E+02,-8228,880,-421,-279,380,92,1,7,11
8.32E+02,-8241,895,-434,7,326,93,1,7,11
8.25E+02,-8223,666,-453,29,-5,80,1,7,11
8.16E+02,-7936,700,-478,31,-75,37,1,7,11
8.10E+02,-7922,730,-496,-257,-123,-257,1,7,11
8.07E+02,-7923,746,-498,-318,124,-286,1,7,11
8.08E+02,-8194,740,-484,-189,113,-302,1,7,11
8.13E+02,-8209,701,-450,-256,85,-307,1,7,11
8.20E+02,-8224,640,-396,-544,41,-314,1,7,11
8.30E+02,-8230,836,-602,-533,-266,-327,1,7,11
8.41E+02,-8213,784,-552,-222,-313,-341,1,7,11
8.53E+02,-7928,487,-518,-144,-339,-358,1,7,11
8.66E+02,-7900,471,-234,-314,-341,-370,1,7,11
8.77E+02,-7862,469,-233,19,-320,-376,1,7,11
8.90E+02,-7828,474,-242,77,-277,-378,1,7,11
9.03E+02,-8057,478,-524,101,42,-376,1,7,11
9.19E+02,-8045,479,-540,104,122,-369,1,7,11
9.36E+02,-8059,483,-561,101,-51,-347,1,7,11
9.53E+02,-7822,489,-588,102,288,-305,1,7,11
9.69E+02,-7850,497,-617,106,370,5,1,7,11
9.81E+02,-7885,488,-388,111,182,62,1,7,11
9.89E+02,-7917,476,-412,-127,234,107,1,7,11
9.92E+02,-8195,473,-438,-102,516,-123,1,7,11
9.93E+02,-8201,477,-464,-79,517,-120,1,7,11
9.91E+02,-8210,496,-498,-71,245,116,1,7,11
9.86E+02,-8218,788,-779,-84,216,93,1,7,11
9.79E+02,-8231,834,-805,122,178,76,1,7,11
9.71E+02,-8240,879,-816,33,382,79,1,7,11
9.61E+02,-8243,648,-804,-344,314,94,1,7,11
9.48E+02,-8250,650,-505,-224,-41,108,1,7,11
9.34E+02,-8228,877,-473,-614,100,111,1,7,11
9.19E+02,-7908,829,-454,-464,16,102,1,7,11
9.08E+02,-7857,787,-454,-791,3,80,1,7,11
9.06E+02,-7819,495,-458,-818,49,69,1,7,11
9.14E+02,-8057,470,-462,-794,-116,78,1,7,11
9.32E+02,-7812,459,-467,-479,-12,121,1,7,11
9.50E+02,-7855,460,-489,-637,322,-64,1,7,11
9.65E+02,-7877,471,-495,-243,356,271,1,7,11
9.75E+02,-7930,509,-505,-352,357,339,1,7,11
9.80E+02,-8242,822,-496,41,311,149,1,7,11
9.78E+02,-8299,644,-465,-100,-39,195,1,7,11
9.69E+02,-8075,680,-434,-11,75,221,1,7,11
9.56E+02,-8306,700,-426,318,-337,205,1,7,11
9.41E+02,-8230,752,-441,360,-197,147,1,7,11
9.25E+02,-7878,1100,-461,357,-230,322,1,7,11
9.09E+02,-8021,1151,-466,297,-178,-15,1,7,11
8.98E+02,-8037,913,-432,-63,-308,-86,1,7,11
8.91E+02,-7824,1147,-636,83,62,-123,1,7,11
8.87E+02,-7867,1097,-577,2,-115,125,1,7,11
8.84E+02,-7862,1032,-547,-292,-118,109,1,7,11
8.81E+02,-7839,722,-543,-277,-106,43,1,7,11
8.78E+02,-7818,695,-563,4,-66,-301,1,7,11
8.77E+02,-8055,688,-599,0,-5,-135,1,7,11
8.82E+02,-8055,691,-389,-291,319,-205,1,7,11
8.92E+02,-7827,696,-437,-365,377,-241,1,7,11
9.02E+02,-7871,683,-477,-222,150,-242,1,7,11
9.03E+02,-8219,856,-485,-412,141,-196,1,7,11
8.88E+02,-8261,779,-467,-491,346,-140,1,7,11
8.61E+02,-8262,437,-427,-490,272,-333,1,7,11
8.34E+02,-8210,620,-411,-423,-48,-270,1,7,11
8.21E+02,-7925,566,-402,-556,-60,29,1,7,11
8.28E+02,-7916,560,-407,-131,-41,76,1,7,11
8.49E+02,-7915,599,-441,51,-11,-120,1,7,11
8.74E+02,-7911,392,-476,-62,285,-61,1,7,11
8.94E+02,-7925,444,-509,295,317,-11,1,7,11
9.07E+02,-7933,490,-776,370,314,265,1,7,11
9.15E+02,-8206,805,-788,163,283,261,1,7,11
9.19E+02,-8214,881,-794,170,-34,-2,1,7,11
9.21E+02,-8206,689,-794,377,-106,-7,1,7,11
9.20E+02,-8200,733,-779,271,87,-11,1,7,11
9.14E+02,-7925,759,-493,-108,25,-14,1,7,11
9.05E+02,-7901,1034,-471,28,-272,-20,1,7,11
8.94E+02,-7867,1059,-458,-347,-286,-14,1,7,11
8.85E+02,-7821,1075,-453,-201,-263,257,1,7,11
8.77E+02,-8041,1076,-449,-551,63,268,1,7,11
8.69E+02,-8033,1060,-443,-619,-97,270,1,7,11
8.59E+02,-8050,1030,-435,-389,-11,258,1,7,11
8.47E+02,-7824,751,-431,-616,311,-22,1,7,11
8.35E+02,-7866,743,-436,-546,348,-44,1,7,11
8.24E+02,-7914,751,-439,-198,354,-62,1,7,11
8.14E+02,-8204,760,-444,-352,324,-74,1,7,11
8.06E+02,-8223,764,-454,3,267,-95,1,7,11
7.99E+02,-8223,1040,-459,94,-58,-127,1,7,11
7.94E+02,-8202,1062,-463,-107,-121,82,1,7,11
7.91E+02,-7912,1067,-463,-86,89,29,1,7,11
7.90E+02,-7866,1054,-457,-91,70,-286,1,7,11
7.91E+02,-7849,1038,-462,-114,81,-365,1,7,11
7.93E+02,-7829,751,-458,107,105,-151,1,7,11
7.97E+02,-7822,713,-451,67,-98,-185,1,7,11
8.02E+02,-7836,675,-460,3,-70,-213,1,7,11
8.08E+02,-7855,641,-467,-296,-68,-225,1,7,11
8.13E+02,-7870,872,-480,-328,-66,-213,1,7,11
8.18E+02,-7900,862,-488,-358,-53,-168,1,7,11
8.24E+02,-7925,850,-480,-381,-51,-342,1,7,11
8.29E+02,-7934,849,-483,-130,-54,7,1,7,11
8.35E+02,-7933,841,-472,-131,-59,85,1,7,11
8.43E+02,-7933,829,-466,-382,-67,127,1,7,11
8.50E+02,-8195,833,-469,-369,-81,-121,1,7,11
8.58E+02,-7936,844,-453,-364,-108,125,1,7,11
8.66E+02,-7932,853,-437,-378,120,107,1,7,11
8.73E+02,-7934,846,-423,-153,90,79,1,7,11
8.78E+02,-8198,833,-409,-189,62,52,1,7,11
8.81E+02,-8195,818,-389,-214,36,30,1,7,11
8.83E+02,-7925,825,-385,-226,30,22,1,7,11
8.82E+02,-7896,833,-635,-236,53,38,1,7,11
8.81E+02,-7865,835,-634,-242,106,73,1,7,11
8.79E+02,-7819,816,-387,-227,-89,114,1,7,11
8.77E+02,-7823,818,-400,-189,-15,-125,1,7,11
8.75E+02,-7852,829,-416,-136,275,-111,1,7,11
8.73E+02,-7908,848,-409,-341,285,-97,1,7,11
8.71E+02,-8220,861,-638,-293,-14,-52,1,7,11
8.68E+02,-8224,861,-613,20,-94,-13,1,7,11
8.66E+02,-7935,882,-606,89,92,257,1,7,11
8.64E+02,-7881,651,-616,-125,65,-19,1,7,11
8.61E+02,-7825,685,-627,-112,87,-54,1,7,11
8.58E+02,-8044,730,-392,126,-108,-91,1,7,11
8.55E+02,-8030,1035,-441,77,-22,-118,1,7,11
8.51E+02,-8046,1066,-475,-257,325,-125,1,7,11
8.47E+02,-7828,1076,-488,-347,145,-112,1,7,11
8.43E+02,-7877,1062,-493,-172,182,-84,1,7,11
8.39E+02,-7923,766,-486,-216,178,-58,1,7,11
8.35E+02,-8212,723,-472,-217,143,-49,1,7,11
8.32E+02,-8215,697,-475,-175,345,-58,1,7,11
8.29E+02,-8209,708,-491,-367,296,-88,1,7,11
8.25E+02,-8188,737,-497,-316,262,-125,1,7,11
8.22E+02,-7905,759,-772,-285,-16,69,1,7,11
8.18E+02,-7876,759,-786,-284,-32,22,1,7,11
8.12E+02,-7848,755,-803,-301,-32,-282,1,7,11
8.06E+02,-7836,745,-809,-339,-15,-319,1,7,11
7.99E+02,-7834,721,-809,-364,261,-331,1,7,11
7.94E+02,-7825,676,-810,-370,269,-320,1,7,11
7.90E+02,-7823,883,-821,-346,285,-311,1,7,11
7.88E+02,-7841,855,-837,-288,303,-292,1,7,11
7.87E+02,-7869,858,-844,41,318,-265,1,7,11
7.86E+02,-7906,874,-849,107,322,36,1,7,11
7.87E+02,-8196,641,-848,-92,301,90,1,7,11
7.88E+02,-8212,672,-847,-53,257,-118,1,7,11
7.89E+02,-8217,700,-844,-34,-56,-94,1,7,11
7.89E+02,-8214,728,-833,-45,-113,-100,1,7,11
7.90E+02,-8205,748,-810,-81,88,-123,1,7,11
7.91E+02,-7935,757,-781,109,42,84,1,7,11
7.91E+02,-7913,743,-496,28,5,27,1,7,11
7.91E+02,-7875,716,-479,-312,-273,-292,1,7,11
7.91E+02,-7833,693,-487,-382,-259,-344,1,7,11
7.91E+02,-8049,683,-509,-199,51,-375,1,7,11
7.90E+02,-8046,672,-512,-521,-124,-371,1,7,11
7.91E+02,-7811,642,-770,-565,-51,-328,1,7,11
7.91E+02,-7841,844,-774,-570,-4,-263,1,7,11
7.93E+02,-7872,822,-503,-527,270,61,1,7,11
7.96E+02,-7934,818,-495,-190,260,117,1,7,11
8.00E+02,-8247,824,-466,-342,-42,-88,1,7,11
8.06E+02,-8273,842,-459,25,120,-29,1,7,11
8.13E+02,-8258,883,-457,-121,-49,-12,1,7,11
8.23E+02,-8230,682,-452,-31,-373,-12,1,7,11
8.34E+02,-7929,725,-442,280,-152,-23,1,7,11
8.46E+02,-7877,764,-432,276,-147,-52,1,7,11
8.59E+02,-7838,1046,-416,263,-366,-95,1,7,11
8.70E+02,-8063,1054,-392,-71,-311,108,1,7,11
8.77E+02,-8044,1049,-631,122,11,57,1,7,11
8.79E+02,-8035,1037,-631,57,85,15,1,7,11
8.77E+02,-8052,765,-629,-272,-89,-277,1,7,11
8.73E+02,-7828,741,-632,-339,-24,-303,1,7,11
8.69E+02,-7851,710,-386,-140,275,-320,1,7,11
8.65E+02,-7866,681,-402,-183,306,-331,1,7,11
8.62E+02,-7864,663,-428,-211,334,-336,1,7,11
8.60E+02,-7869,642,-448,-228,371,-328,1,7,11
8.58E+02,-7862,885,-468,-230,151,-310,1,7,11
8.58E+02,-7878,875,-487,-222,182,-288,1,7,11
8.58E+02,-7894,860,-484,-196,184,-261,1,7,11
8.59E+02,-7914,855,-480,-142,162,13,1,7,11
8.63E+02,-8195,865,-488,-332,376,36,1,7,11
8.71E+02,-8199,890,-502,-262,311,64,1,7,11
8.81E+02,-7936,667,-783,45,263,72,1,7,11
8.88E+02,-7923,700,-804,57,-22,69,1,7,11
8.91E+02,-7915,715,-822,35,-37,47,1,7,11
8.85E+02,-7914,716,-816,-264,-45,15,1,7,11
8.74E+02,-7905,703,-816,-311,-62,-276,1,7,11
8.62E+02,-7900,677,-806,-356,-75,-306,1,7,11
8.55E+02,-7885,892,-788,-382,-84,-326,1,7,11
8.54E+02,-7874,857,-504,-379,-91,-333,1,7,11
8.59E+02,-7856,823,-488,-349,-87,-332,1,7,11
8.69E+02,-7847,802,-467,-301,-75,-324,1,7,11
8.85E+02,-7846,788,-467,11,-62,-313,1,7,11
9.03E+02,-7841,788,-476,62,-47,-301,1,7,11
9.17E+02,-7847,797,-492,99,-27,-292,1,7,11
9.24E+02,-7852,817,-778,115,-4,-281,1,7,11
9.21E+02,-7873,818,-798,105,279,-274,1,7,11
9.11E+02,-7890,808,-815,76,303,-270,1,7,11
8.96E+02,-7898,806,-828,40,319,-266,1,7,11
8.78E+02,-7907,800,-839,-272,331,-262,1,7,11
8.61E+02,-7913,802,-841,-304,328,6,1,7,11
8.50E+02,-7912,809,-850,-325,315,30,1,7,11
8.50E+02,-7906,824,-855,-348,296,58,1,7,11
8.60E+02,-7902,837,-862,-373,270,90,1,7,11
8.74E+02,-7892,845,-856,-142,-16,119,1,7,11
8.89E+02,-7876,849,-852,-164,-46,-118,1,7,11
8.97E+02,-7863,843,-850,-184,-70,-104,1,7,11
9.00E+02,-7851,842,-838,-193,-88,-96,1,7,11
9.00E+02,-7847,834,-825,-189,-92,-95,1,7,11
9.00E+02,-7848,826,-814,-173,-88,-94,1,7,11
9.00E+02,-7853,820,-807,-141,-74,-93,1,7,11
8.99E+02,-7863,822,-818,-357,-53,-96,1,7,11
8.94E+02,-7883,833,-830,-317,-31,-95,1,7,11
8.83E+02,-7904,848,-842,-281,-16,-95,1,7,11
8.68E+02,-7916,863,-845,-257,-13,-94,1,7,11
8.55E+02,-7921,877,-852,15,-24,-98,1,7,11
8.50E+02,-7909,888,-859,24,-44,-110,1,7,11
8.57E+02,-7895,888,-861,25,-63,127,1,7,11
8.69E+02,-7880,892,-871,26,-76,104,1,7,11
8.85E+02,-7875,644,-859,21,-88,89,1,7,11
8.98E+02,-7865,641,-848,6,-105,86,1,7,11
9.07E+02,-7850,641,-838,-263,-120,90,1,7,11
9.13E+02,-7852,642,-840,-282,-126,85,1,7,11
9.15E+02,-7881,891,-822,-307,104,76,1,7,11
9.12E+02,-7880,887,-810,-340,73,75,1,7,11
9.06E+02,-7877,877,-813,-354,66,83,1,7,11
8.96E+02,-7870,874,-805,-363,78,99,1,7,11
8.85E+02,-7867,875,-805,-360,108,125,1,7,11
8.74E+02,-7868,874,-803,-351,-108,-106,1,7,11
8.65E+02,-7874,876,-800,-339,-75,-84,1,7,11
8.58E+02,-7880,884,-797,-316,-62,-69,1,7,11
8.51E+02,-7876,640,-802,-290,-63,-66,1,7,11
8.45E+02,-7873,660,-816,-275,-69,-72,1,7,11
8.40E+02,-7872,673,-815,-267,-77,-84,1,7,11
8.34E+02,-7874,684,-818,-267,-90,-100,1,7,11
8.27E+02,-7882,688,-809,-264,-106,-116,1,7,11
8.20E+02,-7883,690,-804,-259,-121,124,1,7,11
8.14E+02,-7882,685,-806,-262,124,110,1,7,11
8.08E+02,-7875,689,-794,-265,124,99,1,7,11
8.03E+02,-7868,694,-795,-268,-123,95,1,7,11
7.98E+02,-7862,697,-808,-277,-103,86,1,7,11
7.95E+02,-7869,695,-805,-297,-91,81,1,7,11
7.95E+02,-7880,683,-796,-320,-82,73,1,7,11
7.97E+02,-7899,671,-786,-338,-84,70,1,7,11
8.04E+02,-7901,646,-779,-347,-104,75,1,7,11
8.14E+02,-7893,883,-775,-338,-119,77,1,7,11
8.30E+02,-7884,875,-499,-335,-128,68,1,7,11
8.51E+02,-7880,867,-479,-328,127,60,1,7,11
8.78E+02,-7871,875,-482,-315,-119,59,1,7,11
9.02E+02,-7851,882,-498,-312,-98,67,1,7,11
9.17E+02,-7829,890,-773,-325,-67,77,1,7,11
9.12E+02,-7815,895,-795,-341,-26,82,1,7,11
8.87E+02,-7821,654,-815,-358,270,86,1,7,11
8.50E+02,-7845,671,-836,-375,292,104,1,7,11
8.11E+02,-7881,683,-843,-142,294,-125,1,7,11
7.80E+02,-8198,676,-811,-158,272,-96,1,7,11
7.56E+02,-8228,668,-509,-149,-53,-55,1,7,11
7.40E+02,-8204,662,-501,-373,127,-44,1,7,11
7.31E+02,-7890,684,-504,-333,87,-63,1,7,11
7.27E+02,-7830,708,-769,-317,103,-113,1,7,11
7.26E+02,-8043,734,-787,-314,-94,89,1,7,11
7.26E+02,-8031,757,-812,-337,-11,45,1,7,11
7.29E+02,-8049,760,-831,-368,315,21,1,7,11
7.35E+02,-7820,738,-844,-141,341,22,1,7,11
7.44E+02,-7828,704,-868,-155,326,36,1,7,11
7.54E+02,-7836,651,-872,-141,308,43,1,7,11
7.58E+02,-7885,867,-862,-348,289,57,1,7,11
7.56E+02,-7888,843,-856,-258,-13,86,1,7,11
7.49E+02,-7891,856,-858,115,-40,118,1,7,11
7.40E+02,-7889,876,-872,-20,-50,-98,1,7,11
7.31E+02,-7881,675,-891,329,-48,-70,1,7,11
7.22E+02,-7883,734,-653,380,-39,-48,1,7,11
7.14E+02,-7890,1071,-650,375,-42,-43,1,7,11
7.06E+02,-7902,1101,-642,325,-59,-62,1,7,11
6.98E+02,-7883,1098,-890,-25,-101,-108,1,7,11
6.88E+02,-7862,1061,-875,106,112,13,1,7,11
6.78E+02,-7836,762,-867,-275,87,-350,1,7,11
6.66E+02,-8058,700,-866,-146,90,-190,1,7,11
6.56E+02,-8044,647,-879,-556,-120,-248,1,7,11
6.50E+02,-8052,862,-892,-629,-54,-249,1,7,11
6.51E+02,-7823,833,-896,-409,274,-192,1,7,11
6.61E+02,-7853,812,-657,-413,327,-342,1,7,11
6.76E+02,-7882,773,-660,-389,347,37,1,7,11
6.92E+02,-7924,471,-663,-566,346,-112,1,7,11
7.06E+02,-8217,458,-671,-172,304,-23,1,7,11
7.13E+02,-8234,480,-684,-275,-21,292,1,7,11
7.11E+02,-8246,774,-676,121,-101,330,1,7,11
7.02E+02,-8252,827,-658,-8,57,354,1,7,11
6.92E+02,-8232,884,-894,354,-313,363,1,7,11
6.86E+02,-8198,696,-872,177,-155,350,1,7,11
6.84E+02,-7897,760,-855,195,-230,323,1,7,11
6.88E+02,-7840,1063,-838,158,-534,291,1,7,11
6.93E+02,-8036,1101,-826,346,-539,-6,1,7,11
6.98E+02,-8009,1133,-805,-16,-244,-57,1,7,11
7.01E+02,-8034,1140,-510,109,-196,-98,1,7,11
7.04E+02,-7819,1120,-471,-274,-166,-121,1,7,11
7.07E+02,-7860,1079,-442,-382,-141,-122,1,7,11
7.11E+02,-7877,1027,-399,-204,-379,-114,1,7,11
7.14E+02,-7878,718,-629,-235,-348,-121,1,7,11
7.13E+02,-7893,694,-614,-236,-295,107,1,7,11
7.12E+02,-7911,687,-605,-225,15,82,1,7,11
7.13E+02,-7915,713,-610,-205,59,73,1,7,11
7.17E+02,-7890,742,-617,-191,91,92,1,7,11
7.26E+02,-7848,754,-632,-197,119,116,1,7,11
7.41E+02,-7825,741,-399,-193,-100,119,1,7,11
7.61E+02,-7827,741,-416,-163,-65,107,1,7,11
7.88E+02,-7849,746,-433,-367,-43,100,1,7,11
8.19E+02,-7867,754,-436,-296,-39,119,1,7,11
8.52E+02,-7887,1031,-430,40,-52,-97,1,7,11
8.82E+02,-7922,1049,-415,-125,-82,-50,1,7,11
9.05E+02,-8215,1075,-403,-28,123,-14,1,7,11
9.21E+02,-8227,1104,-630,310,50,261,1,7,11
9.30E+02,-8233,1123,-604,354,-279,-23,1,7,11
9.35E+02,-8210,1124,-577,357,-134,-78,1,7,11
9.38E+02,-7912,1131,-558,310,-174,109,1,7,11
9.41E+02,-7847,1131,-557,-9,-168,35,1,7,11
9.44E+02,-8046,1127,-572,-95,-357,-285,1,7,11
9.49E+02,-7995,1118,-599,58,21,-331,1,7,11
9.56E+02,-7984,1099,-613,-317,-83,-352,1,7,11
9.65E+02,-8001,1062,-625,-160,317,-348,1,7,11
9.75E+02,-8039,765,-640,-225,173,-329,1,7,11
9.85E+02,-7821,727,-395,-256,242,-299,1,7,11
9.93E+02,-7867,691,-399,-513,524,-272,1,7,11
9.96E+02,-7908,660,-412,-224,512,3,1,7,11
9.92E+02,-8194,651,-437,-168,218,8,1,7,11
9.75E+02,-8222,661,-451,-364,163,7,1,7,11
9.42E+02,-8237,680,-468,-316,354,10,1,7,11
8.96E+02,-8236,691,-485,-283,293,14,1,7,11
8.52E+02,-8209,708,-499,-264,-12,13,1,7,11
8.25E+02,-7922,714,-503,-257,-44,-257,1,7,11
8.26E+02,-7901,717,-503,-265,-57,-278,1,7,11
8.43E+02,-7894,713,-486,-283,-62,-301,1,7,11
8.59E+02,-7884,705,-475,-296,-69,-314,1,7,11
8.61E+02,-7869,695,-464,-306,-75,-320,1,7,11
8.47E+02,-7877,676,-446,-320,-68,-327,1,7,11
8.32E+02,-7881,651,-431,-331,-64,-327,1,7,11
8.28E+02,-7867,895,-427,-332,-57,-333,1,7,11
8.41E+02,-7847,641,-442,-332,-36,-338,1,7,11
8.59E+02,-7818,646,-469,-350,263,-344,1,7,11
8.72E+02,-8050,647,-498,-383,315,-346,1,7,11
8.71E+02,-8051,640,-795,-162,373,-346,1,7,11
8.59E+02,-7810,644,-827,-193,164,-343,1,7,11
8.50E+02,-7841,648,-865,-221,197,-330,1,7,11
8.56E+02,-7877,875,-864,-243,204,-294,1,7,11
8.80E+02,-8196,838,-847,-232,173,30,1,7,11
9.13E+02,-8203,801,-852,-173,367,64,1,7,11
9.45E+02,-7934,782,-879,-345,310,70,1,7,11
9.66E+02,-7916,810,-893,1,277,62,1,7,11
9.74E+02,-7909,866,-657,75,266,52,1,7,11
9.69E+02,-7917,662,-670,114,262,64,1,7,11
9.56E+02,-7919,701,-690,103,-19,103,1,7,11
9.35E+02,-7924,719,-676,60,-48,111,1,7,11
9.11E+02,-8199,703,-891,0,-98,99,1,7,11
8.91E+02,-8198,671,-849,-309,81,65,1,7,11
8.80E+02,-7925,640,-799,-344,4,12,1,7,11
8.81E+02,-7904,877,-509,-367,-311,-297,1,7,11
8.89E+02,-7881,867,-492,-132,-332,-334,1,7,11
8.98E+02,-7854,882,-487,-148,-319,-340,1,7,11
9.06E+02,-7810,647,-477,-171,-273,-315,1,7,11
9.06E+02,-8054,653,-474,-214,50,-269,1,7,11
8.97E+02,-7816,892,-486,-513,91,35,1,7,11
8.76E+02,-7817,884,-509,-522,92,69,1,7,11
8.43E+02,-7827,643,-792,-256,101,91,1,7,11
8.08E+02,-7860,663,-815,-248,115,-120,1,7,11
7.85E+02,-7915,668,-805,-223,107,-45,1,7,11
7.82E+02,-8238,661,-507,-164,64,305,1,7,11
7.95E+02,-8297,653,-443,-326,-292,144,1,7,11
8.19E+02,-8316,657,-631,62,-175,211,1,7,11
8.44E+02,-8304,675,-532,-48,-567,227,1,7,11
8.67E+02,-8281,700,-247,341,-417,198,1,7,11
8.86E+02,-8215,733,-199,200,-494,143,1,7,11
8.96E+02,-7869,1035,-195,530,-502,314,1,7,11
8.98E+02,-8031,1089,-210,549,-429,-40,1,7,11
8.94E+02,-7950,897,-247,249,-538,118,1,7,11
8.91E+02,-7654,953,-543,139,-330,24,1,7,11
8.92E+02,-7938,960,-537,-37,-107,-301,1,7,11
8.98E+02,-8008,913,-521,37,317,-333,1,7,11
9.01E+02,-7856,1087,-249,-374,161,-351,1,7,11
8.95E+02,-7886,729,-233,-233,187,-140,1,7,11
8.75E+02,-7919,889,-219,-553,199,-194,1,7,11
8.49E+02,-7914,828,-229,-563,200,-236,1,7,11
8.26E+02,-7888,801,-526,-530,220,-524,1,7,11
8.16E+02,-7866,789,-574,-520,523,-534,1,7,11
8.19E+02,-7848,782,-638,-537,582,-528,1,7,11
8.27E+02,-7842,770,-434,-569,385,-513,1,7,11
8.35E+02,-7842,495,-497,-607,427,-231,1,7,11
8.38E+02,-7844,492,-800,-636,454,-195,1,7,11
8.40E+02,-7849,491,-850,-401,470,-152,1,7,11
8.45E+02,-7880,490,-644,-411,481,-355,1,7,11
8.55E+02,-7931,483,-659,-401,467,-292,1,7,11
8.67E+02,-8258,480,-650,-616,419,44,1,7,11
8.76E+02,-8315,480,-890,-541,581,-121,1,7,11
8.77E+02,-8306,477,-643,-186,197,-34,1,7,11
8.69E+02,-8251,486,-655,-337,351,260,1,7,11
8.56E+02,-7933,503,-662,8,288,-12,1,7,11
8.42E+02,-7857,788,-693,79,-2,-70,1,7,11
8.30E+02,-8048,827,-741,114,263,113,1,7,11
8.22E+02,-8012,871,-1039,109,310,60,1,7,11
8.17E+02,-8002,656,-1079,74,367,44,1,7,11
8.15E+02,-8027,671,-1101,26,161,74,1,7,11
8.14E+02,-7810,674,-1103,-266,179,-115,1,7,11
8.11E+02,-7871,665,-1080,-273,160,-31,1,7,11
8.00E+02,-7933,658,-1056,10,354,307,1,7,11
7.84E+02,-8230,663,-762,65,-7,368,1,7,11
7.69E+02,-8257,677,-733,116,-128,128,1,7,11
7.60E+02,-8263,696,-706,-106,12,352,1,7,11
7.57E+02,-8248,728,-689,-89,-344,285,1,7,11
7.56E+02,-8196,1046,-707,-106,-157,-40,1,7,11
7.51E+02,-7865,1106,-718,86,-172,-96,1,7,11
7.40E+02,-7821,1150,-695,-275,-379,-128,1,7,11
7.24E+02,-7816,1130,-658,-378,-326,-123,1,7,11
7.04E+02,-7826,1092,-878,-177,-297,-87,1,7,11
6.81E+02,-7831,1043,-826,-181,-303,-67,1,7,11
6.57E+02,-7841,721,-510,-144,-330,-70,1,7,11
6.32E+02,-7865,660,-452,-248,-374,-98,1,7,11
6.09E+02,-7883,884,-414,-99,-170,121,1,7,11
5.89E+02,-7879,887,-399,-17,-219,79,1,7,11
5.73E+02,-7868,663,-396,177,-240,41,1,7,11
5.65E+02,-7848,711,-422,235,-236,31,1,7,11
5.66E+02,-7833,746,-439,238,-199,35,1,7,11
5.77E+02,-7824,761,-450,177,-140,50,1,7,11
6.01E+02,-7835,1024,-437,362,-328,63,1,7,11
6.36E+02,-7873,751,-405,285,-285,72,1,7,11
6.80E+02,-7893,723,-627,-24,-278,81,1,7,11
7.32E+02,-7897,696,-612,-46,-274,79,1,7,11
7.85E+02,-7888,677,-603,-43,-262,67,1,7,11
8.37E+02,-7872,675,-608,-29,25,39,1,7,11
8.80E+02,-7869,689,-616,-30,77,-258,1,7,11
9.10E+02,-7879,692,-627,-67,124,-296,1,7,11
9.28E+02,-7888,697,-634,-119,-104,-326,1,7,11
9.37E+02,-7890,690,-632,67,-93,-350,1,7,11
9.39E+02,-7885,671,-393,-265,-86,-363,1,7,11
9.35E+02,-7874,641,-410,-339,-72,-368,1,7,11
9.28E+02,-7877,865,-413,-148,-49,-363,1,7,11
9.20E+02,-7890,827,-417,-186,-27,-347,1,7,11
9.12E+02,-7903,787,-400,-189,-12,-325,1,7,11
9.04E+02,-7915,502,-392,-163,-11,-295,1,7,11
8.94E+02,-7918,489,-394,-369,-15,-264,1,7,11
8.82E+02,-7922,490,-395,-308,-18,26,1,7,11
8.66E+02,-7915,768,-403,7,-26,62,1,7,11
8.49E+02,-7919,787,-415,49,-35,89,1,7,11
8.39E+02,-7904,810,-420,73,-54,111,1,7,11
8.40E+02,-7901,833,-427,83,-66,117,1,7,11
8.51E+02,-7892,855,-432,76,-76,117,1,7,11
8.64E+02,-7876,877,-440,57,-75,111,1,7,11
8.70E+02,-7868,642,-449,24,-60,111,1,7,11
8.64E+02,-7864,647,-458,-281,-36,107,1,7,11
8.50E+02,-7878,648,-464,-329,-11,98,1,7,11
8.34E+02,-7891,895,-476,-366,261,93,1,7,11
8.22E+02,-7901,892,-474,-136,265,88,1,7,11
8.17E+02,-7906,888,-480,-156,262,86,1,7,11
8.14E+02,-7911,880,-491,-160,260,82,1,7,11
8.13E+02,-7910,876,-494,-150,-1,79,1,7,11
8.10E+02,-7911,875,-493,-140,-12,81,1,7,11
8.07E+02,-7907,876,-492,-381,-23,79,1,7,11
8.03E+02,-7907,884,-485,-363,-38,75,1,7,11
7.98E+02,-7900,883,-474,-350,-58,71,1,7,11
7.95E+02,-7881,883,-461,-328,-76,67,1,7,11
7.96E+02,-7874,879,-459,-297,-82,68,1,7,11
8.02E+02,-7862,882,-476,-265,-69,71,1,7,11
8.13E+02,-7864,878,-487,4,-38,60,1,7,11
8.31E+02,-7879,869,-505,8,-2,41,1,7,11
8.53E+02,-7888,856,-794,6,280,18,1,7,11
8.78E+02,-7900,832,-826,-265,292,-264,1,7,11
9.03E+02,-7900,820,-857,-278,294,-283,1,7,11
9.25E+02,-7903,809,-870,-298,292,-304,1,7,11
9.41E+02,-7910,806,-872,-312,284,-298,1,7,11
9.52E+02,-7923,803,-852,-313,265,-267,1,7,11
9.60E+02,-8206,808,-820,-299,-57,45,1,7,11
9.65E+02,-8224,824,-785,-245,122,118,1,7,11
9.69E+02,-8224,866,-501,56,39,-64,1,7,11
9.73E+02,-8211,660,-487,77,-287,-6,1,7,11
9.76E+02,-7933,705,-470,58,-338,285,1,7,11
9.79E+02,-7894,737,-460,6,-367,285,1,7,11
9.82E+02,-7852,763,-452,-323,-369,-3,1,7,11
9.84E+02,-7822,1028,-451,-152,-335,-52,1,7,11
9.86E+02,-8050,766,-452,-239,-271,-104,1,7,11
9.88E+02,-8028,741,-454,-565,76,108,1,7,11
9.90E+02,-8033,707,-459,-605,-67,74,1,7,11
9.92E+02,-8049,661,-469,-606,291,56,1,7,11
9.96E+02,-7851,857,-484,-554,135,45,1,7,11
1.00E+03,-7873,846,-484,-208,147,45,1,7,11
1.01E+03,-7910,849,-493,-341,149,51,1,7,11
1.02E+03,-8241,872,-491,36,360,71,1,7,11
1.01E+03,-8292,641,-489,-113,-17,114,1,7,11
9.96E+02,-8287,675,-508,-24,84,-100,1,7,11
9.63E+02,-8258,729,-784,276,-291,-78,1,7,11
9.23E+02,-8231,1025,-794,259,-368,-74,1,7,11
8.90E+02,-8209,1065,-496,-49,-155,-77,1,7,11
8.76E+02,-8193,1064,-446,-122,-167,-83,1,7,11
8.82E+02,-7923,1038,-387,52,-169,-89,1,7,11
8.97E+02,-7900,746,-599,-272,-160,-111,1,7,11
9.08E+02,-7867,702,-563,-342,-135,104,1,7,11
9.05E+02,-7842,669,-538,-378,-343,49,1,7,11
8.91E+02,-7828,641,-254,-149,-279,-267,1,7,11
8.80E+02,-7829,870,-249,-167,37,-317,1,7,11
8.80E+02,-7834,842,-513,-181,94,-350,1,7,11
8.95E+02,-7830,800,-528,-193,-111,-365,1,7,11
9.14E+02,-7826,504,-545,-189,-50,-371,1,7,11
9.22E+02,-7831,472,-575,-166,280,-369,1,7,11
9.09E+02,-7839,452,-588,-378,352,-349,1,7,11
8.77E+02,-7888,447,-606,-327,159,-315,1,7,11
8.39E+02,-7914,449,-613,-258,187,-259,1,7,11
8.10E+02,-8196,472,-628,82,195,52,1,7,11
7.95E+02,-8202,511,-395,-100,185,106,1,7,11
7.87E+02,-8195,810,-432,-48,162,-116,1,7,11
7.77E+02,-7924,865,-472,-24,138,-108,1,7,11
7.61E+02,-7910,671,-503,-47,374,-119,1,7,11
7.45E+02,-7917,723,-772,-115,355,115,1,7,11
7.33E+02,-7922,755,-773,44,318,103,1,7,11
7.32E+02,-7902,761,-778,-325,278,96,1,7,11
7.43E+02,-7872,733,-784,-236,262,61,1,7,11
7.71E+02,-7866,700,-772,-578,264,37,1,7,11
8.13E+02,-7864,662,-775,-635,272,19,1,7,11
8.52E+02,-7863,890,-784,-408,283,18,1,7,11
8.71E+02,-7880,862,-795,-419,291,23,1,7,11
8.56E+02,-7912,839,-788,-410,284,41,1,7,11
8.21E+02,-8197,824,-780,-636,-6,77,1,7,11
7.90E+02,-8237,803,-492,-593,-64,124,1,7,11
7.89E+02,-8262,792,-457,-525,99,-65,1,7,11
8.18E+02,-8246,782,-427,-179,-261,-3,1,7,11
8.56E+02,-8213,775,-400,-330,-336,292,1,7,11
8.85E+02,-7903,790,-638,36,-373,302,1,7,11
8.91E+02,-7853,819,-630,-116,-360,291,1,7,11
8.83E+02,-7811,863,-631,-31,-307,275,1,7,11
8.72E+02,-8048,659,-639,283,28,264,1,7,11
8.71E+02,-8043,713,-401,313,118,259,1,7,11
8.81E+02,-8056,750,-414,311,-49,-4,1,7,11
8.96E+02,-7815,1038,-434,282,284,-20,1,7,11
9.10E+02,-7826,1058,-461,-20,349,-50,1,7,11
9.18E+02,-7844,1081,-477,-78,141,-90,1,7,11
9.21E+02,-7864,1090,-488,107,174,121,1,7,11
9.22E+02,-7882,1089,-511,28,189,77,1,7,11
9.23E+02,-7889,1079,-792,-311,194,35,1,7,11
9.26E+02,-7888,1053,-825,-138,197,-260,1,7,11
9.28E+02,-7876,740,-878,-214,205,-296,1,7,11
9.28E+02,-7857,703,-652,-536,221,-330,1,7,11
9.23E+02,-7858,684,-668,-582,242,-358,1,7,11
9.15E+02,-7901,670,-680,-610,250,-361,1,7,11
9.04E+02,-8198,667,-663,-622,198,-315,1,7,11
8.94E+02,-8240,661,-888,-609,366,16,1,7,11
8.86E+02,-8280,895,-838,-573,-23,100,1,7,11
8.82E+02,-8264,865,-805,-518,58,-90,1,7,11
8.81E+02,-8227,836,-777,-180,-341,-68,1,7,11
8.82E+02,-7922,823,-501,-341,-164,-71,1,7,11
8.85E+02,-7883,825,-479,11,-183,-84,1,7,11
8.85E+02,-8046,888,-504,-77,-324,-91,1,7,11
8.79E+02,-8047,660,-780,-44,41,-97,1,7,11
8.65E+02,-7817,688,-792,-25,126,-94,1,7,11
8.49E+02,-7848,722,-793,-14,-92,-87,1,7,11
8.38E+02,-7881,760,-783,-12,-94,-65,1,7,11
8.41E+02,-7911,1061,-510,-24,126,-33,1,7,11
8.54E+02,-7928,1096,-488,-43,63,-1,1,7,11
8.71E+02,-7925,1128,-462,-71,-266,277,1,7,11
8.82E+02,-7913,909,-441,-106,-319,285,1,7,11
8.82E+02,-7888,941,-423,97,-345,276,1,7,11
8.75E+02,-7868,968,-412,29,-332,-7,1,7,11
8.69E+02,-7826,982,-426,-309,-292,-47,1,7,11
8.70E+02,-8059,984,-427,-153,46,-111,1,7,11
8.79E+02,-7812,944,-418,-521,-122,73,1,7,11
8.92E+02,-7827,1145,-415,-599,-45,-260,1,7,11
9.07E+02,-7842,1099,-438,-388,270,-331,1,7,11
9.21E+02,-7854,1038,-447,-409,318,-378,1,7,11
9.32E+02,-7861,720,-468,-392,349,-148,1,7,11
9.41E+02,-7858,654,-489,-606,366,-161,1,7,11
9.47E+02,-7876,851,-769,-538,379,-170,1,7,11
9.51E+02,-7908,798,-773,-190,370,-176,1,7,11
9.52E+02,-8208,509,-498,-335,329,-169,1,7,11
9.52E+02,-8244,497,-465,38,-5,-140,1,7,11
9.52E+02,-8263,487,-427,-106,-116,-357,1,7,11
9.51E+02,-8250,496,-394,-4,19,-314,1,7,11
9.48E+02,-8212,784,-386,317,-327,-288,1,7,11
9.41E+02,-7916,827,-388,324,-368,-276,1,7,11
9.28E+02,-7872,866,-391,279,-373,-262,1,7,11
9.13E+02,-7830,651,-396,-64,-339,8,1,7,11
9.01E+02,-8035,678,-408,75,-275,35,1,7,11
8.99E+02,-8001,700,-433,-303,82,70,1,7,11
9.09E+02,-8014,709,-435,-171,-46,113,1,7,11
9.25E+02,-8062,696,-432,-527,326,-82,1,7,11
9.41E+02,-7907,664,-410,-578,143,-13,1,7,11
9.48E+02,-8228,888,-397,-580,166,326,1,7,11
9.43E+02,-8238,859,-385,-536,131,350,1,7,11
9.31E+02,-8235,855,-387,-195,301,318,1,7,11
9.18E+02,-8196,864,-413,-312,-3,-3,1,7,11
9.12E+02,-7886,647,-452,23,-23,-91,1,7,11
9.10E+02,-7840,708,-507,55,-10,81,1,7,11
9.09E+02,-7833,1024,-802,31,286,25,1,7,11
9.02E+02,-7856,1050,-805,-303,307,15,1,7,11
8.85E+02,-7895,1032,-780,-145,291,35,1,7,11
8.66E+02,-7913,728,-489,-212,-25,72,1,7,11
8.52E+02,-7900,682,-462,-228,-90,103,1,7,11
8.53E+02,-7879,658,-443,-202,-119,-123,1,7,11
8.68E+02,-7839,652,-443,-154,-105,-86,1,7,11
8.90E+02,-7812,665,-469,-344,-42,-51,1,7,11
9.13E+02,-8061,701,-510,-273,300,-23,1,7,11
9.30E+02,-7829,737,-805,33,379,-7,1,7,11
9.39E+02,-7877,1028,-836,61,165,-4,1,7,11
9.39E+02,-8194,1055,-831,71,155,-16,1,7,11
9.28E+02,-8227,1073,-831,62,329,-34,1,7,11
9.09E+02,-8198,1083,-831,40,-43,-77,1,7,11
8.88E+02,-7899,1106,-831,5,123,117,1,7,11
8.74E+02,-7868,1128,-828,-309,71,73,1,7,11
8.73E+02,-7854,1142,-820,-384,51,60,1,7,11
8.85E+02,-7823,1144,-816,-195,55,93,1,7,11
9.07E+02,-7817,1129,-821,-238,105,-116,1,7,11
9.33E+02,-7839,1103,-800,-252,-100,-57,1,7,11
9.58E+02,-7854,1076,-774,-215,-70,-6,1,7,11
9.79E+02,-7880,1057,-484,-144,-54,269,1,7,11
9.88E+02,-7896,1047,-462,-299,-68,260,1,7,11
9.81E+02,-7891,1064,-456,72,-95,-41,1,7,11
9.55E+02,-7879,1109,-461,-88,-111,-98,1,7,11
9.21E+02,-7848,908,-497,-36,-111,112,1,7,11
8.91E+02,-7826,958,-809,-35,-81,70,1,7,11
8.77E+02,-7833,966,-827,-95,-34,30,1,7,11
8.81E+02,-7873,909,-848,79,256,-270,1,7,11
8.95E+02,-7899,1106,-867,0,-5,-325,1,7,11
9.10E+02,-7922,1037,-865,-340,-33,-183,1,7,11
9.18E+02,-8213,722,-847,-157,-103,-235,1,7,11
9.21E+02,-8208,672,-814,-217,77,-240,1,7,11
9.22E+02,-8212,651,-506,-226,6,-198,1,7,11
9.25E+02,-7920,875,-458,-218,-325,-360,1,7,11
9.30E+02,-7878,841,-414,-176,-366,-267,1,7,11
9.34E+02,-7846,829,-389,-361,-370,75,1,7,11
9.29E+02,-8064,839,-633,-269,-333,-122,1,7,11
9.10E+02,-8044,874,-632,77,-260,-84,1,7,11
8.80E+02,-8046,652,-391,-115,87,-56,1,7,11
8.52E+02,-7820,691,-408,-67,-84,-46,1,7,11
8.38E+02,-7856,743,-423,-30,-28,-55,1,7,11
8.48E+02,-7887,1050,-443,-21,-2,-71,1,7,11
8.71E+02,-7896,1094,-468,-42,256,-90,1,7,11
8.97E+02,-7902,1123,-484,-92,-4,-118,1,7,11
9.16E+02,-7908,1136,-491,92,-14,103,1,7,11
9.24E+02,-7908,1125,-495,18,-31,62,1,7,11
9.22E+02,-7902,1085,-498,-327,-69,4,1,7,11
9.15E+02,-7897,1054,-491,-371,-91,-282,1,7,11
9.03E+02,-7884,1024,-483,-143,-110,-293,1,7,11
8.90E+02,-7882,745,-474,-150,-124,-292,1,7,11
8.75E+02,-7874,719,-461,-138,119,-277,1,7,11
8.61E+02,-7874,699,-445,-369,112,-259,1,7,11
8.49E+02,-7871,687,-445,-333,108,25,1,7,11
8.43E+02,-7869,677,-444,-296,104,48,1,7,11
8.48E+02,-7864,681,-436,-257,109,61,1,7,11
8.66E+02,-7862,684,-446,30,113,67,1,7,11
8.91E+02,-7869,691,-454,45,122,65,1,7,11
9.14E+02,-7881,701,-459,53,-123,61,1,7,11
9.29E+02,-7887,699,-467,52,-111,63,1,7,11
9.31E+02,-7879,701,-481,53,-100,78,1,7,11
9.20E+02,-7881,708,-493,55,-77,90,1,7,11
9.00E+02,-7894,714,-497,55,-52,100,1,7,11
8.72E+02,-7916,725,-479,55,-48,113,1,7,11
8.42E+02,-8200,754,-451,58,-65,124,1,7,11
8.20E+02,-8193,766,-431,57,121,-112,1,7,11
8.13E+02,-7887,765,-438,44,96,127,1,7,11
8.22E+02,-7839,1029,-460,16,82,75,1,7,11
8.40E+02,-7809,1037,-489,-284,123,5,1,7,11
8.61E+02,-7810,1049,-509,-141,-68,-303,1,7,11
8.77E+02,-7843,1048,-772,-226,-10,-301,1,7,11
8.85E+02,-7871,765,-501,-539,270,6,1,7,11
8.82E+02,-7908,728,-476,-557,271,70,1,7,11
8.66E+02,-8198,675,-450,-521,-20,-115,1,7,11
8.39E+02,-8198,640,-424,-171,-83,-70,1,7,11
8.14E+02,-8205,887,-412,-306,120,-59,1,7,11
8.02E+02,-8236,657,-390,67,63,-65,1,7,11
8.07E+02,-8234,704,-637,-90,-278,-73,1,7,11
8.23E+02,-8195,1027,-389,-32,-334,-83,1,7,11
8.42E+02,-7882,1094,-414,-32,-335,-102,1,7,11
8.60E+02,-7822,1142,-426,-91,-301,127,1,7,11
8.74E+02,-8051,907,-432,72,21,93,1,7,11
8.86E+02,-8052,903,-426,-297,90,59,1,7,11
8.97E+02,-8059,1126,-411,-130,-110,34,1,7,11
9.04E+02,-7823,1093,-387,-190,-67,17,1,7,11
9.03E+02,-7843,1057,-627,-209,-34,19,1,7,11
8.87E+02,-7860,1032,-636,-197,-1,27,1,7,11
8.52E+02,-7877,762,-638,-176,282,34,1,7,11
8.11E+02,-7912,748,-389,-143,295,35,1,7,11
7.83E+02,-7936,754,-418,-359,281,28,1,7,11
7.85E+02,-8193,767,-435,-332,256,14,1,7,11
8.13E+02,-7932,765,-446,-324,-25,1,1,7,11
8.49E+02,-7911,746,-447,-321,-51,-263,1,7,11
8.74E+02,-7884,704,-426,-313,-65,-281,1,7,11
8.79E+02,-7872,645,-394,-288,-75,-304,1,7,11
8.72E+02,-7852,852,-628,29,-85,-326,1,7,11
8.64E+02,-7840,841,-633,113,-79,-341,1,7,11
8.66E+02,-7840,845,-399,-78,-51,-338,1,7,11
8.74E+02,-7845,868,-433,-48,-5,-321,1,7,11
8.80E+02,-7867,892,-470,-58,292,-292,1,7,11
8.76E+02,-7897,651,-484,-109,317,-263,1,7,11
8.60E+02,-7928,650,-485,91,308,19,1,7,11
8.41E+02,-8198,654,-503,42,277,46,1,7,11
8.28E+02,-7933,653,-777,-268,-10,83,1,7,11
8.29E+02,-7909,643,-501,-328,-22,112,1,7,11
8.43E+02,-7905,875,-464,-371,-33,-106,1,7,11
8.64E+02,-7898,879,-424,-351,-66,-76,1,7,11
8.88E+02,-7879,643,-425,-308,-94,-28,1,7,11
9.10E+02,-7856,685,-448,-272,-93,270,1,7,11
9.21E+02,-7842,725,-474,-258,-68,296,1,7,11
9.15E+02,-7842,749,-495,-268,-33,300,1,7,11
8.86E+02,-7841,760,-781,-293,-6,285,1,7,11
8.45E+02,-7860,762,-805,-324,270,-15,1,7,11
8.10E+02,-7894,764,-800,-346,265,-64,1,7,11
7.99E+02,-7929,1031,-788,-356,-25,-95,1,7,11
8.11E+02,-8212,1050,-509,-352,-79,-82,1,7,11
8.31E+02,-8215,1067,-470,-342,112,-40,1,7,11
8.44E+02,-7929,1066,-437,-329,48,264,1,7,11
8.42E+02,-7888,1066,-433,-314,10,271,1,7,11
8.33E+02,-7854,1080,-427,-310,12,-25,1,7,11
8.28E+02,-7823,1093,-425,-326,43,-80,1,7,11
8.36E+02,-8059,1102,-422,-354,93,122,1,7,11
8.48E+02,-8046,1099,-423,-129,-97,97,1,7,11
8.54E+02,-8040,1088,-433,-153,-28,90,1,7,11
8.42E+02,-8046,1080,-449,-155,295,100,1,7,11
8.15E+02,-7816,1084,-465,-140,356,120,1,7,11
7.89E+02,-7851,1095,-488,-372,142,-98,1,7,11
7.82E+02,-7902,1111,-491,-342,156,-50,1,7,11
7.98E+02,-8195,1124,-484,-300,382,-4,1,7,11
8.25E+02,-8211,1139,-490,8,320,283,1,7,11
8.50E+02,-7936,897,-497,49,-6,275,1,7,11
8.63E+02,-7914,903,-504,79,-53,-29,1,7,11
8.65E+02,-7885,929,-793,101,-77,-99,1,7,11
8.60E+02,-7860,942,-810,82,-68,71,1,7,11
8.53E+02,-7823,919,-823,30,-38,5,1,7,11
8.47E+02,-7834,1149,-812,-284,-2,-342,1,7,11
8.43E+02,-7886,1112,-791,-347,262,-383,1,7,11
8.41E+02,-7915,1067,-493,-146,-86,-138,1,7,11
8.44E+02,-7912,764,-446,-180,75,-380,1,7,11
8.49E+02,-7881,718,-417,-179,-267,-355,1,7,11
8.56E+02,-7829,682,-418,-169,-313,-332,1,7,11
8.64E+02,-8056,669,-433,-166,-290,-329,1,7,11
8.73E+02,-8062,682,-456,-184,37,-321,1,7,11
8.82E+02,-7818,703,-494,-223,126,-301,1,7,11
8.93E+02,-7834,723,-786,-538,-33,-257,1,7,11
9.02E+02,-7861,715,-816,-602,315,53,1,7,11
9.07E+02,-7904,693,-828,-633,131,109,1,7,11
9.02E+02,-8215,671,-817,-614,162,-97,1,7,11
8.83E+02,-8267,648,-780,-547,138,-45,1,7,11
8.55E+02,-8268,641,-482,-179,310,263,1,7,11
8.30E+02,-8241,657,-449,-287,-50,288,1,7,11
8.21E+02,-8206,704,-435,110,113,282,1,7,11
8.32E+02,-7890,1035,-441,-41,40,265,1,7,11
8.51E+02,-7855,1119,-455,258,15,-24,1,7,11
8.67E+02,-7816,928,-469,-26,4,-40,1,7,11
8.71E+02,-8033,959,-475,-100,25,-65,1,7,11
8.65E+02,-8025,965,-470,67,76,-93,1,7,11
8.57E+02,-8034,955,-471,-268,-125,-111,1,7,11
8.56E+02,-8056,945,-467,-315,-62,-122,1,7,11
8.63E+02,-7833,939,-473,-342,-3,-109,1,7,11
8.71E+02,-7859,934,-477,-349,298,-84,1,7,11
8.72E+02,-7884,933,-490,-337,324,-66,1,7,11
8.61E+02,-7912,942,-497,-321,323,-67,1,7,11
8.43E+02,-7925,949,-777,-304,298,-86,1,7,11
8.29E+02,-7934,959,-781,-295,257,-123,1,7,11
8.28E+02,-7926,955,-786,-295,-52,90,1,7,11
8.40E+02,-7907,941,-775,-303,-102,47,1,7,11
8.57E+02,-7884,915,-504,-309,112,8,1,7,11
8.74E+02,-7863,1137,-475,-308,88,-288,1,7,11
8.86E+02,-7847,1100,-453,-296,80,-319,1,7,11
8.93E+02,-7837,1063,-448,-274,85,-334,1,7,11
8.97E+02,-7834,1056,-445,6,111,-328,1,7,11
9.00E+02,-7836,1047,-450,16,-118,-309,1,7,11
9.01E+02,-7844,1045,-462,8,-93,-284,1,7,11
8.99E+02,-7855,1039,-460,-260,-75,-263,1,7,11
8.90E+02,-7864,1046,-465,-280,-61,14,1,7,11
8.75E+02,-7867,1036,-463,-302,-49,36,1,7,11
8.60E+02,-7867,766,-466,-311,-43,52,1,7,11
8.52E+02,-7864,762,-470,-306,-32,61,1,7,11
8.58E+02,-7862,764,-461,-290,-22,65,1,7,11
8.77E+02,-7858,1028,-463,-273,-13,70,1,7,11
8.99E+02,-7858,1041,-465,-259,-2,70,1,7,11
9.14E+02,-7859,1054,-476,-257,260,72,1,7,11
9.15E+02,-7851,1062,-491,-265,265,65,1,7,11
9.03E+02,-7849,1071,-771,-285,273,55,1,7,11
8.84E+02,-7858,1072,-782,-313,283,45,1,7,11
8.65E+02,-7874,1064,-795,-345,293,37,1,7,11
8.48E+02,-7881,1049,-805,-369,300,36,1,7,11
8.36E+02,-7881,1029,-816,-132,302,38,1,7,11
8.28E+02,-7878,754,-821,-129,299,43,1,7,11
8.26E+02,-7871,741,-824,-366,294,49,1,7,11
8.29E+02,-7878,739,-828,-341,288,60,1,7,11
8.38E+02,-7881,741,-832,-321,270,72,1,7,11
8.53E+02,-7873,746,-838,-310,-20,95,1,7,11
8.68E+02,-7868,761,-826,-301,-62,114,1,7,11
8.75E+02,-7872,1026,-811,-291,-104,-124,1,7,11
8.67E+02,-7880,1043,-794,-283,93,-106,1,7,11
8.44E+02,-7871,1054,-792,-275,40,-80,1,7,11
8.17E+02,-7854,1065,-777,-263,24,-53,1,7,11
8.00E+02,-7832,1083,-773,6,33,-32,1,7,11
8.03E+02,-7823,1114,-511,25,73,-26,1,7,11
8.16E+02,-7826,1149,-773,33,-128,-28,1,7,11
8.30E+02,-7845,938,-774,22,-80,-32,1,7,11
8.34E+02,-7849,966,-794,-263,-48,-40,1,7,11
8.29E+02,-7845,979,-807,-306,-33,-74,1,7,11
8.24E+02,-7843,965,-804,-359,-20,-112,1,7,11
8.25E+02,-7846,945,-806,-151,-11,104,1,7,11
8.34E+02,-7855,919,-804,-185,-17,67,1,7,11
8.41E+02,-7858,1150,-798,-177,-33,43,1,7,11
8.38E+02,-7863,1132,-793,-148,-52,31,1,7,11
8.19E+02,-7863,1122,-794,-364,-69,25,1,7,11
7.94E+02,-7864,1115,-796,-327,-79,25,1,7,11
7.78E+02,-7861,1118,-790,-294,-86,29,1,7,11
7.80E+02,-7875,1115,-785,-276,-101,32,1,7,11
7.95E+02,-7862,1114,-775,-258,-126,31,1,7,11
8.14E+02,-7853,1119,-776,6,124,29,1,7,11
8.29E+02,-7849,1109,-771,-262,123,31,1,7,11
8.37E+02,-7846,1086,-512,-265,-122,25,1,7,11
8.41E+02,-7844,1074,-506,-259,-100,13,1,7,11
8.43E+02,-7857,1065,-500,5,-76,-257,1,7,11
8.45E+02,-7875,1070,-492,21,-62,-260,1,7,11
8.44E+02,-7879,1088,-500,35,-62,4,1,7,11
8.37E+02,-7871,1109,-772,31,-66,19,1,7,11
8.25E+02,-7860,1134,-788,4,-65,36,1,7,11
8.11E+02,-7859,1141,-797,-296,-64,45,1,7,11
8.01E+02,-7856,1143,-783,-344,-70,47,1,7,11
8.01E+02,-7850,1132,-787,-139,-76,41,1,7,11
8.11E+02,-7838,1112,-775,-175,-79,31,1,7,11
8.29E+02,-7833,1073,-777,-188,-77,15,1,7,11
8.52E+02,-7833,1044,-769,-170,-63,0,1,7,11
8.75E+02,-7851,1033,-512,-364,-45,2,1,7,11
8.93E+02,-7870,1039,-511,-307,-35,18,1,7,11
8.99E+02,-7884,1045,-770,-261,-38,38,1,7,11
8.90E+02,-7883,1052,-779,35,-51,46,1,7,11
8.70E+02,-7881,1074,-792,53,-62,37,1,7,11
8.45E+02,-7878,1096,-809,50,-67,18,1,7,11
8.24E+02,-7879,1113,-805,15,-67,6,1,7,11
8.10E+02,-7869,1095,-783,-333,-85,6,1,7,11
8.04E+02,-7863,1073,-773,-367,-98,-258,1,7,11
8.04E+02,-7859,1047,-508,-132,-106,-267,1,7,11
8.10E+02,-7851,763,-503,-141,-106,-280,1,7,11
8.19E+02,-7840,746,-507,-144,-99,-291,1,7,11
8.26E+02,-7816,734,-785,-141,-79,-297,1,7,11
8.31E+02,-8060,734,-816,-135,-51,-290,1,7,11
8.29E+02,-8060,741,-845,-130,-11,-278,1,7,11
8.20E+02,-7845,753,-859,-129,276,8,1,7,11
8.02E+02,-7907,757,-843,-382,286,59,1,7,11
7.81E+02,-8195,752,-816,-358,-9,123,1,7,11
7.67E+02,-8213,744,-785,-306,-65,-79,1,7,11
7.69E+02,-8203,736,-502,16,126,-54,1,7,11
7.83E+02,-7901,742,-494,92,79,-74,1,7,11
8.00E+02,-7849,1024,-491,-93,74,-128,1,7,11
8.09E+02,-8052,1068,-503,-42,102,75,1,7,11
8.06E+02,-8021,1120,-801,-31,-86,33,1,7,11
8.00E+02,-8010,1149,-868,-66,256,16,1,7,11
8.00E+02,-8025,1149,-641,-126,336,7,1,7,11
8.11E+02,-8056,1120,-663,74,383,2,1,7,11
8.23E+02,-7889,1085,-656,32,134,-265,1,7,11
8.26E+02,-8200,1057,-896,19,345,-268,1,7,11
8.13E+02,-8263,1040,-861,21,-58,-274,1,7,11
7.93E+02,-8275,1033,-843,37,35,-264,1,7,11
7.80E+02,-8237,1038,-824,37,-366,1,1,7,11
7.89E+02,-7928,1055,-810,18,-190,12,1,7,11
8.13E+02,-7869,1070,-794,-278,-215,26,1,7,11
8.38E+02,-8064,1076,-781,-329,-187,41,1,7,11
8.52E+02,-8019,1068,-770,-129,-372,53,1,7,11
8.51E+02,-8006,1046,-487,-168,-280,62,1,7,11
8.45E+02,-8021,763,-465,-171,67,72,1,7,11
8.45E+02,-8047,739,-454,-135,-112,86,1,7,11
8.59E+02,-7829,723,-443,-319,-59,100,1,7,11
8.78E+02,-7866,721,-447,30,-36,110,1,7,11
8.89E+02,-7899,741,-464,-127,-35,107,1,7,11
8.80E+02,-7924,1031,-492,-58,-55,84,1,7,11
8.52E+02,-7930,1069,-781,-32,-86,48,1,7,11
8.21E+02,-7928,1098,-798,-58,-115,-257,1,7,11
8.07E+02,-7904,1104,-815,-125,119,-307,1,7,11
8.16E+02,-7872,1099,-822,42,113,-356,1,7,11
8.39E+02,-7865,1077,-812,-318,120,-140,1,7,11
8.60E+02,-7858,1024,-795,-158,120,-158,1,7,11
8.68E+02,-7864,711,-506,-215,114,-151,1,7,11
8.64E+02,-7869,655,-474,-228,97,-380,1,7,11
8.58E+02,-7868,862,-447,-200,79,-346,1,7,11
8.57E+02,-7875,835,-431,-142,65,-310,1,7,11
8.65E+02,-7882,836,-415,-332,57,-276,1,7,11
8.73E+02,-7884,858,-416,-272,53,13,1,7,11
8.75E+02,-7893,867,-409,23,59,36,1,7,11
8.64E+02,-7897,883,-413,39,64,52,1,7,11
8.45E+02,-7893,891,-415,39,73,51,1,7,11
8.26E+02,-7884,642,-420,28,84,40,1,7,11
8.17E+02,-7871,641,-430,5,104,30,1,7,11
8.19E+02,-7861,895,-437,-276,-115,27,1,7,11
8.24E+02,-7854,881,-453,-302,-77,35,1,7,11
8.27E+02,-7858,880,-475,-312,-37,46,1,7,11
8.23E+02,-7885,894,-486,-310,263,73,1,7,11
8.16E+02,-7907,653,-501,-303,267,107,1,7,11
8.10E+02,-8196,678,-494,-302,-2,-102,1,7,11
8.08E+02,-8223,687,-480,-296,-40,-48,1,7,11
8.06E+02,-8218,693,-456,-279,-95,-9,1,7,11
8.01E+02,-8201,700,-439,-261,112,259,1,7,11
7.91E+02,-7909,707,-415,7,70,-16,1,7,11
7.80E+02,-7860,717,-409,19,50,-61,1,7,11
7.72E+02,-7820,740,-413,18,65,-110,1,7,11
7.74E+02,-8035,764,-440,0,118,107,1,7,11
7.84E+02,-8025,1033,-476,-288,-49,88,1,7,11
7.97E+02,-8036,1029,-494,-328,303,102,1,7,11
8.11E+02,-8061,757,-775,-349,132,-123,1,7,11
8.22E+02,-7840,739,-795,-342,185,-85,1,7,11
8.35E+02,-7889,725,-810,-302,205,-59,1,7,11
8.50E+02,-8209,735,-811,19,177,-35,1,7,11
8.69E+02,-8264,765,-808,79,353,-12,1,7,11
8.85E+02,-8291,1056,-787,124,-24,263,1,7,11
8.92E+02,-8269,1086,-782,-108,89,266,1,7,11
8.83E+02,-8218,1128,-772,-117,-283,-21,1,7,11
8.64E+02,-7907,906,-769,81,-352,-69,1,7,11
8.44E+02,-7851,919,-495,-260,-374,-120,1,7,11
8.37E+02,-8060,915,-485,-355,-345,94,1,7,11
8.49E+02,-8023,1145,-467,-191,-289,65,1,7,11
8.70E+02,-7999,1102,-457,-242,47,42,1,7,11
8.92E+02,-8011,1061,-442,-252,-112,32,1,7,11
9.05E+02,-8064,1031,-440,-224,-35,35,1,7,11
9.05E+02,-7884,758,-445,-171,-12,48,1,7,11
8.93E+02,-8195,750,-458,-349,-27,63,1,7,11
8.71E+02,-8251,753,-459,-265,-64,70,1,7,11
8.41E+02,-8248,1031,-465,76,-128,61,1,7,11
8.12E+02,-8230,1058,-449,-78,43,29,1,7,11
7.89E+02,-8204,1079,-436,-60,0,-259,1,7,11
7.80E+02,-7923,1100,-414,-50,-285,-300,1,7,11
7.81E+02,-7875,1107,-400,-88,-309,-336,1,7,11
7.87E+02,-7821,1100,-392,112,-306,-379,1,7,11
7.93E+02,-8045,1074,-639,35,-266,-174,1,7,11
8.00E+02,-8034,1034,-633,-299,43,-218,1,7,11
8.08E+02,-8044,739,-625,-356,99,-242,1,7,11
8.21E+02,-8052,701,-630,-139,-103,-242,1,7,11
8.34E+02,-7821,668,-635,-158,-49,-223,1,7,11
8.41E+02,-7859,892,-385,-160,259,-189,1,7,11
8.32E+02,-7890,870,-402,-138,293,-144,1,7,11
8.06E+02,-7925,866,-415,-358,315,-364,1,7,11
7.75E+02,-8213,862,-428,-328,303,-328,1,7,11
7.49E+02,-8228,861,-432,-298,273,-303,1,7,11
7.36E+02,-8237,873,-427,-277,-22,-288,1,7,11
7.32E+02,-8213,876,-418,-263,-75,-284,1,7,11
7.32E+02,-8201,883,-419,7,-122,-290,1,7,11
7.32E+02,-7913,890,-421,17,111,-307,1,7,11
7.32E+02,-7873,881,-418,10,120,-333,1,7,11
7.30E+02,-7859,861,-437,-261,-108,-373,1,7,11
7.27E+02,-7851,846,-453,-268,-54,-143,1,7,11
7.22E+02,-7854,831,-477,-281,-7,-166,1,7,11
7.17E+02,-7888,824,-487,-304,289,-175,1,7,11
7.12E+02,-7920,819,-475,-321,299,-160,1,7,11
7.09E+02,-8226,826,-455,-334,271,-372,1,7,11
7.10E+02,-8236,820,-433,-338,-56,-298,1,7,11
7.14E+02,-8217,830,-420,-339,-122,19,1,7,11
7.21E+02,-7921,834,-415,-340,89,61,1,7,11
7.27E+02,-7872,842,-427,-347,79,85,1,7,11
7.33E+02,-7840,856,-429,-369,108,92,1,7,11
7.39E+02,-7823,856,-446,-137,-97,96,1,7,11
7.47E+02,-7827,860,-450,-145,-36,97,1,7,11
7.53E+02,-7851,867,-451,-144,274,108,1,7,11
7.56E+02,-7877,866,-457,-379,310,-124,1,7,11
7.53E+02,-7901,864,-462,-342,328,-97,1,7,11
7.47E+02,-7930,873,-465,-290,326,-74,1,7,11
7.44E+02,-8203,893,-468,20,303,-61,1,7,11
7.50E+02,-8216,668,-469,64,259,-60,1,7,11
7.64E+02,-8215,696,-480,87,-46,-75,1,7,11
7.83E+02,-8199,721,-489,85,-90,-108,1,7,11
8.07E+02,-7920,735,-490,54,-121,108,1,7,11
8.31E+02,-7899,736,-474,4,125,61,1,7,11
8.57E+02,-7875,683,-458,-306,127,13,1,7,11
8.82E+02,-7855,891,-450,-360,-94,-312,1,7,11
9.06E+02,-7863,849,-449,-363,-53,-348,1,7,11
9.21E+02,-7882,815,-439,-354,-18,-366,1,7,11
9.22E+02,-7899,794,-436,-334,-2,-362,1,7,11
9.01E+02,-7903,778,-432,-306,-4,-340,1,7,11
8.64E+02,-7899,770,-435,-278,-21,-299,1,7,11
8.26E+02,-7894,511,-453,0,-28,-261,1,7,11
8.03E+02,-7900,776,-477,19,-18,25,1,7,11
8.05E+02,-7903,774,-494,20,-6,49,1,7,11
8.21E+02,-7901,770,-511,9,259,66,1,7,11
8.40E+02,-7908,768,-778,-262,264,69,1,7,11
8.51E+02,-7934,775,-774,-278,-7,65,1,7,11
8.53E+02,-8217,779,-509,-293,-63,64,1,7,11
8.50E+02,-8217,790,-505,-303,-126,79,1,7,11
8.43E+02,-8204,809,-499,-316,81,108,1,7,11
8.36E+02,-7915,821,-490,-315,50,-105,1,7,11
8.30E+02,-7886,845,-483,-310,56,-73,1,7,11
8.29E+02,-7871,870,-474,-318,84,-49,1,7,11
8.33E+02,-7864,891,-483,-333,110,-36,1,7,11
8.40E+02,-7865,649,-483,-342,-127,-36,1,7,11
8.50E+02,-7860,660,-487,-349,-112,-45,1,7,11
8.60E+02,-7859,658,-493,-354,-99,-59,1,7,11
8.69E+02,-7861,661,-491,-345,-78,-80,1,7,11
8.76E+02,-7888,662,-487,-329,-59,-99,1,7,11
8.83E+02,-7932,660,-485,-302,-59,-114,1,7,11
8.86E+02,-8203,666,-487,-271,-72,-127,1,7,11
8.87E+02,-8211,663,-487,7,-100,111,1,7,11
8.84E+02,-8187,656,-479,17,-126,80,1,7,11
8.77E+02,-7908,653,-471,14,108,12,1,7,11
8.68E+02,-7897,893,-466,-265,87,-287,1,7,11
8.65E+02,-7871,881,-465,-310,81,-312,1,7,11
8.72E+02,-7848,877,-470,-321,86,-317,1,7,11
8.92E+02,-7840,864,-482,-347,127,-288,1,7,11
9.16E+02,-7853,846,-471,-360,-92,16,1,7,11
9.34E+02,-7887,833,-467,-340,-65,77,1,7,11
9.39E+02,-7932,823,-455,-300,-66,-121,1,7,11
9.28E+02,-8225,826,-434,16,-103,-80,1,7,11
9.09E+02,-8243,841,-418,86,93,-63,1,7,11
8.92E+02,-8233,877,-405,-118,32,-61,1,7,11
