timestamp,ax,ay,az,gx,gy,gz,Label1,Label2,Label3
1.27E+00,-8485,-260,1012,2448,-1113,-460,1,7,11
1.52E+00,-8177,-277,1294,2571,-1085,-418,1,7,11
1.77E+00,-8138,10,1344,2198,-1030,-601,1,7,11
2.02E+00,-8084,-266,1344,2317,-681,-227,1,7,11
2.27E+00,-8136,-338,1405,1968,-813,-171,1,7,11
2.52E+00,-8172,-331,1179,1981,-488,-145,1,7,11
2.77E+00,-8456,-330,1224,1979,-413,-331,1,7,11
3.02E+00,-8469,-326,1253,1980,-631,-278,1,7,11
3.27E+00,-8184,-301,1243,1959,-612,30,1,7,11
3.52E+00,-8183,-281,1273,2151,-567,71,1,7,11
3.77E+00,-8521,-266,1579,2052,-525,-107,1,7,11
4.02E+00,-8492,-282,1603,1893,-553,-59,1,7,11
4.27E+00,-8493,-268,1615,1524,-553,-40,1,7,11
4.52E+00,-8507,-267,1650,1423,-563,-11,1,7,11
4.77E+00,-8464,37,1648,1598,-602,-1,1,7,11
5.02E+00,-8456,96,1409,1196,-590,306,1,7,11
5.27E+00,-8484,-121,1444,996,-554,135,1,7,11
5.52E+00,-8519,125,1503,762,-545,250,1,7,11
5.77E+00,-8506,114,1805,808,-571,606,1,7,11
6.02E+00,-8486,120,1849,626,-610,413,1,7,11
6.27E+00,-8462,122,1891,202,-386,459,1,7,11
6.52E+00,-8467,-83,1670,290,-409,771,1,7,11
6.77E+00,-8480,-71,1701,51,-433,646,1,7,11
7.02E+00,-8454,51,1771,-253,-465,741,1,7,11
7.27E+00,-8167,-309,2095,-418,-785,679,1,7,11
7.52E+00,-8120,11,2092,-639,-855,827,1,7,11
7.77E+00,-8116,0,2145,-569,-844,475,1,7,11
8.02E+00,-8157,-325,1984,-180,-845,579,1,7,11
8.27E+00,-8453,-343,2024,60,-686,145,1,7,11
8.52E+00,-8473,-356,2305,316,-1054,-35,1,7,11
8.77E+00,-8184,-290,2023,597,-918,80,1,7,11
9.02E+00,-8186,100,1952,830,-974,48,1,7,11
9.27E+00,-8168,-35,2156,684,-962,-99,1,7,11
9.52E+00,-8192,-9,2159,725,-915,290,1,7,11
9.77E+00,-8189,317,2161,1058,-899,137,1,7,11
1.00E+01,-8114,237,2146,1106,-1136,533,1,7,11
1.03E+01,-8534,515,1937,705,-750,486,1,7,11
1.05E+01,-8514,568,1953,690,-1071,894,1,7,11
1.08E+01,-8518,538,1999,820,-1104,693,1,7,11
1.10E+01,-8186,575,2025,457,-941,659,1,7,11
1.13E+01,-8153,402,2316,562,-1001,847,1,7,11
1.15E+01,-8148,494,2318,319,-1302,818,1,7,11
1.18E+01,-8078,511,2331,-289,-1351,793,1,7,11
1.20E+01,-7927,440,2386,-490,-1339,438,1,7,11
1.23E+01,-7830,561,2234,-915,-1024,178,1,7,11
1.25E+01,-8000,199,2587,-1195,-986,37,1,7,11
1.28E+01,-7977,224,2643,-1571,-912,-605,1,7,11
1.30E+01,-7984,205,2439,-1420,-1026,-828,1,7,11
1.33E+01,-7978,169,2489,-1448,-833,-895,1,7,11
1.35E+01,-7953,381,2513,-1631,-579,-843,1,7,11
1.38E+01,-7957,333,2518,-1223,-261,-459,1,7,11
1.40E+01,-7618,377,2477,-975,320,-523,1,7,11
1.43E+01,-8044,335,2460,-1092,773,21,1,7,11
1.45E+01,-8044,321,2652,-837,1053,-11,1,7,11
1.48E+01,-7834,301,2591,-413,1354,129,1,7,11
1.50E+01,-8201,291,2574,-545,1596,196,1,7,11
1.53E+01,-8263,304,2265,-175,1476,195,1,7,11
1.55E+01,-8119,305,2259,-153,1807,168,1,7,11
1.58E+01,-8458,298,2266,-152,1501,356,1,7,11
1.60E+01,-8525,334,2217,-131,1626,259,1,7,11
1.63E+01,-8329,131,2421,-132,1211,-53,1,7,11
1.65E+01,-8362,131,2362,-150,1285,-85,1,7,11
1.68E+01,-8344,150,2315,-159,1090,-110,1,7,11
1.70E+01,-8344,156,2013,-190,668,-117,1,7,11
1.73E+01,-8571,131,1986,-189,486,117,1,7,11
1.75E+01,-8516,380,1927,-151,572,58,1,7,11
1.78E+01,-8523,382,2167,-359,199,28,1,7,11
1.80E+01,-8507,376,2141,-283,340,4,1,7,11
1.83E+01,-8491,370,2121,55,-8,-273,1,7,11
1.85E+01,-8476,361,2112,-120,-75,-289,1,7,11
1.88E+01,-8187,343,2089,-37,121,-296,1,7,11
1.90E+01,-8159,335,2078,306,83,-324,1,7,11
1.93E+01,-8141,314,2081,367,73,-364,1,7,11
1.95E+01,-8093,331,1790,185,37,-214,1,7,11
1.98E+01,-8092,380,1784,523,79,-251,1,7,11
2.00E+01,-8073,139,1776,516,-127,-251,1,7,11
2.03E+01,-8314,148,1784,239,-72,-237,1,7,11
2.05E+01,-8102,158,1766,160,278,-206,1,7,11
2.08E+01,-8116,383,1777,380,307,-178,1,7,11
2.10E+01,-8081,133,1750,362,341,-215,1,7,11
2.13E+01,-8134,376,1784,286,149,-209,1,7,11
2.15E+01,-8143,359,1787,-43,153,-197,1,7,11
2.18E+01,-8146,357,1774,-128,171,-171,1,7,11
2.20E+01,-8172,358,1772,30,189,-373,1,7,11
2.23E+01,-8181,349,1764,-318,195,-291,1,7,11
2.25E+01,-8474,352,1773,-169,211,79,1,7,11
2.28E+01,-8532,333,2067,-562,205,-23,1,7,11
2.30E+01,-8367,316,2115,-432,143,131,1,7,11
2.33E+01,-8378,155,2054,-452,-13,592,1,7,11
2.35E+01,-8373,342,1781,-486,127,779,1,7,11
2.38E+01,-8360,324,1773,-633,5,824,1,7,11
2.40E+01,-8386,348,1762,-249,-138,831,1,7,11
2.43E+01,-8375,381,1768,-156,-556,854,1,7,11
2.45E+01,-8336,173,1761,-370,-459,895,1,7,11
2.48E+01,-8535,174,1753,-159,-842,681,1,7,11
2.50E+01,-8464,183,1784,-219,-660,691,1,7,11
2.53E+01,-8165,236,2058,-521,-681,685,1,7,11
2.55E+01,-8109,541,2094,-566,-666,696,1,7,11
2.58E+01,-8073,616,2124,-593,-868,715,1,7,11
2.60E+01,-8295,416,2166,-608,-786,762,1,7,11
2.63E+01,-8265,481,1931,-611,-429,1073,1,7,11
2.65E+01,-8218,781,1949,-604,-563,1125,1,7,11
2.68E+01,-7910,785,1947,-626,-163,910,1,7,11
2.70E+01,-7837,769,1950,-415,-261,901,1,7,11
2.73E+01,-7862,780,1976,-458,-71,1073,1,7,11
2.75E+01,-7910,808,2009,-488,363,655,1,7,11
2.78E+01,-8198,837,2030,-501,249,852,1,7,11
2.80E+01,-8228,858,2027,-494,597,491,1,7,11
2.83E+01,-8273,860,2305,-506,424,427,1,7,11
2.85E+01,-8317,847,2318,-771,468,392,1,7,11
2.88E+01,-8084,842,2047,-502,486,612,1,7,11
2.90E+01,-8111,856,2041,-462,479,565,1,7,11
2.93E+01,-8142,865,2014,-412,459,516,1,7,11
2.95E+01,-8155,878,1989,-608,415,212,1,7,11
2.98E+01,-8181,867,1973,-544,614,374,1,7,11
3.00E+01,-8191,859,1970,-225,548,283,1,7,11
3.03E+01,-8462,862,1937,-132,206,-76,1,7,11
3.05E+01,-8465,871,2173,-292,375,83,1,7,11
3.08E+01,-8472,891,2154,58,284,-260,1,7,11
3.10E+01,-8464,662,2136,-108,-96,-306,1,7,11
3.13E+01,-8455,675,2103,-34,93,-312,1,7,11
3.15E+01,-8181,673,2094,294,45,-304,1,7,11
3.18E+01,-8164,892,2084,329,7,-308,1,7,11
3.20E+01,-8146,871,2088,375,-274,-345,1,7,11
3.23E+01,-8138,867,2096,168,-298,-132,1,7,11
3.25E+01,-8140,883,2112,221,-324,-179,1,7,11
3.28E+01,-8145,658,2102,512,-352,-203,1,7,11
3.30E+01,-8135,663,2094,243,-367,-190,1,7,11
3.33E+01,-8107,885,2092,208,-367,-184,1,7,11
3.35E+01,-8104,860,2091,195,-351,-212,1,7,11
3.38E+01,-8099,862,2101,200,-339,-248,1,7,11
3.40E+01,-8110,847,2123,218,-324,-541,1,7,11
3.43E+01,-8120,848,2126,249,-318,-564,1,7,11
3.45E+01,-8097,865,2109,539,-319,-556,1,7,11
3.48E+01,-8116,891,2097,547,-297,-248,1,7,11
3.50E+01,-8112,894,2092,533,-283,-165,1,7,11
3.53E+01,-8108,894,2083,517,-268,-340,1,7,11
3.55E+01,-8130,845,2098,220,-265,-265,1,7,11
3.58E+01,-8142,488,2116,226,-294,-270,1,7,11
3.60E+01,-8173,483,2112,583,-348,-372,1,7,11
3.63E+01,-8174,500,2112,426,-143,-183,1,7,11
3.65E+01,-8143,434,2132,769,-180,-528,1,7,11
3.68E+01,-8163,399,2169,859,-218,-421,1,7,11
3.70E+01,-8141,596,1949,667,-557,-835,1,7,11
3.73E+01,-8123,555,1963,1039,-385,-768,1,7,11
3.75E+01,-8137,230,2007,903,-437,-978,1,7,11
3.78E+01,-8147,198,2038,1318,-509,-1191,1,7,11
3.80E+01,-8121,183,2322,1207,-852,-1602,1,7,11
3.83E+01,-8085,138,2344,1557,-668,-1449,1,7,11
3.85E+01,-8266,319,2353,1647,-735,-1817,1,7,11
3.88E+01,-8231,-27,2420,1466,-758,-1723,1,7,11
3.90E+01,-8317,108,2587,1813,-754,-2157,1,7,11
3.93E+01,-8293,83,2440,1788,-1101,-2319,1,7,11
3.95E+01,-8225,84,2551,1990,-908,-2421,1,7,11
3.98E+01,-7811,81,2701,2366,-932,-2206,1,7,11
4.00E+01,-7633,110,2764,2415,-1119,-2241,1,7,11
4.03E+01,-7726,-73,3107,2420,-672,-2270,1,7,11
4.05E+01,-7385,256,3137,2312,-600,-2251,1,7,11
4.08E+01,-7385,-45,3155,1754,91,-2415,1,7,11
4.10E+01,-7634,41,2949,1613,552,-2308,1,7,11
4.13E+01,-8260,-140,3167,1311,874,-2154,1,7,11
4.15E+01,-8396,-445,2698,1059,1040,-1709,1,7,11
4.18E+01,-8763,-819,2901,812,1128,-1841,1,7,11
4.20E+01,-9033,-1030,2856,426,1113,-1526,1,7,11
4.23E+01,-9244,-934,2785,461,886,-1440,1,7,11
4.25E+01,-9336,-1319,2470,841,535,-1262,1,7,11
4.28E+01,-9310,-1163,2653,1054,124,-1316,1,7,11
4.30E+01,-9252,-1374,2302,1322,-520,-1095,1,7,11
4.33E+01,-8895,-898,2231,1258,-858,-812,1,7,11
4.35E+01,-8684,-711,2431,1616,-1019,3,1,7,11
4.38E+01,-8729,-837,2385,1228,-1260,175,1,7,11
4.40E+01,-8525,-496,2381,981,-1414,815,1,7,11
4.43E+01,-8164,-773,2427,677,-1481,1106,1,7,11
4.45E+01,-8259,-500,2235,794,-1510,943,1,7,11
4.48E+01,-7872,-496,2594,442,-1411,896,1,7,11
4.50E+01,-8048,-486,2463,417,-1238,748,1,7,11
4.53E+01,-8023,-406,2555,443,-1293,825,1,7,11
4.55E+01,-8062,-566,2904,454,-1050,460,1,7,11
4.58E+01,-8062,-241,2711,428,-815,440,1,7,11
4.60E+01,-8001,-208,2747,632,-576,446,1,7,11
4.63E+01,-7662,-176,2737,605,-291,470,1,7,11
4.65E+01,-7796,-159,2937,635,301,486,1,7,11
4.68E+01,-7756,-347,2876,464,460,458,1,7,11
4.70E+01,-7782,28,2527,806,902,504,1,7,11
4.73E+01,-7802,100,2671,848,1561,857,1,7,11
4.75E+01,-7557,-58,2622,892,1909,728,1,7,11
4.78E+01,-7640,302,2274,884,1937,918,1,7,11
4.80E+01,-7660,343,2400,840,2367,1157,1,7,11
4.83E+01,-8000,186,2030,753,2294,1473,1,7,11
4.85E+01,-8053,553,1924,398,2612,1682,1,7,11
4.88E+01,-7883,409,2104,224,2650,2170,1,7,11
4.90E+01,-7933,417,2066,-27,2620,2399,1,7,11
4.93E+01,-8264,626,1785,-261,2272,2260,1,7,11
4.95E+01,-8272,467,1699,-285,2362,2232,1,7,11
4.98E+01,-8300,643,1861,-285,1984,2430,1,7,11
5.00E+01,-8301,1048,1521,-306,2142,2398,1,7,11
5.03E+01,-8244,915,1441,-377,2072,2369,1,7,11
5.05E+01,-7934,956,1416,-249,2062,2335,1,7,11
5.08E+01,-7864,970,1662,-618,2084,2029,1,7,11
5.10E+01,-7821,931,1417,-501,2135,1968,1,7,11
5.13E+01,-8051,1112,1460,-882,1928,2125,1,7,11
5.15E+01,-8039,1091,1480,-654,1943,1713,1,7,11
5.18E+01,-7999,1090,1433,-876,1946,1827,1,7,11
5.20E+01,-7965,1150,1573,-789,2002,1457,1,7,11
5.23E+01,-7987,1001,1170,-428,2391,1417,1,7,11
5.25E+01,-8031,1395,998,-561,2301,1488,1,7,11
5.28E+01,-7852,1263,1134,-215,2479,1893,1,7,11
5.30E+01,-7929,1599,1037,-143,2849,2107,1,7,11
5.33E+01,-8299,1570,716,-335,2872,2021,1,7,11
5.35E+01,-8097,1636,870,118,2476,2305,1,7,11
5.38E+01,-8148,1468,483,293,2251,1976,1,7,11
5.40E+01,-8121,1892,564,193,1981,2079,1,7,11
5.43E+01,-8244,2110,151,177,1730,1688,1,7,11
5.45E+01,-8206,2022,319,-65,1800,1524,1,7,11
5.48E+01,-7909,2562,-25,-321,1566,1469,1,7,11
5.50E+01,-7922,2646,-104,-431,1171,1798,1,7,11
5.53E+01,-7818,2633,-101,-653,1016,1812,1,7,11
5.55E+01,-8043,2509,-104,-764,950,1513,1,7,11
5.58E+01,-8007,2544,-63,-1150,932,1850,1,7,11
5.60E+01,-8037,2856,-68,-983,967,1672,1,7,11
5.63E+01,-8042,2692,-108,-1018,1007,1730,1,7,11
5.65E+01,-8017,2804,82,-1351,1352,2072,1,7,11
5.68E+01,-7982,2952,-269,-1184,1245,1978,1,7,11
5.70E+01,-7990,3361,-334,-1601,1490,2102,1,7,11
5.73E+01,-7995,3221,-137,-1817,1749,2211,1,7,11
5.75E+01,-8031,3606,-170,-2082,1983,2290,1,7,11
5.78E+01,-8022,3679,-201,-2357,2398,2575,1,7,11
5.80E+01,-7995,3463,-192,-2606,2206,2197,1,7,11
5.83E+01,-7964,3529,-197,-2499,2397,1977,1,7,11
5.85E+01,-7655,3558,-214,-2830,2020,1720,1,7,11
5.88E+01,-7586,3558,-228,-2839,2142,1431,1,7,11
5.90E+01,-7769,3840,-229,-2471,1768,1402,1,7,11
5.93E+01,-7420,3858,-521,-2659,1904,1120,1,7,11
5.95E+01,-7361,3565,-515,-2618,1816,857,1,7,11
5.98E+01,-7311,3465,-249,-2562,1469,601,1,7,11
6.00E+01,-7492,3700,-526,-2425,1648,371,1,7,11
6.03E+01,-7479,3609,-544,-2341,1631,-22,1,7,11
6.05E+01,-7513,3297,-555,-1940,1608,-114,1,7,11
6.08E+01,-7543,3284,-584,-1789,1562,118,1,7,11
6.10E+01,-7331,3257,-608,-1887,1253,-119,1,7,11
6.13E+01,-7688,3262,-627,-1492,1185,-82,1,7,11
6.15E+01,-7795,3350,-588,-1453,1306,-58,1,7,11
6.18E+01,-7582,3003,-534,-1549,1114,57,1,7,11
6.20E+01,-7956,3411,-209,-1313,680,-165,1,7,11
6.23E+01,-8040,3262,-165,-1143,503,-540,1,7,11
6.25E+01,-7974,3620,-145,-758,590,-599,1,7,11
6.28E+01,-7601,3650,-137,-708,149,-639,1,7,11
6.30E+01,-7789,3673,-367,-694,354,-420,1,7,11
6.33E+01,-7732,3665,-326,-677,324,-409,1,7,11
6.35E+01,-7405,3628,-279,-891,296,-635,1,7,11
6.38E+01,-7330,3322,15,-852,262,-627,1,7,11
6.40E+01,-7310,3302,66,-794,-28,-408,1,7,11
6.43E+01,-7305,3618,65,-472,-95,-431,1,7,11
6.45E+01,-7537,3651,69,-485,106,-616,1,7,11
6.48E+01,-7479,3314,70,-811,95,-251,1,7,11
6.50E+01,-7461,3205,82,-497,103,-513,1,7,11
6.53E+01,-7092,3244,12,-573,91,-595,1,7,11
6.55E+01,-7140,3303,-277,-546,-40,-247,1,7,11
6.58E+01,-7454,3235,-305,-624,314,10,1,7,11
6.60E+01,-7141,3414,-131,-412,364,-52,1,7,11
6.63E+01,-7434,3373,-196,-459,222,362,1,7,11
6.65E+01,-7460,3334,-228,-793,554,554,1,7,11
6.68E+01,-7509,3034,-514,-841,627,486,1,7,11
6.70E+01,-7362,3037,-244,-816,425,669,1,7,11
6.73E+01,-7703,3352,-203,-484,421,1147,1,7,11
6.75E+01,-7771,3406,-156,-394,638,1389,1,7,11
6.78E+01,-7570,3226,-374,-245,571,1611,1,7,11
6.80E+01,-7637,3313,-349,-318,245,1819,1,7,11
6.83E+01,-7988,3664,-321,-103,191,1766,1,7,11
6.85E+01,-8038,3548,-374,179,358,1953,1,7,11
6.88E+01,-8009,3716,-536,459,285,2329,1,7,11
6.90E+01,-7989,4160,-469,710,284,2346,1,7,11
6.93E+01,-7988,4084,-691,941,331,1957,1,7,11
6.95E+01,-7853,4341,-983,1389,240,1881,1,7,11
6.98E+01,-8143,4556,-1176,1375,477,1186,1,7,11
7.00E+01,-8735,5178,-1616,1300,869,1114,1,7,11
7.03E+01,-8965,5492,-1483,728,866,1145,1,7,11
7.05E+01,-8617,5327,-1820,600,466,983,1,7,11
7.08E+01,-8414,5705,-1674,260,552,1141,1,7,11
7.10E+01,-8108,5745,-1741,-141,358,1084,1,7,11
7.13E+01,-7990,5362,-1765,-793,-81,719,1,7,11
7.15E+01,-7416,5467,-1753,-1098,34,768,1,7,11
7.18E+01,-7155,5052,-1699,-1295,-323,545,1,7,11
7.20E+01,-7201,5173,-1904,-1381,-359,354,1,7,11
7.23E+01,-6799,4956,-1503,-1237,-334,-23,1,7,11
7.25E+01,-6978,4500,-1574,-1561,-316,-107,1,7,11
7.28E+01,-6628,4336,-1365,-1546,-138,103,1,7,11
7.30E+01,-6705,4468,-992,-1203,-243,118,1,7,11
7.33E+01,-6495,4378,-1147,-1371,-581,-95,1,7,11
7.35E+01,-6040,4053,-1078,-1005,-390,-22,1,7,11
7.38E+01,-5954,3985,-1050,-914,-474,294,1,7,11
7.40E+01,-5637,4187,-1046,-1101,-474,-2,1,7,11
7.43E+01,-5289,4145,-882,-1054,-594,-126,1,7,11
7.45E+01,-5347,4096,-709,-753,-190,10,1,7,11
7.48E+01,-5702,3762,-549,-708,-379,-341,1,7,11
7.50E+01,-5728,3760,-217,-817,-129,-174,1,7,11
7.53E+01,-5714,3759,-202,-394,-173,-222,1,7,11
7.55E+01,-5655,3810,-240,-202,-186,-517,1,7,11
7.58E+01,-5356,4192,-253,24,-356,-551,1,7,11
7.60E+01,-5432,4360,-597,265,46,-248,1,7,11
7.63E+01,-5519,4236,-640,295,-9,80,1,7,11
7.65E+01,-5612,4689,-496,166,131,286,1,7,11
7.68E+01,-5989,4590,-857,218,393,549,1,7,11
7.70E+01,-6011,4594,-868,232,428,628,1,7,11
7.73E+01,-5846,4960,-675,583,420,187,1,7,11
7.75E+01,-6054,4752,-892,585,585,-46,1,7,11
7.78E+01,-6029,4855,-708,602,302,-295,1,7,11
7.80E+01,-6185,5004,-1080,575,86,-573,1,7,11
7.83E+01,-6067,5452,-900,540,33,-831,1,7,11
7.85E+01,-6498,5711,-936,244,-280,-707,1,7,11
7.88E+01,-6767,5990,-949,181,-356,-1036,1,7,11
7.90E+01,-6650,6020,-1005,315,-580,-1041,1,7,11
7.93E+01,-6602,6441,-1400,117,-855,-1081,1,7,11
7.95E+01,-6531,6282,-1238,-322,-1030,-1284,1,7,11
7.98E+01,-6717,6312,-1590,-227,-913,-1658,1,7,11
8.00E+01,-6673,6285,-1610,-614,-1002,-2164,1,7,11
8.03E+01,-6741,6468,-1602,-453,-1335,-2470,1,7,11
8.05E+01,-6559,6066,-1274,-849,-1240,-3003,1,7,11
8.08E+01,-6637,5804,-1187,-1041,-1443,-3496,1,7,11
8.10E+01,-6997,5656,-1299,-997,-1889,-4190,1,7,11
8.13E+01,-7202,4854,-1036,-1204,-1720,-4611,1,7,11
8.15E+01,-7752,4439,-637,-1625,-1890,-4961,1,7,11
8.18E+01,-8449,3556,62,-1622,-1804,-4843,1,7,11
8.20E+01,-9045,3020,205,-1223,-1799,-4833,1,7,11
8.23E+01,-9544,2850,507,-1306,-1515,-4766,1,7,11
8.25E+01,-9809,2568,879,-1101,-1443,-4498,1,7,11
8.28E+01,-9852,2337,679,-657,-1230,-4412,1,7,11
8.30E+01,-9606,1938,758,-427,-1104,-3823,1,7,11
8.33E+01,-9814,2097,1111,-233,-470,-3469,1,7,11
8.35E+01,-9423,1689,935,-198,-185,-3071,1,7,11
8.38E+01,-9192,1528,1013,-187,-273,-2934,1,7,11
8.40E+01,-8942,1441,1385,-354,50,-2632,1,7,11
8.43E+01,-8728,1445,1371,116,-21,-2043,1,7,11
8.45E+01,-8120,1422,1017,139,-145,-2089,1,7,11
8.48E+01,-8060,1260,1121,523,-195,-1686,1,7,11
8.50E+01,-7669,1157,722,400,-156,-1667,1,7,11
8.53E+01,-7584,1334,867,676,-379,-1891,1,7,11
8.55E+01,-7805,940,822,794,-378,-1695,1,7,11
8.58E+01,-7637,1127,775,950,-182,-2069,1,7,11
8.60E+01,-7965,1115,458,1313,-593,-2143,1,7,11
8.63E+01,-8052,1087,454,1368,-789,-1921,1,7,11
8.65E+01,-7851,1056,486,1156,-1055,-2158,1,7,11
8.68E+01,-7847,753,497,1196,-1338,-2057,1,7,11
8.70E+01,-7824,715,794,1266,-1614,-1913,1,7,11
8.73E+01,-7956,730,810,1408,-1894,-1462,1,7,11
8.75E+01,-7610,746,841,1477,-2059,-1244,1,7,11
8.78E+01,-7592,1057,651,1866,-2172,-1004,1,7,11
8.80E+01,-7797,902,681,1834,-2002,-682,1,7,11
8.83E+01,-7787,995,740,2142,-2009,-527,1,7,11
8.85E+01,-7564,1304,1098,2136,-1978,-70,1,7,11
8.88E+01,-7620,1347,935,2117,-1957,393,1,7,11
8.90E+01,-7659,1356,997,2079,-1936,1098,1,7,11
8.93E+01,-8017,1343,1335,2050,-2153,1161,1,7,11
8.95E+01,-7992,1589,1330,2106,-1932,1411,1,7,11
8.98E+01,-7868,1417,1349,1879,-2077,1911,1,7,11
9.00E+01,-7823,1818,1365,1820,-2103,1671,1,7,11
9.03E+01,-8056,1775,1373,1448,-1761,1480,1,7,11
9.05E+01,-7874,2002,1166,1249,-1841,1559,1,7,11
9.08E+01,-7930,2375,1269,982,-1427,1165,1,7,11
9.10E+01,-8201,2360,1635,720,-1255,1340,1,7,11
9.13E+01,-8058,2369,1642,798,-1347,1325,1,7,11
9.15E+01,-7958,2343,1649,582,-1071,1358,1,7,11
9.18E+01,-7569,2035,1615,138,-500,1195,1,7,11
9.20E+01,-7692,2002,1563,-4,-137,1273,1,7,11
9.23E+01,-7367,1974,1273,111,-9,1570,1,7,11
9.25E+01,-7329,1959,1226,4,607,1586,1,7,11
9.28E+01,-7349,1957,1180,-373,713,1618,1,7,11
9.30E+01,-7397,1960,1154,-248,1313,1449,1,7,11
9.33E+01,-7392,1999,1372,-609,1615,1862,1,7,11
9.35E+01,-7366,2003,1319,-785,1909,2073,1,7,11
9.38E+01,-7456,2133,1309,-1052,1920,2018,1,7,11
9.40E+01,-7051,2099,1016,-1332,2229,2315,1,7,11
9.43E+01,-7144,1757,1336,-1649,2505,2318,1,7,11
9.45E+01,-7139,1861,1383,-1814,2834,2059,1,7,11
9.48E+01,-7344,1494,1170,-1852,2895,1253,1,7,11
9.50E+01,-7593,1450,1371,-1514,2537,876,1,7,11
9.53E+01,-8194,1410,1300,-1639,2449,-42,1,7,11
9.55E+01,-8391,1646,1293,-1220,2616,-602,1,7,11
9.58E+01,-8876,1252,1377,-1359,2206,-1035,1,7,11
9.60E+01,-9368,979,1245,-911,2172,-1406,1,7,11
9.63E+01,-9819,1059,1541,-497,1411,-1536,1,7,11
9.65E+01,-9847,751,1235,-337,900,-2122,1,7,11
9.68E+01,-9825,689,1167,-44,483,-2323,1,7,11
9.70E+01,-9743,838,1350,190,373,-2249,1,7,11
9.73E+01,-9386,781,986,411,48,-2493,1,7,11
9.75E+01,-9512,475,1133,818,-239,-2728,1,7,11
9.78E+01,-9111,431,1037,688,-458,-2956,1,7,11
9.80E+01,-9250,425,722,1060,-869,-3412,1,7,11
9.83E+01,-8883,413,726,1143,-721,-3265,1,7,11
9.85E+01,-8851,625,1057,935,-1063,-3310,1,7,11
9.88E+01,-9023,424,1052,1019,-961,-3250,1,7,11
9.90E+01,-8668,507,757,1308,-1328,-3037,1,7,11
9.93E+01,-8444,1083,652,1310,-1392,-2542,1,7,11
9.95E+01,-8605,1073,712,740,-925,-1754,1,7,11
9.98E+01,-8565,1070,687,1087,-984,-1282,1,7,11
1.00E+02,-8122,1101,696,1110,-1063,-388,1,7,11
1.00E+02,-8288,1044,758,1031,-876,306,1,7,11
1.01E+02,-7873,668,1067,665,-472,870,1,7,11
1.01E+02,-7821,695,1123,860,-582,986,1,7,11
1.01E+02,-7976,1075,1118,826,-521,1582,1,7,11
1.01E+02,-7805,968,717,508,-221,1811,1,7,11
1.02E+02,-7307,1360,876,426,-379,1889,1,7,11
1.02E+02,-7485,1574,774,569,42,1864,1,7,11
1.02E+02,-7549,1509,463,-29,136,1487,1,7,11
1.02E+02,-7376,1773,385,1,565,1617,1,7,11
1.03E+02,-7735,2041,558,-526,495,1234,1,7,11
1.03E+02,-7612,2285,193,-813,697,1402,1,7,11
1.03E+02,-8030,2521,350,-1115,899,1362,1,7,11
1.03E+02,-7854,2753,-26,-1239,1309,1373,1,7,11
1.04E+02,-7903,3029,67,-1718,1222,1383,1,7,11
1.04E+02,-8305,3298,30,-2613,1426,1162,1,7,11
1.04E+02,-8453,3522,54,-3346,1528,1267,1,7,11
1.04E+02,-8522,3908,81,-4135,1492,1431,1,7,11
1.05E+02,-8473,3736,71,-4940,1610,1836,1,7,11
1.05E+02,-8248,3765,28,-5529,1187,1886,1,7,11
1.05E+02,-7845,3757,69,-6658,1377,1476,1,7,11
1.05E+02,-8041,3714,-72,-7474,1320,1233,1,7,11
1.06E+02,-7975,3860,283,-8205,961,953,1,7,11
1.06E+02,-7611,3463,325,-8811,1114,640,1,7,11
1.06E+02,-7786,3256,378,-9127,1089,247,1,7,11
1.06E+02,-7560,3015,253,-9636,1129,49,1,7,11
1.07E+02,-7607,2787,391,-10245,897,-458,1,7,11
1.07E+02,-7672,2534,783,-10210,905,-968,1,7,11
1.07E+02,-8046,2186,702,-10582,914,-1422,1,7,11
1.07E+02,-7819,2096,1048,-10238,1101,-2079,1,7,11
1.08E+02,-8036,1528,1084,-10245,1038,-2227,1,7,11
1.08E+02,-7828,1226,924,-9705,1067,-2875,1,7,11
1.08E+02,-7887,959,1017,-9576,1055,-3185,1,7,11
1.08E+02,-8255,683,1154,-8900,1049,-3427,1,7,11
1.09E+02,-8288,789,1189,-8341,685,-3303,1,7,11
1.09E+02,-8273,411,1172,-7821,876,-3609,1,7,11
1.09E+02,-8240,581,1363,-7346,870,-3617,1,7,11
1.09E+02,-8280,226,1333,-7196,693,-3585,1,7,11
1.10E+02,-8291,341,1324,-6569,1027,-3231,1,7,11
1.10E+02,-8311,-80,1319,-6434,1107,-3404,1,7,11
1.10E+02,-8144,-124,1301,-5975,904,-3364,1,7,11
1.10E+02,-8497,-107,1286,-5313,908,-3022,1,7,11
1.11E+02,-8337,-106,1289,-4998,1120,-3163,1,7,11
1.11E+02,-8369,116,994,-4752,762,-2777,1,7,11
1.11E+02,-8403,81,957,-4556,658,-2917,1,7,11
1.11E+02,-8442,-266,951,-4685,833,-2546,1,7,11
1.12E+02,-8424,-317,916,-4266,462,-2439,1,7,11
1.12E+02,-8409,-344,1128,-4390,618,-2619,1,7,11
1.12E+02,-8397,-364,1077,-4062,557,-2261,1,7,11
1.12E+02,-8439,-182,1079,-4054,527,-2394,1,7,11
1.13E+02,-8724,-548,1108,-4023,205,-1990,1,7,11
1.13E+02,-8401,-631,1086,-4168,324,-2100,1,7,11
1.13E+02,-8539,-425,1034,-3785,-26,-1713,1,7,11
1.13E+02,-8491,-511,1035,-3959,-25,-1831,1,7,11
1.14E+02,-8483,-887,1049,-3847,264,-1427,1,7,11
1.14E+02,-8470,-746,1052,-3677,306,-1276,1,7,11
1.14E+02,-8168,-1123,1037,-3390,130,-1343,1,7,11
1.14E+02,-8463,-1100,1080,-2970,217,-956,1,7,11
1.15E+02,-8534,-898,1124,-3132,560,-716,1,7,11
1.15E+02,-8340,-1020,919,-2920,568,-504,1,7,11
1.15E+02,-8337,-1326,949,-2270,219,-626,1,7,11
1.15E+02,-8548,-1301,929,-2095,347,-237,1,7,11
1.16E+02,-8493,-946,1129,-1449,-38,-371,1,7,11
1.16E+02,-8185,-921,1097,-1400,-124,-274,1,7,11
1.16E+02,-8452,-919,1117,-1136,125,54,1,7,11
1.16E+02,-8491,-1141,1111,-671,124,-74,1,7,11
1.17E+02,-8515,-1103,1114,-800,121,359,1,7,11
1.17E+02,-8478,-1061,1096,-459,99,247,1,7,11
1.17E+02,-8192,-1042,1104,-459,110,585,1,7,11
1.17E+02,-8171,-1064,1098,-771,-83,444,1,7,11
1.18E+02,-8185,-1065,1103,-841,298,801,1,7,11
1.18E+02,-8147,-1126,1095,-717,166,649,1,7,11
1.18E+02,-8079,-967,1095,-1084,578,699,1,7,11
1.18E+02,-8278,-1003,1101,-1116,788,714,1,7,11
1.19E+02,-8292,-982,1110,-1049,1027,1032,1,7,11
1.19E+02,-8305,-1102,1034,-875,983,920,1,7,11
1.19E+02,-8074,-682,705,-462,1200,1407,1,7,11
1.19E+02,-8312,-854,884,-594,1659,1431,1,7,11
1.20E+02,-8077,-492,847,-175,1837,1861,1,7,11
1.20E+02,-8086,-397,807,-288,1681,1688,1,7,11
1.20E+02,-8107,-594,471,22,1729,1664,1,7,11
1.20E+02,-8453,-419,482,72,1707,1649,1,7,11
1.21E+02,-8296,-405,576,-4,1466,1034,1,7,11
1.21E+02,-8227,-533,168,134,1616,316,1,7,11
1.21E+02,-8080,-245,362,167,1603,-575,1,7,11
1.21E+02,-8474,-136,263,219,1223,-955,1,7,11
1.22E+02,-8570,-325,-102,183,1326,-1438,1,7,11
1.22E+02,-8406,-190,117,369,982,-1765,1,7,11
1.22E+02,-8762,-528,110,173,1119,-2030,1,7,11
1.22E+02,-8779,-634,74,555,710,-2183,1,7,11
1.23E+02,-8790,-472,34,483,822,-2254,1,7,11
1.23E+02,-8774,-830,10,680,439,-2194,1,7,11
1.23E+02,-8724,-761,6,1142,612,-2028,1,7,11
1.23E+02,-8422,-997,34,1179,558,-2076,1,7,11
1.24E+02,-8385,-1260,50,1850,237,-1877,1,7,11
1.24E+02,-8382,-1482,55,2397,166,-1432,1,7,11
1.24E+02,-8387,-1906,47,2771,323,-1233,1,7,11
1.24E+02,-8387,-1771,52,3701,-60,-1012,1,7,11
1.25E+02,-8422,-2118,85,4366,47,-1065,1,7,11
1.25E+02,-8443,-1942,123,4788,-166,-641,1,7,11
1.25E+02,-8434,-1973,-122,5740,-440,-791,1,7,11
1.25E+02,-8348,-1943,-119,6142,-697,-459,1,7,11
1.26E+02,-8542,-2172,-86,6937,-1142,-418,1,7,11
1.26E+02,-8532,-2155,-18,7123,-1304,-426,1,7,11
1.26E+02,-8530,-2071,300,7766,-1197,-478,1,7,11
1.26E+02,-8321,-1673,151,8063,-1586,-506,1,7,11
1.27E+02,-8572,-1831,552,8285,-1510,-484,1,7,11
1.27E+02,-8496,-1269,630,8529,-1705,-411,1,7,11
1.27E+02,-8462,-1166,462,8353,-1786,-190,1,7,11
1.27E+02,-8450,-978,786,8423,-2090,59,1,7,11
1.28E+02,-8150,-766,838,8721,-2104,344,1,7,11
1.28E+02,-8320,-796,874,8424,-1782,442,1,7,11
1.28E+02,-8218,-596,651,8538,-1870,1089,1,7,11
1.28E+02,-7859,-220,699,8237,-1609,1403,1,7,11
1.29E+02,-7827,-383,1029,7590,-1287,1916,1,7,11
1.29E+02,-7843,-351,1100,7145,-791,2091,1,7,11
1.29E+02,-7848,-337,914,6960,-545,2080,1,7,11
1.29E+02,-7836,-276,930,6325,-332,1914,1,7,11
1.30E+02,-7903,25,993,6152,-113,1426,1,7,11
1.30E+02,-8238,82,1296,5732,290,1371,1,7,11
1.30E+02,-8320,-113,1326,5157,139,1045,1,7,11
1.30E+02,-8143,-106,1367,4539,212,471,1,7,11
1.31E+02,-8136,-56,1369,4246,237,129,1,7,11
1.31E+02,-8177,-81,1160,4149,599,-99,1,7,11
1.31E+02,-8178,103,1221,3859,433,-268,1,7,11
1.31E+02,-8496,27,1571,3608,773,-380,1,7,11
1.32E+02,-8569,-262,1610,3398,784,-168,1,7,11
1.32E+02,-8346,-300,1634,3180,484,-132,1,7,11
1.32E+02,-8341,-356,1659,2712,420,-305,1,7,11
1.32E+02,-8327,-154,1453,2502,604,34,1,7,11
1.33E+02,-8378,-169,1475,2297,519,124,1,7,11
1.33E+02,-8424,-136,1505,2365,367,-12,1,7,11
1.33E+02,-8440,-359,1515,1921,-60,140,1,7,11
1.33E+02,-8419,-299,1484,1790,24,570,1,7,11
1.34E+02,-8323,22,1449,1696,-132,470,1,7,11
1.34E+02,-8455,67,1415,1863,-240,834,1,7,11
1.34E+02,-8083,125,1642,1811,-540,648,1,7,11
1.34E+02,-8199,-17,1614,1517,-544,687,1,7,11
1.35E+02,-7862,364,1635,1408,-210,1026,1,7,11
1.35E+02,-7865,549,1414,1188,-302,999,1,7,11
1.35E+02,-7890,400,1442,1351,64,1214,1,7,11
1.35E+02,-8220,437,1495,1336,-86,1412,1,7,11
1.36E+02,-8085,421,1845,1360,-27,1859,1,7,11
1.36E+02,-8153,635,1881,1407,-82,1773,1,7,11
1.36E+02,-8140,397,1879,1394,59,2157,1,7,11
1.36E+02,-8192,393,1855,1010,-269,2318,1,7,11
1.37E+02,-8475,569,1836,914,-349,2366,1,7,11
1.37E+02,-8490,173,1858,1111,-184,1937,1,7,11
1.37E+02,-8474,143,1886,897,-563,1531,1,7,11
1.37E+02,-8530,183,1673,936,-407,1340,1,7,11
1.38E+02,-8379,243,1734,1021,-774,682,1,7,11
1.38E+02,-8436,584,1787,1168,-676,566,1,7,11
1.38E+02,-8443,385,2073,1577,-1080,263,1,7,11
1.38E+02,-8427,426,2112,1453,-929,41,1,7,11
1.39E+02,-8364,446,2134,1821,-995,-338,1,7,11
1.39E+02,-8541,488,2131,1691,-1001,-162,1,7,11
1.39E+02,-8455,771,2140,1785,-972,-225,1,7,11
1.39E+02,-8103,780,2135,2095,-904,-562,1,7,11
1.40E+02,-8311,791,2123,2094,-1060,-400,1,7,11
1.40E+02,-8252,775,2124,1771,-709,-486,1,7,11
1.40E+02,-8246,511,2119,1873,-822,-814,1,7,11
1.40E+02,-8280,455,2152,1416,-444,-861,1,7,11
1.41E+02,-8265,390,2148,1240,-622,-711,1,7,11
1.41E+02,-8287,606,2164,1336,-247,-1058,1,7,11
1.41E+02,-8068,554,1924,945,-149,-1140,1,7,11
1.41E+02,-8095,513,2161,1103,-333,-951,1,7,11
1.42E+02,-8071,210,2142,764,-261,-988,1,7,11
1.42E+02,-8069,205,2125,730,85,-1017,1,7,11
1.42E+02,-8319,228,2096,681,-72,-979,1,7,11
1.42E+02,-8098,253,2076,869,294,-1112,1,7,11
1.43E+02,-8112,513,2050,785,136,-657,1,7,11
1.43E+02,-8302,584,1726,457,209,-552,1,7,11
1.43E+02,-8187,522,1759,519,622,-194,1,7,11
1.43E+02,-8088,243,1683,222,615,-32,1,7,11
1.44E+02,-8094,540,1911,532,405,317,1,7,11
1.44E+02,-8131,566,1903,577,405,143,1,7,11
1.44E+02,-8140,635,1867,618,605,182,1,7,11
1.44E+02,-8171,431,1841,601,559,240,1,7,11
1.45E+02,-8190,477,1818,587,524,552,1,7,11
1.45E+02,-8468,798,1803,562,188,591,1,7,11
1.45E+02,-8471,830,1803,519,370,633,1,7,11
1.45E+02,-8473,858,1535,222,262,630,1,7,11
1.46E+02,-8499,659,1801,211,-49,591,1,7,11
1.46E+02,-8526,708,1812,209,-104,557,1,7,11
1.46E+02,-8535,738,1819,198,126,513,1,7,11
1.46E+02,-8548,1028,1824,195,87,187,1,7,11
1.47E+02,-8538,1050,1816,186,50,359,1,7,11
1.47E+02,-8531,1073,1819,176,19,265,1,7,11
1.47E+02,-8507,1095,1822,163,-2,-85,1,7,11
1.47E+02,-8490,1090,1825,134,-278,90,1,7,11
1.48E+02,-8473,1087,1834,347,-297,21,1,7,11
1.48E+02,-8471,1092,1847,290,-314,-273,1,7,11
1.48E+02,-8464,1082,1870,251,-343,-284,1,7,11
1.48E+02,-8458,1053,1887,-38,-379,-279,1,7,11
1.49E+02,-8187,741,1914,-56,-159,-281,1,7,11
1.49E+02,-8176,705,1700,-51,-196,-298,1,7,11
1.49E+02,-8182,683,1727,-25,-237,-307,1,7,11
1.49E+02,-8465,658,1758,258,-520,-301,1,7,11
1.50E+02,-8488,893,1781,278,-548,-288,1,7,11
1.50E+02,-8480,867,2053,290,-579,-274,1,7,11
1.50E+02,-8475,831,2091,279,-594,-265,1,7,11
1.50E+02,-8453,802,2124,285,-613,-263,1,7,11
1.51E+02,-8179,808,2157,301,-629,2,1,7,11
1.51E+02,-8150,794,1923,308,-634,35,1,7,11
1.51E+02,-8112,499,1943,337,-627,49,1,7,11
1.51E+02,-8082,471,1984,145,-616,37,1,7,11
1.52E+02,-8274,463,1988,241,-616,17,1,7,11
1.52E+02,-8222,441,1998,582,-581,-261,1,7,11
1.52E+02,-8205,447,2004,431,-523,-286,1,7,11
1.52E+02,-7901,461,1964,818,-206,-273,1,7,11
1.53E+02,-7870,438,1960,710,-359,-317,1,7,11
1.53E+02,-7855,885,1985,1147,-263,-353,1,7,11
1.53E+02,-8293,731,2154,1052,-37,-44,1,7,11
1.53E+02,-8314,658,1927,1112,319,529,1,7,11
1.54E+02,-8313,729,2130,1289,179,401,1,7,11
1.54E+02,-8136,760,2127,1387,601,641,1,7,11
1.54E+02,-8136,1038,2091,1261,450,1146,1,7,11
1.54E+02,-8183,758,2085,1568,853,1405,1,7,11
1.55E+02,-8144,663,2081,1564,660,1636,1,7,11
1.55E+02,-8238,861,1780,1626,640,1647,1,7,11
1.55E+02,-7886,894,1705,1447,645,1222,1,7,11
1.55E+02,-7875,641,1899,1525,661,949,1,7,11
1.56E+02,-8204,640,1907,1905,678,807,1,7,11
1.56E+02,-8193,726,1876,1773,843,136,1,7,11
1.56E+02,-7907,1065,1820,1743,498,108,1,7,11
1.56E+02,-8201,896,1522,1869,467,-270,1,7,11
1.57E+02,-8256,992,1492,1478,423,-290,1,7,11
1.57E+02,-8112,1366,1471,1592,638,28,1,7,11
1.57E+02,-8490,1167,1461,1379,572,-53,1,7,11
1.57E+02,-8365,1379,1463,919,225,379,1,7,11
1.58E+02,-8710,1367,1453,1035,327,199,1,7,11
1.58E+02,-8800,1365,1466,643,-107,170,1,7,11
1.58E+02,-8656,1350,1520,428,-327,376,1,7,11
1.58E+02,-8592,1310,1796,204,-638,328,1,7,11
1.59E+02,-8694,1398,1876,112,-1029,284,1,7,11
1.59E+02,-8427,1403,1828,-293,-1384,292,1,7,11
1.59E+02,-8522,1552,1522,-147,-1223,346,1,7,11
1.59E+02,-8182,1156,1877,-407,-1196,248,1,7,11
1.60E+02,-8093,1308,1714,-482,-1250,180,1,7,11
1.60E+02,-8304,1373,1743,-471,-1276,342,1,7,11
1.60E+02,-8067,1380,1778,-434,-1255,328,1,7,11
1.60E+02,-8297,1386,2052,-532,-1266,-9,1,7,11
1.61E+02,-8076,1392,2091,-159,-1207,-54,1,7,11
1.61E+02,-8288,1391,2137,-323,-1169,-48,1,7,11
1.61E+02,-8299,1203,2149,-296,-1348,257,1,7,11
1.61E+02,-8245,1244,2150,-306,-1019,350,1,7,11
1.62E+02,-7899,1562,2104,-312,-899,142,1,7,11
1.62E+02,-8046,1600,2081,-369,-727,179,1,7,11
1.62E+02,-7641,1623,2069,-145,-776,160,1,7,11
1.62E+02,-7582,1434,2085,-147,-240,130,1,7,11
1.63E+02,-7758,1528,2092,-155,8,164,1,7,11
1.63E+02,-7408,1858,2098,-215,-21,244,1,7,11
1.63E+02,-7690,1903,2129,-582,221,608,1,7,11
1.63E+02,-7796,1669,1945,-469,399,472,1,7,11
1.64E+02,-8014,1892,2028,-656,768,828,1,7,11
1.64E+02,-8200,1891,2025,-753,487,865,1,7,11
1.64E+02,-8286,1864,2009,-767,422,508,1,7,11
1.64E+02,-8160,1818,2029,-749,390,529,1,7,11
1.65E+02,-8469,1805,2003,-713,521,-1,1,7,11
1.65E+02,-8467,1808,1963,-709,149,35,1,7,11
1.65E+02,-8186,1825,1923,-724,311,-368,1,7,11
1.65E+02,-8162,1816,2157,-748,-18,-200,1,7,11
1.66E+02,-8139,1510,1935,-1036,-55,-231,1,7,11
1.66E+02,-8091,1461,1973,-1027,-98,-224,1,7,11
1.66E+02,-8263,1421,1987,-735,122,-209,1,7,11
1.66E+02,-7911,1412,1965,-664,125,-196,1,7,11
1.67E+02,-7849,1638,1958,-858,-69,-190,1,7,11
1.67E+02,-7811,1585,1946,-510,284,-207,1,7,11
1.67E+02,-7847,1540,1961,-411,141,-253,1,7,11
1.67E+02,-7875,1254,1960,-569,227,-537,1,7,11
1.68E+02,-7911,1254,1933,-238,551,-534,1,7,11
1.68E+02,-8202,1231,2173,-198,617,-226,1,7,11
1.68E+02,-8268,1179,2165,-358,421,-196,1,7,11
1.68E+02,-8295,1380,2172,-279,447,-182,1,7,11
1.69E+02,-8133,1009,1972,30,440,-208,1,7,11
1.69E+02,-8139,1001,1958,102,602,-240,1,7,11
1.69E+02,-8449,956,1968,43,538,-228,1,7,11
1.69E+02,-8518,977,1923,3,170,-218,1,7,11
1.70E+02,-8514,1298,2131,-320,288,-148,1,7,11
1.70E+02,-8493,1021,2118,-194,-45,-282,1,7,11
1.70E+02,-8453,991,2140,-518,-121,81,1,7,11
1.70E+02,-8140,936,1922,-548,65,-79,1,7,11
1.71E+02,-8101,933,1948,-522,2,264,1,7,11
1.71E+02,-8298,964,1969,-186,-350,153,1,7,11
1.71E+02,-8281,1013,1980,-315,-382,540,1,7,11
1.71E+02,-8224,1314,1969,13,-145,438,1,7,11
1.72E+02,-7930,1343,1978,75,-353,837,1,7,11
1.72E+02,-7890,1384,1964,124,-285,703,1,7,11
1.72E+02,-7849,1166,1961,-82,42,1046,1,7,11
1.72E+02,-7826,1218,1963,-25,-113,1081,1,7,11
1.73E+02,-7825,1541,1971,-21,-6,1106,1,7,11
1.73E+02,-7830,1582,1956,-63,352,1144,1,7,11
1.73E+02,-7837,1416,1940,-117,203,921,1,7,11
1.73E+02,-7809,1812,1923,60,565,986,1,7,11
1.74E+02,-7830,2081,1790,-273,792,1155,1,7,11
1.74E+02,-7931,2111,2096,-516,766,1428,1,7,11
1.74E+02,-7874,1922,2054,-605,902,1527,1,7,11
1.74E+02,-7888,1932,1768,-470,1327,1818,1,7,11
1.75E+02,-7891,2068,1775,-483,1174,1624,1,7,11
1.75E+02,-7915,2063,1741,-547,1223,909,1,7,11
1.75E+02,-8200,2131,1702,-324,1245,419,1,7,11
1.75E+02,-8289,1938,1671,60,1228,-10,1,7,11
1.76E+02,-8066,1963,1873,95,1375,-309,1,7,11
1.76E+02,-8309,1975,1804,110,1011,-540,1,7,11
1.76E+02,-8293,1996,1461,101,918,-457,1,7,11
1.76E+02,-8235,1990,1625,62,1091,-832,1,7,11
1.77E+02,-8203,2149,1592,-285,1051,-713,1,7,11
1.77E+02,-7934,1955,1249,-270,739,-1134,1,7,11
1.77E+02,-7933,1953,1218,-371,713,-937,1,7,11
1.77E+02,-8202,2159,1193,-215,676,-990,1,7,11
1.78E+02,-8228,2112,1170,-546,892,-1319,1,7,11
1.78E+02,-8267,2084,1152,-610,850,-1368,1,7,11
1.78E+02,-8286,1770,1391,-417,789,-1407,1,7,11
1.78E+02,-8314,1709,1377,-453,463,-1218,1,7,11
1.79E+02,-8093,1916,1359,-453,389,-1552,1,7,11
1.79E+02,-8128,1876,1355,-427,556,-1621,1,7,11
1.79E+02,-8147,1832,1350,-422,208,-1663,1,7,11
1.79E+02,-8177,1792,1332,-439,376,-1410,1,7,11
1.80E+02,-8180,1462,1342,-488,293,-1629,1,7,11
1.80E+02,-8464,1647,1375,-793,-46,-1602,1,7,11
1.80E+02,-8189,1569,1390,-840,95,-1579,1,7,11
1.80E+02,-8178,1241,1154,-647,-268,-1576,1,7,11
1.81E+02,-8186,1155,1195,-753,-358,-1569,1,7,11
1.81E+02,-8535,956,1276,-1057,-255,-1663,1,7,11
1.81E+02,-8488,1144,1548,-668,-435,-1829,1,7,11
1.81E+02,-8473,1081,1565,-778,-814,-1730,1,7,11
1.82E+02,-8174,1044,1561,-625,-663,-2125,1,7,11
1.82E+02,-8165,748,1573,-520,-710,-1983,1,7,11
1.82E+02,-8185,688,1594,-204,-724,-2031,1,7,11
1.82E+02,-8464,875,1634,-168,-739,-2031,1,7,11
1.83E+02,-8483,805,1425,-379,-744,-1988,1,7,11
1.83E+02,-8479,493,1443,-343,-735,-2141,1,7,11
1.83E+02,-8459,416,1442,-348,-688,-1734,1,7,11
1.83E+02,-8171,583,1443,-368,-860,-1837,1,7,11
1.84E+02,-8173,228,1465,-143,-486,-1442,1,7,11
1.84E+02,-8177,157,1482,-157,-627,-1561,1,7,11
1.84E+02,-8182,342,1506,-186,-255,-1170,1,7,11
1.84E+02,-8189,274,1523,-188,-159,-1308,1,7,11
1.85E+02,-8171,-25,1521,-168,-334,-945,1,7,11
1.85E+02,-8154,-72,1528,-166,16,-1104,1,7,11
1.85E+02,-8163,-117,1809,-167,108,-764,1,7,11
1.85E+02,-8172,107,1828,-160,-89,-701,1,7,11
1.86E+02,-8175,84,1829,-160,-60,-659,1,7,11
1.86E+02,-8163,67,1813,-170,-38,-880,1,7,11
1.86E+02,-8172,38,1809,-188,-9,-857,1,7,11
1.86E+02,-8176,26,1798,-195,262,-841,1,7,11
1.87E+02,-8180,16,1532,-215,280,-813,1,7,11
1.87E+02,-8183,-260,1524,-241,309,-507,1,7,11
1.87E+02,-8188,-290,1525,-516,342,-464,1,7,11
1.87E+02,-8453,-293,1525,-248,364,-422,1,7,11
1.88E+02,-8185,-284,1506,-243,131,-609,1,7,11
1.88E+02,-8178,-291,1496,-246,162,-518,1,7,11
1.88E+02,-8173,-273,1474,-238,190,-161,1,7,11
1.88E+02,-8181,-257,1462,-516,222,-293,1,7,11
1.89E+02,-8185,14,1448,-545,252,101,1,7,11
1.89E+02,-8466,13,1441,-565,528,-35,1,7,11
1.89E+02,-8473,32,1415,-552,527,317,1,7,11
1.89E+02,-8486,53,1654,-528,512,142,1,7,11
1.90E+02,-8481,75,1618,-236,251,214,1,7,11
1.90E+02,-8501,101,1584,-214,520,528,1,7,11
1.90E+02,-8488,-128,1546,-320,515,581,1,7,11
1.90E+02,-8503,-93,1278,16,534,584,1,7,11
1.91E+02,-8511,-44,1260,76,526,599,1,7,11
1.91E+02,-8534,261,1237,108,252,388,1,7,11
1.91E+02,-8521,291,1218,-126,226,440,1,7,11
1.91E+02,-8523,312,1209,-100,207,464,1,7,11
1.92E+02,-8507,349,1206,-59,178,480,1,7,11
1.92E+02,-8516,376,1203,-59,161,509,1,7,11
1.92E+02,-8501,364,1203,-80,383,790,1,7,11
1.92E+02,-8548,294,1222,-120,357,504,1,7,11
1.93E+02,-8492,297,1243,108,289,407,1,7,11
1.93E+02,-8515,364,1202,-69,-72,193,1,7,11
1.93E+02,-8519,169,1194,-59,124,130,1,7,11
1.93E+02,-8513,191,1190,-67,98,349,1,7,11
1.94E+02,-8524,229,1193,-77,112,361,1,7,11
1.94E+02,-8496,585,1182,-103,125,196,1,7,11
1.94E+02,-8359,535,1226,28,-82,601,1,7,11
1.94E+02,-8524,520,1196,76,94,619,1,7,11
1.95E+02,-8490,532,1180,73,111,622,1,7,11
1.95E+02,-8508,532,1192,17,122,396,1,7,11
1.95E+02,-8471,531,1184,10,84,623,1,7,11
1.95E+02,-8458,546,1187,-270,95,564,1,7,11
1.96E+02,-8454,551,1204,-318,108,254,1,7,11
1.96E+02,-8462,537,1218,-356,105,195,1,7,11
1.96E+02,-8473,557,1227,-367,92,379,1,7,11
1.96E+02,-8479,560,1225,-140,71,341,1,7,11
1.97E+02,-8482,535,1241,-384,46,283,1,7,11
1.97E+02,-8487,535,1257,-366,14,-57,1,7,11
1.97E+02,-8463,540,1257,-372,-278,-105,1,7,11
1.97E+02,-8464,574,1261,-372,-301,-128,1,7,11
1.98E+02,-8457,604,1269,-138,-311,-105,1,7,11
1.98E+02,-8477,623,1268,-179,-307,-57,1,7,11
1.98E+02,-8480,635,1279,-230,-309,271,1,7,11
1.98E+02,-8476,393,1548,-254,-317,334,1,7,11
1.99E+02,-8465,405,1547,-247,-321,380,1,7,11
1.99E+02,-8465,434,1554,-211,-308,153,1,7,11
1.99E+02,-8463,482,1553,-176,-293,193,1,7,11
1.99E+02,-8454,781,1276,-150,-279,241,1,7,11
2.00E+02,-8187,806,1263,-144,2,550,1,7,11
2.00E+02,-8165,803,1255,-175,36,599,1,7,11
2.00E+02,-8139,782,1263,-238,84,616,1,7,11
2.00E+02,-8125,511,1270,-574,-121,590,1,7,11
2.01E+02,-8121,491,1266,-405,-88,528,1,7,11
2.01E+02,-8154,478,1550,-500,-60,182,1,7,11
2.01E+02,-8173,477,1561,-868,-69,342,1,7,11
2.01E+02,-8451,485,1558,-728,-92,-30,1,7,11
2.02E+02,-8452,506,1548,-1085,-125,79,1,7,11
2.02E+02,-8192,813,1264,-924,100,-332,1,7,11
2.02E+02,-8181,646,1219,-1297,75,-174,1,7,11
2.02E+02,-8084,1029,1314,-1212,59,-191,1,7,11
2.03E+02,-7923,1020,1063,-1795,-113,-228,1,7,11
2.03E+02,-7916,1425,833,-2830,539,-536,1,7,11
2.03E+02,-8260,1840,815,-3569,817,-518,1,7,11
2.03E+02,-8069,1680,785,-4899,739,-198,1,7,11
2.04E+02,-8078,1716,468,-5768,1123,-327,1,7,11
2.04E+02,-8088,1705,410,-6884,1001,92,1,7,11
2.04E+02,-8163,1686,635,-7930,1168,302,1,7,11
2.04E+02,-8487,1832,605,-8901,1570,627,1,7,11
2.05E+02,-8543,1637,582,-10012,1452,758,1,7,11
2.05E+02,-8347,1403,548,-10455,1838,1182,1,7,11
2.05E+02,-8558,1047,226,-11306,1692,1818,1,7,11
2.05E+02,-8543,605,560,-11503,2108,1666,1,7,11
2.06E+02,-8571,282,436,-11708,1920,1463,1,7,11
2.06E+02,-8388,35,819,-11770,2105,1348,1,7,11
2.06E+02,-8769,-237,743,-11750,1906,862,1,7,11
2.06E+02,-8614,-595,927,-11480,1250,-10,1,7,11
2.07E+02,-8580,-514,957,-10992,658,-407,1,7,11
2.07E+02,-8746,-355,957,-10801,358,-933,1,7,11
2.07E+02,-8397,-300,961,-10126,-303,-1545,1,7,11
2.07E+02,-8341,-275,1025,-9645,-565,-1528,1,7,11
2.08E+02,-8522,-350,1342,-9127,-461,-1874,1,7,11
2.08E+02,-8156,-195,1167,-8810,-485,-1865,1,7,11
2.08E+02,-8149,-578,1542,-7921,-637,-1470,1,7,11
2.08E+02,-8117,-438,1644,-7454,-245,-1659,1,7,11
2.09E+02,-8255,-508,1412,-6371,-369,-1259,1,7,11
2.09E+02,-7852,-821,1658,-5527,88,-1376,1,7,11
2.09E+02,-8018,-847,1615,-4946,130,-974,1,7,11
2.09E+02,-7995,-872,1601,-4153,509,-1000,1,7,11
2.10E+02,-8019,-641,1564,-3427,912,-857,1,7,11
2.10E+02,-7829,-875,1223,-2456,1269,-496,1,7,11
2.10E+02,-7903,-841,1369,-2058,1703,-391,1,7,11
2.10E+02,-8229,-848,986,-1008,2166,-577,1,7,11
2.11E+02,-8089,-650,907,-805,2319,-606,1,7,11
2.11E+02,-8462,-887,1064,-311,2355,-446,1,7,11
2.11E+02,-8558,-789,649,151,2047,-817,1,7,11
2.11E+02,-8367,-400,473,494,1956,-645,1,7,11
2.12E+02,-8426,-550,573,676,2090,-697,1,7,11
2.12E+02,-8711,-197,194,720,1675,-726,1,7,11
2.12E+02,-8436,-341,333,653,1506,-735,1,7,11
2.12E+02,-8437,36,-25,476,1616,-729,1,7,11
2.13E+02,-8732,81,-66,151,1238,-683,1,7,11
2.13E+02,-8756,26,-59,12,1346,-867,1,7,11
2.13E+02,-8736,-338,-58,-597,920,-788,1,7,11
2.13E+02,-8444,-200,-64,-862,1026,-450,1,7,11
2.14E+02,-8365,-252,-122,-1027,887,-394,1,7,11
2.14E+02,-8565,-205,53,-914,813,-636,1,7,11
2.14E+02,-8557,-181,22,-1382,808,-613,1,7,11
2.14E+02,-8325,-241,47,-1611,808,-569,1,7,11
2.15E+02,-8346,-593,64,-1496,782,-525,1,7,11
2.15E+02,-8386,-419,94,-1523,495,-203,1,7,11
2.15E+02,-8411,-506,89,-1466,446,-362,1,7,11
2.15E+02,-8327,-860,55,-1620,601,-284,1,7,11
2.16E+02,-8465,-805,-304,-1198,545,-302,1,7,11
2.16E+02,-8183,-409,-348,-1406,590,7,1,7,11
2.16E+02,-8455,-410,-341,-1223,403,-66,1,7,11
2.16E+02,-8518,-434,-311,-1230,446,355,1,7,11
2.17E+02,-8548,-470,-296,-1164,425,238,1,7,11
2.17E+02,-8344,-769,-278,-1294,388,609,1,7,11
2.17E+02,-8361,-777,-292,-1102,543,460,1,7,11
2.17E+02,-8404,-817,-293,-885,202,808,1,7,11
2.18E+02,-8747,-851,-282,-192,273,659,1,7,11
2.18E+02,-8777,-871,-272,-72,109,742,1,7,11
2.18E+02,-8795,-894,-273,403,-312,1108,1,7,11
2.18E+02,-8810,-1039,45,924,-203,1298,1,7,11
2.19E+02,-8776,-951,95,1880,-387,1184,1,7,11
2.19E+02,-8434,-1313,119,2482,-846,1239,1,7,11
2.19E+02,-8333,-1356,110,3657,-755,1234,1,7,11
2.19E+02,-8526,-1323,112,4335,-1113,1189,1,7,11
2.20E+02,-8459,-924,92,5487,-959,1357,1,7,11
2.20E+02,-8152,-1046,87,6228,-1291,1014,1,7,11
2.20E+02,-8092,-651,66,6600,-1363,906,1,7,11
2.20E+02,-8320,-470,52,7084,-1405,1044,1,7,11
2.21E+02,-8096,-565,56,7361,-1405,702,1,7,11
2.21E+02,-8128,-194,87,7719,-1406,836,1,7,11
2.21E+02,-8140,-311,109,7738,-1177,609,1,7,11
2.21E+02,-8175,84,-91,7423,-1186,354,1,7,11
2.22E+02,-8166,-57,-78,7333,-1214,97,1,7,11
2.22E+02,-8170,347,-37,7470,-1203,-131,1,7,11
2.22E+02,-8469,235,271,7284,-1356,-537,1,7,11
2.22E+02,-8497,551,308,6998,-1288,-559,1,7,11
2.23E+02,-8491,622,313,6541,-970,-523,1,7,11
2.23E+02,-8474,451,295,6301,-1136,-198,1,7,11
2.23E+02,-8491,768,304,6240,-754,-367,1,7,11
2.23E+02,-8503,811,340,5626,-887,8,1,7,11
2.24E+02,-8527,811,159,5484,-777,-104,1,7,11
2.24E+02,-8542,482,521,4779,-427,330,1,7,11
2.24E+02,-8546,617,633,4315,-625,221,1,7,11
2.24E+02,-8488,548,415,4164,-631,571,1,7,11
2.25E+02,-8183,227,440,3557,-614,596,1,7,11
2.25E+02,-8143,211,453,3309,-581,549,1,7,11
2.25E+02,-8103,203,473,3353,-522,212,1,7,11
2.25E+02,-8105,185,502,3102,-176,171,1,7,11
2.26E+02,-8155,132,830,2845,-331,166,1,7,11
2.26E+02,-8187,138,867,2444,-294,141,1,7,11
2.26E+02,-8464,147,647,2604,-284,366,1,7,11
2.26E+02,-8459,173,668,2284,-307,319,1,7,11
2.27E+02,-8154,514,887,2215,-324,348,1,7,11
2.27E+02,-8166,232,661,2348,14,210,1,7,11
2.27E+02,-8457,181,713,2023,74,516,1,7,11
2.27E+02,-8503,197,751,1989,67,244,1,7,11
2.28E+02,-8512,204,764,1959,26,230,1,7,11
2.28E+02,-8526,223,765,1948,-262,224,1,7,11
2.28E+02,-8551,230,760,1928,-291,227,1,7,11
2.28E+02,-8548,245,735,2154,-330,239,1,7,11
2.29E+02,-8532,234,709,2119,-350,249,1,7,11
2.29E+02,-8514,225,693,2095,-358,224,1,7,11
2.29E+02,-8497,194,696,2055,-361,157,1,7,11
2.29E+02,-8502,190,706,1755,-359,318,1,7,11
2.30E+02,-8506,189,712,1679,-370,-16,1,7,11
2.30E+02,-8511,171,708,1837,-132,-83,1,7,11
2.30E+02,-8528,138,711,1497,-158,89,1,7,11
2.30E+02,-8537,364,720,1446,-208,-270,1,7,11
2.31E+02,-8545,372,711,1420,-517,-365,1,7,11
2.31E+02,-8559,369,729,1645,-557,-171,1,7,11
2.31E+02,-8567,350,753,1623,-597,-211,1,7,11
2.31E+02,-8565,346,758,1610,-624,-225,1,7,11
2.32E+02,-8560,337,1035,1595,-634,-207,1,7,11
2.32E+02,-8547,324,1057,1586,-387,-192,1,7,11
2.32E+02,-8534,319,1073,1590,-391,-177,1,7,11
2.32E+02,-8528,324,1094,1598,-626,-146,1,7,11
2.33E+02,-8535,338,1124,1609,-606,-370,1,7,11
2.33E+02,-8542,354,1140,1621,-600,-324,1,7,11
2.33E+02,-8533,367,1142,1632,-601,-267,1,7,11
2.33E+02,-8513,370,903,1633,-595,42,1,7,11
2.34E+02,-8495,375,906,1631,-584,90,1,7,11
2.34E+02,-8483,136,919,1625,-568,-118,1,7,11
2.34E+02,-8476,176,926,1611,-549,-59,1,7,11
2.34E+02,-8475,222,928,1576,-528,269,1,7,11
2.35E+02,-8488,248,945,1256,-252,345,1,7,11
2.35E+02,-8488,522,960,1170,-241,155,1,7,11
2.35E+02,-8472,530,965,1338,-245,186,1,7,11
2.35E+02,-8462,540,985,988,-251,185,1,7,11
2.36E+02,-8463,560,1006,901,-513,177,1,7,11
2.36E+02,-8473,592,1280,1079,-518,173,1,7,11
2.36E+02,-8467,633,1288,756,-526,186,1,7,11
2.36E+02,-8188,402,1286,683,-256,220,1,7,11
2.37E+02,-8162,411,1297,852,-214,515,1,7,11
2.37E+02,-8151,439,1298,769,-163,546,1,7,11
2.37E+02,-8145,456,1308,439,-368,559,1,7,11
2.37E+02,-8165,464,1315,614,-311,558,1,7,11
2.38E+02,-8174,493,1317,537,-270,518,1,7,11
2.38E+02,-8191,498,1320,193,7,223,1,7,11
2.38E+02,-8451,506,1321,347,24,172,1,7,11
2.38E+02,-8460,768,1337,-9,36,365,1,7,11
2.39E+02,-8467,505,1339,-108,54,297,1,7,11
2.39E+02,-8461,505,1335,66,57,231,1,7,11
2.39E+02,-8462,497,1344,0,68,-74,1,7,11
2.39E+02,-8471,483,1381,-327,87,-107,1,7,11
2.40E+02,-8479,482,1407,-376,101,124,1,7,11
2.40E+02,-8469,451,1154,-158,101,124,1,7,11
2.40E+02,-8473,428,1400,-206,117,-109,1,7,11
2.40E+02,-8463,415,1397,-232,-121,-67,1,7,11
2.41E+02,-8457,395,1155,-250,-86,-24,1,7,11
2.41E+02,-8457,424,1155,-515,-52,304,1,7,11
2.41E+02,-8480,388,1204,-531,-32,154,1,7,11
2.41E+02,-8158,477,1370,-236,-15,529,1,7,11
2.42E+02,-8491,498,1384,-554,371,782,1,7,11
2.42E+02,-8515,490,1388,-542,147,713,1,7,11
2.42E+02,-8508,781,1362,-222,149,1075,1,7,11
2.42E+02,-8519,779,1360,-193,152,1133,1,7,11
2.43E+02,-8502,801,1338,-138,350,1099,1,7,11
2.43E+02,-8481,863,1327,-340,289,767,1,7,11
2.43E+02,-8495,875,1313,-292,-17,668,1,7,11
2.43E+02,-8463,882,1305,92,-99,491,1,7,11
2.44E+02,-8478,670,1295,-31,111,558,1,7,11
2.44E+02,-8453,642,1288,138,60,370,1,7,11
2.44E+02,-8121,707,1020,452,25,65,1,7,11
2.44E+02,-8475,1063,1285,892,84,-171,1,7,11
2.45E+02,-8181,1073,1003,675,17,-513,1,7,11
2.45E+02,-8171,1067,1008,650,0,-591,1,7,11
2.45E+02,-8462,1110,1007,824,-257,-604,1,7,11
2.45E+02,-8475,1108,1016,414,-287,-557,1,7,11
2.46E+02,-8189,1089,1007,540,-300,-235,1,7,11
2.46E+02,-8458,1087,998,187,-277,-164,1,7,11
2.46E+02,-8171,1058,988,366,-272,-349,1,7,11
2.46E+02,-8137,1042,970,332,9,-320,1,7,11
2.47E+02,-8152,1045,986,283,41,-309,1,7,11
2.47E+02,-8165,1029,1002,-46,59,-290,1,7,11
2.47E+02,-8186,1038,1017,120,61,-258,1,7,11
2.47E+02,-8172,765,1293,-267,35,55,1,7,11
2.48E+02,-8190,1031,1304,-166,49,112,1,7,11
2.48E+02,-8486,764,1325,-626,21,-17,1,7,11
2.48E+02,-8449,755,1315,-498,-300,305,1,7,11
2.48E+02,-8452,1037,1307,-808,-300,324,1,7,11
2.49E+02,-8456,757,1297,-848,-300,298,1,7,11
2.49E+02,-8187,726,1289,-850,-308,-68,1,7,11
2.49E+02,-8457,740,1303,-855,-310,31,1,7,11
2.49E+02,-8493,755,1319,-644,-330,-332,1,7,11
2.50E+02,-8512,1034,1335,-709,-378,-134,1,7,11
2.50E+02,-8500,1041,1347,-1041,-167,-140,1,7,11
2.50E+02,-8505,1056,1359,-1131,-189,-129,1,7,11
2.50E+02,-8500,763,1386,-1004,-208,-336,1,7,11
2.51E+02,-8471,737,1387,-1369,-227,-295,1,7,11
2.51E+02,-8115,647,1162,-1214,-166,-383,1,7,11
2.51E+02,-8108,683,1169,-1253,-357,-247,1,7,11
2.51E+02,-8073,759,1385,-1599,-298,-635,1,7,11
2.52E+02,-8073,1072,1378,-1805,56,-512,1,7,11
2.52E+02,-8076,915,1387,-2074,-96,-645,1,7,11
2.52E+02,-8074,989,1406,-2192,268,-751,1,7,11
2.52E+02,-8273,1329,1323,-2876,355,-1084,1,7,11
2.53E+02,-8272,1199,1009,-3558,623,-932,1,7,11
2.53E+02,-8077,1400,1301,-4273,796,-1141,1,7,11
2.53E+02,-8080,1006,1309,-5180,656,-1032,1,7,11
2.53E+02,-8113,1046,1332,-5721,1043,-664,1,7,11
2.54E+02,-8305,894,1292,-5820,1118,-815,1,7,11
2.54E+02,-7930,789,1134,-6417,989,-453,1,7,11
2.54E+02,-7894,457,1033,-6531,1241,-386,1,7,11
2.54E+02,-7913,426,716,-6907,1518,-574,1,7,11
2.55E+02,-8265,623,707,-7538,2053,-183,1,7,11
2.55E+02,-8108,527,742,-7573,1992,-267,1,7,11
2.55E+02,-8160,153,729,-7964,2344,-78,1,7,11
2.55E+02,-8476,272,703,-7965,2428,128,1,7,11
2.56E+02,-8558,47,732,-7637,2226,568,1,7,11
2.56E+02,-8430,-227,1076,-7697,2201,392,1,7,11
2.56E+02,-8715,-550,1059,-7268,2004,389,1,7,11
2.56E+02,-8770,-538,746,-6546,2074,472,1,7,11
2.57E+02,-8787,-559,710,-6270,1900,894,1,7,11
2.57E+02,-8793,-600,689,-5653,1485,1034,1,7,11
2.57E+02,-8776,-607,892,-4952,1558,1136,1,7,11
2.57E+02,-8722,-577,827,-4172,1374,938,1,7,11
2.58E+02,-8709,-555,784,-3357,983,933,1,7,11
2.58E+02,-8440,-514,483,-2220,1092,1093,1,7,11
2.58E+02,-8431,-162,424,-1600,679,699,1,7,11
2.58E+02,-8422,-348,632,-813,799,832,1,7,11
2.59E+02,-8430,-279,587,-75,400,433,1,7,11
2.59E+02,-8425,85,537,861,245,536,1,7,11
2.59E+02,-8424,-67,232,1203,361,146,1,7,11
2.59E+02,-8412,268,180,1750,-27,292,1,7,11
2.60E+02,-8377,327,380,2248,-128,-60,1,7,11
2.60E+02,-8354,373,327,2908,60,107,1,7,11
2.60E+02,-8339,162,287,2969,-259,14,1,7,11
2.60E+02,-8555,230,-23,3222,-331,-328,1,7,11
2.61E+02,-8519,618,-113,3659,-129,-148,1,7,11
2.61E+02,-8502,783,75,3666,-141,-160,1,7,11
2.61E+02,-8569,885,71,3231,-148,-331,1,7,11
2.61E+02,-8338,658,62,2993,-236,32,1,7,11
2.62E+02,-8573,892,89,2752,-584,108,1,7,11
2.62E+02,-8544,858,-118,2523,-399,-110,1,7,11
2.62E+02,-8513,797,-52,2580,-468,-103,1,7,11
2.62E+02,-8185,508,-39,2207,-794,110,1,7,11
2.63E+02,-8149,509,-33,2351,-796,62,1,7,11
2.63E+02,-8133,508,258,1994,-496,42,1,7,11
2.63E+02,-8135,787,281,2158,-426,51,1,7,11
2.63E+02,-8152,797,301,2054,-607,99,1,7,11
2.64E+02,-8183,797,331,1708,-537,-104,1,7,11
2.64E+02,-8151,844,317,1890,-230,-48,1,7,11
2.64E+02,-8179,844,343,1520,-155,284,1,7,11
2.64E+02,-8173,859,346,1455,-377,323,1,7,11
2.65E+02,-8191,865,383,1647,-325,338,1,7,11
2.65E+02,-8491,886,169,1607,-299,363,1,7,11
2.65E+02,-8496,895,177,1573,-320,383,1,7,11
2.65E+02,-8495,656,175,1544,-333,143,1,7,11
2.66E+02,-8509,668,182,1248,-338,169,1,7,11
2.66E+02,-8515,663,212,1200,-358,187,1,7,11
2.66E+02,-8517,666,213,1155,-133,187,1,7,11
2.66E+02,-8502,672,215,1359,-167,177,1,7,11
2.67E+02,-8492,687,215,1309,-195,150,1,7,11
2.67E+02,-8485,688,230,980,-218,378,1,7,11
2.67E+02,-8488,683,245,898,-228,347,1,7,11
2.67E+02,-8490,701,512,1081,-239,328,1,7,11
2.68E+02,-8489,706,519,746,-243,318,1,7,11
2.68E+02,-8488,700,535,671,-243,308,1,7,11
2.68E+02,-8478,690,551,861,-240,298,1,7,11
2.68E+02,-8464,660,577,795,-225,277,1,7,11
2.69E+02,-8468,891,604,498,-206,-17,1,7,11
2.69E+02,-8478,871,390,461,-194,-65,1,7,11
2.69E+02,-8479,860,395,447,-198,-117,1,7,11
2.69E+02,-8472,871,403,446,-199,87,1,7,11
2.70E+02,-8468,884,420,450,-184,57,1,7,11
2.70E+02,-8478,652,431,439,-164,72,1,7,11
2.70E+02,-8481,656,437,414,-142,-126,1,7,11
2.70E+02,-8488,895,455,631,-378,-67,1,7,11
2.71E+02,-8486,644,450,599,-370,-25,1,7,11
2.71E+02,-8477,641,464,549,-369,311,1,7,11
2.71E+02,-8456,890,468,530,-362,344,1,7,11
2.71E+02,-8456,644,487,253,-347,375,1,7,11
2.72E+02,-8462,867,777,211,-331,159,1,7,11
2.72E+02,-8191,854,787,200,-332,171,1,7,11
2.72E+02,-8480,837,816,205,-326,156,1,7,11
2.72E+02,-8497,839,827,246,-352,373,1,7,11
2.73E+02,-8506,860,824,542,-137,321,1,7,11
2.73E+02,-8494,858,811,554,-169,274,1,7,11
2.73E+02,-8465,857,802,565,-189,-48,1,7,11
2.73E+02,-8459,862,806,553,-186,126,1,7,11
2.74E+02,-8470,866,816,534,-189,37,1,7,11
2.74E+02,-8483,856,841,516,-204,-317,1,7,11
2.74E+02,-8455,884,836,526,-228,-137,1,7,11
2.74E+02,-8172,678,811,543,-219,-179,1,7,11
2.75E+02,-8168,729,795,553,-164,-172,1,7,11
2.75E+02,-8490,1030,795,529,-340,-340,1,7,11
2.75E+02,-8535,1063,804,244,-303,88,1,7,11
2.75E+02,-8525,1080,804,209,-280,299,1,7,11
2.76E+02,-8502,1103,809,162,14,540,1,7,11
2.76E+02,-8464,1112,795,346,60,823,1,7,11
2.76E+02,-8150,1129,503,295,108,1108,1,7,11
2.76E+02,-8115,1132,499,308,-58,1311,1,7,11
2.77E+02,-8133,1102,773,318,299,1170,1,7,11
2.77E+02,-8173,1047,833,278,329,1192,1,7,11
2.77E+02,-8176,733,872,-3,259,1311,1,7,11
2.77E+02,-8461,1043,859,261,-105,1057,1,7,11
2.78E+02,-8463,896,821,-53,18,799,1,7,11
2.78E+02,-8163,1294,782,95,-355,570,1,7,11
2.78E+02,-8117,1406,455,-307,-141,139,1,7,11
2.78E+02,-8074,1241,430,-217,-366,309,1,7,11
2.79E+02,-8261,1568,637,-397,-273,311,1,7,11
2.79E+02,-8259,1658,618,-866,-104,380,1,7,11
2.79E+02,-8205,1829,240,-1041,329,244,1,7,11
2.79E+02,-7818,1776,340,-1304,581,400,1,7,11
2.80E+02,-8043,2154,268,-1528,701,471,1,7,11
2.80E+02,-7813,2344,-34,-2343,1292,393,1,7,11
2.80E+02,-7881,2281,-72,-3077,1568,230,1,7,11
2.80E+02,-8202,2462,-61,-3956,1530,347,1,7,11
2.81E+02,-8295,2821,49,-4959,1695,-29,1,7,11
2.81E+02,-8485,2538,535,-5790,2057,-108,1,7,11
2.81E+02,-8411,2445,396,-7019,1720,-85,1,7,11
2.81E+02,-8323,2409,420,-7639,1443,266,1,7,11
2.82E+02,-8516,2336,612,-8351,1175,308,1,7,11
2.82E+02,-8475,1928,524,-8954,1004,335,1,7,11
2.82E+02,-8170,1711,188,-9444,1125,356,1,7,11
2.82E+02,-8077,1520,296,-9991,1035,300,1,7,11
2.83E+02,-8193,1450,121,-9857,1046,-11,1,7,11
2.83E+02,-7834,1573,56,-10256,936,273,1,7,11
2.83E+02,-7655,1171,90,-9966,1154,-86,1,7,11
2.83E+02,-7980,999,-17,-10089,1523,-259,1,7,11
2.84E+02,-7828,1096,367,-9736,1775,-153,1,7,11
2.84E+02,-7899,1041,188,-8614,1987,-477,1,7,11
2.84E+02,-7906,1027,237,-8236,2350,-728,1,7,11
2.84E+02,-7837,759,253,-7350,2193,-970,1,7,11
2.85E+02,-7631,651,231,-6789,2628,-1214,1,7,11
2.85E+02,-7339,438,218,-6455,2744,-1834,1,7,11
2.85E+02,-7520,229,549,-5718,3630,-2183,1,7,11
2.85E+02,-7744,148,443,-4586,4037,-2954,1,7,11
2.86E+02,-7868,204,806,-3907,4488,-3892,1,7,11
2.86E+02,-8489,604,790,-2778,4933,-4035,1,7,11
2.86E+02,-8436,439,384,-2338,4898,-4089,1,7,11
2.86E+02,-8766,476,132,-1800,4486,-4168,1,7,11
2.87E+02,-8754,446,95,-1188,4271,-3841,1,7,11
2.87E+02,-8718,588,-418,-959,4027,-3206,1,7,11
2.87E+02,-8373,523,-853,-1120,3765,-3081,1,7,11
2.87E+02,-8540,147,-909,-1121,3553,-2480,1,7,11
2.88E+02,-8459,261,-1159,-911,3625,-2179,1,7,11
2.88E+02,-8095,-86,-1632,-986,3431,-2167,1,7,11
2.88E+02,-8259,76,-1794,-1396,3012,-1682,1,7,11
2.88E+02,-7929,-265,-1722,-1556,3117,-1485,1,7,11
2.89E+02,-7883,-130,-2052,-1447,2709,-1570,1,7,11
2.89E+02,-7846,-176,-2137,-1533,2552,-1397,1,7,11
2.89E+02,-7835,-194,-1955,-1814,2662,-984,1,7,11
2.89E+02,-7913,-196,-2024,-1798,2267,-1084,1,7,11
2.90E+02,-8280,-248,-2314,-1493,2350,-791,1,7,11
2.90E+02,-8076,-528,-2338,-1639,1920,-443,1,7,11
2.90E+02,-8145,-586,-2381,-1204,1688,-525,1,7,11
2.90E+02,-8452,-610,-2432,-1001,1422,-354,1,7,11
2.91E+02,-8174,-637,-2249,-1044,1391,57,1,7,11
2.91E+02,-8070,-438,-2277,-849,1118,-91,1,7,11
2.91E+02,-7925,-462,-2587,-387,653,-117,1,7,11
2.91E+02,-7892,-405,-2616,-165,493,87,1,7,11
2.92E+02,-7895,-634,-2623,-290,628,-325,1,7,11
2.92E+02,-7894,-627,-2588,55,255,-177,1,7,11
2.92E+02,-7882,-618,-2293,-119,138,-554,1,7,11
2.92E+02,-7847,-599,-2263,-16,286,-627,1,7,11
2.93E+02,-7826,-615,-2214,347,-75,-408,1,7,11
2.93E+02,-8031,-608,-2239,168,90,-457,1,7,11
2.93E+02,-7994,-569,-2278,208,50,-512,1,7,11
2.93E+02,-8012,-545,-2570,192,54,-787,1,7,11
2.94E+02,-8025,-536,-2606,159,42,-509,1,7,11
2.94E+02,-8013,-553,-2650,144,20,-467,1,7,11
2.94E+02,-7953,-552,-2456,158,-260,-438,1,7,11
2.94E+02,-7615,-540,-2532,144,-274,-438,1,7,11
2.95E+02,-7778,-412,-2537,260,-259,-488,1,7,11
2.95E+02,-7700,-707,-2663,-114,49,-723,1,7,11
2.95E+02,-7417,-1140,-2561,316,91,-1199,1,7,11
2.95E+02,-7409,-1046,-2289,424,125,-1745,1,7,11
2.96E+02,-7711,-485,-2564,739,-20,-2205,1,7,11
2.96E+02,-7678,-185,-2253,1068,382,-2466,1,7,11
2.96E+02,-7862,-325,-2413,686,151,-2496,1,7,11
2.96E+02,-8256,-354,-2026,792,377,-2680,1,7,11
2.97E+02,-8284,-187,-1931,459,312,-2230,1,7,11
2.97E+02,-8225,-226,-2160,431,-11,-1942,1,7,11
2.97E+02,-7900,-167,-1926,596,-34,-1522,1,7,11
2.97E+02,-7825,-203,-1968,268,-15,-946,1,7,11
2.98E+02,-7839,-596,-1936,-356,280,-451,1,7,11
2.98E+02,-7862,-416,-1936,-522,-33,-189,1,7,11
2.98E+02,-7825,-485,-1979,-561,-127,-329,1,7,11
2.98E+02,-8030,-787,-2024,-556,98,-286,1,7,11
2.99E+02,-8017,-846,-2023,-587,-126,54,1,7,11
2.99E+02,-8060,-681,-1957,-626,-83,-10,1,7,11
2.99E+02,-7849,-1046,-2171,-599,-87,242,1,7,11
2.99E+02,-7900,-908,-2163,-530,-128,479,1,7,11
3.00E+02,-8032,-1300,-1932,-144,30,666,1,7,11
3.00E+02,-7656,-1336,-1982,51,3,667,1,7,11
3.00E+02,-7641,-1301,-2023,-60,33,877,1,7,11
3.00E+02,-7939,-1289,-2030,-27,27,807,1,7,11
3.01E+02,-7952,-985,-2315,-56,-314,454,1,7,11
3.01E+02,-7600,-1059,-2183,119,-176,412,1,7,11
3.01E+02,-7660,-1105,-2210,-165,-146,452,1,7,11
3.01E+02,-7611,-1140,-2232,-207,-147,634,1,7,11
3.02E+02,-7579,-1053,-2286,-189,-376,204,1,7,11
3.02E+02,-7620,-1062,-2269,-539,-266,153,1,7,11
3.02E+02,-7967,-1086,-2241,-632,42,145,1,7,11
3.02E+02,-8003,-1100,-2240,-429,-265,162,1,7,11
3.03E+02,-7998,-1123,-2266,-451,-322,162,1,7,11
3.03E+02,-8010,-1028,-2292,-437,-378,141,1,7,11
3.03E+02,-8060,-677,-2298,-780,-155,214,1,7,11
3.03E+02,-7892,-664,-2282,-688,-198,617,1,7,11
3.04E+02,-7908,-675,-2248,-1061,-552,487,1,7,11
3.04E+02,-7886,-658,-2216,-1129,-638,835,1,7,11
3.04E+02,-7868,-894,-2183,-901,-436,668,1,7,11
3.04E+02,-7836,-857,-2424,-901,-482,767,1,7,11
3.05E+02,-7834,-846,-2376,-1142,-483,1099,1,7,11
3.05E+02,-7890,-849,-1963,-1117,-479,901,1,7,11
3.05E+02,-7877,-835,-1924,-760,-790,934,1,7,11
3.05E+02,-7812,-465,-1934,-803,-869,901,1,7,11
3.06E+02,-8061,-573,-1929,-387,-887,1132,1,7,11
3.06E+02,-8039,-184,-1941,-553,-885,920,1,7,11
3.06E+02,-8000,-346,-1943,-544,-886,1332,1,7,11
3.06E+02,-7993,-318,-2136,-623,-853,1179,1,7,11
3.07E+02,-8042,-314,-2062,-451,-829,1244,1,7,11
3.07E+02,-7868,-307,-1708,-511,-850,1238,1,7,11
3.07E+02,-7935,66,-1913,-470,-704,1199,1,7,11
3.07E+02,-8198,94,-1876,-423,-1056,1226,1,7,11
3.08E+02,-8230,-258,-1515,-605,-1058,1225,1,7,11
3.08E+02,-8067,-302,-1417,-200,-1116,1165,1,7,11
3.08E+02,-8091,-305,-1626,-303,-1304,1356,1,7,11
3.08E+02,-8317,-260,-1423,-56,-1227,1293,1,7,11
3.09E+02,-8262,107,-1445,238,-1582,985,1,7,11
3.09E+02,-8268,-68,-1442,450,-1600,963,1,7,11
3.09E+02,-8229,374,-1465,870,-1659,974,1,7,11
3.09E+02,-7933,247,-1469,725,-1456,1006,1,7,11
3.10E+02,-7898,613,-1424,761,-1409,1315,1,7,11
3.10E+02,-7883,434,-1612,739,-1580,1392,1,7,11
3.10E+02,-7889,460,-1269,678,-1224,1217,1,7,11
3.10E+02,-7889,488,-1191,869,-1374,1549,1,7,11
3.11E+02,-7882,505,-1387,806,-1020,1610,1,7,11
3.11E+02,-7841,768,-1339,503,-1131,1423,1,7,11
3.11E+02,-7831,502,-1291,777,-736,1647,1,7,11
3.11E+02,-7832,440,-957,836,-844,1554,1,7,11
3.12E+02,-7875,595,-1106,696,-451,1367,1,7,11
3.12E+02,-8217,513,-741,921,-632,1098,1,7,11
3.12E+02,-8274,203,-687,1240,-406,791,1,7,11
3.12E+02,-8299,372,-661,1882,-490,245,1,7,11
3.13E+02,-8238,301,-729,2407,-827,-29,1,7,11
3.13E+02,-7913,-15,-1078,2755,-815,-312,1,7,11
3.13E+02,-7892,-30,-911,3666,-458,-574,1,7,11
3.13E+02,-7891,-24,-990,4063,-579,-503,1,7,11
3.14E+02,-7879,-54,-1322,4943,-171,-893,1,7,11
3.14E+02,-7836,-103,-1354,5292,-271,-750,1,7,11
3.14E+02,-7846,60,-1378,5849,-97,-1114,1,7,11
3.14E+02,-7892,-329,-1355,6329,305,-959,1,7,11
3.15E+02,-8235,-206,-1325,6794,129,-1324,1,7,11
3.15E+02,-8125,-576,-1014,7479,373,-1176,1,7,11
3.15E+02,-8331,-408,-992,7596,-14,-1241,1,7,11
3.15E+02,-8778,-440,-993,7901,-297,-1211,1,7,11
3.16E+02,-8634,-433,-1338,8134,-451,-1362,1,7,11
3.16E+02,-8639,-474,-1173,8517,-897,-1004,1,7,11
3.16E+02,-8826,-465,-1256,8410,-1545,-992,1,7,11
3.16E+02,-8749,-582,-1597,8576,-1844,-998,1,7,11
3.17E+02,-8374,-230,-1637,8577,-1765,-1136,1,7,11
3.17E+02,-8552,-154,-1639,8735,-2066,-716,1,7,11
3.17E+02,-8554,-329,-1561,8524,-1790,-785,1,7,11
3.17E+02,-8538,-274,-1236,8231,-2061,-559,1,7,11
3.18E+02,-8527,-275,-1367,7615,-2073,-352,1,7,11
3.18E+02,-8526,-304,-967,7504,-2092,71,1,7,11
3.18E+02,-8495,-347,-1095,6879,-2139,-34,1,7,11
3.18E+02,-8188,-164,-725,6770,-1931,330,1,7,11
3.19E+02,-8132,-203,-653,6434,-1950,383,1,7,11
3.19E+02,-8131,-522,-808,5811,-2173,142,1,7,11
3.19E+02,-8151,-565,-451,5726,-2119,137,1,7,11
3.19E+02,-8191,-592,-594,5408,-2065,371,1,7,11
3.20E+02,-8462,-607,-212,4848,-1782,342,1,7,11
3.20E+02,-8483,-624,-343,4539,-1755,315,1,7,11
3.20E+02,-8497,-637,52,4230,-1739,292,1,7,11
3.20E+02,-8549,-437,-53,4158,-1730,265,1,7,11
3.21E+02,-8328,-474,331,3879,-1755,-13,1,7,11
3.21E+02,-8570,-499,182,3611,-2069,-34,1,7,11
3.21E+02,-8543,-500,530,3378,-2128,-64,1,7,11
3.21E+02,-8519,-457,612,3156,-1927,-67,1,7,11
3.22E+02,-8480,-410,494,2879,-1974,-5,1,7,11
3.22E+02,-8159,-405,842,2578,-2047,147,1,7,11
3.22E+02,-8121,-424,689,2010,-2338,242,1,7,11
3.22E+02,-8098,-444,1068,1694,-2357,574,1,7,11
3.23E+02,-8095,-472,950,1414,-2365,631,1,7,11
3.23E+02,-8316,-454,1300,1355,-2365,433,1,7,11
3.23E+02,-8078,-471,1153,915,-2310,498,1,7,11
3.23E+02,-8289,-471,1251,1124,-1999,797,1,7,11
3.24E+02,-7922,-456,1570,1126,-2118,837,1,7,11
3.24E+02,-7888,-457,1421,1132,-1876,862,1,7,11
3.24E+02,-7859,-427,1510,930,-1619,881,1,7,11
3.24E+02,-7833,-598,1803,985,-1351,667,1,7,11
3.25E+02,-7823,-547,1845,956,-1044,759,1,7,11
3.25E+02,-7844,-231,1865,927,-470,1108,1,7,11
3.25E+02,-7880,-160,1882,1141,-160,943,1,7,11
3.25E+02,-8194,-370,1904,1051,95,1285,1,7,11
3.26E+02,-8238,-142,1691,674,258,1310,1,7,11
3.26E+02,-8305,-345,1697,885,335,1005,1,7,11
3.26E+02,-8141,-330,1706,842,355,938,1,7,11
3.26E+02,-8462,-335,1718,870,306,1077,1,7,11
3.27E+02,-8460,86,1713,682,-51,685,1,7,11
3.27E+02,-8576,-27,1912,799,-87,708,1,7,11
3.27E+02,-8362,-57,1673,394,55,1044,1,7,11
3.27E+02,-8568,-68,1891,609,-328,698,1,7,11
3.28E+02,-8334,-126,1692,559,-378,778,1,7,11
3.28E+02,-8357,111,1763,593,-231,244,1,7,11
3.28E+02,-8353,-113,2051,394,-623,-31,1,7,11
3.28E+02,-8332,-110,2073,417,-484,-263,1,7,11
3.29E+02,-8549,-80,2075,422,-834,-198,1,7,11
3.29E+02,-8526,-106,2124,627,-884,-581,1,7,11
3.29E+02,-8505,104,1925,585,-671,-417,1,7,11
3.29E+02,-8488,96,1948,574,-712,-481,1,7,11
3.30E+02,-8450,62,1983,570,-753,-508,1,7,11
3.30E+02,-8157,48,2003,581,-1034,-505,1,7,11
3.30E+02,-8125,37,2044,576,-1037,-449,1,7,11
3.30E+02,-8082,-261,2325,561,-768,-632,1,7,11
3.31E+02,-8313,-287,2365,563,-747,-548,1,7,11
3.31E+02,-8258,-328,2381,566,-700,-171,1,7,11
3.31E+02,-8232,-311,2403,616,-644,-130,1,7,11
3.31E+02,-8235,-280,2412,408,-832,-304,1,7,11
3.32E+02,-8224,-265,2424,404,-510,52,1,7,11
3.32E+02,-8229,5,2430,406,-444,125,1,7,11
3.32E+02,-8226,22,2181,411,-632,-66,1,7,11
3.32E+02,-8221,63,2190,406,-562,-5,1,7,11
3.33E+02,-8224,100,2201,636,-230,330,1,7,11
3.33E+02,-8237,-125,2205,617,-150,165,1,7,11
3.33E+02,-8253,-96,2200,621,-321,252,1,7,11
3.33E+02,-8246,-89,2182,387,24,591,1,7,11
3.34E+02,-8250,-110,2403,442,-105,390,1,7,11
3.34E+02,-8272,-101,2383,834,285,638,1,7,11
3.34E+02,-8231,-76,2374,684,165,384,1,7,11
3.34E+02,-8212,-126,2378,712,603,408,1,7,11
3.35E+02,-8202,73,2362,1061,770,599,1,7,11
3.35E+02,-7917,0,2344,904,670,251,1,7,11
3.35E+02,-7882,-273,2314,997,1094,131,1,7,11
3.35E+02,-7911,-277,2045,1280,1287,316,1,7,11
3.36E+02,-8211,16,2031,1018,1168,262,1,7,11
3.36E+02,-8268,63,2010,983,1542,280,1,7,11
3.36E+02,-8288,97,1961,945,1618,345,1,7,11
3.36E+02,-8308,117,1926,920,1433,156,1,7,11
3.37E+02,-8081,-103,2136,906,1486,227,1,7,11
3.37E+02,-8106,-62,2094,1132,1507,587,1,7,11
3.37E+02,-8111,272,1779,1082,1524,462,1,7,11
3.37E+02,-8140,339,1722,714,1803,660,1,7,11
3.38E+02,-8157,134,1909,827,1820,1143,1,7,11
3.38E+02,-8169,174,1854,440,1840,1345,1,7,11
3.38E+02,-8454,238,1533,582,1841,1237,1,7,11
3.38E+02,-8472,562,1465,206,1815,1592,1,7,11
3.39E+02,-8511,408,1660,329,1521,1647,1,7,11
3.39E+02,-8556,507,1604,-121,1443,1457,1,7,11
3.39E+02,-8340,834,1546,-362,1572,1517,1,7,11
3.39E+02,-8390,647,1217,-582,1400,1506,1,7,11
3.40E+02,-8733,743,1406,-488,909,1617,1,7,11
3.40E+02,-8802,1150,1305,-860,859,1381,1,7,11
3.40E+02,-8608,1287,958,-693,523,1072,1,7,11
3.40E+02,-8626,1155,1133,-733,-90,421,1,7,11
3.41E+02,-8607,1537,1100,-722,-157,260,1,7,11
3.41E+02,-8795,1603,1089,-713,-431,-363,1,7,11
3.41E+02,-8421,1630,1113,-707,-657,-423,1,7,11
3.41E+02,-8374,1606,1121,-695,-1086,-895,1,7,11
3.42E+02,-8538,1562,949,-690,-921,-1026,1,7,11
3.42E+02,-8488,1220,1018,-676,-947,-1086,1,7,11
3.42E+02,-8474,1377,1350,-642,-940,-1087,1,7,11
3.42E+02,-8192,1314,1158,-852,-933,-1044,1,7,11
3.43E+02,-8173,964,1216,-855,-918,-689,1,7,11
3.43E+02,-8152,1121,1255,-883,-913,-819,1,7,11
3.43E+02,-8093,751,1563,-662,-902,-444,1,7,11
3.43E+02,-8074,710,1580,-880,-1140,-385,1,7,11
3.44E+02,-8293,877,1636,-809,-1109,-619,1,7,11
3.44E+02,-8263,872,1641,-431,-1067,-626,1,7,11
3.44E+02,-8272,868,1409,-572,-736,-600,1,7,11
3.44E+02,-8252,817,1431,-203,-677,-540,1,7,11
3.45E+02,-8247,456,1507,-365,-858,-239,1,7,11
3.45E+02,-7907,436,1523,-287,-798,-203,1,7,11
3.45E+02,-8257,615,1843,-321,-629,-356,1,7,11
3.45E+02,-7871,391,1805,-269,-559,9,1,7,11
3.46E+02,-7915,633,1821,22,-359,-114,1,7,11
3.46E+02,-8203,235,1886,-263,-121,325,1,7,11
3.46E+02,-8242,376,1683,71,278,334,1,7,11
3.46E+02,-8305,304,1718,262,150,-94,1,7,11
3.47E+02,-8099,365,1716,169,178,15,1,7,11
3.47E+02,-8157,156,1667,557,186,-308,1,7,11
3.47E+02,-8164,202,1905,395,207,-341,1,7,11
3.47E+02,-8190,170,1876,448,238,-375,1,7,11
3.48E+02,-8464,334,1871,498,236,-516,1,7,11
3.48E+02,-8182,139,1834,807,202,-454,1,7,11
3.48E+02,-8368,310,1888,472,223,-827,1,7,11
3.48E+02,-8354,311,1858,835,310,-1079,1,7,11
3.49E+02,-8389,381,1829,871,-31,-1007,1,7,11
3.49E+02,-8417,133,1812,869,-102,-1329,1,7,11
3.49E+02,-8419,134,1531,883,84,-1381,1,7,11
3.49E+02,-8422,375,1793,882,31,-1165,1,7,11
3.50E+02,-8390,311,1814,884,-311,-1247,1,7,11
3.50E+02,-8354,-20,1837,850,-132,-1587,1,7,11
3.50E+02,-8566,-46,1859,841,-216,-1411,1,7,11
3.50E+02,-8565,-45,1866,795,-541,-1662,1,7,11
3.51E+02,-8533,-11,1895,483,-609,-1564,1,7,11
3.51E+02,-8495,-33,1876,433,-393,-1168,1,7,11
3.51E+02,-8141,281,1855,401,-415,-994,1,7,11
3.51E+02,-8155,-96,1905,520,-588,-677,1,7,11
3.52E+02,-8094,-115,1894,553,-609,-792,1,7,11
3.52E+02,-8150,39,1747,246,-235,-404,1,7,11
3.52E+02,-8306,59,1733,532,-237,-589,1,7,11
3.52E+02,-8078,101,1763,588,-152,-169,1,7,11
3.53E+02,-8299,69,1782,576,-365,-259,1,7,11
3.53E+02,-8299,98,1789,613,-301,-94,1,7,11
3.53E+02,-8300,104,2056,417,17,348,1,7,11
3.53E+02,-8276,111,1791,452,74,523,1,7,11
3.54E+02,-8260,125,1782,465,-125,439,1,7,11
3.54E+02,-8267,103,1779,451,-89,824,1,7,11
3.54E+02,-8246,-92,1740,498,-77,657,1,7,11
3.54E+02,-8279,-77,1737,482,-30,749,1,7,11
3.55E+02,-8250,-61,1722,776,-17,1038,1,7,11
3.55E+02,-8284,316,1694,823,299,1081,1,7,11
3.55E+02,-8072,359,1700,794,135,946,1,7,11
3.55E+02,-8088,342,1702,508,209,1010,1,7,11
3.56E+02,-8145,155,1697,496,524,996,1,7,11
3.56E+02,-8467,232,1679,413,565,1023,1,7,11
3.56E+02,-8512,527,1666,568,556,1300,1,7,11
3.56E+02,-8567,599,1879,515,513,988,1,7,11
3.57E+02,-8348,405,1842,244,174,1126,1,7,11
3.57E+02,-8354,459,1533,230,346,704,1,7,11
3.57E+02,-8372,508,1509,216,270,509,1,7,11
3.57E+02,-8394,813,1506,180,-69,546,1,7,11
3.58E+02,-8399,851,1493,146,81,318,1,7,11
3.58E+02,-8386,642,1491,344,-285,116,1,7,11
3.58E+02,-8358,658,1488,268,-379,-305,1,7,11
3.58E+02,-8574,892,1492,-57,-191,-190,1,7,11
3.59E+02,-8544,883,1505,-103,-238,-572,1,7,11
3.59E+02,-8506,865,1523,92,-532,-391,1,7,11
3.59E+02,-8462,801,1805,45,-546,-445,1,7,11
3.59E+02,-8177,507,1829,25,-546,-499,1,7,11
3.60E+02,-8164,475,1862,5,-535,-510,1,7,11
3.60E+02,-8137,438,1889,3,-529,-494,1,7,11
3.60E+02,-8113,399,1894,11,-251,-459,1,7,11
3.60E+02,-8078,386,1667,28,-214,-404,1,7,11
3.61E+02,-8304,618,1673,50,-166,-593,1,7,11
3.61E+02,-8278,594,1686,70,-357,-523,1,7,11
3.61E+02,-8248,566,1698,99,-282,-203,1,7,11
3.61E+02,-8226,553,1697,-88,47,-177,1,7,11
3.62E+02,-8209,565,1688,-12,-125,-150,1,7,11
3.62E+02,-8219,584,1684,286,-30,-337,1,7,11
3.62E+02,-8233,590,1674,303,323,15,1,7,11
3.62E+02,-8235,608,1910,320,164,117,1,7,11
3.63E+02,-8263,619,1895,326,534,-19,1,7,11
3.63E+02,-8290,622,1879,343,396,358,1,7,11
3.63E+02,-8311,620,1849,348,776,230,1,7,11
3.63E+02,-8297,585,1812,354,647,593,1,7,11
3.64E+02,-8293,592,1798,361,1046,424,1,7,11
3.64E+02,-8294,585,1526,350,930,799,1,7,11
3.64E+02,-8276,558,1552,337,1300,654,1,7,11
3.64E+02,-8074,241,1843,331,1394,717,1,7,11
3.65E+02,-8145,224,1848,132,1153,731,1,7,11
3.65E+02,-8181,512,1807,215,1361,710,1,7,11
3.65E+02,-8484,560,1472,551,1312,671,1,7,11
3.65E+02,-8529,610,1414,616,1003,869,1,7,11
3.66E+02,-8334,635,1599,410,954,785,1,7,11
3.66E+02,-8384,437,1559,445,896,443,1,7,11
3.66E+02,-8436,492,1265,472,1066,525,1,7,11
3.66E+02,-8723,809,1227,505,690,201,1,7,11
3.67E+02,-8753,840,1179,778,790,314,1,7,11
3.67E+02,-8756,871,1389,774,616,-93,1,7,11
3.67E+02,-8445,748,1312,781,176,1,1,7,11
3.67E+02,-8828,752,1315,427,332,-326,1,7,11
3.68E+02,-8722,759,988,422,114,-185,1,7,11
3.68E+02,-8431,1052,967,461,-334,-500,1,7,11
3.68E+02,-8420,1070,968,473,-174,-894,1,7,11
3.68E+02,-8383,1077,955,464,-565,-735,1,7,11
3.69E+02,-8355,1068,947,457,-459,-1067,1,7,11
3.69E+02,-8571,1053,954,465,-544,-901,1,7,11
3.69E+02,-8498,1036,949,509,-870,-965,1,7,11
3.69E+02,-8173,764,958,796,-892,-994,1,7,11
3.70E+02,-8142,753,1008,796,-857,-947,1,7,11
3.70E+02,-8135,748,1303,468,-821,-1069,1,7,11
3.70E+02,-8123,744,1331,425,-784,-883,1,7,11
3.70E+02,-8083,722,1348,614,-481,-404,1,7,11
3.71E+02,-8291,680,1351,521,-393,-142,1,7,11
3.71E+02,-8220,865,1361,160,-543,94,1,7,11
3.71E+02,-8215,857,1365,325,-153,283,1,7,11
3.71E+02,-8213,857,1372,-70,-276,240,1,7,11
3.72E+02,-8223,856,1385,50,125,453,1,7,11
3.72E+02,-8257,876,1407,-322,263,662,1,7,11
3.72E+02,-8288,872,1177,-160,376,1121,1,7,11
3.72E+02,-8275,832,1186,-226,207,1013,1,7,11
3.73E+02,-8260,784,1202,-253,547,1350,1,7,11
3.73E+02,-8248,806,1200,-220,393,1382,1,7,11
3.73E+02,-8274,842,1199,-180,510,1407,1,7,11
3.73E+02,-8317,858,1230,-176,870,1187,1,7,11
3.74E+02,-8151,877,1245,-189,708,1202,1,7,11
3.74E+02,-8175,882,1265,-250,714,1190,1,7,11
3.74E+02,-8497,888,1541,-618,691,1398,1,7,11
3.74E+02,-8488,728,1272,-481,844,1327,1,7,11
3.75E+02,-8744,1102,1200,-700,814,1303,1,7,11
3.75E+02,-8744,1112,1393,-1039,539,963,1,7,11
3.75E+02,-8423,1113,1343,-686,353,856,1,7,11
3.75E+02,-8739,909,1350,-835,-2,515,1,7,11
3.76E+02,-8713,1148,1361,-492,77,-51,1,7,11
3.76E+02,-8443,1141,1371,-405,-336,-131,1,7,11
3.76E+02,-8416,1127,1366,-582,-247,-423,1,7,11
3.76E+02,-8365,1128,1364,-248,-632,-647,1,7,11
3.77E+02,-8330,1108,1400,-207,-443,-1048,1,7,11
3.77E+02,-8549,1071,1160,-174,-494,-1122,1,7,11
3.77E+02,-8518,1025,1188,-382,-785,-906,1,7,11
3.77E+02,-8452,703,1208,-323,-812,-930,1,7,11
3.78E+02,-8158,886,1241,2,-810,-981,1,7,11
3.78E+02,-8150,839,1272,111,-814,-1335,1,7,11
3.78E+02,-8116,878,1538,-7,-838,-1204,1,7,11
3.78E+02,-8175,666,1563,262,-825,-1229,1,7,11
3.79E+02,-8143,703,1543,-19,-871,-1157,1,7,11
3.79E+02,-8155,752,1271,-69,-855,-1024,1,7,11
3.79E+02,-8100,1028,1250,107,-825,-1053,1,7,11
3.79E+02,-8075,1036,1271,20,-784,-840,1,7,11
3.80E+02,-8275,734,1554,-372,-783,-424,1,7,11
3.80E+02,-8309,670,1604,-232,-809,-609,1,7,11
3.80E+02,-8206,649,1564,-522,-687,-575,1,7,11
3.80E+02,-8227,708,1550,-519,-677,-599,1,7,11
3.81E+02,-8308,766,1580,-542,-887,-521,1,7,11
3.81E+02,-8115,1027,1619,-587,-849,-147,1,7,11
3.81E+02,-8169,716,1428,-639,-826,-304,1,7,11
3.81E+02,-8462,656,1484,-633,-847,-311,1,7,11
3.82E+02,-8483,649,1516,-583,-885,-131,1,7,11
3.82E+02,-8493,678,1530,-553,-641,-194,1,7,11
3.82E+02,-8475,685,1807,-571,-660,-249,1,7,11
3.82E+02,-8457,672,1826,-636,-668,-570,1,7,11
3.83E+02,-8467,671,1852,-461,-667,-627,1,7,11
3.83E+02,-8466,659,1868,-810,-659,-388,1,7,11
3.83E+02,-8482,858,1918,-666,-888,-389,1,7,11
3.83E+02,-8485,505,1719,-756,-864,-393,1,7,11
3.84E+02,-8495,408,1783,-1039,-845,-435,1,7,11
3.84E+02,-8492,589,2081,-1031,-832,-492,1,7,11
3.84E+02,-8486,205,2145,-1035,-816,-805,1,7,11
3.84E+02,-8502,338,1969,-758,-814,-894,1,7,11
3.85E+02,-8488,258,2017,-693,-855,-744,1,7,11
3.85E+02,-8165,-64,2018,-881,-648,-1116,1,7,11
3.85E+02,-8120,-106,2024,-804,-659,-998,1,7,11
3.85E+02,-8134,125,2309,-452,-649,-1367,1,7,11
3.86E+02,-8167,71,2343,-600,-643,-1184,1,7,11
3.86E+02,-8162,17,2367,-244,-657,-1228,1,7,11
3.86E+02,-8116,-276,2357,-147,-699,-1279,1,7,11
3.86E+02,-8254,-321,2334,-298,-740,-1608,1,7,11
3.87E+02,-7894,-287,2339,87,-1066,-1435,1,7,11
3.87E+02,-8231,-310,2418,86,-740,-1416,1,7,11
3.87E+02,-8277,-308,2186,106,-744,-1584,1,7,11
3.87E+02,-8307,-295,2201,110,-737,-1331,1,7,11
3.88E+02,-8320,-280,2247,103,-692,-1083,1,7,11
3.88E+02,-8320,-303,2279,93,-864,-785,1,7,11
3.88E+02,-8304,-349,2583,81,-510,-231,1,7,11
3.88E+02,-8292,-140,2642,-113,-423,-257,1,7,11
3.89E+02,-8293,-169,2451,353,-547,269,1,7,11
3.89E+02,-8297,-220,2469,554,-224,177,1,7,11
3.89E+02,-8288,-256,2493,795,-189,542,1,7,11
3.89E+02,-8275,-517,2486,1039,-161,624,1,7,11
3.90E+02,-8291,-515,2500,1008,-130,442,1,7,11
3.90E+02,-8074,-519,2527,1254,-137,495,1,7,11
3.90E+02,-8078,-217,2515,1496,-183,799,1,7,11
3.90E+02,-8083,-182,2511,1680,-227,846,1,7,11
3.91E+02,-8065,-156,2509,2106,-522,840,1,7,11
3.91E+02,-8293,-378,2498,2003,-555,778,1,7,11
3.91E+02,-8255,-133,2498,2351,-563,414,1,7,11
3.91E+02,-8272,-161,2463,2187,-552,244,1,7,11
3.92E+02,-8208,-314,2495,2586,-561,265,1,7,11
3.92E+02,-8296,52,2493,2622,-228,126,1,7,11
3.92E+02,-8319,115,2498,2459,-241,14,1,7,11
3.92E+02,-8286,-11,2434,2547,-234,-372,1,7,11
3.93E+02,-8284,336,2674,2546,-181,-183,1,7,11
3.93E+02,-8274,373,2673,2526,-131,-236,1,7,11
3.93E+02,-8237,195,2662,2506,-363,-556,1,7,11
3.93E+02,-8263,527,2673,2650,-318,-557,1,7,11
3.94E+02,-8274,614,2674,2246,-310,-242,1,7,11
3.94E+02,-8291,423,2674,2044,-315,-384,1,7,11
3.94E+02,-8312,467,2437,2104,-338,-272,1,7,11
3.94E+02,-8197,869,2442,1684,-137,110,1,7,11
3.95E+02,-8137,854,2475,1559,-289,152,1,7,11
3.95E+02,-8252,859,2442,1383,-151,603,1,7,11
3.95E+02,-8239,886,2458,1126,-365,510,1,7,11
3.95E+02,-8269,803,2509,886,-336,887,1,7,11
3.96E+02,-7913,836,2512,784,-367,867,1,7,11
3.96E+02,-7890,843,2528,390,-307,873,1,7,11
3.96E+02,-7882,856,2537,556,18,866,1,7,11
3.96E+02,-7867,875,2558,226,95,870,1,7,11
3.97E+02,-7887,894,2821,163,-31,669,1,7,11
3.97E+02,-7861,669,2835,158,284,689,1,7,11
3.97E+02,-7889,715,2846,138,372,759,1,7,11
3.97E+02,-7898,759,2822,361,192,1134,1,7,11
3.98E+02,-7914,707,2559,304,512,969,1,7,11
3.98E+02,-7869,665,2533,335,546,904,1,7,11
3.98E+02,-7869,695,2525,151,600,749,1,7,11
3.98E+02,-7894,710,2527,202,625,835,1,7,11
3.99E+02,-7928,753,2529,253,618,405,1,7,11
3.99E+02,-7933,1065,2526,528,582,519,1,7,11
3.99E+02,-8253,1083,2518,251,562,176,1,7,11
3.99E+02,-8238,1091,2493,523,254,330,1,7,11
4.00E+02,-8258,1104,2475,548,253,-44,1,7,11
4.00E+02,-8290,1126,2466,518,200,54,1,7,11
4.00E+02,-8075,909,2470,184,135,-329,1,7,11
4.00E+02,-8121,967,2439,310,278,-147,1,7,11
4.01E+02,-8118,968,2673,121,-92,-142,1,7,11
4.01E+02,-8088,991,2640,-312,91,-336,1,7,11
4.01E+02,-8092,986,2637,-526,43,-264,1,7,11
4.01E+02,-8075,964,2620,-482,-272,71,1,7,11
4.02E+02,-8068,949,2618,-878,-313,96,1,7,11
4.02E+02,-8296,956,2608,-679,-357,66,1,7,11
4.02E+02,-8284,933,2614,-753,-375,24,1,7,11
4.02E+02,-8252,1112,2607,-741,-157,-148,1,7,11
4.03E+02,-8227,1074,2618,-665,-160,-554,1,7,11
4.03E+02,-8234,1035,2632,-845,-144,-451,1,7,11
4.03E+02,-8248,1025,2632,-467,-140,-860,1,7,11
4.03E+02,-8248,749,2634,-531,-133,-718,1,7,11
4.04E+02,-8244,709,2645,-136,-376,-1079,1,7,11
4.04E+02,-8237,698,2656,-278,-367,-897,1,7,11
4.04E+02,-8245,710,2670,39,-358,-897,1,7,11
4.04E+02,-8249,675,2684,22,-359,-1080,1,7,11
4.05E+02,-8217,648,2443,22,-355,-731,1,7,11
4.05E+02,-8215,685,2432,28,-317,-865,1,7,11
4.05E+02,-7936,698,2667,8,-265,-438,1,7,11
4.05E+02,-7915,685,2660,-287,82,-255,1,7,11
4.06E+02,-7902,888,2677,-322,-69,-360,1,7,11
4.06E+02,-7895,872,2432,-324,295,6,1,7,11
4.06E+02,-7915,821,2443,-372,145,101,1,7,11
4.06E+02,-7880,487,2481,-377,209,120,1,7,11
4.07E+02,-8199,474,2488,-345,529,87,1,7,11
4.07E+02,-7936,470,2488,-329,524,66,1,7,11
4.07E+02,-8197,472,2491,-361,538,47,1,7,11
4.07E+02,-8238,463,2487,-157,542,45,1,7,11
4.08E+02,-8270,430,2503,-203,527,33,1,7,11
4.08E+02,-8313,632,2514,-212,247,-272,1,7,11
4.08E+02,-8068,627,2490,-184,191,-358,1,7,11
4.08E+02,-8086,635,2482,-160,143,-179,1,7,11
4.09E+02,-8100,392,2454,-132,344,-242,1,7,11
4.09E+02,-8133,423,2687,-375,295,-530,1,7,11
4.09E+02,-8169,448,2671,-136,-18,-244,1,7,11
4.09E+02,-8188,442,2659,-196,-78,-183,1,7,11
4.10E+02,-8453,406,2656,-246,95,-131,1,7,11
4.10E+02,-8187,621,2655,-524,-257,-144,1,7,11
4.10E+02,-8157,627,2660,-248,-352,-204,1,7,11
4.10E+02,-8150,388,2660,-248,-158,-252,1,7,11
4.11E+02,-8097,612,2654,-253,-226,-551,1,7,11
4.11E+02,-8317,601,2677,-256,-239,-615,1,7,11
4.11E+02,-8300,590,2432,-234,-238,-410,1,7,11
4.11E+02,-8272,567,2442,-216,-231,-462,1,7,11
4.12E+02,-8225,565,2448,-182,-229,-786,1,7,11
4.12E+02,-8194,591,2441,-182,-198,-798,1,7,11
4.12E+02,-7922,613,2684,-206,-376,-485,1,7,11
4.12E+02,-7903,580,2671,-549,-268,-385,1,7,11
4.13E+02,-7888,562,2671,-618,106,-548,1,7,11
4.13E+02,-7899,553,2678,-446,-16,-165,1,7,11
4.13E+02,-7898,253,2676,-507,359,-302,1,7,11
4.13E+02,-7929,521,2676,-810,215,76,1,7,11
4.14E+02,-8202,240,2662,-650,556,-3,1,7,11
4.14E+02,-8223,239,2652,-697,626,167,1,7,11
4.14E+02,-8247,178,2655,-728,413,560,1,7,11
4.14E+02,-8211,132,2600,-496,450,603,1,7,11
4.15E+02,-8238,181,2575,-607,502,589,1,7,11
4.15E+02,-8259,237,2560,-238,777,596,1,7,11
4.15E+02,-8299,545,2264,-139,786,604,1,7,11
4.15E+02,-8082,576,2241,-325,787,614,1,7,11
4.16E+02,-8097,562,2222,-286,778,592,1,7,11
4.16E+02,-8137,572,2207,18,502,474,1,7,11
4.16E+02,-8178,626,2200,74,445,332,1,7,11
4.16E+02,-8472,425,2190,86,621,-29,1,7,11
4.17E+02,-8506,467,2431,44,208,-92,1,7,11
4.17E+02,-8485,454,2420,-292,342,-123,1,7,11
4.17E+02,-8474,436,2415,-178,-7,97,1,7,11
4.17E+02,-8451,412,2407,-225,-81,65,1,7,11
4.18E+02,-8173,624,2398,-252,123,27,1,7,11
4.18E+02,-8159,594,2430,-520,80,-268,1,7,11
4.18E+02,-8127,546,2431,-246,43,-311,1,7,11
4.18E+02,-8128,537,2192,-222,28,-354,1,7,11
4.19E+02,-8121,529,2203,-208,4,-360,1,7,11
4.19E+02,-8102,228,2205,-193,-270,-355,1,7,11
4.19E+02,-8078,191,2217,-166,-277,-351,1,7,11
4.19E+02,-8308,164,2217,-380,-284,-353,1,7,11
4.20E+02,-8282,159,2226,-352,-277,-345,1,7,11
4.20E+02,-8265,200,2220,-330,-271,-320,1,7,11
4.20E+02,-8256,547,2194,-348,27,33,1,7,11
4.20E+02,-8282,556,2191,-132,100,-87,1,7,11
4.21E+02,-8294,562,2186,-136,-112,-3,1,7,11
4.21E+02,-8316,601,2430,-372,-89,295,1,7,11
4.21E+02,-8070,623,2404,-355,-79,321,1,7,11
4.21E+02,-8074,628,2384,-321,-75,297,1,7,11
4.22E+02,-8081,418,2367,-276,-68,258,1,7,11
4.22E+02,-8080,445,2352,4,-54,-2,1,7,11
4.22E+02,-8090,506,2350,37,-53,-11,1,7,11
4.22E+02,-8093,863,2339,8,-49,314,1,7,11
4.23E+02,-8121,673,2345,-358,-26,525,1,7,11
4.23E+02,-8110,708,2330,-185,-13,492,1,7,11
4.23E+02,-8083,1046,2034,-219,284,694,1,7,11
4.23E+02,-8066,1118,1996,-546,383,958,1,7,11
4.24E+02,-8281,1132,1955,-610,248,1232,1,7,11
4.24E+02,-8320,719,1989,-474,419,1424,1,7,11
4.24E+02,-8291,797,2020,-769,495,1432,1,7,11
4.24E+02,-8287,387,2345,-614,804,1331,1,7,11
4.25E+02,-8308,418,2409,-201,797,753,1,7,11
4.25E+02,-8119,768,2186,-364,479,488,1,7,11
4.25E+02,-8186,828,2426,-375,633,631,1,7,11
4.25E+02,-8108,892,2376,-348,222,577,1,7,11
4.26E+02,-8076,703,2319,-353,199,560,1,7,11
4.26E+02,-8080,739,2037,-137,198,615,1,7,11
4.26E+02,-8308,729,2034,-169,194,390,1,7,11
4.26E+02,-8099,762,2024,-218,197,633,1,7,11
4.27E+02,-8122,728,2019,-522,141,566,1,7,11
4.27E+02,-8116,1034,1989,-138,309,343,1,7,11
4.27E+02,-8082,1142,1931,-320,-21,112,1,7,11
4.27E+02,-8084,1141,1941,-162,-28,22,1,7,11
4.28E+02,-8123,909,1927,-236,-22,-270,1,7,11
4.28E+02,-8171,896,1949,-611,-56,-259,1,7,11
4.28E+02,-8154,1123,1942,-432,-115,0,1,7,11
4.28E+02,-8127,1113,1938,-455,111,-263,1,7,11
4.29E+02,-8177,1109,1965,-420,107,-296,1,7,11
4.29E+02,-8137,1107,1954,-605,35,-344,1,7,11
4.29E+02,-8099,1092,1941,-542,15,-151,1,7,11
4.29E+02,-8090,1087,1944,-514,13,-179,1,7,11
4.30E+02,-8275,1070,1943,-242,16,-166,1,7,11
4.30E+02,-8072,1075,1959,-219,72,-380,1,7,11
4.30E+02,-8306,1061,1960,-159,76,-299,1,7,11
4.30E+02,-8278,1050,1949,-329,112,20,1,7,11
4.31E+02,-8281,764,1962,-272,-97,61,1,7,11
4.31E+02,-8264,734,1955,34,-73,74,1,7,11
4.31E+02,-8234,743,1933,71,-52,50,1,7,11
4.31E+02,-8304,1053,2175,64,261,32,1,7,11
4.32E+02,-8301,1071,2155,68,-2,41,1,7,11
4.32E+02,-8308,1081,2144,75,287,-273,1,7,11
4.32E+02,-8082,1109,2141,74,308,-304,1,7,11
4.32E+02,-8078,1139,2119,68,307,-313,1,7,11
4.33E+02,-8109,921,2099,19,317,-285,1,7,11
4.33E+02,-8107,914,2085,-287,320,22,1,7,11
4.33E+02,-8122,930,2067,-297,326,44,1,7,11
4.33E+02,-8112,909,2060,-326,315,64,1,7,11
4.34E+02,-8124,1148,2072,-357,303,81,1,7,11
4.34E+02,-8150,1095,2098,-158,269,113,1,7,11
4.34E+02,-8143,750,2133,-177,-85,115,1,7,11
4.34E+02,-8467,1081,2139,-372,116,83,1,7,11
4.35E+02,-8139,767,2152,-183,-269,-46,1,7,11
4.35E+02,-8086,720,2150,-138,-295,-64,1,7,11
4.35E+02,-8085,763,2141,-338,-277,-77,1,7,11
4.35E+02,-8069,1066,2142,-305,13,-67,1,7,11
4.36E+02,-8088,754,2172,-358,85,-40,1,7,11
4.36E+02,-8101,699,1952,-374,118,-92,1,7,11
4.36E+02,-8137,721,1969,-143,-128,126,1,7,11
4.36E+02,-8163,715,1987,-225,119,-96,1,7,11
4.37E+02,-8166,724,1994,-253,72,-68,1,7,11
4.37E+02,-8148,726,1988,-249,18,-27,1,7,11
4.37E+02,-8116,732,1966,-181,-284,-14,1,7,11
4.37E+02,-8084,1030,1933,-332,-302,-35,1,7,11
4.38E+02,-8312,1042,2160,6,-280,-62,1,7,11
4.38E+02,-8317,1063,2172,67,13,-113,1,7,11
4.38E+02,-8076,1106,1923,90,43,100,1,7,11
4.38E+02,-8102,898,1942,66,52,95,1,7,11
4.39E+02,-8084,1144,1941,4,40,111,1,7,11
4.39E+02,-8092,921,1946,-295,34,107,1,7,11
4.39E+02,-8082,920,1931,-322,5,78,1,7,11
4.39E+02,-8080,1149,2166,-361,11,57,1,7,11
4.40E+02,-8074,898,2171,-363,14,7,1,7,11
4.40E+02,-8077,1145,1922,-359,37,-327,1,7,11
4.40E+02,-8077,1133,2171,-354,38,-363,1,7,11
4.40E+02,-8073,1128,2172,-345,38,-377,1,7,11
4.41E+02,-8319,1097,2172,-335,41,-380,1,7,11
4.41E+02,-8312,1103,1926,-307,40,-129,1,7,11
4.41E+02,-8309,1080,1935,-299,51,-347,1,7,11
4.41E+02,-8279,1038,1932,-288,70,-327,1,7,11
4.42E+02,-8302,762,1948,-263,104,-322,1,7,11
4.42E+02,-8315,722,1967,8,118,-318,1,7,11
4.42E+02,-8312,664,1971,15,125,-342,1,7,11
4.42E+02,-8302,879,1984,33,-125,-154,1,7,11
4.43E+02,-8311,885,1995,65,-112,-233,1,7,11
4.43E+02,-8305,640,1994,92,-108,-535,1,7,11
4.43E+02,-8277,861,2005,-116,-97,-587,1,7,11
4.43E+02,-8275,801,2014,259,-58,-431,1,7,11
4.44E+02,-8290,852,2012,192,-23,-809,1,7,11
4.44E+02,-8315,661,2011,557,272,-817,1,7,11
4.44E+02,-8101,696,1984,591,312,-482,1,7,11
4.44E+02,-8152,732,1958,587,336,-604,1,7,11
4.45E+02,-8192,759,1930,558,333,-190,1,7,11
4.45E+02,-8185,1039,2160,528,314,-299,1,7,11
4.45E+02,-8177,1060,2128,216,295,96,1,7,11
4.45E+02,-8180,1036,2116,129,276,-52,1,7,11
4.46E+02,-8171,760,2114,308,-10,272,1,7,11
4.46E+02,-8152,1089,2076,-59,256,351,1,7,11
4.46E+02,-8472,1062,2094,36,-12,542,1,7,11
4.46E+02,-8092,717,2051,18,-55,551,1,7,11
4.47E+02,-8141,894,2065,105,265,191,1,7,11
4.47E+02,-8112,861,2062,-25,-13,320,1,7,11
4.47E+02,-8146,704,2078,364,-11,-29,1,7,11
4.47E+02,-8149,1041,1789,173,-37,264,1,7,11
4.48E+02,-8086,913,1734,176,-26,177,1,7,11
4.48E+02,-8462,918,1767,376,322,462,1,7,11
4.48E+02,-8099,899,1721,181,304,673,1,7,11
4.48E+02,-8088,1133,1727,208,383,1109,1,7,11
4.49E+02,-8070,1113,1729,247,155,971,1,7,11
4.49E+02,-8309,913,1727,587,173,1023,1,7,11
4.49E+02,-8077,1000,1725,392,193,1340,1,7,11
4.49E+02,-8080,1349,1709,435,187,1159,1,7,11
4.50E+02,-8081,1217,1919,458,187,1277,1,7,11
4.50E+02,-8082,1595,1890,447,205,1464,1,7,11
4.50E+02,-8068,1437,1841,431,229,1679,1,7,11
4.50E+02,-8315,1458,1813,594,527,2155,1,7,11
4.51E+02,-8084,1584,1875,368,572,2030,1,7,11
4.51E+02,-8275,1279,1879,-26,525,1979,1,7,11
4.51E+02,-8232,1592,1868,-124,227,1777,1,7,11
4.51E+02,-8239,1463,1854,73,200,1522,1,7,11
4.52E+02,-8288,1842,1894,10,167,1265,1,7,11
4.52E+02,-8302,1918,1672,-345,331,1304,1,7,11
4.52E+02,-8292,1705,1689,-221,-37,1106,1,7,11
4.52E+02,-8260,1761,1682,-603,99,664,1,7,11
4.53E+02,-8236,2081,1915,-455,13,466,1,7,11
4.53E+02,-8209,2136,1889,-829,-301,543,1,7,11
4.53E+02,-8203,2175,1887,-707,-334,344,1,7,11
4.53E+02,-8217,1942,1895,-1129,-378,-128,1,7,11
4.54E+02,-8221,1986,1902,-1296,-194,-363,1,7,11
4.54E+02,-8226,2014,1667,-1241,-527,-599,1,7,11
4.54E+02,-8240,2041,1680,-1473,-595,-869,1,7,11
4.54E+02,-7911,2392,1887,-1724,-426,-897,1,7,11
4.55E+02,-8064,2230,1535,-2328,-445,-1170,1,7,11
4.55E+02,-7648,2624,1648,-2557,-613,-1435,1,7,11
4.55E+02,-7974,2460,1445,-3275,-348,-1751,1,7,11
4.55E+02,-7812,2487,1812,-4093,82,-1948,1,7,11
4.56E+02,-7820,2595,1664,-5231,-96,-2029,1,7,11
4.56E+02,-8063,2391,1733,-5771,-24,-2046,1,7,11
4.56E+02,-8013,2114,1789,-6707,317,-1976,1,7,11
4.56E+02,-7961,1828,1789,-7227,213,-2136,1,7,11
4.57E+02,-7954,1276,2082,-7410,434,-1792,1,7,11
4.57E+02,-7998,968,2145,-7972,673,-1706,1,7,11
4.57E+02,-7811,679,1939,-7873,1134,-1852,1,7,11
4.57E+02,-7878,401,1960,-7870,1310,-1454,1,7,11
4.58E+02,-7922,214,1928,-7938,1199,-1541,1,7,11
4.58E+02,-8196,361,2115,-7417,1608,-1358,1,7,11
4.58E+02,-8228,318,1780,-7146,1506,-918,1,7,11
4.58E+02,-8311,287,1757,-7217,1912,-747,1,7,11
4.59E+02,-8357,-123,1195,-6017,1717,-24,1,7,11
4.59E+02,-8340,123,1398,-6265,1911,316,1,7,11
4.59E+02,-8329,-114,1250,-6025,1875,383,1,7,11
4.59E+02,-8331,-64,910,-6114,1844,157,1,7,11
4.60E+02,-8324,307,1024,-6495,1816,152,1,7,11
4.60E+02,-8512,360,690,-6670,1792,342,1,7,11
4.60E+02,-8469,184,846,-6996,1832,-17,1,7,11
4.60E+02,-8156,547,622,-7136,1860,-127,1,7,11
4.61E+02,-8123,394,523,-7668,1674,17,1,7,11
4.61E+02,-8147,468,206,-8324,1757,-309,1,7,11
4.61E+02,-8182,487,153,-9279,2049,-315,1,7,11
4.61E+02,-8502,471,208,-9701,1790,-300,1,7,11
4.62E+02,-8411,443,520,-10511,1733,53,1,7,11
4.62E+02,-8778,610,245,-10665,1503,257,1,7,11
4.62E+02,-8820,543,364,-10977,1207,252,1,7,11
4.62E+02,-8750,521,-52,-11209,955,785,1,7,11
4.63E+02,-8824,360,-95,-11801,1070,1150,1,7,11
4.63E+02,-8435,116,-77,-11436,661,962,1,7,11
4.63E+02,-8338,-370,-11,-11269,853,1084,1,7,11
4.63E+02,-8341,-581,379,-10614,839,647,1,7,11
4.64E+02,-8361,-785,528,-9448,771,420,1,7,11
4.64E+02,-8369,-690,404,-8558,423,374,1,7,11
4.64E+02,-8359,-1026,475,-7258,593,45,1,7,11
4.64E+02,-8564,-1077,475,-5938,519,-536,1,7,11
4.65E+02,-8519,-1116,437,-4681,242,-875,1,7,11
4.65E+02,-8491,-1106,388,-3265,253,-952,1,7,11
4.65E+02,-8191,-1055,577,-2287,548,-1268,1,7,11
4.65E+02,-8135,-697,239,-1504,607,-1824,1,7,11
4.66E+02,-8138,-827,179,-922,447,-2069,1,7,11
4.66E+02,-8143,-453,371,-493,786,-1929,1,7,11
4.66E+02,-8146,-407,305,-173,868,-2156,1,7,11
4.66E+02,-8134,-394,-44,111,715,-1712,1,7,11
4.67E+02,-8284,-631,50,152,1101,-1637,1,7,11
4.67E+02,-7858,-621,-360,450,1361,-962,1,7,11
4.67E+02,-7977,-612,-185,749,1813,-486,1,7,11
4.67E+02,-8048,-403,-261,1023,2420,49,1,7,11
4.68E+02,-8131,-862,317,1248,2883,557,1,7,11
4.68E+02,-8705,-881,146,1811,2850,816,1,7,11
4.68E+02,-8577,-570,-79,2048,2202,771,1,7,11
4.68E+02,-8969,56,-269,1687,1773,581,1,7,11
4.69E+02,-9075,283,-378,1621,1270,150,1,7,11
4.69E+02,-9025,185,-520,1290,684,-10,1,7,11
4.69E+02,-8613,634,-426,706,162,98,1,7,11
4.69E+02,-8737,488,-798,525,50,17,1,7,11
4.70E+02,-8401,434,-818,29,-208,-323,1,7,11
4.70E+02,-8353,602,-816,-407,-422,-214,1,7,11
4.70E+02,-8548,202,-801,-1051,-834,-626,1,7,11
4.70E+02,-8528,-9,-469,-1354,-648,-786,1,7,11
4.71E+02,-8546,38,-605,-1267,-709,-687,1,7,11
4.71E+02,-8525,-136,-256,-1582,-1050,-1071,1,7,11
4.71E+02,-8502,-547,-177,-1589,-1142,-943,1,7,11
4.71E+02,-8477,-614,-136,-1547,-979,-1341,1,7,11
4.72E+02,-8497,-400,-332,-1265,-1296,-1216,1,7,11
4.72E+02,-8542,-430,14,-1248,-1344,-1568,1,7,11
4.72E+02,-8335,-471,114,-1210,-1400,-1600,1,7,11
4.72E+02,-8562,-503,-70,-1398,-1199,-1545,1,7,11
4.73E+02,-8478,-780,-44,-1308,-1206,-1169,1,7,11
4.73E+02,-8121,-784,-61,-963,-1394,-1002,1,7,11
4.73E+02,-8266,-784,-97,-1139,-977,-1052,1,7,11
4.73E+02,-8211,-788,-107,-1067,-725,-828,1,7,11
4.74E+02,-8215,-807,-103,-732,-426,-565,1,7,11
4.74E+02,-8255,-858,-48,-889,-131,-314,1,7,11
4.74E+02,-8075,-662,292,-769,103,-127,1,7,11
4.74E+02,-8160,-675,129,-613,-30,-37,1,7,11
4.75E+02,-8465,-669,250,-153,-42,-69,1,7,11
4.75E+02,-8461,-692,554,-322,-101,89,1,7,11
4.75E+02,-8464,-708,604,-257,99,-298,1,7,11
4.75E+02,-8489,-706,624,67,39,-172,1,7,11
4.76E+02,-8544,-673,637,-114,-269,-248,1,7,11
4.76E+02,-8337,-879,616,-46,-310,-205,1,7,11
4.76E+02,-8360,-828,581,291,-348,-305,1,7,11
4.76E+02,-8356,-807,552,370,-368,-76,1,7,11
4.77E+02,-8335,-783,515,227,-133,181,1,7,11
4.77E+02,-8529,-475,213,602,-163,408,1,7,11
4.77E+02,-8471,-396,164,418,-166,816,1,7,11
4.77E+02,-8492,-621,166,397,-154,890,1,7,11
4.78E+02,-8190,-531,154,638,-234,843,1,7,11
4.78E+02,-8181,-198,140,546,-539,503,1,7,11
4.78E+02,-8487,-135,163,179,-575,431,1,7,11
4.78E+02,-8519,-336,169,331,-396,635,1,7,11
4.79E+02,-8514,-323,156,-18,-479,632,1,7,11
4.79E+02,-8513,-344,154,-76,-778,633,1,7,11
4.79E+02,-8510,-379,177,-97,-813,627,1,7,11
4.79E+02,-8509,-201,225,-36,-836,585,1,7,11
4.80E+02,-8502,-245,526,136,-865,217,1,7,11
4.80E+02,-8484,-219,550,590,-878,365,1,7,11
4.80E+02,-8526,-198,596,395,-839,152,1,7,11
4.80E+02,-8188,-524,587,629,-850,232,1,7,11
4.81E+02,-8107,-614,558,585,-778,166,1,7,11
4.81E+02,-8129,-413,560,528,-404,-24,1,7,11
4.81E+02,-8183,-471,572,194,-555,-276,1,7,11
4.81E+02,-8508,-796,612,367,-200,-520,1,7,11
4.82E+02,-8559,-864,420,284,-161,-489,1,7,11
4.82E+02,-8552,-648,444,-42,-191,-676,1,7,11
4.82E+02,-8466,-682,423,117,-222,-1065,1,7,11
4.82E+02,-8110,-712,392,44,-192,-941,1,7,11
4.83E+02,-8310,-676,598,21,-355,-1322,1,7,11
4.83E+02,-8312,-662,386,-279,80,-1338,1,7,11
4.83E+02,-8086,-773,415,-270,258,-1316,1,7,11
4.83E+02,-8081,-728,414,122,151,-1357,1,7,11
4.84E+02,-8249,-834,625,327,576,-1404,1,7,11
4.84E+02,-8242,-493,637,200,838,-1167,1,7,11
4.84E+02,-8230,-781,440,202,1149,-1201,1,7,11
4.84E+02,-8200,-809,456,169,1401,-1563,1,7,11
4.85E+02,-8231,-667,496,330,1604,-1548,1,7,11
4.85E+02,-8105,-1043,807,-65,1520,-1763,1,7,11
4.85E+02,-8474,-1123,830,-117,1823,-1973,1,7,11
4.85E+02,-8549,-943,804,103,1492,-2412,1,7,11
4.86E+02,-8339,-948,481,-110,1613,-2281,1,7,11
4.86E+02,-8345,-980,437,-76,1398,-2303,1,7,11
4.86E+02,-8343,-1331,429,-62,1004,-2294,1,7,11
4.86E+02,-8561,-1201,408,-17,1057,-2573,1,7,11
4.87E+02,-8364,-1557,626,299,811,-2662,1,7,11
4.87E+02,-8341,-1603,533,383,234,-2538,1,7,11
4.87E+02,-8364,-1636,240,134,-49,-2903,1,7,11
4.87E+02,-8356,-1664,201,360,-351,-2694,1,7,11
4.88E+02,-8494,-1646,136,336,-391,-2704,1,7,11
4.88E+02,-8119,-1565,350,-17,-801,-2872,1,7,11
4.88E+02,-8125,-1609,158,-313,-836,-2580,1,7,11
4.88E+02,-8276,-1410,174,-568,-894,-1943,1,7,11
4.89E+02,-8229,-1480,196,-789,-872,-1813,1,7,11
4.89E+02,-8262,-1674,513,-735,-798,-1404,1,7,11
4.89E+02,-8288,-2145,554,-708,-801,-1115,1,7,11
4.89E+02,-8249,-2004,535,-470,-511,-810,1,7,11
4.90E+02,-8268,-2307,524,-589,-443,-513,1,7,11
4.90E+02,-8256,-2023,204,-190,-397,53,1,7,11
4.90E+02,-8235,-2007,128,-375,-544,157,1,7,11
4.90E+02,-8247,-2005,334,-341,-162,768,1,7,11
4.91E+02,-7923,-1933,-3,-330,-345,1040,1,7,11
4.91E+02,-7913,-2124,-81,-139,-266,973,1,7,11
4.91E+02,-7845,-1762,41,-174,44,1314,1,7,11
4.91E+02,-7870,-1778,0,-548,-67,1351,1,7,11
4.92E+02,-7883,-2094,-273,-591,308,1292,1,7,11
4.92E+02,-7882,-2109,-328,-551,138,901,1,7,11
4.92E+02,-7885,-2141,-361,-539,548,761,1,7,11
4.92E+02,-7927,-1964,-135,-182,411,887,1,7,11
4.93E+02,-8220,-2031,-156,52,474,480,1,7,11
4.93E+02,-8244,-2025,-177,340,768,569,1,7,11
4.93E+02,-8295,-2328,-168,538,845,140,1,7,11
4.93E+02,-8068,-2371,-166,454,848,-79,1,7,11
4.94E+02,-8293,-2365,-204,864,511,-318,1,7,11
4.94E+02,-8255,-2324,-515,698,453,-256,1,7,11
4.94E+02,-8207,-2387,-234,664,412,-385,1,7,11
4.94E+02,-7899,-2234,-203,870,591,-802,1,7,11
4.95E+02,-7833,-2259,-176,863,519,-702,1,7,11
4.95E+02,-7901,-2578,-342,822,551,-1039,1,7,11
4.95E+02,-8219,-2579,-269,860,523,-1059,1,7,11
4.95E+02,-8226,-2289,4,670,181,-1061,1,7,11
4.96E+02,-8225,-2583,24,702,144,-749,1,7,11
4.96E+02,-7934,-2267,10,1037,348,-726,1,7,11
4.96E+02,-7935,-2219,39,737,355,-650,1,7,11
4.96E+02,-8301,-2226,127,868,377,-794,1,7,11
4.97E+02,-8152,-2195,-52,778,290,-439,1,7,11
4.97E+02,-8497,-2361,263,429,-107,-571,1,7,11
4.97E+02,-8542,-2029,315,536,-269,-364,1,7,11
4.97E+02,-8568,-1998,368,378,-194,-116,1,7,11
4.98E+02,-8560,-1943,166,282,-640,157,1,7,11
4.98E+02,-8558,-1937,220,-66,-793,467,1,7,11
4.98E+02,-8525,-1972,541,-114,-694,748,1,7,11
4.98E+02,-8161,-1990,600,-82,-1106,933,1,7,11
4.99E+02,-8293,-1958,612,-63,-952,1329,1,7,11
4.99E+02,-8225,-2107,639,-77,-990,1234,1,7,11
4.99E+02,-8226,-2079,403,-90,-997,1620,1,7,11
4.99E+02,-8206,-1720,413,-40,-1014,1450,1,7,11
5.00E+02,-7935,-1821,412,-24,-1008,1512,1,7,11
5.00E+02,-8210,-1502,487,107,-981,1892,1,7,11
5.00E+02,-8193,-1448,474,-263,-998,1748,1,7,11
5.00E+02,-7866,-1632,438,-366,-1013,2053,1,7,11
5.01E+02,-7872,-1543,433,-518,-932,2069,1,7,11
5.01E+02,-7878,-1232,425,-393,-1090,1772,1,7,11
5.01E+02,-7857,-1406,425,-440,-708,1885,1,7,11
5.01E+02,-8263,-1014,457,-772,-502,1494,1,7,11
5.02E+02,-8152,-954,457,-685,-453,1478,1,7,11
5.02E+02,-8457,-1125,455,-906,-480,1471,1,7,11
5.02E+02,-8491,-1071,465,-1162,-480,1457,1,7,11
5.02E+02,-8534,-1066,512,-1449,-473,1478,1,7,11
5.03E+02,-8323,-1083,783,-1732,-487,1524,1,7,11
5.03E+02,-8334,-1077,771,-1946,-805,1807,1,7,11
5.03E+02,-8420,-1037,780,-2351,-853,1456,1,7,11
5.03E+02,-8405,-1066,507,-2430,-728,1608,1,7,11
5.04E+02,-8347,-1123,783,-2350,-760,1155,1,7,11
5.04E+02,-8542,-907,790,-2124,-720,927,1,7,11
5.04E+02,-8161,-1096,772,-1665,-674,708,1,7,11
5.04E+02,-8292,-725,431,-1264,-888,783,1,7,11
5.05E+02,-8258,-654,408,-1261,-621,622,1,7,11
5.05E+02,-8094,-862,454,-1135,-134,228,1,7,11
5.05E+02,-8491,-833,799,-736,25,131,1,7,11
5.05E+02,-8336,-793,859,-813,77,317,1,7,11
5.06E+02,-8382,-501,895,-394,66,288,1,7,11
5.06E+02,-8328,-492,647,-252,9,272,1,7,11
5.06E+02,-8501,-507,656,-137,-276,-50,1,7,11
5.06E+02,-8157,-788,698,-266,-276,68,1,7,11
5.07E+02,-8133,-852,1039,112,15,-163,1,7,11
5.07E+02,-8142,-684,926,-19,48,-422,1,7,11
5.07E+02,-8173,-1053,1326,153,55,-650,1,7,11
5.07E+02,-8501,-1146,1536,402,26,-1069,1,7,11
5.08E+02,-8576,-1331,1482,1037,-323,-1109,1,7,11
5.08E+02,-8331,-1580,1879,1411,-204,-1078,1,7,11
5.08E+02,-8564,-1886,1749,2241,-565,-1039,1,7,11
5.08E+02,-8494,-2153,1768,3597,-404,-724,1,7,11
5.09E+02,-8164,-2230,1768,4899,-452,-724,1,7,11
5.09E+02,-8303,-2641,1882,6488,-499,-1108,1,7,11
5.09E+02,-8235,-2444,1448,8040,-483,-1019,1,7,11
5.09E+02,-7925,-2680,1229,9538,-466,-1179,1,7,11
5.10E+02,-7891,-2297,991,10647,-423,-1599,1,7,11
5.10E+02,-8256,-2235,1138,11763,-623,-1499,1,7,11
5.10E+02,-8118,-2369,740,12777,-451,-1677,1,7,11
5.10E+02,-8457,-2008,858,13854,-894,-2114,1,7,11
5.11E+02,-8460,-1771,393,14630,-1126,-2039,1,7,11
5.11E+02,-8477,-1451,219,14981,-1296,-2203,1,7,11
5.11E+02,-8321,-1176,159,15619,-1407,-2269,1,7,11
5.11E+02,-8719,-911,200,15608,-1547,-2432,1,7,11
5.12E+02,-8775,-842,571,15910,-1525,-1740,1,7,11
5.12E+02,-8741,-594,437,15528,-1861,-1617,1,7,11
5.12E+02,-8814,-164,699,15471,-1866,-1147,1,7,11
5.12E+02,-7902,783,2611,10483,-2279,-110,1,7,11
5.13E+02,-7925,753,2434,9629,-2431,-169,1,7,11
5.13E+02,-7873,1001,2434,8988,-2042,-622,1,7,11
5.13E+02,-8027,1206,2439,8000,-1792,-491,1,7,11
5.13E+02,-7659,1589,2443,6948,-1441,-849,1,7,11
5.14E+02,-7579,1616,2498,5565,-1017,-671,1,7,11
5.14E+02,-7560,1257,2883,4653,-850,-741,1,7,11
5.14E+02,-7583,1340,2896,3327,-533,-1108,1,7,11
5.14E+02,-7652,1121,3096,2620,-352,-1301,1,7,11
5.15E+02,-7961,678,3227,1839,-346,-1277,1,7,11
5.15E+02,-7997,782,3295,925,-187,-1526,1,7,11
5.15E+02,-7969,610,3584,611,-593,-1752,1,7,11
5.15E+02,-7964,549,3623,123,-467,-1950,1,7,11
5.16E+02,-7937,200,3654,-514,-825,-2369,1,7,11
5.16E+02,-7644,358,3703,-848,-653,-2222,1,7,11
5.16E+02,-7637,-2,3482,-1113,-702,-2296,1,7,11
5.16E+02,-7675,99,3517,-1319,-718,-2569,1,7,11
5.17E+02,-7954,-1,3529,-1202,-709,-2239,1,7,11
5.17E+02,-7969,-358,3536,-1538,-655,-2364,1,7,11
5.17E+02,-7655,-186,3534,-1568,-833,-2173,1,7,11
5.17E+02,-7655,-242,3556,-1567,-434,-1670,1,7,11
5.18E+02,-7653,-625,3868,-1228,-543,-1655,1,7,11
5.18E+02,-7662,-778,3867,-1311,-174,-1169,1,7,11
5.18E+02,-7631,-786,3890,-1073,-373,-932,1,7,11
5.18E+02,-7633,-790,3901,-882,-318,-883,1,7,11
5.19E+02,-7627,-498,3894,-431,-301,-559,1,7,11
5.19E+02,-7625,-482,3888,-534,-307,11,1,7,11
5.19E+02,-7570,-454,3863,-179,-308,325,1,7,11
5.19E+02,-7787,-424,3849,-363,-291,459,1,7,11
5.20E+02,-7797,-640,3871,-342,7,651,1,7,11
5.20E+02,-7565,-602,3910,-357,40,1069,1,7,11
5.20E+02,-7653,-557,3714,-135,33,946,1,7,11
5.20E+02,-7999,-557,3791,-200,-290,1325,1,7,11
5.21E+02,-8053,-570,4109,-526,-147,1391,1,7,11
5.21E+02,-8046,-552,4149,-572,-531,1161,1,7,11
5.21E+02,-8030,-528,4202,-629,-611,1168,1,7,11
5.21E+02,-7989,-237,3992,-449,-420,1167,1,7,11
5.22E+02,-7656,-189,3996,-772,-467,1154,1,7,11
5.22E+02,-7561,-305,4214,-797,-467,1370,1,7,11
5.22E+02,-7599,18,4000,-651,-625,1351,1,7,11
5.22E+02,-7558,100,3991,-718,-585,1282,1,7,11
5.23E+02,-7719,-112,4217,-1047,-541,927,1,7,11
5.23E+02,-7401,-111,4196,-1097,-188,1037,1,7,11
5.23E+02,-7413,-85,4183,-1117,-335,884,1,7,11
5.23E+02,-7687,-77,4165,-1139,-260,506,1,7,11
5.24E+02,-7420,123,4150,-955,53,399,1,7,11
5.24E+02,-7716,7,4181,-1301,102,523,1,7,11
5.24E+02,-7758,-296,4180,-1324,93,373,1,7,11
5.24E+02,-7781,-284,4161,-1347,82,297,1,7,11
5.25E+02,-7785,-259,4121,-1384,84,343,1,7,11
5.25E+02,-7740,15,3793,-1154,-125,217,1,7,11
5.25E+02,-7702,54,3737,-1372,-1,636,1,7,11
5.25E+02,-7714,98,3941,-1324,167,803,1,7,11
5.26E+02,-7750,-112,3891,-1011,606,699,1,7,11
5.26E+02,-7804,-102,3870,-970,500,1058,1,7,11
5.26E+02,-7588,-7,3570,-897,855,1084,1,7,11
5.26E+02,-7596,-46,3557,-1138,662,1062,1,7,11
5.27E+02,-7613,95,3855,-1072,691,861,1,7,11
5.27E+02,-7650,57,3918,-665,858,231,1,7,11
5.27E+02,-7966,-277,3781,-709,464,125,1,7,11
5.27E+02,-8017,-166,4144,-1110,128,-532,1,7,11
5.28E+02,-7975,-142,3826,-1152,-139,-1121,1,7,11
5.28E+02,-8040,-269,3789,-1134,-806,-1444,1,7,11
5.28E+02,-7862,93,3765,-1080,-1081,-1759,1,7,11
5.28E+02,-7911,-122,3737,-714,-962,-2052,1,7,11
5.29E+02,-7872,-108,3943,-859,-972,-1676,1,7,11
5.29E+02,-8009,96,3886,-835,-1103,-1442,1,7,11
5.29E+02,-7647,-305,3877,-811,-844,-1215,1,7,11
5.29E+02,-7583,-145,3873,-428,-530,-1309,1,7,11
5.30E+02,-7774,-225,3869,-520,31,-920,1,7,11
5.30E+02,-7740,-534,3868,-329,320,-1073,1,7,11
5.30E+02,-7716,-542,3579,82,602,-651,1,7,11
5.30E+02,-7742,-545,3560,-28,881,-436,1,7,11
5.31E+02,-7708,-591,3513,367,1138,-194,1,7,11
5.31E+02,-7391,-411,3476,527,1159,-299,1,7,11
5.31E+02,-7368,-498,3464,401,1446,22,1,7,11
5.31E+02,-7383,-845,3685,506,1720,-258,1,7,11
5.32E+02,-7709,-868,3644,895,1970,-353,1,7,11
5.32E+02,-7614,-668,3628,708,2189,-231,1,7,11
5.32E+02,-7972,-741,3277,949,2275,-476,1,7,11
5.32E+02,-8029,-735,3207,1339,2244,-679,1,7,11
5.33E+02,-7965,-698,3375,1402,2391,-1100,1,7,11
5.33E+02,-7660,-677,3009,1379,2041,-1282,1,7,11
5.33E+02,-7676,-883,3168,1016,1965,-1227,1,7,11
5.33E+02,-8000,-833,2815,1095,2162,-1586,1,7,11
5.34E+02,-8037,-863,2753,870,2131,-1594,1,7,11
5.34E+02,-7851,-654,2731,415,2119,-1552,1,7,11
5.34E+02,-7915,-744,2725,521,2071,-1189,1,7,11
5.34E+02,-8227,-1121,2709,224,1748,-1292,1,7,11
5.35E+02,-8267,-972,2707,516,1695,-1116,1,7,11
5.35E+02,-8087,-1301,2720,598,1896,-682,1,7,11
5.35E+02,-8152,-1307,2941,478,1518,-778,1,7,11
5.35E+02,-8452,-1019,2830,879,1636,-624,1,7,11
5.36E+02,-8519,-954,2450,731,1542,-199,1,7,11
5.36E+02,-8545,-1105,2587,1059,1213,37,1,7,11
5.36E+02,-8541,-1035,2237,1095,1171,301,1,7,11
5.36E+02,-8180,-660,2391,903,1388,588,1,7,11
5.37E+02,-8158,-873,2329,896,1218,652,1,7,11
5.37E+02,-8095,-841,2035,934,1268,948,1,7,11
5.37E+02,-8127,-828,2313,928,1577,1184,1,7,11
5.37E+02,-8191,-812,2348,947,1273,1618,1,7,11
5.38E+02,-8499,-803,2353,1003,1371,1463,1,7,11
5.38E+02,-8493,-455,2340,1344,919,1534,1,7,11
5.38E+02,-8548,-586,2002,1402,764,1903,1,7,11
5.38E+02,-8545,-226,1973,1197,859,1779,1,7,11
5.39E+02,-8327,-149,2024,1406,496,2117,1,7,11
5.39E+02,-8326,-373,2021,1315,591,2156,1,7,11
5.39E+02,-8535,-273,1985,999,162,2072,1,7,11
5.39E+02,-8552,119,1955,974,301,1672,1,7,11
5.40E+02,-8535,-6,2156,938,-44,1443,1,7,11
5.40E+02,-8520,379,2149,1145,-110,1508,1,7,11
5.40E+02,-8476,161,2130,758,111,1303,1,7,11
5.40E+02,-8119,223,2083,893,4,745,1,7,11
5.41E+02,-8291,613,1769,807,-284,411,1,7,11
5.41E+02,-8265,459,1728,427,-270,134,1,7,11
5.41E+02,-8245,777,1687,181,12,-85,1,7,11
5.41E+02,-8259,821,1674,-1,70,7,1,7,11
5.42E+02,-8274,843,1678,59,-125,-332,1,7,11
5.42E+02,-8306,846,1675,-201,-40,-313,1,7,11
5.42E+02,-8087,504,1678,-470,289,45,1,7,11
5.42E+02,-8066,635,1694,-650,344,78,1,7,11
5.43E+02,-8084,565,1705,-1038,163,68,1,7,11
5.43E+02,-8111,193,1749,-1119,216,47,1,7,11
5.43E+02,-8126,340,1777,-1103,243,-273,1,7,11
5.43E+02,-8169,278,2070,-1042,254,-349,1,7,11
5.44E+02,-8452,-57,2112,-712,217,-152,1,7,11
5.44E+02,-8459,-62,2116,-863,144,-212,1,7,11
5.44E+02,-8504,-53,2112,-505,337,-221,1,7,11
5.44E+02,-8519,-54,2120,-412,256,-203,1,7,11
5.45E+02,-8488,-5,2136,-610,-104,-153,1,7,11
5.45E+02,-8547,-42,2133,-432,87,-322,1,7,11
5.45E+02,-8499,-72,2127,-414,-325,-319,1,7,11
5.45E+02,-8515,-49,2143,-410,-178,-154,1,7,11
5.46E+02,-8562,-44,2164,-404,-571,-251,1,7,11
5.46E+02,-8555,-38,2171,-407,-496,-391,1,7,11
5.46E+02,-8560,-32,2166,-471,-658,-820,1,7,11
5.46E+02,-8565,-26,2159,-797,-1076,-756,1,7,11
5.47E+02,-8513,-47,1927,-881,-971,-953,1,7,11
5.47E+02,-8471,-84,2034,-645,-1215,-1199,1,7,11
5.47E+02,-8148,-79,2321,-648,-1615,-1209,1,7,11
5.47E+02,-8170,94,2422,-696,-1421,-1394,1,7,11
5.48E+02,-8478,-263,2278,-686,-1498,-1310,1,7,11
5.48E+02,-8466,-294,2600,-867,-1830,-960,1,7,11
5.48E+02,-8128,-324,2635,-826,-1846,-1100,1,7,11
5.48E+02,-8068,-375,2450,-821,-1515,-761,1,7,11
5.49E+02,-8243,-153,2518,-825,-1663,-704,1,7,11
5.49E+02,-7885,-167,2833,-851,-1278,-660,1,7,11
5.49E+02,-7822,-196,2893,-654,-1375,-880,1,7,11
5.49E+02,-8050,-207,2690,-725,-949,-825,1,7,11
5.50E+02,-8016,-232,2726,-1066,-1060,-486,1,7,11
5.50E+02,-7952,-518,2725,-923,-676,-634,1,7,11
5.50E+02,-7643,-584,2727,-1335,-794,-525,1,7,11
5.50E+02,-7622,-412,2704,-1190,-402,-201,1,7,11
5.51E+02,-7635,-479,2942,-1211,-539,-203,1,7,11
5.51E+02,-7952,-808,2716,-1187,-165,-245,1,7,11
5.51E+02,-8000,-660,2749,-1398,-364,-566,1,7,11
5.51E+02,-7999,-1081,2756,-1360,-378,-450,1,7,11
5.52E+02,-8048,-1290,2792,-1320,-181,-748,1,7,11
5.52E+02,-7876,-1328,2793,-945,-578,-1391,1,7,11
5.52E+02,-8279,-1346,2788,-1117,-492,-1431,1,7,11
5.52E+02,-8105,-1314,2734,-760,-720,-1908,1,7,11
5.53E+02,-8162,-1005,2712,-761,-931,-1753,1,7,11
5.53E+02,-8086,-903,2883,-1096,-1379,-1894,1,7,11
5.53E+02,-8173,-1298,2910,-1009,-1195,-1434,1,7,11
5.53E+02,-8092,-1288,2888,-945,-1588,-1265,1,7,11
5.54E+02,-8164,-1014,2717,-937,-1568,-980,1,7,11
5.54E+02,-8186,-979,2794,-1098,-1601,-648,1,7,11
5.54E+02,-8143,-1141,3087,-747,-1611,-517,1,7,11
5.54E+02,-8102,-1107,3119,-687,-1278,-95,1,7,11
5.55E+02,-8261,-1053,3121,-793,-1163,529,1,7,11
5.55E+02,-7857,-763,3114,-614,-961,819,1,7,11
5.55E+02,-7943,-707,3099,-185,-668,1039,1,7,11
5.55E+02,-7612,-715,2974,-325,44,1353,1,7,11
5.56E+02,-7610,-747,3046,-316,318,1198,1,7,11
5.56E+02,-7657,-1037,3353,-314,529,1277,1,7,11
5.56E+02,-8005,-1017,3389,-299,395,1586,1,7,11
5.56E+02,-7976,-757,3450,-264,390,1604,1,7,11
5.57E+02,-8044,-693,3448,7,617,1606,1,7,11
5.57E+02,-8033,-894,3433,26,242,1605,1,7,11
5.57E+02,-7828,-813,3422,3,142,1601,1,7,11
5.57E+02,-7892,-441,3441,-275,310,1631,1,7,11
5.58E+02,-7888,-558,3397,-280,-54,1464,1,7,11
5.58E+02,-8264,-586,3402,-330,-66,1919,1,7,11
5.58E+02,-7864,-564,3066,-298,112,1699,1,7,11
5.58E+02,-7813,-594,3037,-261,123,1908,1,7,11
5.59E+02,-8011,-572,3030,-264,37,1512,1,7,11
5.59E+02,-7976,-233,2997,63,170,1588,1,7,11
5.59E+02,-7996,-343,2960,83,607,1218,1,7,11
5.59E+02,-7812,66,3186,72,787,1189,1,7,11
5.60E+02,-8051,-79,3121,25,640,1242,1,7,11
5.60E+02,-7996,274,2770,-322,1038,1561,1,7,11
5.60E+02,-8014,321,2712,-223,933,1637,1,7,11
5.60E+02,-7982,321,2911,-398,1287,1438,1,7,11
5.61E+02,-7975,312,2887,-840,1361,1424,1,7,11
5.61E+02,-8058,284,2920,-1029,1390,1602,1,7,11
5.61E+02,-7914,-21,2735,-955,1312,1231,1,7,11
5.61E+02,-8302,-122,3103,-1403,1103,1322,1,7,11
5.62E+02,-8128,-312,2989,-1577,497,765,1,7,11
5.62E+02,-8188,-520,3373,-1623,307,523,1,7,11
5.62E+02,-8188,-609,3427,-1249,-179,-148,1,7,11
5.62E+02,-8146,-253,3417,-1360,-811,-1048,1,7,11
5.63E+02,-8129,-283,3379,-1288,-755,-1233,1,7,11
5.63E+02,-8146,-47,3360,-1349,-1058,-1657,1,7,11
5.63E+02,-8135,374,3339,-1276,-744,-1275,1,7,11
5.63E+02,-8123,202,3328,-1517,-858,-937,1,7,11
5.64E+02,-8065,241,3024,-1739,-439,-471,1,7,11
5.64E+02,-7921,194,2966,-2176,-245,17,1,7,11
5.64E+02,-7996,304,3170,-2341,11,161,1,7,11
5.64E+02,-7630,-85,3163,-2410,296,392,1,7,11
5.65E+02,-7794,124,3146,-2423,567,806,1,7,11
5.65E+02,-7576,65,3177,-2429,820,692,1,7,11
5.65E+02,-7596,28,2944,-2419,733,764,1,7,11
5.65E+02,-7627,6,3193,-2388,1076,1042,1,7,11
5.66E+02,-7937,38,3192,-2347,1124,719,1,7,11
5.66E+02,-7963,103,3153,-2019,1107,856,1,7,11
5.66E+02,-7996,-122,3122,-2009,1103,430,1,7,11
5.66E+02,-7991,-106,3075,-1970,1079,183,1,7,11
5.67E+02,-8022,-67,2763,-2171,1096,94,1,7,11
5.67E+02,-8053,-16,2938,-2097,1120,-244,1,7,11
5.67E+02,-8042,301,2840,-1787,913,-770,1,7,11
5.67E+02,-8014,331,2503,-1773,996,-662,1,7,11
5.68E+02,-7963,316,2642,-1753,1361,-685,1,7,11
5.68E+02,-7663,266,2222,-1679,1549,-869,1,7,11
5.68E+02,-8012,-60,2374,-1529,1896,-449,1,7,11
5.68E+02,-8266,-98,2372,-1537,2323,-195,1,7,11
5.69E+02,-8493,-120,2377,-974,2633,-70,1,7,11
5.69E+02,-8521,51,2338,-721,2544,572,1,7,11
5.69E+02,-8469,-365,2310,-820,2889,850,1,7,11
5.69E+02,-8449,-244,2013,-398,2875,647,1,7,11
5.70E+02,-8460,-256,2155,-190,2504,778,1,7,11
5.70E+02,-8455,-179,1715,-268,2612,606,1,7,11
5.70E+02,-8477,-315,1498,91,2255,160,1,7,11
5.70E+02,-8499,72,1562,100,2206,271,1,7,11
5.71E+02,-8527,-105,1397,30,2242,-23,1,7,11
5.71E+02,-8567,-63,1011,-303,2600,262,1,7,11
5.71E+02,-8369,-65,950,-366,2479,347,1,7,11
5.71E+02,-8722,-122,945,-142,2554,179,1,7,11
5.72E+02,-8717,-127,1102,-347,2485,252,1,7,11
5.72E+02,-8421,-121,670,-318,2667,581,1,7,11
5.72E+02,-8412,-126,858,-307,2617,419,1,7,11
5.72E+02,-8470,66,844,-328,2300,777,1,7,11
5.73E+02,-8821,-283,845,-140,2197,852,1,7,11
5.73E+02,-8586,-351,807,-200,1968,874,1,7,11
5.73E+02,-8746,-350,426,-213,1895,751,1,7,11
5.73E+02,-8387,-310,539,-234,1223,619,1,7,11
5.74E+02,-8370,2,190,-571,1331,250,1,7,11
5.74E+02,-8372,55,370,-444,957,182,1,7,11
5.74E+02,-8377,-122,330,-642,1127,184,1,7,11
5.74E+02,-8558,-124,319,-1082,1029,520,1,7,11
5.75E+02,-8461,104,316,-965,694,566,1,7,11
5.75E+02,-8181,103,334,-1281,652,575,1,7,11
5.75E+02,-8453,122,360,-1298,877,614,1,7,11
5.75E+02,-8514,-120,144,-1300,841,421,1,7,11
5.76E+02,-8548,-120,169,-1313,774,510,1,7,11
5.76E+02,-8539,-95,170,-1325,430,856,1,7,11
5.76E+02,-8570,-26,136,-1350,622,702,1,7,11
5.76E+02,-8557,271,130,-1339,539,1072,1,7,11
5.77E+02,-8512,320,336,-1013,252,1138,1,7,11
5.77E+02,-8538,326,341,-953,548,938,1,7,11
5.77E+02,-8546,353,366,-1114,534,938,1,7,11
5.77E+02,-8550,192,351,-749,227,906,1,7,11
5.78E+02,-8549,540,335,-687,190,905,1,7,11
5.78E+02,-8563,387,303,-653,165,920,1,7,11
5.78E+02,-8356,444,305,-886,130,964,1,7,11
5.78E+02,-8323,465,277,-822,325,954,1,7,11
5.79E+02,-8576,481,297,-500,292,899,1,7,11
5.79E+02,-8569,489,305,-421,-27,1055,1,7,11
5.79E+02,-8524,791,280,-566,-96,678,1,7,11
5.79E+02,-8488,820,267,-215,-126,815,1,7,11
5.80E+02,-8469,842,263,-381,-127,434,1,7,11
5.80E+02,-8455,866,268,-287,-127,565,1,7,11
5.80E+02,-8176,888,260,56,-126,193,1,7,11
5.80E+02,-8173,640,279,115,-111,353,1,7,11
5.81E+02,-8166,649,293,-90,-100,269,1,7,11
5.81E+02,-8180,642,306,-57,-98,-75,1,7,11
5.81E+02,-8192,663,321,-34,-126,100,1,7,11
5.81E+02,-8188,722,304,-25,87,45,1,7,11
5.82E+02,-8180,1028,285,-43,69,32,1,7,11
5.82E+02,-8143,1094,263,-82,51,50,1,7,11
5.82E+02,-8085,900,-46,99,63,-125,1,7,11
5.82E+02,-8283,957,-91,-257,122,-57,1,7,11
5.83E+02,-8099,975,-51,-182,-36,-17,1,7,11
5.83E+02,-8520,948,304,-389,-32,279,1,7,11
5.83E+02,-8348,926,323,-857,35,298,1,7,11
5.83E+02,-8383,943,316,-1061,-196,282,1,7,11
5.84E+02,-8375,1021,268,-973,-395,324,1,7,11
5.84E+02,-8396,1009,305,-1161,-772,164,1,7,11
5.84E+02,-8544,1282,283,-1233,-865,244,1,7,11
5.84E+02,-8505,1402,271,-1567,-832,606,1,7,11
5.85E+02,-8475,1358,324,-1501,-481,814,1,7,11
5.85E+02,-8459,1001,148,-1500,-423,875,1,7,11
5.85E+02,-8154,1009,184,-1572,-436,782,1,7,11
5.85E+02,-8150,971,252,-1378,-429,426,1,7,11
5.86E+02,-8145,970,561,-908,-435,585,1,7,11
5.86E+02,-8139,983,606,-730,-455,524,1,7,11
5.86E+02,-8109,992,614,-855,-459,239,1,7,11
5.86E+02,-8103,969,391,-769,-420,208,1,7,11
5.87E+02,-8106,949,427,-449,-624,182,1,7,11
5.87E+02,-8077,904,452,-391,-567,148,1,7,11
5.87E+02,-8071,1119,474,-616,-216,340,1,7,11
5.87E+02,-8320,1094,488,-588,-129,272,1,7,11
5.88E+02,-8305,1038,504,-576,-290,-69,1,7,11
5.88E+02,-8317,733,812,-589,72,86,1,7,11
5.88E+02,-8118,652,642,-413,-109,-263,1,7,11
5.88E+02,-8118,869,888,-455,-125,-350,1,7,11
5.89E+02,-8091,643,866,-484,-122,-197,1,7,11
5.89E+02,-8137,764,878,-434,-72,-541,1,7,11
5.89E+02,-8156,1082,799,-425,-36,-218,1,7,11
5.89E+02,-8185,1081,769,-179,277,-382,1,7,11
5.90E+02,-8180,923,443,-88,314,-308,1,7,11
5.90E+02,-8132,934,417,164,377,109,1,7,11
5.90E+02,-8100,900,426,633,228,-27,1,7,11
5.90E+02,-8148,1141,436,834,557,-17,1,7,11
5.91E+02,-8478,1130,421,1054,533,122,1,7,11
5.91E+02,-8526,1129,398,1307,186,-369,1,7,11
5.91E+02,-8571,1289,567,1558,336,-405,1,7,11
5.91E+02,-8329,1335,548,1426,-11,-834,1,7,11
5.92E+02,-8574,1385,514,1434,-94,-860,1,7,11
5.92E+02,-8555,1396,221,1617,100,-789,1,7,11
5.92E+02,-8554,1362,234,1273,48,-418,1,7,11
5.92E+02,-8540,1316,241,1208,-281,-567,1,7,11
5.93E+02,-8532,1284,229,1167,-361,-229,1,7,11
5.93E+02,-8528,978,232,1386,-188,-181,1,7,11
5.93E+02,-8545,937,520,1345,-531,-180,1,7,11
5.93E+02,-8558,935,525,1303,-635,-171,1,7,11
5.94E+02,-8510,919,514,983,-477,-147,1,7,11
5.94E+02,-8488,896,518,914,-784,-138,1,7,11
5.94E+02,-8460,1142,531,1131,-817,-138,1,7,11
5.94E+02,-8166,1092,561,1141,-805,-158,1,7,11
5.95E+02,-8140,1077,631,1136,-500,-224,1,7,11
5.95E+02,-8097,981,620,1069,-512,-367,1,7,11
5.95E+02,-8464,991,402,834,-428,-13,1,7,11
5.95E+02,-8296,1116,399,491,-445,228,1,7,11
5.96E+02,-8097,1070,445,495,-561,210,1,7,11
5.96E+02,-8127,1060,474,793,-514,139,1,7,11
5.96E+02,-8129,1055,464,882,-240,-45,1,7,11
5.96E+02,-8188,896,449,707,-227,-268,1,7,11
5.97E+02,-8472,964,435,664,-236,-383,1,7,11
5.97E+02,-8479,993,450,814,-227,-163,1,7,11
5.97E+02,-8485,997,466,430,-218,-168,1,7,11
5.97E+02,-8468,988,469,573,-214,-156,1,7,11
5.98E+02,-8450,963,476,224,-195,-156,1,7,11
5.98E+02,-8174,930,489,149,-163,-168,1,7,11
5.98E+02,-8178,898,505,339,-373,-190,1,7,11
5.98E+02,-8191,1111,797,285,-339,-213,1,7,11
5.99E+02,-8468,1055,821,-3,-315,-517,1,7,11
5.99E+02,-8480,1025,839,-6,-314,-533,1,7,11
5.99E+02,-8494,738,867,256,-313,-539,1,7,11
5.99E+02,-8489,696,874,279,-320,-537,1,7,11
6.00E+02,-8486,654,885,326,-319,-539,1,7,11
6.00E+02,-8491,641,641,134,-307,-532,1,7,11
6.00E+02,-8473,877,895,179,-293,-236,1,7,11
6.00E+02,-8452,834,894,212,-261,-199,1,7,11
6.01E+02,-8467,801,663,250,31,-182,1,7,11
6.01E+02,-8481,812,680,548,38,-157,1,7,11
6.01E+02,-8476,813,679,571,25,-374,1,7,11
6.01E+02,-8460,822,676,639,14,-373,1,7,11
6.02E+02,-8187,849,662,446,11,-376,1,7,11
6.02E+02,-8183,873,642,479,31,-337,1,7,11
6.02E+02,-8177,865,895,482,55,-284,1,7,11
6.02E+02,-8186,875,646,492,81,9,1,7,11
6.03E+02,-8470,646,884,486,96,60,1,7,11
6.03E+02,-8480,664,876,466,86,119,1,7,11
6.03E+02,-8492,694,861,463,77,-96,1,7,11
6.03E+02,-8480,706,856,433,58,-66,1,7,11
6.04E+02,-8473,707,852,400,49,-61,1,7,11
6.04E+02,-8483,715,851,617,48,-77,1,7,11
6.04E+02,-8483,743,852,563,40,-88,1,7,11
6.04E+02,-8097,1095,506,245,24,-50,1,7,11
6.05E+02,-8552,760,857,-31,-112,276,1,7,11
6.05E+02,-8185,737,820,-16,-274,303,1,7,11
6.05E+02,-8483,719,843,-91,40,-35,1,7,11
6.05E+02,-8449,643,852,-121,40,117,1,7,11
6.06E+02,-8189,887,865,-71,31,-58,1,7,11
6.06E+02,-8503,875,892,-53,58,-208,1,7,11
6.06E+02,-8545,863,657,-77,35,-591,1,7,11
6.06E+02,-8558,888,661,-60,-303,-448,1,7,11
6.07E+02,-8561,673,645,-83,-182,-486,1,7,11
6.07E+02,-8528,690,872,87,-266,-450,1,7,11
6.07E+02,-8516,704,880,-298,-550,-386,1,7,11
6.07E+02,-8495,651,891,-525,-584,-573,1,7,11
6.08E+02,-8189,877,886,-476,-635,-577,1,7,11
6.08E+02,-8150,881,894,-718,-636,-606,1,7,11
6.08E+02,-8163,871,652,-1076,-591,-630,1,7,11
6.08E+02,-8468,879,690,-1110,-530,-627,1,7,11
6.09E+02,-8495,884,716,-1128,-230,-549,1,7,11
6.09E+02,-8498,834,752,-1128,-196,-193,1,7,11
6.09E+02,-8470,785,1029,-1062,-168,-376,1,7,11
6.09E+02,-8520,455,1093,300,-18,6,1,7,11
6.10E+02,-8525,474,1070,381,-65,0,1,7,11
6.10E+02,-8537,784,1043,589,80,-284,1,7,11
6.10E+02,-8512,807,1041,598,46,12,1,7,11
6.10E+02,-8491,829,1037,602,26,59,1,7,11
6.11E+02,-8463,845,1028,593,27,123,1,7,11
6.11E+02,-8181,820,1052,561,44,-83,1,7,11
6.11E+02,-8167,804,1063,555,52,-81,1,7,11
6.11E+02,-8148,800,1068,525,48,-101,1,7,11
6.12E+02,-8152,797,1066,194,61,-128,1,7,11
6.12E+02,-8170,785,1075,343,52,88,1,7,11
6.12E+02,-8460,781,1087,-31,37,8,1,7,11
6.12E+02,-8502,805,1079,85,13,-322,1,7,11
6.13E+02,-8528,860,1037,-343,-287,-360,1,7,11
6.13E+02,-8534,853,1030,-592,-307,-342,1,7,11
6.13E+02,-8542,794,1062,-808,-297,-298,1,7,11
6.13E+02,-8528,479,1087,-672,-279,30,1,7,11
6.14E+02,-8512,445,1090,-687,33,-115,1,7,11
6.14E+02,-8479,628,1109,-874,113,283,1,7,11
6.14E+02,-8484,567,1114,-477,-27,365,1,7,11
6.14E+02,-8496,218,1148,-559,308,156,1,7,11
6.15E+02,-8519,136,902,15,337,331,1,7,11
6.15E+02,-8521,187,1144,188,329,-124,1,7,11
6.15E+02,-8465,615,896,481,301,-297,1,7,11
6.15E+02,-8422,445,1108,450,342,-363,1,7,11
6.16E+02,-8404,432,1123,500,63,-350,1,7,11
6.16E+02,-8348,791,1039,814,-139,-621,1,7,11
6.16E+02,-8407,668,743,484,-554,-475,1,7,11
6.16E+02,-8350,655,712,629,-483,-828,1,7,11
6.17E+02,-8544,717,663,581,-834,-706,1,7,11
6.17E+02,-8504,743,662,232,-874,-1059,1,7,11
6.17E+02,-8190,724,711,364,-885,-1111,1,7,11
6.17E+02,-8464,860,1055,-45,-828,-1113,1,7,11
6.18E+02,-8164,461,1119,65,-796,-1056,1,7,11
6.18E+02,-8173,618,926,21,-769,-1079,1,7,11
6.18E+02,-8177,248,965,35,-460,-1068,1,7,11
6.18E+02,-8156,162,983,-121,-634,-1065,1,7,11
6.19E+02,-8141,351,1014,-35,-542,-1038,1,7,11
6.19E+02,-8144,352,1299,320,-181,-716,1,7,11
6.19E+02,-8467,329,1313,360,-319,-833,1,7,11
6.19E+02,-8110,366,1307,206,-280,-390,1,7,11
6.20E+02,-8508,368,1337,206,-115,-239,1,7,11
6.20E+02,-8503,369,1352,543,101,-276,1,7,11
6.20E+02,-8471,341,1362,616,90,79,1,7,11
6.20E+02,-8512,377,1377,442,64,110,1,7,11
6.21E+02,-8516,150,1367,471,-265,-113,1,7,11
6.21E+02,-8529,163,1365,465,-311,-126,1,7,11
6.21E+02,-8531,172,1368,476,-367,96,1,7,11
6.21E+02,-8500,175,1363,505,-144,49,1,7,11
6.22E+02,-8479,200,1344,803,-133,-264,1,7,11
6.22E+02,-8488,178,1348,817,-367,-317,1,7,11
6.22E+02,-8481,175,1344,857,-356,-376,1,7,11
6.22E+02,-8461,198,1313,864,-336,-152,1,7,11
6.23E+02,-8468,131,1328,808,-296,-166,1,7,11
6.23E+02,-8489,299,1348,833,0,-232,1,7,11
6.23E+02,-8506,-6,1364,670,3,-602,1,7,11
6.23E+02,-8523,-48,1381,1024,-268,-484,1,7,11
6.24E+02,-8540,-66,1374,950,-363,-749,1,7,11
6.24E+02,-8537,-108,1366,961,-169,-1107,1,7,11
6.24E+02,-8523,116,1376,973,-233,-964,1,7,11
6.24E+02,-8512,81,1386,965,-550,-1321,1,7,11
6.25E+02,-8554,57,1170,949,-594,-1384,1,7,11
6.25E+02,-8558,9,1207,939,-415,-1402,1,7,11
6.25E+02,-8546,-286,1233,971,-480,-1378,1,7,11
6.25E+02,-8511,-288,1235,1284,-496,-1308,1,7,11
6.26E+02,-8497,-319,1251,1325,-467,-922,1,7,11
6.26E+02,-8475,-375,1542,1157,-412,-1043,1,7,11
6.26E+02,-8184,-135,1598,1546,-583,-646,1,7,11
6.26E+02,-8181,-207,1649,1427,-217,-497,1,7,11
6.27E+02,-8119,-238,1648,1890,-380,-577,1,7,11
6.27E+02,-8312,-532,1656,2085,2,-185,1,7,11
6.27E+02,-8309,-616,1424,1963,118,-370,1,7,11
6.27E+02,-8276,-396,1415,2384,127,-338,1,7,11
6.28E+02,-8142,-560,1659,2203,-87,-360,1,7,11
6.28E+02,-8479,-439,1518,2182,55,-333,1,7,11
6.28E+02,-8482,-460,1800,2586,-152,-238,1,7,11
6.28E+02,-8530,-599,1817,2475,-426,-455,1,7,11
6.29E+02,-8370,-433,1893,2597,-752,-717,1,7,11
6.29E+02,-8440,-464,1861,2564,-1236,-1171,1,7,11
6.29E+02,-8725,-182,1467,2608,-1706,-1914,1,7,11
6.29E+02,-8436,20,1573,2196,-1960,-2109,1,7,11
6.30E+02,-8380,106,1235,2328,-2016,-2144,1,7,11
6.30E+02,-8482,14,1197,2024,-2160,-2161,1,7,11
6.30E+02,-8082,-239,1223,2004,-1863,-1998,1,7,11
6.30E+02,-8315,43,1581,1993,-1197,-2322,1,7,11
6.31E+02,-8097,26,1435,2136,-1037,-2005,1,7,11
6.31E+02,-8154,-268,1800,1729,-431,-2059,1,7,11
6.31E+02,-8457,-352,1912,1523,-155,-1513,1,7,11
6.31E+02,-8189,-374,1707,1610,13,-1223,1,7,11
6.32E+02,-8492,-548,2096,1346,-56,-826,1,7,11
6.32E+02,-8167,-637,2144,915,-14,-545,1,7,11
6.32E+02,-8161,-473,1957,717,307,-305,1,7,11
6.32E+02,-8139,-782,1984,839,337,-97,1,7,11
6.33E+02,-8098,-806,2015,474,358,357,1,7,11
6.33E+02,-8105,-847,2309,574,131,546,1,7,11
6.33E+02,-8084,-894,2310,231,136,445,1,7,11
6.33E+02,-8076,-680,2041,248,129,495,1,7,11
6.34E+02,-8265,-667,2022,573,378,453,1,7,11
6.34E+02,-8279,-666,2030,617,141,638,1,7,11
6.34E+02,-8266,-685,2025,620,365,562,1,7,11
6.34E+02,-8252,-704,2023,626,315,192,1,7,11
6.35E+02,-8262,-698,2024,622,266,305,1,7,11
6.35E+02,-8271,-677,2026,396,-73,-120,1,7,11
6.35E+02,-8294,-669,2025,414,99,-280,1,7,11
6.35E+02,-8305,-647,2021,421,10,-167,1,7,11
6.36E+02,-8092,-658,2363,591,-342,-580,1,7,11
6.36E+02,-8210,-1071,2405,371,-514,-801,1,7,11
6.36E+02,-8490,-1077,2387,287,-834,-1138,1,7,11
6.36E+02,-8547,-728,2327,285,-941,-1254,1,7,11
6.37E+02,-8493,-503,1940,304,-1239,-1409,1,7,11
6.37E+02,-8469,-458,2158,-102,-1578,-1661,1,7,11
6.37E+02,-8451,-475,2167,13,-1565,-1625,1,7,11
6.37E+02,-8094,-446,2148,-301,-1241,-1554,1,7,11
6.38E+02,-8319,-448,1926,-162,-1009,-1173,1,7,11
6.38E+02,-8315,-793,2008,-544,-1036,-995,1,7,11
6.38E+02,-8297,-644,2361,-613,-839,-1076,1,7,11
6.38E+02,-8296,-720,2188,-607,-429,-683,1,7,11
6.39E+02,-8278,-749,2258,-590,-587,-809,1,7,11
6.39E+02,-8272,-1046,2325,-594,-247,-419,1,7,11
6.39E+02,-8300,-1118,2584,-625,-199,-536,1,7,11
6.39E+02,-8234,-1093,2612,-594,-175,-377,1,7,11
6.40E+02,-8249,-979,2645,-591,-355,-300,1,7,11
6.40E+02,-7906,-1329,2638,-206,-359,-377,1,7,11
6.40E+02,-7845,-1335,2637,-337,-298,-566,1,7,11
6.40E+02,-7851,-1325,2650,-264,-258,-393,1,7,11
6.41E+02,-7872,-1330,2644,-261,17,-437,1,7,11
6.41E+02,-7885,-1353,2651,-268,27,-445,1,7,11
6.41E+02,-7883,-1363,2629,-269,30,-430,1,7,11
6.41E+02,-7882,-1384,2639,-298,55,-386,1,7,11
6.42E+02,-7884,-1159,2621,-313,90,-583,1,7,11
6.42E+02,-7869,-1159,2597,-318,-115,-241,1,7,11
6.42E+02,-7883,-1192,2564,-303,-26,-133,1,7,11
6.42E+02,-7876,-1193,2265,13,342,-270,1,7,11
6.43E+02,-7910,-1408,2247,72,243,-96,1,7,11
6.43E+02,-8195,-1346,2199,-115,408,163,1,7,11
6.43E+02,-8225,-1362,2379,-77,871,481,1,7,11
6.43E+02,-8214,-1181,2023,-11,1111,1024,1,7,11
6.44E+02,-7862,-1166,2164,135,1377,921,1,7,11
6.44E+02,-7864,-1364,2094,228,1459,1010,1,7,11
6.44E+02,-7930,-1333,2085,562,1737,1370,1,7,11
6.44E+02,-8292,-1324,2138,637,2171,1189,1,7,11
6.45E+02,-8167,-1309,1989,443,1938,1259,1,7,11
6.45E+02,-8470,-1009,2047,487,1766,1585,1,7,11
6.45E+02,-8475,-968,2320,461,1532,1421,1,7,11
6.45E+02,-8512,-1123,2043,447,1542,1482,1,7,11
6.46E+02,-8524,-756,2007,390,1006,1815,1,7,11
6.46E+02,-8537,-678,1967,544,754,1883,1,7,11
6.46E+02,-8521,-656,1940,140,505,1912,1,7,11
6.46E+02,-8482,-863,2147,273,529,1845,1,7,11
6.47E+02,-8490,-822,2121,-82,335,1415,1,7,11
6.47E+02,-8515,-781,2111,-124,-125,1403,1,7,11
6.47E+02,-8518,-463,2070,-106,-346,1079,1,7,11
6.47E+02,-8491,-245,1741,-57,-531,505,1,7,11
6.48E+02,-8419,-324,1720,122,-615,617,1,7,11
